"trial_type","trial_index","time_elapsed","internal_node_id","subject_id","study_id","session_id","rt","response","stimulus","success","item","task","correct_response","testing_condition","correct","target","confound","name"
"pavlovia","0","1300","0.0-0.0","60fd0f49858465796afd5da9","650c16f0f2faf8d7a0d14c09","651c1c358a8e7e17c975e0dd","","","","","","","","","","","",""
"survey-html-form","1","8592","0.0-1.0","60fd0f49858465796afd5da9","650c16f0f2faf8d7a0d14c09","651c1c358a8e7e17c975e0dd","7290","{""ID"":""60fd0f49858465796afd5da9""}","","","","","","","","","",""
"html-keyboard-response","2","67141","0.0-2.0","60fd0f49858465796afd5da9","650c16f0f2faf8d7a0d14c09","651c1c358a8e7e17c975e0dd","58547"," ","<p style=""font-size: 15px;"">Before beginning, we ask that you read the consent information and confirm your agreement to participate in the experiment.</p>
      <p style=""font-size: 15px;""> We ask that you remember that this is a research project and that your participation is entirely voluntary. You can stop your participation at any time, without needing to provide any explanation. The study we're asking you to participate in aims at examining how readers process written words. You will be engaged in a session of apprximately 20 minutes, followed by a brief questionnaire. You will have the opportunity to take a few breaks during the experiment. You will be paid £4 for your participation, corresponding to a rate of £8/hour. While this experiment looks at cognitive faculties, this experiment doesn't constitute clinical proof of eventual pathologies.</p>
      <p style=""font-size: 15px;"">All of the information collected thanks to yours and others' participation will be held in a secure password-protected server, and will not be shared with anyone not authorised to view it. Your personal information will be kept with an arbitrary participant ID. Thanks to this data anonymity process, any researcher analysing the data won't be able to track the information back to a specific participant. Therefore, this process will make identifying you impossibile, even when results from the study will be published in scientific reviews, presented at congresses, or at any other public forum. More generally, the collected data will be treated in accordance with the laws on privacy and conformity to the Legislative Degree n. 196 ""Code regarding the protection of personal data"" of the 30th of June 2003 and to the European Regulation 2016/670 (General Data Protection Regulation - GDPR). The Data Protection Officer is Avv. Valentina Carollo, who can be contacted at the following email addresses: <a href=""mailto:dpo@sissa.it"">dpo@sissa.it</a> or <a href=""mailto:rpd@sissa.it"">rpd@sissa.it</a> - PEC: <a href=""mailto:protocollo@pec.sissa.it"">protocollo@pec.sissa.it</a>.</p>
      <p style=""font-size: 15px;""> Before expressing your consent to participate, we would like to remind you again that in case you need explanations on any aspect of the experimental procedure, the researcher is at your disposition (<a href=""mailto:aliebelt@sissa.it"">aliebelt@sissa.it</a>, <a href=""mailto:davide.crepaldi@sissa.it"">davide.crepaldi@sissa.it</a>).</p>
      <p style=""font-size: 15px;"">If you would like to download the informed consent form, you can do so here: <a href=""BASL-Informed_Consent.pdf"" download>informed consent form</a>.</p>
      <p style=""font-size: 15px;"">We ask that you press the spacebar to proceed to the consent section.</p>","","","","","","","","",""
"survey-html-form","3","95008","0.0-3.0","60fd0f49858465796afd5da9","650c16f0f2faf8d7a0d14c09","651c1c358a8e7e17c975e0dd","27866","{""consent1"":""YES"",""consent2"":""YES"",""consent3"":""YES"",""consent4"":""YES"",""consent5"":""YES"",""consent6"":""YES""}","","","","","","","","","",""
"fullscreen","4","102560","0.0-4.0","60fd0f49858465796afd5da9","650c16f0f2faf8d7a0d14c09","651c1c358a8e7e17c975e0dd","","","","true","","","","","","","",""
"html-keyboard-response","5","128419","0.0-5.0","60fd0f49858465796afd5da9","650c16f0f2faf8d7a0d14c09","651c1c358a8e7e17c975e0dd","25857"," ","<p>Welcome, and thank you very much for your time!</p>
      <p>In this experiment, you'll be a language expert who's been asked to take a look at words that Earth has received in its first communication with aliens. Your task, in this first part of the experiment, is to pay close attention to the words you'll be shown; later, world leaders will ask you questions on what you saw. The words will be shown to you quite quickly; it seems that the aliens were in a hurry :-)</p>
      <p>Press the spacebar to continue.<p>","","","","","","","","",""
"html-keyboard-response","6","128470","0.0-6.0","60fd0f49858465796afd5da9","650c16f0f2faf8d7a0d14c09","651c1c358a8e7e17c975e0dd","null","null","<p style=""font-size: 120px; font-family: BACS""> </p>","","","","","","","","",""
"html-keyboard-response","7","136683","0.0-7.0","60fd0f49858465796afd5da9","650c16f0f2faf8d7a0d14c09","651c1c358a8e7e17c975e0dd","8212"," ","<p>Here is an example of the words you'll see:</p>
      <img src='esempio.png' height='400px'>
      <p>When you're ready to begin, press the spacebar.</p></div>","","","","","","","","",""
"html-keyboard-response","8","137686","0.0-8.0-0.0","60fd0f49858465796afd5da9","650c16f0f2faf8d7a0d14c09","651c1c358a8e7e17c975e0dd","null","null","<p style=""font-size: 60px; font-family: BACS"">bcbMAPT</p>","","","","","","","","",""
"html-keyboard-response","9","138702","0.0-8.0-0.1","60fd0f49858465796afd5da9","650c16f0f2faf8d7a0d14c09","651c1c358a8e7e17c975e0dd","null","null","<p style=""font-size: 60px; font-family: BACS"">kabJbAld</p>","","","","","","","","",""
"html-keyboard-response","10","139718","0.0-8.0-0.2","60fd0f49858465796afd5da9","650c16f0f2faf8d7a0d14c09","651c1c358a8e7e17c975e0dd","null","null","<p style=""font-size: 60px; font-family: BACS"">rvAJYmb</p>","","","","","","","","",""
"html-keyboard-response","11","140720","0.0-8.0-0.3","60fd0f49858465796afd5da9","650c16f0f2faf8d7a0d14c09","651c1c358a8e7e17c975e0dd","null","null","<p style=""font-size: 60px; font-family: BACS"">mrOdAld</p>","","","","","","","","",""
"html-keyboard-response","12","141735","0.0-8.0-0.4","60fd0f49858465796afd5da9","650c16f0f2faf8d7a0d14c09","651c1c358a8e7e17c975e0dd","null","null","<p style=""font-size: 60px; font-family: BACS"">TEBKPMYm</p>","","","","","","","","",""
"html-keyboard-response","13","142752","0.0-8.0-0.5","60fd0f49858465796afd5da9","650c16f0f2faf8d7a0d14c09","651c1c358a8e7e17c975e0dd","null","null","<p style=""font-size: 60px; font-family: BACS"">TdTDAPT</p>","","","","","","","","",""
"html-keyboard-response","14","143753","0.0-8.0-0.6","60fd0f49858465796afd5da9","650c16f0f2faf8d7a0d14c09","651c1c358a8e7e17c975e0dd","null","null","<p style=""font-size: 60px; font-family: BACS"">cRElDCkbd</p>","","","","","","","","",""
"html-keyboard-response","15","144769","0.0-8.0-0.7","60fd0f49858465796afd5da9","650c16f0f2faf8d7a0d14c09","651c1c358a8e7e17c975e0dd","null","null","<p style=""font-size: 60px; font-family: BACS"">UJmrkGua</p>","","","","","","","","",""
"html-keyboard-response","16","145771","0.0-8.0-0.8","60fd0f49858465796afd5da9","650c16f0f2faf8d7a0d14c09","651c1c358a8e7e17c975e0dd","null","null","<p style=""font-size: 60px; font-family: BACS"">Qcladuda</p>","","","","","","","","",""
"html-keyboard-response","17","146785","0.0-8.0-0.9","60fd0f49858465796afd5da9","650c16f0f2faf8d7a0d14c09","651c1c358a8e7e17c975e0dd","null","null","<p style=""font-size: 60px; font-family: BACS"">hCktPMYm</p>","","","","","","","","",""
"html-keyboard-response","18","147802","0.0-8.0-0.10","60fd0f49858465796afd5da9","650c16f0f2faf8d7a0d14c09","651c1c358a8e7e17c975e0dd","null","null","<p style=""font-size: 60px; font-family: BACS"">bcORTRK</p>","","","","","","","","",""
"html-keyboard-response","19","148803","0.0-8.0-0.11","60fd0f49858465796afd5da9","650c16f0f2faf8d7a0d14c09","651c1c358a8e7e17c975e0dd","null","null","<p style=""font-size: 60px; font-family: BACS"">LuNZkYL</p>","","","","","","","","",""
"html-keyboard-response","20","149805","0.0-8.0-0.12","60fd0f49858465796afd5da9","650c16f0f2faf8d7a0d14c09","651c1c358a8e7e17c975e0dd","null","null","<p style=""font-size: 60px; font-family: BACS"">UdumdkGua</p>","","","","","","","","",""
"html-keyboard-response","21","150819","0.0-8.0-0.13","60fd0f49858465796afd5da9","650c16f0f2faf8d7a0d14c09","651c1c358a8e7e17c975e0dd","null","null","<p style=""font-size: 60px; font-family: BACS"">bcbMTmc</p>","","","","","","","","",""
"html-keyboard-response","22","151821","0.0-8.0-0.14","60fd0f49858465796afd5da9","650c16f0f2faf8d7a0d14c09","651c1c358a8e7e17c975e0dd","null","null","<p style=""font-size: 60px; font-family: BACS"">rvAJAld</p>","","","","","","","","",""
"html-keyboard-response","23","152836","0.0-8.0-0.15","60fd0f49858465796afd5da9","650c16f0f2faf8d7a0d14c09","651c1c358a8e7e17c975e0dd","null","null","<p style=""font-size: 60px; font-family: BACS"">TEBKTmc</p>","","","","","","","","",""
"html-keyboard-response","24","153853","0.0-8.0-0.16","60fd0f49858465796afd5da9","650c16f0f2faf8d7a0d14c09","651c1c358a8e7e17c975e0dd","null","null","<p style=""font-size: 60px; font-family: BACS"">vJabkYL</p>","","","","","","","","",""
"html-keyboard-response","25","154854","0.0-8.0-0.17","60fd0f49858465796afd5da9","650c16f0f2faf8d7a0d14c09","651c1c358a8e7e17c975e0dd","null","null","<p style=""font-size: 60px; font-family: BACS"">blMkPMYm</p>","","","","","","","","",""
"html-keyboard-response","26","155870","0.0-8.0-0.18","60fd0f49858465796afd5da9","650c16f0f2faf8d7a0d14c09","651c1c358a8e7e17c975e0dd","null","null","<p style=""font-size: 60px; font-family: BACS"">vJabkGua</p>","","","","","","","","",""
"html-keyboard-response","27","156886","0.0-8.0-0.19","60fd0f49858465796afd5da9","650c16f0f2faf8d7a0d14c09","651c1c358a8e7e17c975e0dd","null","null","<p style=""font-size: 60px; font-family: BACS"">LuNZAld</p>","","","","","","","","",""
"html-keyboard-response","28","157901","0.0-8.0-0.20","60fd0f49858465796afd5da9","650c16f0f2faf8d7a0d14c09","651c1c358a8e7e17c975e0dd","null","null","<p style=""font-size: 60px; font-family: BACS"">blMkTRK</p>","","","","","","","","",""
"html-keyboard-response","29","158904","0.0-8.0-0.21","60fd0f49858465796afd5da9","650c16f0f2faf8d7a0d14c09","651c1c358a8e7e17c975e0dd","null","null","<p style=""font-size: 60px; font-family: BACS"">bcORAPT</p>","","","","","","","","",""
"html-keyboard-response","30","159913","0.0-8.0-0.22","60fd0f49858465796afd5da9","650c16f0f2faf8d7a0d14c09","651c1c358a8e7e17c975e0dd","null","null","<p style=""font-size: 60px; font-family: BACS"">BlmclPMYm</p>","","","","","","","","",""
"html-keyboard-response","31","160919","0.0-8.0-0.23","60fd0f49858465796afd5da9","650c16f0f2faf8d7a0d14c09","651c1c358a8e7e17c975e0dd","null","null","<p style=""font-size: 60px; font-family: BACS"">hCktTmc</p>","","","","","","","","",""
"html-keyboard-response","32","161936","0.0-8.0-0.24","60fd0f49858465796afd5da9","650c16f0f2faf8d7a0d14c09","651c1c358a8e7e17c975e0dd","null","null","<p style=""font-size: 60px; font-family: BACS"">LuaUkGua</p>","","","","","","","","",""
"html-keyboard-response","33","162951","0.0-8.0-0.25","60fd0f49858465796afd5da9","650c16f0f2faf8d7a0d14c09","651c1c358a8e7e17c975e0dd","null","null","<p style=""font-size: 60px; font-family: BACS"">hCktTRK</p>","","","","","","","","",""
"html-keyboard-response","34","163953","0.0-8.0-0.26","60fd0f49858465796afd5da9","650c16f0f2faf8d7a0d14c09","651c1c358a8e7e17c975e0dd","null","null","<p style=""font-size: 60px; font-family: BACS"">vkYGlkYL</p>","","","","","","","","",""
"html-keyboard-response","35","164970","0.0-8.0-0.27","60fd0f49858465796afd5da9","650c16f0f2faf8d7a0d14c09","651c1c358a8e7e17c975e0dd","null","null","<p style=""font-size: 60px; font-family: BACS"">blMkTmc</p>","","","","","","","","",""
"html-keyboard-response","36","165986","0.0-8.0-0.28","60fd0f49858465796afd5da9","650c16f0f2faf8d7a0d14c09","651c1c358a8e7e17c975e0dd","null","null","<p style=""font-size: 60px; font-family: BACS"">hCktAPT</p>","","","","","","","","",""
"html-keyboard-response","37","167001","0.0-8.0-0.29","60fd0f49858465796afd5da9","650c16f0f2faf8d7a0d14c09","651c1c358a8e7e17c975e0dd","null","null","<p style=""font-size: 60px; font-family: BACS"">UJmrYmb</p>","","","","","","","","",""
"html-keyboard-response","38","168003","0.0-8.0-0.30","60fd0f49858465796afd5da9","650c16f0f2faf8d7a0d14c09","651c1c358a8e7e17c975e0dd","null","null","<p style=""font-size: 60px; font-family: BACS"">vJabAld</p>","","","","","","","","",""
"html-keyboard-response","39","169020","0.0-8.0-0.31","60fd0f49858465796afd5da9","650c16f0f2faf8d7a0d14c09","651c1c358a8e7e17c975e0dd","null","null","<p style=""font-size: 60px; font-family: BACS"">vkYGluda</p>","","","","","","","","",""
"html-keyboard-response","40","170035","0.0-8.0-0.32","60fd0f49858465796afd5da9","650c16f0f2faf8d7a0d14c09","651c1c358a8e7e17c975e0dd","null","null","<p style=""font-size: 60px; font-family: BACS"">PMPtkTRK</p>","","","","","","","","",""
"html-keyboard-response","41","171037","0.0-8.0-0.33","60fd0f49858465796afd5da9","650c16f0f2faf8d7a0d14c09","651c1c358a8e7e17c975e0dd","null","null","<p style=""font-size: 60px; font-family: BACS"">cRElDTmc</p>","","","","","","","","",""
"html-keyboard-response","42","172052","0.0-8.0-0.34","60fd0f49858465796afd5da9","650c16f0f2faf8d7a0d14c09","651c1c358a8e7e17c975e0dd","null","null","<p style=""font-size: 60px; font-family: BACS"">vkYGlYmb</p>","","","","","","","","",""
"html-keyboard-response","43","173069","0.0-8.0-0.35","60fd0f49858465796afd5da9","650c16f0f2faf8d7a0d14c09","651c1c358a8e7e17c975e0dd","null","null","<p style=""font-size: 60px; font-family: BACS"">UJmrkYL</p>","","","","","","","","",""
"html-keyboard-response","44","174080","0.0-8.0-0.36","60fd0f49858465796afd5da9","650c16f0f2faf8d7a0d14c09","651c1c358a8e7e17c975e0dd","null","null","<p style=""font-size: 60px; font-family: BACS"">LuNZYmb</p>","","","","","","","","",""
"html-keyboard-response","45","175088","0.0-8.0-0.37","60fd0f49858465796afd5da9","650c16f0f2faf8d7a0d14c09","651c1c358a8e7e17c975e0dd","null","null","<p style=""font-size: 60px; font-family: BACS"">UJmrAld</p>","","","","","","","","",""
"html-keyboard-response","46","176103","0.0-8.0-0.38","60fd0f49858465796afd5da9","650c16f0f2faf8d7a0d14c09","651c1c358a8e7e17c975e0dd","null","null","<p style=""font-size: 60px; font-family: BACS"">BbODTmc</p>","","","","","","","","",""
"html-keyboard-response","47","177118","0.0-8.0-0.39","60fd0f49858465796afd5da9","650c16f0f2faf8d7a0d14c09","651c1c358a8e7e17c975e0dd","null","null","<p style=""font-size: 60px; font-family: BACS"">Udumduda</p>","","","","","","","","",""
"html-keyboard-response","48","178134","0.0-8.0-0.40","60fd0f49858465796afd5da9","650c16f0f2faf8d7a0d14c09","651c1c358a8e7e17c975e0dd","null","null","<p style=""font-size: 60px; font-family: BACS"">kabJbYmb</p>","","","","","","","","",""
"html-keyboard-response","49","179137","0.0-8.0-0.41","60fd0f49858465796afd5da9","650c16f0f2faf8d7a0d14c09","651c1c358a8e7e17c975e0dd","null","null","<p style=""font-size: 60px; font-family: BACS"">LuaUkYL</p>","","","","","","","","",""
"html-keyboard-response","50","180152","0.0-8.0-0.42","60fd0f49858465796afd5da9","650c16f0f2faf8d7a0d14c09","651c1c358a8e7e17c975e0dd","null","null","<p style=""font-size: 60px; font-family: BACS"">vkYGlAld</p>","","","","","","","","",""
"html-keyboard-response","51","181155","0.0-8.0-0.43","60fd0f49858465796afd5da9","650c16f0f2faf8d7a0d14c09","651c1c358a8e7e17c975e0dd","null","null","<p style=""font-size: 60px; font-family: BACS"">bcbMTRK</p>","","","","","","","","",""
"html-keyboard-response","52","182158","0.0-8.0-0.44","60fd0f49858465796afd5da9","650c16f0f2faf8d7a0d14c09","651c1c358a8e7e17c975e0dd","null","null","<p style=""font-size: 60px; font-family: BACS"">BbODAPT</p>","","","","","","","","",""
"html-keyboard-response","53","183169","0.0-8.0-0.45","60fd0f49858465796afd5da9","650c16f0f2faf8d7a0d14c09","651c1c358a8e7e17c975e0dd","null","null","<p style=""font-size: 60px; font-family: BACS"">bcORCkbd</p>","","","","","","","","",""
"html-keyboard-response","54","184184","0.0-8.0-0.46","60fd0f49858465796afd5da9","650c16f0f2faf8d7a0d14c09","651c1c358a8e7e17c975e0dd","null","null","<p style=""font-size: 60px; font-family: BACS"">mrOduda</p>","","","","","","","","",""
"html-keyboard-response","55","185186","0.0-8.0-0.47","60fd0f49858465796afd5da9","650c16f0f2faf8d7a0d14c09","651c1c358a8e7e17c975e0dd","null","null","<p style=""font-size: 60px; font-family: BACS"">bcORPMYm</p>","","","","","","","","",""
"html-keyboard-response","56","186202","0.0-8.0-0.48","60fd0f49858465796afd5da9","650c16f0f2faf8d7a0d14c09","651c1c358a8e7e17c975e0dd","null","null","<p style=""font-size: 60px; font-family: BACS"">BlmclAPT</p>","","","","","","","","",""
"html-keyboard-response","57","187218","0.0-8.0-0.49","60fd0f49858465796afd5da9","650c16f0f2faf8d7a0d14c09","651c1c358a8e7e17c975e0dd","null","null","<p style=""font-size: 60px; font-family: BACS"">UdumdYmb</p>","","","","","","","","",""
"html-keyboard-response","58","188221","0.0-8.0-0.50","60fd0f49858465796afd5da9","650c16f0f2faf8d7a0d14c09","651c1c358a8e7e17c975e0dd","null","null","<p style=""font-size: 60px; font-family: BACS"">mrOdkYL</p>","","","","","","","","",""
"html-keyboard-response","59","189235","0.0-8.0-0.51","60fd0f49858465796afd5da9","650c16f0f2faf8d7a0d14c09","651c1c358a8e7e17c975e0dd","null","null","<p style=""font-size: 60px; font-family: BACS"">PMPtkTmc</p>","","","","","","","","",""
"html-keyboard-response","60","190236","0.0-8.0-0.52","60fd0f49858465796afd5da9","650c16f0f2faf8d7a0d14c09","651c1c358a8e7e17c975e0dd","null","null","<p style=""font-size: 60px; font-family: BACS"">rvAJkYL</p>","","","","","","","","",""
"html-keyboard-response","61","191253","0.0-8.0-0.53","60fd0f49858465796afd5da9","650c16f0f2faf8d7a0d14c09","651c1c358a8e7e17c975e0dd","null","null","<p style=""font-size: 60px; font-family: BACS"">BbODCkbd</p>","","","","","","","","",""
"html-keyboard-response","62","192269","0.0-8.0-0.54","60fd0f49858465796afd5da9","650c16f0f2faf8d7a0d14c09","651c1c358a8e7e17c975e0dd","null","null","<p style=""font-size: 60px; font-family: BACS"">BlmclTmc</p>","","","","","","","","",""
"html-keyboard-response","63","193285","0.0-8.0-0.55","60fd0f49858465796afd5da9","650c16f0f2faf8d7a0d14c09","651c1c358a8e7e17c975e0dd","null","null","<p style=""font-size: 60px; font-family: BACS"">cRElDPMYm</p>","","","","","","","","",""
"html-keyboard-response","64","194302","0.0-8.0-0.56","60fd0f49858465796afd5da9","650c16f0f2faf8d7a0d14c09","651c1c358a8e7e17c975e0dd","null","null","<p style=""font-size: 60px; font-family: BACS"">blMkCkbd</p>","","","","","","","","",""
"html-keyboard-response","65","195304","0.0-8.0-0.57","60fd0f49858465796afd5da9","650c16f0f2faf8d7a0d14c09","651c1c358a8e7e17c975e0dd","null","null","<p style=""font-size: 60px; font-family: BACS"">TdTDPMYm</p>","","","","","","","","",""
"html-keyboard-response","66","196320","0.0-8.0-0.58","60fd0f49858465796afd5da9","650c16f0f2faf8d7a0d14c09","651c1c358a8e7e17c975e0dd","null","null","<p style=""font-size: 60px; font-family: BACS"">TEBKAPT</p>","","","","","","","","",""
"html-keyboard-response","67","197336","0.0-8.0-0.59","60fd0f49858465796afd5da9","650c16f0f2faf8d7a0d14c09","651c1c358a8e7e17c975e0dd","null","null","<p style=""font-size: 60px; font-family: BACS"">LuaUuda</p>","","","","","","","","",""
"html-keyboard-response","68","198351","0.0-8.0-0.60","60fd0f49858465796afd5da9","650c16f0f2faf8d7a0d14c09","651c1c358a8e7e17c975e0dd","null","null","<p style=""font-size: 60px; font-family: BACS"">mrOdkGua</p>","","","","","","","","",""
"html-keyboard-response","69","199353","0.0-8.0-0.61","60fd0f49858465796afd5da9","650c16f0f2faf8d7a0d14c09","651c1c358a8e7e17c975e0dd","null","null","<p style=""font-size: 60px; font-family: BACS"">PMPtkAPT</p>","","","","","","","","",""
"html-keyboard-response","70","200370","0.0-8.0-0.62","60fd0f49858465796afd5da9","650c16f0f2faf8d7a0d14c09","651c1c358a8e7e17c975e0dd","null","null","<p style=""font-size: 60px; font-family: BACS"">bcbMCkbd</p>","","","","","","","","",""
"html-keyboard-response","71","201384","0.0-8.0-0.63","60fd0f49858465796afd5da9","650c16f0f2faf8d7a0d14c09","651c1c358a8e7e17c975e0dd","null","null","<p style=""font-size: 60px; font-family: BACS"">QcladYmb</p>","","","","","","","","",""
"html-keyboard-response","72","202401","0.0-8.0-0.64","60fd0f49858465796afd5da9","650c16f0f2faf8d7a0d14c09","651c1c358a8e7e17c975e0dd","null","null","<p style=""font-size: 60px; font-family: BACS"">TdTDTRK</p>","","","","","","","","",""
"html-keyboard-response","73","203402","0.0-8.0-0.65","60fd0f49858465796afd5da9","650c16f0f2faf8d7a0d14c09","651c1c358a8e7e17c975e0dd","null","null","<p style=""font-size: 60px; font-family: BACS"">kabJbuda</p>","","","","","","","","",""
"html-keyboard-response","74","204418","0.0-8.0-0.66","60fd0f49858465796afd5da9","650c16f0f2faf8d7a0d14c09","651c1c358a8e7e17c975e0dd","null","null","<p style=""font-size: 60px; font-family: BACS"">QcladkGua</p>","","","","","","","","",""
"html-keyboard-response","75","205420","0.0-8.0-0.67","60fd0f49858465796afd5da9","650c16f0f2faf8d7a0d14c09","651c1c358a8e7e17c975e0dd","null","null","<p style=""font-size: 60px; font-family: BACS"">BlmclTRK</p>","","","","","","","","",""
"html-keyboard-response","76","206436","0.0-8.0-0.68","60fd0f49858465796afd5da9","650c16f0f2faf8d7a0d14c09","651c1c358a8e7e17c975e0dd","null","null","<p style=""font-size: 60px; font-family: BACS"">TdTDCkbd</p>","","","","","","","","",""
"html-keyboard-response","77","207452","0.0-8.0-0.69","60fd0f49858465796afd5da9","650c16f0f2faf8d7a0d14c09","651c1c358a8e7e17c975e0dd","null","null","<p style=""font-size: 60px; font-family: BACS"">vJabuda</p>","","","","","","","","",""
"html-keyboard-response","78","208468","0.0-8.0-0.70","60fd0f49858465796afd5da9","650c16f0f2faf8d7a0d14c09","651c1c358a8e7e17c975e0dd","null","null","<p style=""font-size: 60px; font-family: BACS"">kabJbkGua</p>","","","","","","","","",""
"html-keyboard-response","79","209470","0.0-8.0-0.71","60fd0f49858465796afd5da9","650c16f0f2faf8d7a0d14c09","651c1c358a8e7e17c975e0dd","null","null","<p style=""font-size: 60px; font-family: BACS"">cRElDTRK</p>","","","","","","","","",""
"html-keyboard-response","80","210485","0.0-8.0-0.72","60fd0f49858465796afd5da9","650c16f0f2faf8d7a0d14c09","651c1c358a8e7e17c975e0dd","null","null","<p style=""font-size: 60px; font-family: BACS"">PMPtkCkbd</p>","","","","","","","","",""
"html-keyboard-response","81","211501","0.0-8.0-0.73","60fd0f49858465796afd5da9","650c16f0f2faf8d7a0d14c09","651c1c358a8e7e17c975e0dd","null","null","<p style=""font-size: 60px; font-family: BACS"">UdumdAld</p>","","","","","","","","",""
"html-keyboard-response","82","212504","0.0-8.0-0.74","60fd0f49858465796afd5da9","650c16f0f2faf8d7a0d14c09","651c1c358a8e7e17c975e0dd","null","null","<p style=""font-size: 60px; font-family: BACS"">LuaUYmb</p>","","","","","","","","",""
"html-keyboard-response","83","213519","0.0-8.0-0.75","60fd0f49858465796afd5da9","650c16f0f2faf8d7a0d14c09","651c1c358a8e7e17c975e0dd","null","null","<p style=""font-size: 60px; font-family: BACS"">TEBKCkbd</p>","","","","","","","","",""
"html-keyboard-response","84","214521","0.0-8.0-0.76","60fd0f49858465796afd5da9","650c16f0f2faf8d7a0d14c09","651c1c358a8e7e17c975e0dd","null","null","<p style=""font-size: 60px; font-family: BACS"">LuNZuda</p>","","","","","","","","",""
"html-keyboard-response","85","215522","0.0-8.0-0.77","60fd0f49858465796afd5da9","650c16f0f2faf8d7a0d14c09","651c1c358a8e7e17c975e0dd","null","null","<p style=""font-size: 60px; font-family: BACS"">QcladkYL</p>","","","","","","","","",""
"html-keyboard-response","86","216535","0.0-8.0-0.78","60fd0f49858465796afd5da9","650c16f0f2faf8d7a0d14c09","651c1c358a8e7e17c975e0dd","null","null","<p style=""font-size: 60px; font-family: BACS"">BbODPMYm</p>","","","","","","","","",""
"html-keyboard-response","87","217552","0.0-8.0-0.79","60fd0f49858465796afd5da9","650c16f0f2faf8d7a0d14c09","651c1c358a8e7e17c975e0dd","null","null","<p style=""font-size: 60px; font-family: BACS"">rvAJkGua</p>","","","","","","","","",""
"html-keyboard-response","88","269922","0.0-9.0","60fd0f49858465796afd5da9","650c16f0f2faf8d7a0d14c09","651c1c358a8e7e17c975e0dd","52370"," ","<p>Great, you've seen the first block of words. You may now take a short break.</p>
      <p>Press the spacebar when you're ready to continue.</p>","","","","","","","","",""
"html-keyboard-response","89","270933","0.0-10.0-0.0","60fd0f49858465796afd5da9","650c16f0f2faf8d7a0d14c09","651c1c358a8e7e17c975e0dd","null","null","<p style=""font-size: 60px; font-family: BACS"">BbODTmc</p>","","","","","","","","",""
"html-keyboard-response","90","271948","0.0-10.0-0.1","60fd0f49858465796afd5da9","650c16f0f2faf8d7a0d14c09","651c1c358a8e7e17c975e0dd","null","null","<p style=""font-size: 60px; font-family: BACS"">hCktTRK</p>","","","","","","","","",""
"html-keyboard-response","91","272950","0.0-10.0-0.2","60fd0f49858465796afd5da9","650c16f0f2faf8d7a0d14c09","651c1c358a8e7e17c975e0dd","null","null","<p style=""font-size: 60px; font-family: BACS"">BbODPMYm</p>","","","","","","","","",""
"html-keyboard-response","92","273966","0.0-10.0-0.3","60fd0f49858465796afd5da9","650c16f0f2faf8d7a0d14c09","651c1c358a8e7e17c975e0dd","null","null","<p style=""font-size: 60px; font-family: BACS"">vJabkGua</p>","","","","","","","","",""
"html-keyboard-response","93","274979","0.0-10.0-0.4","60fd0f49858465796afd5da9","650c16f0f2faf8d7a0d14c09","651c1c358a8e7e17c975e0dd","null","null","<p style=""font-size: 60px; font-family: BACS"">BbODAPT</p>","","","","","","","","",""
"html-keyboard-response","94","275983","0.0-10.0-0.5","60fd0f49858465796afd5da9","650c16f0f2faf8d7a0d14c09","651c1c358a8e7e17c975e0dd","null","null","<p style=""font-size: 60px; font-family: BACS"">hCktTmc</p>","","","","","","","","",""
"html-keyboard-response","95","276998","0.0-10.0-0.6","60fd0f49858465796afd5da9","650c16f0f2faf8d7a0d14c09","651c1c358a8e7e17c975e0dd","null","null","<p style=""font-size: 60px; font-family: BACS"">PMPtkTRK</p>","","","","","","","","",""
"html-keyboard-response","96","278016","0.0-10.0-0.7","60fd0f49858465796afd5da9","650c16f0f2faf8d7a0d14c09","651c1c358a8e7e17c975e0dd","null","null","<p style=""font-size: 60px; font-family: BACS"">rvAJYmb</p>","","","","","","","","",""
"html-keyboard-response","97","279032","0.0-10.0-0.8","60fd0f49858465796afd5da9","650c16f0f2faf8d7a0d14c09","651c1c358a8e7e17c975e0dd","null","null","<p style=""font-size: 60px; font-family: BACS"">vkYGlkYL</p>","","","","","","","","",""
"html-keyboard-response","98","280034","0.0-10.0-0.9","60fd0f49858465796afd5da9","650c16f0f2faf8d7a0d14c09","651c1c358a8e7e17c975e0dd","null","null","<p style=""font-size: 60px; font-family: BACS"">mrOdAld</p>","","","","","","","","",""
"html-keyboard-response","99","281048","0.0-10.0-0.10","60fd0f49858465796afd5da9","650c16f0f2faf8d7a0d14c09","651c1c358a8e7e17c975e0dd","null","null","<p style=""font-size: 60px; font-family: BACS"">blMkCkbd</p>","","","","","","","","",""
"html-keyboard-response","100","282065","0.0-10.0-0.11","60fd0f49858465796afd5da9","650c16f0f2faf8d7a0d14c09","651c1c358a8e7e17c975e0dd","null","null","<p style=""font-size: 60px; font-family: BACS"">UdumdkGua</p>","","","","","","","","",""
"html-keyboard-response","101","283081","0.0-10.0-0.12","60fd0f49858465796afd5da9","650c16f0f2faf8d7a0d14c09","651c1c358a8e7e17c975e0dd","null","null","<p style=""font-size: 60px; font-family: BACS"">PMPtkTmc</p>","","","","","","","","",""
"html-keyboard-response","102","284083","0.0-10.0-0.13","60fd0f49858465796afd5da9","650c16f0f2faf8d7a0d14c09","651c1c358a8e7e17c975e0dd","null","null","<p style=""font-size: 60px; font-family: BACS"">LuNZuda</p>","","","","","","","","",""
"html-keyboard-response","103","285100","0.0-10.0-0.14","60fd0f49858465796afd5da9","650c16f0f2faf8d7a0d14c09","651c1c358a8e7e17c975e0dd","null","null","<p style=""font-size: 60px; font-family: BACS"">rvAJAld</p>","","","","","","","","",""
"html-keyboard-response","104","286115","0.0-10.0-0.15","60fd0f49858465796afd5da9","650c16f0f2faf8d7a0d14c09","651c1c358a8e7e17c975e0dd","null","null","<p style=""font-size: 60px; font-family: BACS"">vJabkYL</p>","","","","","","","","",""
"html-keyboard-response","105","287130","0.0-10.0-0.16","60fd0f49858465796afd5da9","650c16f0f2faf8d7a0d14c09","651c1c358a8e7e17c975e0dd","null","null","<p style=""font-size: 60px; font-family: BACS"">TdTDAPT</p>","","","","","","","","",""
"html-keyboard-response","106","288147","0.0-10.0-0.17","60fd0f49858465796afd5da9","650c16f0f2faf8d7a0d14c09","651c1c358a8e7e17c975e0dd","null","null","<p style=""font-size: 60px; font-family: BACS"">bcORTRK</p>","","","","","","","","",""
"html-keyboard-response","107","289148","0.0-10.0-0.18","60fd0f49858465796afd5da9","650c16f0f2faf8d7a0d14c09","651c1c358a8e7e17c975e0dd","null","null","<p style=""font-size: 60px; font-family: BACS"">cRElDCkbd</p>","","","","","","","","",""
"html-keyboard-response","108","290165","0.0-10.0-0.19","60fd0f49858465796afd5da9","650c16f0f2faf8d7a0d14c09","651c1c358a8e7e17c975e0dd","null","null","<p style=""font-size: 60px; font-family: BACS"">BlmclTRK</p>","","","","","","","","",""
"html-keyboard-response","109","291182","0.0-10.0-0.20","60fd0f49858465796afd5da9","650c16f0f2faf8d7a0d14c09","651c1c358a8e7e17c975e0dd","null","null","<p style=""font-size: 60px; font-family: BACS"">cRElDTmc</p>","","","","","","","","",""
"html-keyboard-response","110","292198","0.0-10.0-0.21","60fd0f49858465796afd5da9","650c16f0f2faf8d7a0d14c09","651c1c358a8e7e17c975e0dd","null","null","<p style=""font-size: 60px; font-family: BACS"">vkYGlAld</p>","","","","","","","","",""
"html-keyboard-response","111","293200","0.0-10.0-0.22","60fd0f49858465796afd5da9","650c16f0f2faf8d7a0d14c09","651c1c358a8e7e17c975e0dd","null","null","<p style=""font-size: 60px; font-family: BACS"">BbODCkbd</p>","","","","","","","","",""
"html-keyboard-response","112","294216","0.0-10.0-0.23","60fd0f49858465796afd5da9","650c16f0f2faf8d7a0d14c09","651c1c358a8e7e17c975e0dd","null","null","<p style=""font-size: 60px; font-family: BACS"">mrOdkYL</p>","","","","","","","","",""
"html-keyboard-response","113","295231","0.0-10.0-0.24","60fd0f49858465796afd5da9","650c16f0f2faf8d7a0d14c09","651c1c358a8e7e17c975e0dd","null","null","<p style=""font-size: 60px; font-family: BACS"">rvAJkGua</p>","","","","","","","","",""
"html-keyboard-response","114","296246","0.0-10.0-0.25","60fd0f49858465796afd5da9","650c16f0f2faf8d7a0d14c09","651c1c358a8e7e17c975e0dd","null","null","<p style=""font-size: 60px; font-family: BACS"">QcladkYL</p>","","","","","","","","",""
"html-keyboard-response","115","297249","0.0-10.0-0.26","60fd0f49858465796afd5da9","650c16f0f2faf8d7a0d14c09","651c1c358a8e7e17c975e0dd","null","null","<p style=""font-size: 60px; font-family: BACS"">vJabuda</p>","","","","","","","","",""
"html-keyboard-response","116","298266","0.0-10.0-0.27","60fd0f49858465796afd5da9","650c16f0f2faf8d7a0d14c09","651c1c358a8e7e17c975e0dd","null","null","<p style=""font-size: 60px; font-family: BACS"">bcORAPT</p>","","","","","","","","",""
"html-keyboard-response","117","299267","0.0-10.0-0.28","60fd0f49858465796afd5da9","650c16f0f2faf8d7a0d14c09","651c1c358a8e7e17c975e0dd","null","null","<p style=""font-size: 60px; font-family: BACS"">cRElDPMYm</p>","","","","","","","","",""
"html-keyboard-response","118","300281","0.0-10.0-0.29","60fd0f49858465796afd5da9","650c16f0f2faf8d7a0d14c09","651c1c358a8e7e17c975e0dd","null","null","<p style=""font-size: 60px; font-family: BACS"">LuaUuda</p>","","","","","","","","",""
"html-keyboard-response","119","301283","0.0-10.0-0.30","60fd0f49858465796afd5da9","650c16f0f2faf8d7a0d14c09","651c1c358a8e7e17c975e0dd","null","null","<p style=""font-size: 60px; font-family: BACS"">vkYGlYmb</p>","","","","","","","","",""
"html-keyboard-response","120","302299","0.0-10.0-0.31","60fd0f49858465796afd5da9","650c16f0f2faf8d7a0d14c09","651c1c358a8e7e17c975e0dd","null","null","<p style=""font-size: 60px; font-family: BACS"">BlmclTmc</p>","","","","","","","","",""
"html-keyboard-response","121","303315","0.0-10.0-0.32","60fd0f49858465796afd5da9","650c16f0f2faf8d7a0d14c09","651c1c358a8e7e17c975e0dd","null","null","<p style=""font-size: 60px; font-family: BACS"">LuaUkYL</p>","","","","","","","","",""
"html-keyboard-response","122","304331","0.0-10.0-0.33","60fd0f49858465796afd5da9","650c16f0f2faf8d7a0d14c09","651c1c358a8e7e17c975e0dd","null","null","<p style=""font-size: 60px; font-family: BACS"">TdTDTRK</p>","","","","","","","","",""
"html-keyboard-response","123","305333","0.0-10.0-0.34","60fd0f49858465796afd5da9","650c16f0f2faf8d7a0d14c09","651c1c358a8e7e17c975e0dd","null","null","<p style=""font-size: 60px; font-family: BACS"">BlmclAPT</p>","","","","","","","","",""
"html-keyboard-response","124","306348","0.0-10.0-0.35","60fd0f49858465796afd5da9","650c16f0f2faf8d7a0d14c09","651c1c358a8e7e17c975e0dd","null","null","<p style=""font-size: 60px; font-family: BACS"">vJabAld</p>","","","","","","","","",""
"html-keyboard-response","125","307364","0.0-10.0-0.36","60fd0f49858465796afd5da9","650c16f0f2faf8d7a0d14c09","651c1c358a8e7e17c975e0dd","null","null","<p style=""font-size: 60px; font-family: BACS"">blMkTmc</p>","","","","","","","","",""
"html-keyboard-response","126","308380","0.0-10.0-0.37","60fd0f49858465796afd5da9","650c16f0f2faf8d7a0d14c09","651c1c358a8e7e17c975e0dd","null","null","<p style=""font-size: 60px; font-family: BACS"">Qcladuda</p>","","","","","","","","",""
"html-keyboard-response","127","309384","0.0-10.0-0.38","60fd0f49858465796afd5da9","650c16f0f2faf8d7a0d14c09","651c1c358a8e7e17c975e0dd","null","null","<p style=""font-size: 60px; font-family: BACS"">kabJbAld</p>","","","","","","","","",""
"html-keyboard-response","128","310398","0.0-10.0-0.39","60fd0f49858465796afd5da9","650c16f0f2faf8d7a0d14c09","651c1c358a8e7e17c975e0dd","null","null","<p style=""font-size: 60px; font-family: BACS"">bcbMAPT</p>","","","","","","","","",""
"html-keyboard-response","129","311415","0.0-10.0-0.40","60fd0f49858465796afd5da9","650c16f0f2faf8d7a0d14c09","651c1c358a8e7e17c975e0dd","null","null","<p style=""font-size: 60px; font-family: BACS"">Udumduda</p>","","","","","","","","",""
"html-keyboard-response","130","312430","0.0-10.0-0.41","60fd0f49858465796afd5da9","650c16f0f2faf8d7a0d14c09","651c1c358a8e7e17c975e0dd","null","null","<p style=""font-size: 60px; font-family: BACS"">TEBKTmc</p>","","","","","","","","",""
"html-keyboard-response","131","313431","0.0-10.0-0.42","60fd0f49858465796afd5da9","650c16f0f2faf8d7a0d14c09","651c1c358a8e7e17c975e0dd","null","null","<p style=""font-size: 60px; font-family: BACS"">PMPtkAPT</p>","","","","","","","","",""
"html-keyboard-response","132","314447","0.0-10.0-0.43","60fd0f49858465796afd5da9","650c16f0f2faf8d7a0d14c09","651c1c358a8e7e17c975e0dd","null","null","<p style=""font-size: 60px; font-family: BACS"">mrOdkGua</p>","","","","","","","","",""
"html-keyboard-response","133","315464","0.0-10.0-0.44","60fd0f49858465796afd5da9","650c16f0f2faf8d7a0d14c09","651c1c358a8e7e17c975e0dd","null","null","<p style=""font-size: 60px; font-family: BACS"">LuNZYmb</p>","","","","","","","","",""
"html-keyboard-response","134","316481","0.0-10.0-0.45","60fd0f49858465796afd5da9","650c16f0f2faf8d7a0d14c09","651c1c358a8e7e17c975e0dd","null","null","<p style=""font-size: 60px; font-family: BACS"">UdumdAld</p>","","","","","","","","",""
"html-keyboard-response","135","317487","0.0-10.0-0.46","60fd0f49858465796afd5da9","650c16f0f2faf8d7a0d14c09","651c1c358a8e7e17c975e0dd","null","null","<p style=""font-size: 60px; font-family: BACS"">mrOduda</p>","","","","","","","","",""
"html-keyboard-response","136","318497","0.0-10.0-0.47","60fd0f49858465796afd5da9","650c16f0f2faf8d7a0d14c09","651c1c358a8e7e17c975e0dd","null","null","<p style=""font-size: 60px; font-family: BACS"">bcORPMYm</p>","","","","","","","","",""
"html-keyboard-response","137","319502","0.0-10.0-0.48","60fd0f49858465796afd5da9","650c16f0f2faf8d7a0d14c09","651c1c358a8e7e17c975e0dd","null","null","<p style=""font-size: 60px; font-family: BACS"">UJmrkYL</p>","","","","","","","","",""
"html-keyboard-response","138","320514","0.0-10.0-0.49","60fd0f49858465796afd5da9","650c16f0f2faf8d7a0d14c09","651c1c358a8e7e17c975e0dd","null","null","<p style=""font-size: 60px; font-family: BACS"">kabJbkGua</p>","","","","","","","","",""
"html-keyboard-response","139","321520","0.0-10.0-0.50","60fd0f49858465796afd5da9","650c16f0f2faf8d7a0d14c09","651c1c358a8e7e17c975e0dd","null","null","<p style=""font-size: 60px; font-family: BACS"">bcORCkbd</p>","","","","","","","","",""
"html-keyboard-response","140","322532","0.0-10.0-0.51","60fd0f49858465796afd5da9","650c16f0f2faf8d7a0d14c09","651c1c358a8e7e17c975e0dd","null","null","<p style=""font-size: 60px; font-family: BACS"">LuNZkYL</p>","","","","","","","","",""
"html-keyboard-response","141","323548","0.0-10.0-0.52","60fd0f49858465796afd5da9","650c16f0f2faf8d7a0d14c09","651c1c358a8e7e17c975e0dd","null","null","<p style=""font-size: 60px; font-family: BACS"">kabJbuda</p>","","","","","","","","",""
"html-keyboard-response","142","324549","0.0-10.0-0.53","60fd0f49858465796afd5da9","650c16f0f2faf8d7a0d14c09","651c1c358a8e7e17c975e0dd","null","null","<p style=""font-size: 60px; font-family: BACS"">TEBKAPT</p>","","","","","","","","",""
"html-keyboard-response","143","325564","0.0-10.0-0.54","60fd0f49858465796afd5da9","650c16f0f2faf8d7a0d14c09","651c1c358a8e7e17c975e0dd","null","null","<p style=""font-size: 60px; font-family: BACS"">cRElDTRK</p>","","","","","","","","",""
"html-keyboard-response","144","326568","0.0-10.0-0.55","60fd0f49858465796afd5da9","650c16f0f2faf8d7a0d14c09","651c1c358a8e7e17c975e0dd","null","null","<p style=""font-size: 60px; font-family: BACS"">rvAJkYL</p>","","","","","","","","",""
"html-keyboard-response","145","327582","0.0-10.0-0.56","60fd0f49858465796afd5da9","650c16f0f2faf8d7a0d14c09","651c1c358a8e7e17c975e0dd","null","null","<p style=""font-size: 60px; font-family: BACS"">UJmrkGua</p>","","","","","","","","",""
"html-keyboard-response","146","328598","0.0-10.0-0.57","60fd0f49858465796afd5da9","650c16f0f2faf8d7a0d14c09","651c1c358a8e7e17c975e0dd","null","null","<p style=""font-size: 60px; font-family: BACS"">bcbMTmc</p>","","","","","","","","",""
"html-keyboard-response","147","329614","0.0-10.0-0.58","60fd0f49858465796afd5da9","650c16f0f2faf8d7a0d14c09","651c1c358a8e7e17c975e0dd","null","null","<p style=""font-size: 60px; font-family: BACS"">UJmrYmb</p>","","","","","","","","",""
"html-keyboard-response","148","330618","0.0-10.0-0.59","60fd0f49858465796afd5da9","650c16f0f2faf8d7a0d14c09","651c1c358a8e7e17c975e0dd","null","null","<p style=""font-size: 60px; font-family: BACS"">hCktAPT</p>","","","","","","","","",""
"html-keyboard-response","149","331635","0.0-10.0-0.60","60fd0f49858465796afd5da9","650c16f0f2faf8d7a0d14c09","651c1c358a8e7e17c975e0dd","null","null","<p style=""font-size: 60px; font-family: BACS"">PMPtkCkbd</p>","","","","","","","","",""
"html-keyboard-response","150","332650","0.0-10.0-0.61","60fd0f49858465796afd5da9","650c16f0f2faf8d7a0d14c09","651c1c358a8e7e17c975e0dd","null","null","<p style=""font-size: 60px; font-family: BACS"">LuNZAld</p>","","","","","","","","",""
"html-keyboard-response","151","333667","0.0-10.0-0.62","60fd0f49858465796afd5da9","650c16f0f2faf8d7a0d14c09","651c1c358a8e7e17c975e0dd","null","null","<p style=""font-size: 60px; font-family: BACS"">TdTDPMYm</p>","","","","","","","","",""
"html-keyboard-response","152","334668","0.0-10.0-0.63","60fd0f49858465796afd5da9","650c16f0f2faf8d7a0d14c09","651c1c358a8e7e17c975e0dd","null","null","<p style=""font-size: 60px; font-family: BACS"">UJmrAld</p>","","","","","","","","",""
"html-keyboard-response","153","335682","0.0-10.0-0.64","60fd0f49858465796afd5da9","650c16f0f2faf8d7a0d14c09","651c1c358a8e7e17c975e0dd","null","null","<p style=""font-size: 60px; font-family: BACS"">TEBKCkbd</p>","","","","","","","","",""
"html-keyboard-response","154","336685","0.0-10.0-0.65","60fd0f49858465796afd5da9","650c16f0f2faf8d7a0d14c09","651c1c358a8e7e17c975e0dd","null","null","<p style=""font-size: 60px; font-family: BACS"">LuaUYmb</p>","","","","","","","","",""
"html-keyboard-response","155","337701","0.0-10.0-0.66","60fd0f49858465796afd5da9","650c16f0f2faf8d7a0d14c09","651c1c358a8e7e17c975e0dd","null","null","<p style=""font-size: 60px; font-family: BACS"">bcbMTRK</p>","","","","","","","","",""
"html-keyboard-response","156","338718","0.0-10.0-0.67","60fd0f49858465796afd5da9","650c16f0f2faf8d7a0d14c09","651c1c358a8e7e17c975e0dd","null","null","<p style=""font-size: 60px; font-family: BACS"">UdumdYmb</p>","","","","","","","","",""
"html-keyboard-response","157","339734","0.0-10.0-0.68","60fd0f49858465796afd5da9","650c16f0f2faf8d7a0d14c09","651c1c358a8e7e17c975e0dd","null","null","<p style=""font-size: 60px; font-family: BACS"">blMkTRK</p>","","","","","","","","",""
"html-keyboard-response","158","340750","0.0-10.0-0.69","60fd0f49858465796afd5da9","650c16f0f2faf8d7a0d14c09","651c1c358a8e7e17c975e0dd","null","null","<p style=""font-size: 60px; font-family: BACS"">hCktPMYm</p>","","","","","","","","",""
"html-keyboard-response","159","341765","0.0-10.0-0.70","60fd0f49858465796afd5da9","650c16f0f2faf8d7a0d14c09","651c1c358a8e7e17c975e0dd","null","null","<p style=""font-size: 60px; font-family: BACS"">QcladkGua</p>","","","","","","","","",""
"html-keyboard-response","160","342782","0.0-10.0-0.71","60fd0f49858465796afd5da9","650c16f0f2faf8d7a0d14c09","651c1c358a8e7e17c975e0dd","null","null","<p style=""font-size: 60px; font-family: BACS"">bcbMCkbd</p>","","","","","","","","",""
"html-keyboard-response","161","343785","0.0-10.0-0.72","60fd0f49858465796afd5da9","650c16f0f2faf8d7a0d14c09","651c1c358a8e7e17c975e0dd","null","null","<p style=""font-size: 60px; font-family: BACS"">vkYGluda</p>","","","","","","","","",""
"html-keyboard-response","162","344801","0.0-10.0-0.73","60fd0f49858465796afd5da9","650c16f0f2faf8d7a0d14c09","651c1c358a8e7e17c975e0dd","null","null","<p style=""font-size: 60px; font-family: BACS"">BlmclPMYm</p>","","","","","","","","",""
"html-keyboard-response","163","345816","0.0-10.0-0.74","60fd0f49858465796afd5da9","650c16f0f2faf8d7a0d14c09","651c1c358a8e7e17c975e0dd","null","null","<p style=""font-size: 60px; font-family: BACS"">QcladYmb</p>","","","","","","","","",""
"html-keyboard-response","164","346819","0.0-10.0-0.75","60fd0f49858465796afd5da9","650c16f0f2faf8d7a0d14c09","651c1c358a8e7e17c975e0dd","null","null","<p style=""font-size: 60px; font-family: BACS"">TEBKPMYm</p>","","","","","","","","",""
"html-keyboard-response","165","347833","0.0-10.0-0.76","60fd0f49858465796afd5da9","650c16f0f2faf8d7a0d14c09","651c1c358a8e7e17c975e0dd","null","null","<p style=""font-size: 60px; font-family: BACS"">kabJbYmb</p>","","","","","","","","",""
"html-keyboard-response","166","348835","0.0-10.0-0.77","60fd0f49858465796afd5da9","650c16f0f2faf8d7a0d14c09","651c1c358a8e7e17c975e0dd","null","null","<p style=""font-size: 60px; font-family: BACS"">LuaUkGua</p>","","","","","","","","",""
"html-keyboard-response","167","349847","0.0-10.0-0.78","60fd0f49858465796afd5da9","650c16f0f2faf8d7a0d14c09","651c1c358a8e7e17c975e0dd","null","null","<p style=""font-size: 60px; font-family: BACS"">blMkPMYm</p>","","","","","","","","",""
"html-keyboard-response","168","350852","0.0-10.0-0.79","60fd0f49858465796afd5da9","650c16f0f2faf8d7a0d14c09","651c1c358a8e7e17c975e0dd","null","null","<p style=""font-size: 60px; font-family: BACS"">TdTDCkbd</p>","","","","","","","","",""
"html-keyboard-response","169","401906","0.0-11.0","60fd0f49858465796afd5da9","650c16f0f2faf8d7a0d14c09","651c1c358a8e7e17c975e0dd","51055"," ","<p>Great, you've seen the second block of words. You may now take a short break.</p>
      <p>Press the spacebar when you're ready to continue.</p>","","","","","","","","",""
"html-keyboard-response","170","402914","0.0-12.0-0.0","60fd0f49858465796afd5da9","650c16f0f2faf8d7a0d14c09","651c1c358a8e7e17c975e0dd","null","null","<p style=""font-size: 60px; font-family: BACS"">TEBKTmc</p>","","","","","","","","",""
"html-keyboard-response","171","403925","0.0-12.0-0.1","60fd0f49858465796afd5da9","650c16f0f2faf8d7a0d14c09","651c1c358a8e7e17c975e0dd","null","null","<p style=""font-size: 60px; font-family: BACS"">mrOdkYL</p>","","","","","","","","",""
"html-keyboard-response","172","404931","0.0-12.0-0.2","60fd0f49858465796afd5da9","650c16f0f2faf8d7a0d14c09","651c1c358a8e7e17c975e0dd","null","null","<p style=""font-size: 60px; font-family: BACS"">TdTDCkbd</p>","","","","","","","","",""
"html-keyboard-response","173","405947","0.0-12.0-0.3","60fd0f49858465796afd5da9","650c16f0f2faf8d7a0d14c09","651c1c358a8e7e17c975e0dd","null","null","<p style=""font-size: 60px; font-family: BACS"">rvAJYmb</p>","","","","","","","","",""
"html-keyboard-response","174","406963","0.0-12.0-0.4","60fd0f49858465796afd5da9","650c16f0f2faf8d7a0d14c09","651c1c358a8e7e17c975e0dd","null","null","<p style=""font-size: 60px; font-family: BACS"">LuNZuda</p>","","","","","","","","",""
"html-keyboard-response","175","407979","0.0-12.0-0.5","60fd0f49858465796afd5da9","650c16f0f2faf8d7a0d14c09","651c1c358a8e7e17c975e0dd","null","null","<p style=""font-size: 60px; font-family: BACS"">vkYGlAld</p>","","","","","","","","",""
"html-keyboard-response","176","408981","0.0-12.0-0.6","60fd0f49858465796afd5da9","650c16f0f2faf8d7a0d14c09","651c1c358a8e7e17c975e0dd","null","null","<p style=""font-size: 60px; font-family: BACS"">UJmrYmb</p>","","","","","","","","",""
"html-keyboard-response","177","409997","0.0-12.0-0.7","60fd0f49858465796afd5da9","650c16f0f2faf8d7a0d14c09","651c1c358a8e7e17c975e0dd","null","null","<p style=""font-size: 60px; font-family: BACS"">LuaUkGua</p>","","","","","","","","",""
"html-keyboard-response","178","411008","0.0-12.0-0.8","60fd0f49858465796afd5da9","650c16f0f2faf8d7a0d14c09","651c1c358a8e7e17c975e0dd","null","null","<p style=""font-size: 60px; font-family: BACS"">kabJbAld</p>","","","","","","","","",""
"html-keyboard-response","179","412014","0.0-12.0-0.9","60fd0f49858465796afd5da9","650c16f0f2faf8d7a0d14c09","651c1c358a8e7e17c975e0dd","null","null","<p style=""font-size: 60px; font-family: BACS"">rvAJkYL</p>","","","","","","","","",""
"html-keyboard-response","180","413031","0.0-12.0-0.10","60fd0f49858465796afd5da9","650c16f0f2faf8d7a0d14c09","651c1c358a8e7e17c975e0dd","null","null","<p style=""font-size: 60px; font-family: BACS"">bcbMTmc</p>","","","","","","","","",""
"html-keyboard-response","181","414048","0.0-12.0-0.11","60fd0f49858465796afd5da9","650c16f0f2faf8d7a0d14c09","651c1c358a8e7e17c975e0dd","null","null","<p style=""font-size: 60px; font-family: BACS"">vkYGlYmb</p>","","","","","","","","",""
"html-keyboard-response","182","415065","0.0-12.0-0.12","60fd0f49858465796afd5da9","650c16f0f2faf8d7a0d14c09","651c1c358a8e7e17c975e0dd","null","null","<p style=""font-size: 60px; font-family: BACS"">blMkTmc</p>","","","","","","","","",""
"html-keyboard-response","183","416081","0.0-12.0-0.13","60fd0f49858465796afd5da9","650c16f0f2faf8d7a0d14c09","651c1c358a8e7e17c975e0dd","null","null","<p style=""font-size: 60px; font-family: BACS"">PMPtkCkbd</p>","","","","","","","","",""
"html-keyboard-response","184","417097","0.0-12.0-0.14","60fd0f49858465796afd5da9","650c16f0f2faf8d7a0d14c09","651c1c358a8e7e17c975e0dd","null","null","<p style=""font-size: 60px; font-family: BACS"">blMkPMYm</p>","","","","","","","","",""
"html-keyboard-response","185","418114","0.0-12.0-0.15","60fd0f49858465796afd5da9","650c16f0f2faf8d7a0d14c09","651c1c358a8e7e17c975e0dd","null","null","<p style=""font-size: 60px; font-family: BACS"">rvAJkGua</p>","","","","","","","","",""
"html-keyboard-response","186","419116","0.0-12.0-0.16","60fd0f49858465796afd5da9","650c16f0f2faf8d7a0d14c09","651c1c358a8e7e17c975e0dd","null","null","<p style=""font-size: 60px; font-family: BACS"">QcladYmb</p>","","","","","","","","",""
"html-keyboard-response","187","420130","0.0-12.0-0.17","60fd0f49858465796afd5da9","650c16f0f2faf8d7a0d14c09","651c1c358a8e7e17c975e0dd","null","null","<p style=""font-size: 60px; font-family: BACS"">TdTDPMYm</p>","","","","","","","","",""
"html-keyboard-response","188","421145","0.0-12.0-0.18","60fd0f49858465796afd5da9","650c16f0f2faf8d7a0d14c09","651c1c358a8e7e17c975e0dd","null","null","<p style=""font-size: 60px; font-family: BACS"">bcORTRK</p>","","","","","","","","",""
"html-keyboard-response","189","422148","0.0-12.0-0.19","60fd0f49858465796afd5da9","650c16f0f2faf8d7a0d14c09","651c1c358a8e7e17c975e0dd","null","null","<p style=""font-size: 60px; font-family: BACS"">mrOdAld</p>","","","","","","","","",""
"html-keyboard-response","190","423164","0.0-12.0-0.20","60fd0f49858465796afd5da9","650c16f0f2faf8d7a0d14c09","651c1c358a8e7e17c975e0dd","null","null","<p style=""font-size: 60px; font-family: BACS"">hCktTRK</p>","","","","","","","","",""
"html-keyboard-response","191","424166","0.0-12.0-0.21","60fd0f49858465796afd5da9","650c16f0f2faf8d7a0d14c09","651c1c358a8e7e17c975e0dd","null","null","<p style=""font-size: 60px; font-family: BACS"">LuaUuda</p>","","","","","","","","",""
"html-keyboard-response","192","425180","0.0-12.0-0.22","60fd0f49858465796afd5da9","650c16f0f2faf8d7a0d14c09","651c1c358a8e7e17c975e0dd","null","null","<p style=""font-size: 60px; font-family: BACS"">QcladkGua</p>","","","","","","","","",""
"html-keyboard-response","193","426198","0.0-12.0-0.23","60fd0f49858465796afd5da9","650c16f0f2faf8d7a0d14c09","651c1c358a8e7e17c975e0dd","null","null","<p style=""font-size: 60px; font-family: BACS"">vkYGluda</p>","","","","","","","","",""
"html-keyboard-response","194","427213","0.0-12.0-0.24","60fd0f49858465796afd5da9","650c16f0f2faf8d7a0d14c09","651c1c358a8e7e17c975e0dd","null","null","<p style=""font-size: 60px; font-family: BACS"">BlmclPMYm</p>","","","","","","","","",""
"html-keyboard-response","195","428214","0.0-12.0-0.25","60fd0f49858465796afd5da9","650c16f0f2faf8d7a0d14c09","651c1c358a8e7e17c975e0dd","null","null","<p style=""font-size: 60px; font-family: BACS"">bcORAPT</p>","","","","","","","","",""
"html-keyboard-response","196","429230","0.0-12.0-0.26","60fd0f49858465796afd5da9","650c16f0f2faf8d7a0d14c09","651c1c358a8e7e17c975e0dd","null","null","<p style=""font-size: 60px; font-family: BACS"">QcladkYL</p>","","","","","","","","",""
"html-keyboard-response","197","430246","0.0-12.0-0.27","60fd0f49858465796afd5da9","650c16f0f2faf8d7a0d14c09","651c1c358a8e7e17c975e0dd","null","null","<p style=""font-size: 60px; font-family: BACS"">cRElDPMYm</p>","","","","","","","","",""
"html-keyboard-response","198","431249","0.0-12.0-0.28","60fd0f49858465796afd5da9","650c16f0f2faf8d7a0d14c09","651c1c358a8e7e17c975e0dd","null","null","<p style=""font-size: 60px; font-family: BACS"">mrOdkGua</p>","","","","","","","","",""
"html-keyboard-response","199","432265","0.0-12.0-0.29","60fd0f49858465796afd5da9","650c16f0f2faf8d7a0d14c09","651c1c358a8e7e17c975e0dd","null","null","<p style=""font-size: 60px; font-family: BACS"">vJabAld</p>","","","","","","","","",""
"html-keyboard-response","200","433280","0.0-12.0-0.30","60fd0f49858465796afd5da9","650c16f0f2faf8d7a0d14c09","651c1c358a8e7e17c975e0dd","null","null","<p style=""font-size: 60px; font-family: BACS"">LuNZkYL</p>","","","","","","","","",""
"html-keyboard-response","201","434292","0.0-12.0-0.31","60fd0f49858465796afd5da9","650c16f0f2faf8d7a0d14c09","651c1c358a8e7e17c975e0dd","null","null","<p style=""font-size: 60px; font-family: BACS"">PMPtkTmc</p>","","","","","","","","",""
"html-keyboard-response","202","435298","0.0-12.0-0.32","60fd0f49858465796afd5da9","650c16f0f2faf8d7a0d14c09","651c1c358a8e7e17c975e0dd","null","null","<p style=""font-size: 60px; font-family: BACS"">LuNZAld</p>","","","","","","","","",""
"html-keyboard-response","203","436307","0.0-12.0-0.33","60fd0f49858465796afd5da9","650c16f0f2faf8d7a0d14c09","651c1c358a8e7e17c975e0dd","null","null","<p style=""font-size: 60px; font-family: BACS"">hCktPMYm</p>","","","","","","","","",""
"html-keyboard-response","204","437314","0.0-12.0-0.34","60fd0f49858465796afd5da9","650c16f0f2faf8d7a0d14c09","651c1c358a8e7e17c975e0dd","null","null","<p style=""font-size: 60px; font-family: BACS"">bcbMTRK</p>","","","","","","","","",""
"html-keyboard-response","205","438317","0.0-12.0-0.35","60fd0f49858465796afd5da9","650c16f0f2faf8d7a0d14c09","651c1c358a8e7e17c975e0dd","null","null","<p style=""font-size: 60px; font-family: BACS"">UdumdYmb</p>","","","","","","","","",""
"html-keyboard-response","206","439331","0.0-12.0-0.36","60fd0f49858465796afd5da9","650c16f0f2faf8d7a0d14c09","651c1c358a8e7e17c975e0dd","null","null","<p style=""font-size: 60px; font-family: BACS"">TEBKPMYm</p>","","","","","","","","",""
"html-keyboard-response","207","440346","0.0-12.0-0.37","60fd0f49858465796afd5da9","650c16f0f2faf8d7a0d14c09","651c1c358a8e7e17c975e0dd","null","null","<p style=""font-size: 60px; font-family: BACS"">BlmclTmc</p>","","","","","","","","",""
"html-keyboard-response","208","441363","0.0-12.0-0.38","60fd0f49858465796afd5da9","650c16f0f2faf8d7a0d14c09","651c1c358a8e7e17c975e0dd","null","null","<p style=""font-size: 60px; font-family: BACS"">vJabkGua</p>","","","","","","","","",""
"html-keyboard-response","209","442364","0.0-12.0-0.39","60fd0f49858465796afd5da9","650c16f0f2faf8d7a0d14c09","651c1c358a8e7e17c975e0dd","null","null","<p style=""font-size: 60px; font-family: BACS"">LuNZYmb</p>","","","","","","","","",""
"html-keyboard-response","210","443380","0.0-12.0-0.40","60fd0f49858465796afd5da9","650c16f0f2faf8d7a0d14c09","651c1c358a8e7e17c975e0dd","null","null","<p style=""font-size: 60px; font-family: BACS"">UJmrkYL</p>","","","","","","","","",""
"html-keyboard-response","211","444396","0.0-12.0-0.41","60fd0f49858465796afd5da9","650c16f0f2faf8d7a0d14c09","651c1c358a8e7e17c975e0dd","null","null","<p style=""font-size: 60px; font-family: BACS"">bcORCkbd</p>","","","","","","","","",""
"html-keyboard-response","212","445398","0.0-12.0-0.42","60fd0f49858465796afd5da9","650c16f0f2faf8d7a0d14c09","651c1c358a8e7e17c975e0dd","null","null","<p style=""font-size: 60px; font-family: BACS"">TEBKAPT</p>","","","","","","","","",""
"html-keyboard-response","213","446412","0.0-12.0-0.43","60fd0f49858465796afd5da9","650c16f0f2faf8d7a0d14c09","651c1c358a8e7e17c975e0dd","null","null","<p style=""font-size: 60px; font-family: BACS"">mrOduda</p>","","","","","","","","",""
"html-keyboard-response","214","447418","0.0-12.0-0.44","60fd0f49858465796afd5da9","650c16f0f2faf8d7a0d14c09","651c1c358a8e7e17c975e0dd","null","null","<p style=""font-size: 60px; font-family: BACS"">kabJbYmb</p>","","","","","","","","",""
"html-keyboard-response","215","448431","0.0-12.0-0.45","60fd0f49858465796afd5da9","650c16f0f2faf8d7a0d14c09","651c1c358a8e7e17c975e0dd","null","null","<p style=""font-size: 60px; font-family: BACS"">LuaUkYL</p>","","","","","","","","",""
"html-keyboard-response","216","449447","0.0-12.0-0.46","60fd0f49858465796afd5da9","650c16f0f2faf8d7a0d14c09","651c1c358a8e7e17c975e0dd","null","null","<p style=""font-size: 60px; font-family: BACS"">PMPtkTRK</p>","","","","","","","","",""
"html-keyboard-response","217","450463","0.0-12.0-0.47","60fd0f49858465796afd5da9","650c16f0f2faf8d7a0d14c09","651c1c358a8e7e17c975e0dd","null","null","<p style=""font-size: 60px; font-family: BACS"">cRElDCkbd</p>","","","","","","","","",""
"html-keyboard-response","218","451479","0.0-12.0-0.48","60fd0f49858465796afd5da9","650c16f0f2faf8d7a0d14c09","651c1c358a8e7e17c975e0dd","null","null","<p style=""font-size: 60px; font-family: BACS"">TdTDTRK</p>","","","","","","","","",""
"html-keyboard-response","219","452481","0.0-12.0-0.49","60fd0f49858465796afd5da9","650c16f0f2faf8d7a0d14c09","651c1c358a8e7e17c975e0dd","null","null","<p style=""font-size: 60px; font-family: BACS"">bcbMAPT</p>","","","","","","","","",""
"html-keyboard-response","220","453497","0.0-12.0-0.50","60fd0f49858465796afd5da9","650c16f0f2faf8d7a0d14c09","651c1c358a8e7e17c975e0dd","null","null","<p style=""font-size: 60px; font-family: BACS"">cRElDTmc</p>","","","","","","","","",""
"html-keyboard-response","221","454514","0.0-12.0-0.51","60fd0f49858465796afd5da9","650c16f0f2faf8d7a0d14c09","651c1c358a8e7e17c975e0dd","null","null","<p style=""font-size: 60px; font-family: BACS"">Udumduda</p>","","","","","","","","",""
"html-keyboard-response","222","455527","0.0-12.0-0.52","60fd0f49858465796afd5da9","650c16f0f2faf8d7a0d14c09","651c1c358a8e7e17c975e0dd","null","null","<p style=""font-size: 60px; font-family: BACS"">BbODCkbd</p>","","","","","","","","",""
"html-keyboard-response","223","456530","0.0-12.0-0.53","60fd0f49858465796afd5da9","650c16f0f2faf8d7a0d14c09","651c1c358a8e7e17c975e0dd","null","null","<p style=""font-size: 60px; font-family: BACS"">hCktTmc</p>","","","","","","","","",""
"html-keyboard-response","224","457546","0.0-12.0-0.54","60fd0f49858465796afd5da9","650c16f0f2faf8d7a0d14c09","651c1c358a8e7e17c975e0dd","null","null","<p style=""font-size: 60px; font-family: BACS"">blMkCkbd</p>","","","","","","","","",""
"html-keyboard-response","225","458548","0.0-12.0-0.55","60fd0f49858465796afd5da9","650c16f0f2faf8d7a0d14c09","651c1c358a8e7e17c975e0dd","null","null","<p style=""font-size: 60px; font-family: BACS"">LuaUYmb</p>","","","","","","","","",""
"html-keyboard-response","226","459563","0.0-12.0-0.56","60fd0f49858465796afd5da9","650c16f0f2faf8d7a0d14c09","651c1c358a8e7e17c975e0dd","null","null","<p style=""font-size: 60px; font-family: BACS"">kabJbkGua</p>","","","","","","","","",""
"html-keyboard-response","227","460578","0.0-12.0-0.57","60fd0f49858465796afd5da9","650c16f0f2faf8d7a0d14c09","651c1c358a8e7e17c975e0dd","null","null","<p style=""font-size: 60px; font-family: BACS"">UJmrAld</p>","","","","","","","","",""
"html-keyboard-response","228","461581","0.0-12.0-0.58","60fd0f49858465796afd5da9","650c16f0f2faf8d7a0d14c09","651c1c358a8e7e17c975e0dd","null","null","<p style=""font-size: 60px; font-family: BACS"">TdTDAPT</p>","","","","","","","","",""
"html-keyboard-response","229","462600","0.0-12.0-0.59","60fd0f49858465796afd5da9","650c16f0f2faf8d7a0d14c09","651c1c358a8e7e17c975e0dd","null","null","<p style=""font-size: 60px; font-family: BACS"">BbODTmc</p>","","","","","","","","",""
"html-keyboard-response","230","463616","0.0-12.0-0.60","60fd0f49858465796afd5da9","650c16f0f2faf8d7a0d14c09","651c1c358a8e7e17c975e0dd","null","null","<p style=""font-size: 60px; font-family: BACS"">UdumdAld</p>","","","","","","","","",""
"html-keyboard-response","231","464632","0.0-12.0-0.61","60fd0f49858465796afd5da9","650c16f0f2faf8d7a0d14c09","651c1c358a8e7e17c975e0dd","null","null","<p style=""font-size: 60px; font-family: BACS"">Qcladuda</p>","","","","","","","","",""
"html-keyboard-response","232","465648","0.0-12.0-0.62","60fd0f49858465796afd5da9","650c16f0f2faf8d7a0d14c09","651c1c358a8e7e17c975e0dd","null","null","<p style=""font-size: 60px; font-family: BACS"">BlmclTRK</p>","","","","","","","","",""
"html-keyboard-response","233","466649","0.0-12.0-0.63","60fd0f49858465796afd5da9","650c16f0f2faf8d7a0d14c09","651c1c358a8e7e17c975e0dd","null","null","<p style=""font-size: 60px; font-family: BACS"">TEBKCkbd</p>","","","","","","","","",""
"html-keyboard-response","234","467660","0.0-12.0-0.64","60fd0f49858465796afd5da9","650c16f0f2faf8d7a0d14c09","651c1c358a8e7e17c975e0dd","null","null","<p style=""font-size: 60px; font-family: BACS"">vJabkYL</p>","","","","","","","","",""
"html-keyboard-response","235","468666","0.0-12.0-0.65","60fd0f49858465796afd5da9","650c16f0f2faf8d7a0d14c09","651c1c358a8e7e17c975e0dd","null","null","<p style=""font-size: 60px; font-family: BACS"">BbODPMYm</p>","","","","","","","","",""
"html-keyboard-response","236","469682","0.0-12.0-0.66","60fd0f49858465796afd5da9","650c16f0f2faf8d7a0d14c09","651c1c358a8e7e17c975e0dd","null","null","<p style=""font-size: 60px; font-family: BACS"">bcbMCkbd</p>","","","","","","","","",""
"html-keyboard-response","237","470698","0.0-12.0-0.67","60fd0f49858465796afd5da9","650c16f0f2faf8d7a0d14c09","651c1c358a8e7e17c975e0dd","null","null","<p style=""font-size: 60px; font-family: BACS"">cRElDTRK</p>","","","","","","","","",""
"html-keyboard-response","238","471699","0.0-12.0-0.68","60fd0f49858465796afd5da9","650c16f0f2faf8d7a0d14c09","651c1c358a8e7e17c975e0dd","null","null","<p style=""font-size: 60px; font-family: BACS"">BlmclAPT</p>","","","","","","","","",""
"html-keyboard-response","239","472714","0.0-12.0-0.69","60fd0f49858465796afd5da9","650c16f0f2faf8d7a0d14c09","651c1c358a8e7e17c975e0dd","null","null","<p style=""font-size: 60px; font-family: BACS"">vkYGlkYL</p>","","","","","","","","",""
"html-keyboard-response","240","473716","0.0-12.0-0.70","60fd0f49858465796afd5da9","650c16f0f2faf8d7a0d14c09","651c1c358a8e7e17c975e0dd","null","null","<p style=""font-size: 60px; font-family: BACS"">bcORPMYm</p>","","","","","","","","",""
"html-keyboard-response","241","474731","0.0-12.0-0.71","60fd0f49858465796afd5da9","650c16f0f2faf8d7a0d14c09","651c1c358a8e7e17c975e0dd","null","null","<p style=""font-size: 60px; font-family: BACS"">hCktAPT</p>","","","","","","","","",""
"html-keyboard-response","242","475747","0.0-12.0-0.72","60fd0f49858465796afd5da9","650c16f0f2faf8d7a0d14c09","651c1c358a8e7e17c975e0dd","null","null","<p style=""font-size: 60px; font-family: BACS"">vJabuda</p>","","","","","","","","",""
"html-keyboard-response","243","476763","0.0-12.0-0.73","60fd0f49858465796afd5da9","650c16f0f2faf8d7a0d14c09","651c1c358a8e7e17c975e0dd","null","null","<p style=""font-size: 60px; font-family: BACS"">BbODAPT</p>","","","","","","","","",""
"html-keyboard-response","244","477765","0.0-12.0-0.74","60fd0f49858465796afd5da9","650c16f0f2faf8d7a0d14c09","651c1c358a8e7e17c975e0dd","null","null","<p style=""font-size: 60px; font-family: BACS"">UdumdkGua</p>","","","","","","","","",""
"html-keyboard-response","245","478780","0.0-12.0-0.75","60fd0f49858465796afd5da9","650c16f0f2faf8d7a0d14c09","651c1c358a8e7e17c975e0dd","null","null","<p style=""font-size: 60px; font-family: BACS"">rvAJAld</p>","","","","","","","","",""
"html-keyboard-response","246","479786","0.0-12.0-0.76","60fd0f49858465796afd5da9","650c16f0f2faf8d7a0d14c09","651c1c358a8e7e17c975e0dd","null","null","<p style=""font-size: 60px; font-family: BACS"">blMkTRK</p>","","","","","","","","",""
"html-keyboard-response","247","480800","0.0-12.0-0.77","60fd0f49858465796afd5da9","650c16f0f2faf8d7a0d14c09","651c1c358a8e7e17c975e0dd","null","null","<p style=""font-size: 60px; font-family: BACS"">kabJbuda</p>","","","","","","","","",""
"html-keyboard-response","248","481815","0.0-12.0-0.78","60fd0f49858465796afd5da9","650c16f0f2faf8d7a0d14c09","651c1c358a8e7e17c975e0dd","null","null","<p style=""font-size: 60px; font-family: BACS"">PMPtkAPT</p>","","","","","","","","",""
"html-keyboard-response","249","482832","0.0-12.0-0.79","60fd0f49858465796afd5da9","650c16f0f2faf8d7a0d14c09","651c1c358a8e7e17c975e0dd","null","null","<p style=""font-size: 60px; font-family: BACS"">UJmrkGua</p>","","","","","","","","",""
"html-keyboard-response","250","531862","0.0-13.0","60fd0f49858465796afd5da9","650c16f0f2faf8d7a0d14c09","651c1c358a8e7e17c975e0dd","49042"," ","<p>Great, you've seen the third block of words. You may now take a short break.</p>
      <p>Press the spacebar when you're ready to continue.</p>","","","","","","","","",""
"html-keyboard-response","251","532869","0.0-14.0-0.0","60fd0f49858465796afd5da9","650c16f0f2faf8d7a0d14c09","651c1c358a8e7e17c975e0dd","null","null","<p style=""font-size: 60px; font-family: BACS"">TdTDAPT</p>","","","","","","","","",""
"html-keyboard-response","252","533885","0.0-14.0-0.1","60fd0f49858465796afd5da9","650c16f0f2faf8d7a0d14c09","651c1c358a8e7e17c975e0dd","null","null","<p style=""font-size: 60px; font-family: BACS"">vkYGluda</p>","","","","","","","","",""
"html-keyboard-response","253","534890","0.0-14.0-0.2","60fd0f49858465796afd5da9","650c16f0f2faf8d7a0d14c09","651c1c358a8e7e17c975e0dd","null","null","<p style=""font-size: 60px; font-family: BACS"">LuNZYmb</p>","","","","","","","","",""
"html-keyboard-response","254","535901","0.0-14.0-0.3","60fd0f49858465796afd5da9","650c16f0f2faf8d7a0d14c09","651c1c358a8e7e17c975e0dd","null","null","<p style=""font-size: 60px; font-family: BACS"">vJabkGua</p>","","","","","","","","",""
"html-keyboard-response","255","536917","0.0-14.0-0.4","60fd0f49858465796afd5da9","650c16f0f2faf8d7a0d14c09","651c1c358a8e7e17c975e0dd","null","null","<p style=""font-size: 60px; font-family: BACS"">BlmclTRK</p>","","","","","","","","",""
"html-keyboard-response","256","537933","0.0-14.0-0.5","60fd0f49858465796afd5da9","650c16f0f2faf8d7a0d14c09","651c1c358a8e7e17c975e0dd","null","null","<p style=""font-size: 60px; font-family: BACS"">UJmrYmb</p>","","","","","","","","",""
"html-keyboard-response","257","538934","0.0-14.0-0.6","60fd0f49858465796afd5da9","650c16f0f2faf8d7a0d14c09","651c1c358a8e7e17c975e0dd","null","null","<p style=""font-size: 60px; font-family: BACS"">BlmclTmc</p>","","","","","","","","",""
"html-keyboard-response","258","539950","0.0-14.0-0.7","60fd0f49858465796afd5da9","650c16f0f2faf8d7a0d14c09","651c1c358a8e7e17c975e0dd","null","null","<p style=""font-size: 60px; font-family: BACS"">rvAJkGua</p>","","","","","","","","",""
"html-keyboard-response","259","540952","0.0-14.0-0.8","60fd0f49858465796afd5da9","650c16f0f2faf8d7a0d14c09","651c1c358a8e7e17c975e0dd","null","null","<p style=""font-size: 60px; font-family: BACS"">TdTDPMYm</p>","","","","","","","","",""
"html-keyboard-response","260","541968","0.0-14.0-0.9","60fd0f49858465796afd5da9","650c16f0f2faf8d7a0d14c09","651c1c358a8e7e17c975e0dd","null","null","<p style=""font-size: 60px; font-family: BACS"">LuNZAld</p>","","","","","","","","",""
"html-keyboard-response","261","542984","0.0-14.0-0.10","60fd0f49858465796afd5da9","650c16f0f2faf8d7a0d14c09","651c1c358a8e7e17c975e0dd","null","null","<p style=""font-size: 60px; font-family: BACS"">bcbMCkbd</p>","","","","","","","","",""
"html-keyboard-response","262","543986","0.0-14.0-0.11","60fd0f49858465796afd5da9","650c16f0f2faf8d7a0d14c09","651c1c358a8e7e17c975e0dd","null","null","<p style=""font-size: 60px; font-family: BACS"">cRElDTmc</p>","","","","","","","","",""
"html-keyboard-response","263","545001","0.0-14.0-0.12","60fd0f49858465796afd5da9","650c16f0f2faf8d7a0d14c09","651c1c358a8e7e17c975e0dd","null","null","<p style=""font-size: 60px; font-family: BACS"">vkYGlkYL</p>","","","","","","","","",""
"html-keyboard-response","264","546003","0.0-14.0-0.13","60fd0f49858465796afd5da9","650c16f0f2faf8d7a0d14c09","651c1c358a8e7e17c975e0dd","null","null","<p style=""font-size: 60px; font-family: BACS"">BlmclAPT</p>","","","","","","","","",""
"html-keyboard-response","265","547017","0.0-14.0-0.14","60fd0f49858465796afd5da9","650c16f0f2faf8d7a0d14c09","651c1c358a8e7e17c975e0dd","null","null","<p style=""font-size: 60px; font-family: BACS"">vJabkYL</p>","","","","","","","","",""
"html-keyboard-response","266","548033","0.0-14.0-0.15","60fd0f49858465796afd5da9","650c16f0f2faf8d7a0d14c09","651c1c358a8e7e17c975e0dd","null","null","<p style=""font-size: 60px; font-family: BACS"">LuaUkGua</p>","","","","","","","","",""
"html-keyboard-response","267","549050","0.0-14.0-0.16","60fd0f49858465796afd5da9","650c16f0f2faf8d7a0d14c09","651c1c358a8e7e17c975e0dd","null","null","<p style=""font-size: 60px; font-family: BACS"">bcbMTmc</p>","","","","","","","","",""
"html-keyboard-response","268","550052","0.0-14.0-0.17","60fd0f49858465796afd5da9","650c16f0f2faf8d7a0d14c09","651c1c358a8e7e17c975e0dd","null","null","<p style=""font-size: 60px; font-family: BACS"">hCktAPT</p>","","","","","","","","",""
"html-keyboard-response","269","551068","0.0-14.0-0.18","60fd0f49858465796afd5da9","650c16f0f2faf8d7a0d14c09","651c1c358a8e7e17c975e0dd","null","null","<p style=""font-size: 60px; font-family: BACS"">UdumdkGua</p>","","","","","","","","",""
"html-keyboard-response","270","552069","0.0-14.0-0.19","60fd0f49858465796afd5da9","650c16f0f2faf8d7a0d14c09","651c1c358a8e7e17c975e0dd","null","null","<p style=""font-size: 60px; font-family: BACS"">cRElDTRK</p>","","","","","","","","",""
"html-keyboard-response","271","553083","0.0-14.0-0.20","60fd0f49858465796afd5da9","650c16f0f2faf8d7a0d14c09","651c1c358a8e7e17c975e0dd","null","null","<p style=""font-size: 60px; font-family: BACS"">PMPtkAPT</p>","","","","","","","","",""
"html-keyboard-response","272","554085","0.0-14.0-0.21","60fd0f49858465796afd5da9","650c16f0f2faf8d7a0d14c09","651c1c358a8e7e17c975e0dd","null","null","<p style=""font-size: 60px; font-family: BACS"">UJmrAld</p>","","","","","","","","",""
"html-keyboard-response","273","555101","0.0-14.0-0.22","60fd0f49858465796afd5da9","650c16f0f2faf8d7a0d14c09","651c1c358a8e7e17c975e0dd","null","null","<p style=""font-size: 60px; font-family: BACS"">BbODTmc</p>","","","","","","","","",""
"html-keyboard-response","274","556118","0.0-14.0-0.23","60fd0f49858465796afd5da9","650c16f0f2faf8d7a0d14c09","651c1c358a8e7e17c975e0dd","null","null","<p style=""font-size: 60px; font-family: BACS"">blMkPMYm</p>","","","","","","","","",""
"html-keyboard-response","275","557135","0.0-14.0-0.24","60fd0f49858465796afd5da9","650c16f0f2faf8d7a0d14c09","651c1c358a8e7e17c975e0dd","null","null","<p style=""font-size: 60px; font-family: BACS"">PMPtkTmc</p>","","","","","","","","",""
"html-keyboard-response","276","558151","0.0-14.0-0.25","60fd0f49858465796afd5da9","650c16f0f2faf8d7a0d14c09","651c1c358a8e7e17c975e0dd","null","null","<p style=""font-size: 60px; font-family: BACS"">TdTDCkbd</p>","","","","","","","","",""
"html-keyboard-response","277","559153","0.0-14.0-0.26","60fd0f49858465796afd5da9","650c16f0f2faf8d7a0d14c09","651c1c358a8e7e17c975e0dd","null","null","<p style=""font-size: 60px; font-family: BACS"">TEBKPMYm</p>","","","","","","","","",""
"html-keyboard-response","278","560166","0.0-14.0-0.27","60fd0f49858465796afd5da9","650c16f0f2faf8d7a0d14c09","651c1c358a8e7e17c975e0dd","null","null","<p style=""font-size: 60px; font-family: BACS"">hCktTRK</p>","","","","","","","","",""
"html-keyboard-response","279","561169","0.0-14.0-0.28","60fd0f49858465796afd5da9","650c16f0f2faf8d7a0d14c09","651c1c358a8e7e17c975e0dd","null","null","<p style=""font-size: 60px; font-family: BACS"">mrOduda</p>","","","","","","","","",""
"html-keyboard-response","280","562184","0.0-14.0-0.29","60fd0f49858465796afd5da9","650c16f0f2faf8d7a0d14c09","651c1c358a8e7e17c975e0dd","null","null","<p style=""font-size: 60px; font-family: BACS"">QcladYmb</p>","","","","","","","","",""
"html-keyboard-response","281","563200","0.0-14.0-0.30","60fd0f49858465796afd5da9","650c16f0f2faf8d7a0d14c09","651c1c358a8e7e17c975e0dd","null","null","<p style=""font-size: 60px; font-family: BACS"">cRElDPMYm</p>","","","","","","","","",""
"html-keyboard-response","282","564201","0.0-14.0-0.31","60fd0f49858465796afd5da9","650c16f0f2faf8d7a0d14c09","651c1c358a8e7e17c975e0dd","null","null","<p style=""font-size: 60px; font-family: BACS"">vkYGlAld</p>","","","","","","","","",""
"html-keyboard-response","283","565216","0.0-14.0-0.32","60fd0f49858465796afd5da9","650c16f0f2faf8d7a0d14c09","651c1c358a8e7e17c975e0dd","null","null","<p style=""font-size: 60px; font-family: BACS"">bcbMAPT</p>","","","","","","","","",""
"html-keyboard-response","284","566234","0.0-14.0-0.33","60fd0f49858465796afd5da9","650c16f0f2faf8d7a0d14c09","651c1c358a8e7e17c975e0dd","null","null","<p style=""font-size: 60px; font-family: BACS"">Qcladuda</p>","","","","","","","","",""
"html-keyboard-response","285","567237","0.0-14.0-0.34","60fd0f49858465796afd5da9","650c16f0f2faf8d7a0d14c09","651c1c358a8e7e17c975e0dd","null","null","<p style=""font-size: 60px; font-family: BACS"">kabJbAld</p>","","","","","","","","",""
"html-keyboard-response","286","568250","0.0-14.0-0.35","60fd0f49858465796afd5da9","650c16f0f2faf8d7a0d14c09","651c1c358a8e7e17c975e0dd","null","null","<p style=""font-size: 60px; font-family: BACS"">hCktPMYm</p>","","","","","","","","",""
"html-keyboard-response","287","569251","0.0-14.0-0.36","60fd0f49858465796afd5da9","650c16f0f2faf8d7a0d14c09","651c1c358a8e7e17c975e0dd","null","null","<p style=""font-size: 60px; font-family: BACS"">LuaUkYL</p>","","","","","","","","",""
"html-keyboard-response","288","570266","0.0-14.0-0.37","60fd0f49858465796afd5da9","650c16f0f2faf8d7a0d14c09","651c1c358a8e7e17c975e0dd","null","null","<p style=""font-size: 60px; font-family: BACS"">TEBKCkbd</p>","","","","","","","","",""
"html-keyboard-response","289","571283","0.0-14.0-0.38","60fd0f49858465796afd5da9","650c16f0f2faf8d7a0d14c09","651c1c358a8e7e17c975e0dd","null","null","<p style=""font-size: 60px; font-family: BACS"">vJabuda</p>","","","","","","","","",""
"html-keyboard-response","290","572300","0.0-14.0-0.39","60fd0f49858465796afd5da9","650c16f0f2faf8d7a0d14c09","651c1c358a8e7e17c975e0dd","null","null","<p style=""font-size: 60px; font-family: BACS"">bcORTRK</p>","","","","","","","","",""
"html-keyboard-response","291","573316","0.0-14.0-0.40","60fd0f49858465796afd5da9","650c16f0f2faf8d7a0d14c09","651c1c358a8e7e17c975e0dd","null","null","<p style=""font-size: 60px; font-family: BACS"">mrOdkYL</p>","","","","","","","","",""
"html-keyboard-response","292","574317","0.0-14.0-0.41","60fd0f49858465796afd5da9","650c16f0f2faf8d7a0d14c09","651c1c358a8e7e17c975e0dd","null","null","<p style=""font-size: 60px; font-family: BACS"">TEBKAPT</p>","","","","","","","","",""
"html-keyboard-response","293","575333","0.0-14.0-0.42","60fd0f49858465796afd5da9","650c16f0f2faf8d7a0d14c09","651c1c358a8e7e17c975e0dd","null","null","<p style=""font-size: 60px; font-family: BACS"">LuaUYmb</p>","","","","","","","","",""
"html-keyboard-response","294","576334","0.0-14.0-0.43","60fd0f49858465796afd5da9","650c16f0f2faf8d7a0d14c09","651c1c358a8e7e17c975e0dd","null","null","<p style=""font-size: 60px; font-family: BACS"">BbODCkbd</p>","","","","","","","","",""
"html-keyboard-response","295","577335","0.0-14.0-0.44","60fd0f49858465796afd5da9","650c16f0f2faf8d7a0d14c09","651c1c358a8e7e17c975e0dd","null","null","<p style=""font-size: 60px; font-family: BACS"">UdumdAld</p>","","","","","","","","",""
"html-keyboard-response","296","578350","0.0-14.0-0.45","60fd0f49858465796afd5da9","650c16f0f2faf8d7a0d14c09","651c1c358a8e7e17c975e0dd","null","null","<p style=""font-size: 60px; font-family: BACS"">UJmrkYL</p>","","","","","","","","",""
"html-keyboard-response","297","579351","0.0-14.0-0.46","60fd0f49858465796afd5da9","650c16f0f2faf8d7a0d14c09","651c1c358a8e7e17c975e0dd","null","null","<p style=""font-size: 60px; font-family: BACS"">LuNZuda</p>","","","","","","","","",""
"html-keyboard-response","298","580366","0.0-14.0-0.47","60fd0f49858465796afd5da9","650c16f0f2faf8d7a0d14c09","651c1c358a8e7e17c975e0dd","null","null","<p style=""font-size: 60px; font-family: BACS"">rvAJAld</p>","","","","","","","","",""
"html-keyboard-response","299","581369","0.0-14.0-0.48","60fd0f49858465796afd5da9","650c16f0f2faf8d7a0d14c09","651c1c358a8e7e17c975e0dd","null","null","<p style=""font-size: 60px; font-family: BACS"">BbODAPT</p>","","","","","","","","",""
"html-keyboard-response","300","582385","0.0-14.0-0.49","60fd0f49858465796afd5da9","650c16f0f2faf8d7a0d14c09","651c1c358a8e7e17c975e0dd","null","null","<p style=""font-size: 60px; font-family: BACS"">QcladkGua</p>","","","","","","","","",""
"html-keyboard-response","301","583401","0.0-14.0-0.50","60fd0f49858465796afd5da9","650c16f0f2faf8d7a0d14c09","651c1c358a8e7e17c975e0dd","null","null","<p style=""font-size: 60px; font-family: BACS"">vJabAld</p>","","","","","","","","",""
"html-keyboard-response","302","584417","0.0-14.0-0.51","60fd0f49858465796afd5da9","650c16f0f2faf8d7a0d14c09","651c1c358a8e7e17c975e0dd","null","null","<p style=""font-size: 60px; font-family: BACS"">LuaUuda</p>","","","","","","","","",""
"html-keyboard-response","303","585434","0.0-14.0-0.52","60fd0f49858465796afd5da9","650c16f0f2faf8d7a0d14c09","651c1c358a8e7e17c975e0dd","null","null","<p style=""font-size: 60px; font-family: BACS"">UdumdYmb</p>","","","","","","","","",""
"html-keyboard-response","304","586448","0.0-14.0-0.53","60fd0f49858465796afd5da9","650c16f0f2faf8d7a0d14c09","651c1c358a8e7e17c975e0dd","null","null","<p style=""font-size: 60px; font-family: BACS"">UJmrkGua</p>","","","","","","","","",""
"html-keyboard-response","305","587450","0.0-14.0-0.54","60fd0f49858465796afd5da9","650c16f0f2faf8d7a0d14c09","651c1c358a8e7e17c975e0dd","null","null","<p style=""font-size: 60px; font-family: BACS"">TEBKTmc</p>","","","","","","","","",""
"html-keyboard-response","306","588452","0.0-14.0-0.55","60fd0f49858465796afd5da9","650c16f0f2faf8d7a0d14c09","651c1c358a8e7e17c975e0dd","null","null","<p style=""font-size: 60px; font-family: BACS"">vkYGlYmb</p>","","","","","","","","",""
"html-keyboard-response","307","589466","0.0-14.0-0.56","60fd0f49858465796afd5da9","650c16f0f2faf8d7a0d14c09","651c1c358a8e7e17c975e0dd","null","null","<p style=""font-size: 60px; font-family: BACS"">bcbMTRK</p>","","","","","","","","",""
"html-keyboard-response","308","590469","0.0-14.0-0.57","60fd0f49858465796afd5da9","650c16f0f2faf8d7a0d14c09","651c1c358a8e7e17c975e0dd","null","null","<p style=""font-size: 60px; font-family: BACS"">kabJbkGua</p>","","","","","","","","",""
"html-keyboard-response","309","591483","0.0-14.0-0.58","60fd0f49858465796afd5da9","650c16f0f2faf8d7a0d14c09","651c1c358a8e7e17c975e0dd","null","null","<p style=""font-size: 60px; font-family: BACS"">rvAJkYL</p>","","","","","","","","",""
"html-keyboard-response","310","592501","0.0-14.0-0.59","60fd0f49858465796afd5da9","650c16f0f2faf8d7a0d14c09","651c1c358a8e7e17c975e0dd","null","null","<p style=""font-size: 60px; font-family: BACS"">TdTDTRK</p>","","","","","","","","",""
"html-keyboard-response","311","593515","0.0-14.0-0.60","60fd0f49858465796afd5da9","650c16f0f2faf8d7a0d14c09","651c1c358a8e7e17c975e0dd","null","null","<p style=""font-size: 60px; font-family: BACS"">kabJbYmb</p>","","","","","","","","",""
"html-keyboard-response","312","594531","0.0-14.0-0.61","60fd0f49858465796afd5da9","650c16f0f2faf8d7a0d14c09","651c1c358a8e7e17c975e0dd","null","null","<p style=""font-size: 60px; font-family: BACS"">bcORCkbd</p>","","","","","","","","",""
"html-keyboard-response","313","595533","0.0-14.0-0.62","60fd0f49858465796afd5da9","650c16f0f2faf8d7a0d14c09","651c1c358a8e7e17c975e0dd","null","null","<p style=""font-size: 60px; font-family: BACS"">BlmclPMYm</p>","","","","","","","","",""
"html-keyboard-response","314","596548","0.0-14.0-0.63","60fd0f49858465796afd5da9","650c16f0f2faf8d7a0d14c09","651c1c358a8e7e17c975e0dd","null","null","<p style=""font-size: 60px; font-family: BACS"">bcORAPT</p>","","","","","","","","",""
"html-keyboard-response","315","597565","0.0-14.0-0.64","60fd0f49858465796afd5da9","650c16f0f2faf8d7a0d14c09","651c1c358a8e7e17c975e0dd","null","null","<p style=""font-size: 60px; font-family: BACS"">blMkTmc</p>","","","","","","","","",""
"html-keyboard-response","316","598582","0.0-14.0-0.65","60fd0f49858465796afd5da9","650c16f0f2faf8d7a0d14c09","651c1c358a8e7e17c975e0dd","null","null","<p style=""font-size: 60px; font-family: BACS"">cRElDCkbd</p>","","","","","","","","",""
"html-keyboard-response","317","599599","0.0-14.0-0.66","60fd0f49858465796afd5da9","650c16f0f2faf8d7a0d14c09","651c1c358a8e7e17c975e0dd","null","null","<p style=""font-size: 60px; font-family: BACS"">kabJbuda</p>","","","","","","","","",""
"html-keyboard-response","318","600614","0.0-14.0-0.67","60fd0f49858465796afd5da9","650c16f0f2faf8d7a0d14c09","651c1c358a8e7e17c975e0dd","null","null","<p style=""font-size: 60px; font-family: BACS"">rvAJYmb</p>","","","","","","","","",""
"html-keyboard-response","319","601615","0.0-14.0-0.68","60fd0f49858465796afd5da9","650c16f0f2faf8d7a0d14c09","651c1c358a8e7e17c975e0dd","null","null","<p style=""font-size: 60px; font-family: BACS"">PMPtkTRK</p>","","","","","","","","",""
"html-keyboard-response","320","602630","0.0-14.0-0.69","60fd0f49858465796afd5da9","650c16f0f2faf8d7a0d14c09","651c1c358a8e7e17c975e0dd","null","null","<p style=""font-size: 60px; font-family: BACS"">bcORPMYm</p>","","","","","","","","",""
"html-keyboard-response","321","603634","0.0-14.0-0.70","60fd0f49858465796afd5da9","650c16f0f2faf8d7a0d14c09","651c1c358a8e7e17c975e0dd","null","null","<p style=""font-size: 60px; font-family: BACS"">hCktTmc</p>","","","","","","","","",""
"html-keyboard-response","322","604647","0.0-14.0-0.71","60fd0f49858465796afd5da9","650c16f0f2faf8d7a0d14c09","651c1c358a8e7e17c975e0dd","null","null","<p style=""font-size: 60px; font-family: BACS"">Udumduda</p>","","","","","","","","",""
"html-keyboard-response","323","605649","0.0-14.0-0.72","60fd0f49858465796afd5da9","650c16f0f2faf8d7a0d14c09","651c1c358a8e7e17c975e0dd","null","null","<p style=""font-size: 60px; font-family: BACS"">mrOdkGua</p>","","","","","","","","",""
"html-keyboard-response","324","606664","0.0-14.0-0.73","60fd0f49858465796afd5da9","650c16f0f2faf8d7a0d14c09","651c1c358a8e7e17c975e0dd","null","null","<p style=""font-size: 60px; font-family: BACS"">blMkTRK</p>","","","","","","","","",""
"html-keyboard-response","325","607665","0.0-14.0-0.74","60fd0f49858465796afd5da9","650c16f0f2faf8d7a0d14c09","651c1c358a8e7e17c975e0dd","null","null","<p style=""font-size: 60px; font-family: BACS"">BbODPMYm</p>","","","","","","","","",""
"html-keyboard-response","326","608680","0.0-14.0-0.75","60fd0f49858465796afd5da9","650c16f0f2faf8d7a0d14c09","651c1c358a8e7e17c975e0dd","null","null","<p style=""font-size: 60px; font-family: BACS"">QcladkYL</p>","","","","","","","","",""
"html-keyboard-response","327","609697","0.0-14.0-0.76","60fd0f49858465796afd5da9","650c16f0f2faf8d7a0d14c09","651c1c358a8e7e17c975e0dd","null","null","<p style=""font-size: 60px; font-family: BACS"">blMkCkbd</p>","","","","","","","","",""
"html-keyboard-response","328","610698","0.0-14.0-0.77","60fd0f49858465796afd5da9","650c16f0f2faf8d7a0d14c09","651c1c358a8e7e17c975e0dd","null","null","<p style=""font-size: 60px; font-family: BACS"">mrOdAld</p>","","","","","","","","",""
"html-keyboard-response","329","611713","0.0-14.0-0.78","60fd0f49858465796afd5da9","650c16f0f2faf8d7a0d14c09","651c1c358a8e7e17c975e0dd","null","null","<p style=""font-size: 60px; font-family: BACS"">LuNZkYL</p>","","","","","","","","",""
"html-keyboard-response","330","612715","0.0-14.0-0.79","60fd0f49858465796afd5da9","650c16f0f2faf8d7a0d14c09","651c1c358a8e7e17c975e0dd","null","null","<p style=""font-size: 60px; font-family: BACS"">PMPtkCkbd</p>","","","","","","","","",""
"html-keyboard-response","331","645164","0.0-15.0","60fd0f49858465796afd5da9","650c16f0f2faf8d7a0d14c09","651c1c358a8e7e17c975e0dd","32448"," ","<p>Great, you've seen the fourth block of words. You may now take a short break.</p>
      <p>Press the spacebar when you're ready to continue.</p>","","","","","","","","",""
"html-keyboard-response","332","646165","0.0-16.0-0.0","60fd0f49858465796afd5da9","650c16f0f2faf8d7a0d14c09","651c1c358a8e7e17c975e0dd","null","null","<p style=""font-size: 60px; font-family: BACS"">rvAJkGua</p>","","","","","","","","",""
"html-keyboard-response","333","647181","0.0-16.0-0.1","60fd0f49858465796afd5da9","650c16f0f2faf8d7a0d14c09","651c1c358a8e7e17c975e0dd","null","null","<p style=""font-size: 60px; font-family: BACS"">rvAJkGua</p>","","","","","","","","",""
"html-keyboard-response","334","648197","0.0-16.0-0.2","60fd0f49858465796afd5da9","650c16f0f2faf8d7a0d14c09","651c1c358a8e7e17c975e0dd","null","null","<p style=""font-size: 60px; font-family: BACS"">rvAJkGua</p>","","","","","","","","",""
"html-keyboard-response","335","649214","0.0-16.0-0.3","60fd0f49858465796afd5da9","650c16f0f2faf8d7a0d14c09","651c1c358a8e7e17c975e0dd","null","null","<p style=""font-size: 60px; font-family: BACS"">rvAJkGua</p>","","","","","","","","",""
"html-keyboard-response","336","650227","0.0-16.0-0.4","60fd0f49858465796afd5da9","650c16f0f2faf8d7a0d14c09","651c1c358a8e7e17c975e0dd","null","null","<p style=""font-size: 60px; font-family: BACS"">rvAJkGua</p>","","","","","","","","",""
"html-keyboard-response","337","651231","0.0-16.0-0.5","60fd0f49858465796afd5da9","650c16f0f2faf8d7a0d14c09","651c1c358a8e7e17c975e0dd","null","null","<p style=""font-size: 60px; font-family: BACS"">rvAJkGua</p>","","","","","","","","",""
"html-keyboard-response","338","652246","0.0-16.0-0.6","60fd0f49858465796afd5da9","650c16f0f2faf8d7a0d14c09","651c1c358a8e7e17c975e0dd","null","null","<p style=""font-size: 60px; font-family: BACS"">rvAJkGua</p>","","","","","","","","",""
"html-keyboard-response","339","653251","0.0-16.0-0.7","60fd0f49858465796afd5da9","650c16f0f2faf8d7a0d14c09","651c1c358a8e7e17c975e0dd","null","null","<p style=""font-size: 60px; font-family: BACS"">rvAJkGua</p>","","","","","","","","",""
"html-keyboard-response","340","654263","0.0-16.0-0.8","60fd0f49858465796afd5da9","650c16f0f2faf8d7a0d14c09","651c1c358a8e7e17c975e0dd","null","null","<p style=""font-size: 60px; font-family: BACS"">rvAJkGua</p>","","","","","","","","",""
"html-keyboard-response","341","655265","0.0-16.0-0.9","60fd0f49858465796afd5da9","650c16f0f2faf8d7a0d14c09","651c1c358a8e7e17c975e0dd","null","null","<p style=""font-size: 60px; font-family: BACS"">rvAJkGua</p>","","","","","","","","",""
"html-keyboard-response","342","656280","0.0-16.0-0.10","60fd0f49858465796afd5da9","650c16f0f2faf8d7a0d14c09","651c1c358a8e7e17c975e0dd","null","null","<p style=""font-size: 60px; font-family: BACS"">rvAJkGua</p>","","","","","","","","",""
"html-keyboard-response","343","657297","0.0-16.0-0.11","60fd0f49858465796afd5da9","650c16f0f2faf8d7a0d14c09","651c1c358a8e7e17c975e0dd","null","null","<p style=""font-size: 60px; font-family: BACS"">rvAJkGua</p>","","","","","","","","",""
"html-keyboard-response","344","658307","0.0-16.0-0.12","60fd0f49858465796afd5da9","650c16f0f2faf8d7a0d14c09","651c1c358a8e7e17c975e0dd","null","null","<p style=""font-size: 60px; font-family: BACS"">rvAJkGua</p>","","","","","","","","",""
"html-keyboard-response","345","659314","0.0-16.0-0.13","60fd0f49858465796afd5da9","650c16f0f2faf8d7a0d14c09","651c1c358a8e7e17c975e0dd","null","null","<p style=""font-size: 60px; font-family: BACS"">rvAJkGua</p>","","","","","","","","",""
"html-keyboard-response","346","660329","0.0-16.0-0.14","60fd0f49858465796afd5da9","650c16f0f2faf8d7a0d14c09","651c1c358a8e7e17c975e0dd","null","null","<p style=""font-size: 60px; font-family: BACS"">rvAJkGua</p>","","","","","","","","",""
"html-keyboard-response","347","661332","0.0-16.0-0.15","60fd0f49858465796afd5da9","650c16f0f2faf8d7a0d14c09","651c1c358a8e7e17c975e0dd","null","null","<p style=""font-size: 60px; font-family: BACS"">rvAJkGua</p>","","","","","","","","",""
"html-keyboard-response","348","662346","0.0-16.0-0.16","60fd0f49858465796afd5da9","650c16f0f2faf8d7a0d14c09","651c1c358a8e7e17c975e0dd","null","null","<p style=""font-size: 60px; font-family: BACS"">rvAJkGua</p>","","","","","","","","",""
"html-keyboard-response","349","663362","0.0-16.0-0.17","60fd0f49858465796afd5da9","650c16f0f2faf8d7a0d14c09","651c1c358a8e7e17c975e0dd","null","null","<p style=""font-size: 60px; font-family: BACS"">rvAJkGua</p>","","","","","","","","",""
"html-keyboard-response","350","664373","0.0-16.0-0.18","60fd0f49858465796afd5da9","650c16f0f2faf8d7a0d14c09","651c1c358a8e7e17c975e0dd","null","null","<p style=""font-size: 60px; font-family: BACS"">rvAJkGua</p>","","","","","","","","",""
"html-keyboard-response","351","665382","0.0-16.0-0.19","60fd0f49858465796afd5da9","650c16f0f2faf8d7a0d14c09","651c1c358a8e7e17c975e0dd","null","null","<p style=""font-size: 60px; font-family: BACS"">rvAJkGua</p>","","","","","","","","",""
"html-keyboard-response","352","666397","0.0-16.0-0.20","60fd0f49858465796afd5da9","650c16f0f2faf8d7a0d14c09","651c1c358a8e7e17c975e0dd","null","null","<p style=""font-size: 60px; font-family: BACS"">rvAJkGua</p>","","","","","","","","",""
"html-keyboard-response","353","667399","0.0-16.0-0.21","60fd0f49858465796afd5da9","650c16f0f2faf8d7a0d14c09","651c1c358a8e7e17c975e0dd","null","null","<p style=""font-size: 60px; font-family: BACS"">rvAJkGua</p>","","","","","","","","",""
"html-keyboard-response","354","668413","0.0-16.0-0.22","60fd0f49858465796afd5da9","650c16f0f2faf8d7a0d14c09","651c1c358a8e7e17c975e0dd","null","null","<p style=""font-size: 60px; font-family: BACS"">rvAJkGua</p>","","","","","","","","",""
"html-keyboard-response","355","669429","0.0-16.0-0.23","60fd0f49858465796afd5da9","650c16f0f2faf8d7a0d14c09","651c1c358a8e7e17c975e0dd","null","null","<p style=""font-size: 60px; font-family: BACS"">rvAJkGua</p>","","","","","","","","",""
"html-keyboard-response","356","670433","0.0-16.0-0.24","60fd0f49858465796afd5da9","650c16f0f2faf8d7a0d14c09","651c1c358a8e7e17c975e0dd","null","null","<p style=""font-size: 60px; font-family: BACS"">rvAJkGua</p>","","","","","","","","",""
"html-keyboard-response","357","671446","0.0-16.0-0.25","60fd0f49858465796afd5da9","650c16f0f2faf8d7a0d14c09","651c1c358a8e7e17c975e0dd","null","null","<p style=""font-size: 60px; font-family: BACS"">rvAJkGua</p>","","","","","","","","",""
"html-keyboard-response","358","672458","0.0-16.0-0.26","60fd0f49858465796afd5da9","650c16f0f2faf8d7a0d14c09","651c1c358a8e7e17c975e0dd","null","null","<p style=""font-size: 60px; font-family: BACS"">rvAJkGua</p>","","","","","","","","",""
"html-keyboard-response","359","673459","0.0-16.0-0.27","60fd0f49858465796afd5da9","650c16f0f2faf8d7a0d14c09","651c1c358a8e7e17c975e0dd","null","null","<p style=""font-size: 60px; font-family: BACS"">rvAJkGua</p>","","","","","","","","",""
"html-keyboard-response","360","674463","0.0-16.0-0.28","60fd0f49858465796afd5da9","650c16f0f2faf8d7a0d14c09","651c1c358a8e7e17c975e0dd","null","null","<p style=""font-size: 60px; font-family: BACS"">rvAJkGua</p>","","","","","","","","",""
"html-keyboard-response","361","675479","0.0-16.0-0.29","60fd0f49858465796afd5da9","650c16f0f2faf8d7a0d14c09","651c1c358a8e7e17c975e0dd","null","null","<p style=""font-size: 60px; font-family: BACS"">rvAJkGua</p>","","","","","","","","",""
"html-keyboard-response","362","676496","0.0-16.0-0.30","60fd0f49858465796afd5da9","650c16f0f2faf8d7a0d14c09","651c1c358a8e7e17c975e0dd","null","null","<p style=""font-size: 60px; font-family: BACS"">rvAJkGua</p>","","","","","","","","",""
"html-keyboard-response","363","677512","0.0-16.0-0.31","60fd0f49858465796afd5da9","650c16f0f2faf8d7a0d14c09","651c1c358a8e7e17c975e0dd","null","null","<p style=""font-size: 60px; font-family: BACS"">rvAJkGua</p>","","","","","","","","",""
"html-keyboard-response","364","678515","0.0-16.0-0.32","60fd0f49858465796afd5da9","650c16f0f2faf8d7a0d14c09","651c1c358a8e7e17c975e0dd","null","null","<p style=""font-size: 60px; font-family: BACS"">rvAJkGua</p>","","","","","","","","",""
"html-keyboard-response","365","679530","0.0-16.0-0.33","60fd0f49858465796afd5da9","650c16f0f2faf8d7a0d14c09","651c1c358a8e7e17c975e0dd","null","null","<p style=""font-size: 60px; font-family: BACS"">rvAJkGua</p>","","","","","","","","",""
"html-keyboard-response","366","680546","0.0-16.0-0.34","60fd0f49858465796afd5da9","650c16f0f2faf8d7a0d14c09","651c1c358a8e7e17c975e0dd","null","null","<p style=""font-size: 60px; font-family: BACS"">rvAJkGua</p>","","","","","","","","",""
"html-keyboard-response","367","681562","0.0-16.0-0.35","60fd0f49858465796afd5da9","650c16f0f2faf8d7a0d14c09","651c1c358a8e7e17c975e0dd","null","null","<p style=""font-size: 60px; font-family: BACS"">rvAJkGua</p>","","","","","","","","",""
"html-keyboard-response","368","682566","0.0-16.0-0.36","60fd0f49858465796afd5da9","650c16f0f2faf8d7a0d14c09","651c1c358a8e7e17c975e0dd","null","null","<p style=""font-size: 60px; font-family: BACS"">rvAJkGua</p>","","","","","","","","",""
"html-keyboard-response","369","683579","0.0-16.0-0.37","60fd0f49858465796afd5da9","650c16f0f2faf8d7a0d14c09","651c1c358a8e7e17c975e0dd","null","null","<p style=""font-size: 60px; font-family: BACS"">rvAJkGua</p>","","","","","","","","",""
"html-keyboard-response","370","684581","0.0-16.0-0.38","60fd0f49858465796afd5da9","650c16f0f2faf8d7a0d14c09","651c1c358a8e7e17c975e0dd","null","null","<p style=""font-size: 60px; font-family: BACS"">rvAJkGua</p>","","","","","","","","",""
"html-keyboard-response","371","685596","0.0-16.0-0.39","60fd0f49858465796afd5da9","650c16f0f2faf8d7a0d14c09","651c1c358a8e7e17c975e0dd","null","null","<p style=""font-size: 60px; font-family: BACS"">rvAJkGua</p>","","","","","","","","",""
"html-keyboard-response","372","686599","0.0-16.0-0.40","60fd0f49858465796afd5da9","650c16f0f2faf8d7a0d14c09","651c1c358a8e7e17c975e0dd","null","null","<p style=""font-size: 60px; font-family: BACS"">rvAJkGua</p>","","","","","","","","",""
"html-keyboard-response","373","687613","0.0-16.0-0.41","60fd0f49858465796afd5da9","650c16f0f2faf8d7a0d14c09","651c1c358a8e7e17c975e0dd","null","null","<p style=""font-size: 60px; font-family: BACS"">rvAJkGua</p>","","","","","","","","",""
"html-keyboard-response","374","688614","0.0-16.0-0.42","60fd0f49858465796afd5da9","650c16f0f2faf8d7a0d14c09","651c1c358a8e7e17c975e0dd","null","null","<p style=""font-size: 60px; font-family: BACS"">rvAJkGua</p>","","","","","","","","",""
"html-keyboard-response","375","689630","0.0-16.0-0.43","60fd0f49858465796afd5da9","650c16f0f2faf8d7a0d14c09","651c1c358a8e7e17c975e0dd","null","null","<p style=""font-size: 60px; font-family: BACS"">rvAJkGua</p>","","","","","","","","",""
"html-keyboard-response","376","690646","0.0-16.0-0.44","60fd0f49858465796afd5da9","650c16f0f2faf8d7a0d14c09","651c1c358a8e7e17c975e0dd","null","null","<p style=""font-size: 60px; font-family: BACS"">rvAJkGua</p>","","","","","","","","",""
"html-keyboard-response","377","691648","0.0-16.0-0.45","60fd0f49858465796afd5da9","650c16f0f2faf8d7a0d14c09","651c1c358a8e7e17c975e0dd","null","null","<p style=""font-size: 60px; font-family: BACS"">rvAJkGua</p>","","","","","","","","",""
"html-keyboard-response","378","692664","0.0-16.0-0.46","60fd0f49858465796afd5da9","650c16f0f2faf8d7a0d14c09","651c1c358a8e7e17c975e0dd","null","null","<p style=""font-size: 60px; font-family: BACS"">rvAJkGua</p>","","","","","","","","",""
"html-keyboard-response","379","693681","0.0-16.0-0.47","60fd0f49858465796afd5da9","650c16f0f2faf8d7a0d14c09","651c1c358a8e7e17c975e0dd","null","null","<p style=""font-size: 60px; font-family: BACS"">rvAJkGua</p>","","","","","","","","",""
"html-keyboard-response","380","694697","0.0-16.0-0.48","60fd0f49858465796afd5da9","650c16f0f2faf8d7a0d14c09","651c1c358a8e7e17c975e0dd","null","null","<p style=""font-size: 60px; font-family: BACS"">rvAJkGua</p>","","","","","","","","",""
"html-keyboard-response","381","695698","0.0-16.0-0.49","60fd0f49858465796afd5da9","650c16f0f2faf8d7a0d14c09","651c1c358a8e7e17c975e0dd","null","null","<p style=""font-size: 60px; font-family: BACS"">rvAJkGua</p>","","","","","","","","",""
"html-keyboard-response","382","696712","0.0-16.0-0.50","60fd0f49858465796afd5da9","650c16f0f2faf8d7a0d14c09","651c1c358a8e7e17c975e0dd","null","null","<p style=""font-size: 60px; font-family: BACS"">rvAJkGua</p>","","","","","","","","",""
"html-keyboard-response","383","697729","0.0-16.0-0.51","60fd0f49858465796afd5da9","650c16f0f2faf8d7a0d14c09","651c1c358a8e7e17c975e0dd","null","null","<p style=""font-size: 60px; font-family: BACS"">rvAJkGua</p>","","","","","","","","",""
"html-keyboard-response","384","698745","0.0-16.0-0.52","60fd0f49858465796afd5da9","650c16f0f2faf8d7a0d14c09","651c1c358a8e7e17c975e0dd","null","null","<p style=""font-size: 60px; font-family: BACS"">rvAJkGua</p>","","","","","","","","",""
"html-keyboard-response","385","699751","0.0-16.0-0.53","60fd0f49858465796afd5da9","650c16f0f2faf8d7a0d14c09","651c1c358a8e7e17c975e0dd","null","null","<p style=""font-size: 60px; font-family: BACS"">rvAJkGua</p>","","","","","","","","",""
"html-keyboard-response","386","700762","0.0-16.0-0.54","60fd0f49858465796afd5da9","650c16f0f2faf8d7a0d14c09","651c1c358a8e7e17c975e0dd","null","null","<p style=""font-size: 60px; font-family: BACS"">rvAJkGua</p>","","","","","","","","",""
"html-keyboard-response","387","701767","0.0-16.0-0.55","60fd0f49858465796afd5da9","650c16f0f2faf8d7a0d14c09","651c1c358a8e7e17c975e0dd","null","null","<p style=""font-size: 60px; font-family: BACS"">rvAJkGua</p>","","","","","","","","",""
"html-keyboard-response","388","702780","0.0-16.0-0.56","60fd0f49858465796afd5da9","650c16f0f2faf8d7a0d14c09","651c1c358a8e7e17c975e0dd","null","null","<p style=""font-size: 60px; font-family: BACS"">rvAJkGua</p>","","","","","","","","",""
"html-keyboard-response","389","703782","0.0-16.0-0.57","60fd0f49858465796afd5da9","650c16f0f2faf8d7a0d14c09","651c1c358a8e7e17c975e0dd","null","null","<p style=""font-size: 60px; font-family: BACS"">rvAJkGua</p>","","","","","","","","",""
"html-keyboard-response","390","704797","0.0-16.0-0.58","60fd0f49858465796afd5da9","650c16f0f2faf8d7a0d14c09","651c1c358a8e7e17c975e0dd","null","null","<p style=""font-size: 60px; font-family: BACS"">rvAJkGua</p>","","","","","","","","",""
"html-keyboard-response","391","705811","0.0-16.0-0.59","60fd0f49858465796afd5da9","650c16f0f2faf8d7a0d14c09","651c1c358a8e7e17c975e0dd","null","null","<p style=""font-size: 60px; font-family: BACS"">rvAJkGua</p>","","","","","","","","",""
"html-keyboard-response","392","706813","0.0-16.0-0.60","60fd0f49858465796afd5da9","650c16f0f2faf8d7a0d14c09","651c1c358a8e7e17c975e0dd","null","null","<p style=""font-size: 60px; font-family: BACS"">rvAJkGua</p>","","","","","","","","",""
"html-keyboard-response","393","707829","0.0-16.0-0.61","60fd0f49858465796afd5da9","650c16f0f2faf8d7a0d14c09","651c1c358a8e7e17c975e0dd","null","null","<p style=""font-size: 60px; font-family: BACS"">rvAJkGua</p>","","","","","","","","",""
"html-keyboard-response","394","708845","0.0-16.0-0.62","60fd0f49858465796afd5da9","650c16f0f2faf8d7a0d14c09","651c1c358a8e7e17c975e0dd","null","null","<p style=""font-size: 60px; font-family: BACS"">rvAJkGua</p>","","","","","","","","",""
"html-keyboard-response","395","709862","0.0-16.0-0.63","60fd0f49858465796afd5da9","650c16f0f2faf8d7a0d14c09","651c1c358a8e7e17c975e0dd","null","null","<p style=""font-size: 60px; font-family: BACS"">rvAJkGua</p>","","","","","","","","",""
"html-keyboard-response","396","710864","0.0-16.0-0.64","60fd0f49858465796afd5da9","650c16f0f2faf8d7a0d14c09","651c1c358a8e7e17c975e0dd","null","null","<p style=""font-size: 60px; font-family: BACS"">rvAJkGua</p>","","","","","","","","",""
"html-keyboard-response","397","711880","0.0-16.0-0.65","60fd0f49858465796afd5da9","650c16f0f2faf8d7a0d14c09","651c1c358a8e7e17c975e0dd","null","null","<p style=""font-size: 60px; font-family: BACS"">rvAJkGua</p>","","","","","","","","",""
"html-keyboard-response","398","712895","0.0-16.0-0.66","60fd0f49858465796afd5da9","650c16f0f2faf8d7a0d14c09","651c1c358a8e7e17c975e0dd","null","null","<p style=""font-size: 60px; font-family: BACS"">rvAJkGua</p>","","","","","","","","",""
