"trial_type","trial_index","time_elapsed","internal_node_id","subject_id","study_id","session_id","rt","response","stimulus","success","item","task","correct_response","testing_condition","correct","target","confound","name","view_history"
"pavlovia","0","970","0.0-0.0","603e0fefed5529d4b14e3546","64e77d7b61f440b60e28659d","64eca31d3c7a3b80a335508e","","","","","","","","","","","","",""
"survey-html-form","1","6015","0.0-1.0","603e0fefed5529d4b14e3546","64e77d7b61f440b60e28659d","64eca31d3c7a3b80a335508e","5043","{""ID"":""603e0fefed5529d4b14e3546""}","","","","","","","","","","",""
"html-keyboard-response","2","21195","0.0-2.0","603e0fefed5529d4b14e3546","64e77d7b61f440b60e28659d","64eca31d3c7a3b80a335508e","15178"," ","<p style=""font-size: 15px;"">Before beginning, we ask that you read the consent information and confirm your agreement to participate in the experiment.</p>
      <p style=""font-size: 15px;""> We ask that you remember that this is a research project and that your participation is entirely voluntary. You can stop your participation at any time, without needing to provide any explanation. The study we're asking you to participate in aims at examining how readers process written words. You will be engaged in a session of apprximately 20 minutes, followed by a brief questionnaire. You will have the opportunity to take a few breaks during the experiment. You will be paid £4 for your participation, corresponding to a rate of £8/hour. While this experiment looks at cognitive faculties, this experiment doesn't constitute clinical proof of eventual pathologies.</p>
      <p style=""font-size: 15px;"">All of the information collected thanks to yours and others' participation will be held in a secure password-protected server, and will not be shared with anyone not authorised to view it. Your personal information will be kept with an arbitrary participant ID. Thanks to this data anonymity process, any researcher analysing the data won't be able to track the information back to a specific participant. Therefore, this process will make identifying you impossibile, even when results from the study will be published in scientific reviews, presented at congresses, or at any other public forum. More generally, the collected data will be treated in accordance with the laws on privacy and conformity to the Legislative Degree n. 196 ""Code regarding the protection of personal data"" of the 30th of June 2003 and to the European Regulation 2016/670 (General Data Protection Regulation - GDPR). The Data Protection Officer is Avv. Valentina Carollo, who can be contacted at the following email addresses: <a href=""mailto:dpo@sissa.it"">dpo@sissa.it</a> or <a href=""mailto:rpd@sissa.it"">rpd@sissa.it</a> - PEC: <a href=""mailto:protocollo@pec.sissa.it"">protocollo@pec.sissa.it</a>.</p>
      <p style=""font-size: 15px;""> Before expressing your consent to participate, we would like to remind you again that in case you need explanations on any aspect of the experimental procedure, the researcher is at your disposition (<a href=""mailto:aliebelt@sissa.it"">aliebelt@sissa.it</a>, <a href=""mailto:davide.crepaldi@sissa.it"">davide.crepaldi@sissa.it</a>).</p>
      <p style=""font-size: 15px;"">If you would like to download the informed consent form, you can do so here: <a href=""BASL-Informed_Consent.pdf"" download>informed consent form</a>.</p>
      <p style=""font-size: 15px;"">We ask that you press the spacebar to proceed to the consent section.</p>","","","","","","","","","",""
"survey-html-form","3","42584","0.0-3.0","603e0fefed5529d4b14e3546","64e77d7b61f440b60e28659d","64eca31d3c7a3b80a335508e","21387","{""consent1"":""YES"",""consent2"":""YES"",""consent3"":""YES"",""consent4"":""YES"",""consent5"":""YES"",""consent6"":""YES""}","","","","","","","","","","",""
"fullscreen","4","47727","0.0-4.0","603e0fefed5529d4b14e3546","64e77d7b61f440b60e28659d","64eca31d3c7a3b80a335508e","","","","true","","","","","","","","",""
"html-keyboard-response","5","76536","0.0-5.0","603e0fefed5529d4b14e3546","64e77d7b61f440b60e28659d","64eca31d3c7a3b80a335508e","28808"," ","<p>Welcome, and thank you very much for your time!</p>
      <p>In this experiment, you'll be a language expert who's been asked to take a look at words that Earth has received in its first communication with aliens. Your task, in this first part of the experiment, is to pay close attention to the words you'll be shown; later, world leaders will ask you questions on what you saw. The words will be shown to you quite quickly; it seems that the aliens were in a hurry :-)</p>
      <p>Press the spacebar to continue.<p>","","","","","","","","","",""
"html-keyboard-response","6","82174","0.0-6.0","603e0fefed5529d4b14e3546","64e77d7b61f440b60e28659d","64eca31d3c7a3b80a335508e","5635"," ","<p>Here is an example of the words you'll see:</p>
      <img src='esempio.png' height='400px'>
      <p>When you're ready to begin, press the spacebar.</p></div>","","","","","","","","","",""
"html-keyboard-response","7","83189","0.0-7.0-0.0","603e0fefed5529d4b14e3546","64e77d7b61f440b60e28659d","64eca31d3c7a3b80a335508e","null","null","<p style=""font-size: 60px; font-family: BACS"">uAkrbadk</p>","","","","","","","","","",""
"html-keyboard-response","8","84192","0.0-7.0-0.1","603e0fefed5529d4b14e3546","64e77d7b61f440b60e28659d","64eca31d3c7a3b80a335508e","null","null","<p style=""font-size: 60px; font-family: BACS"">krGuYNu</p>","","","","","","","","","",""
"html-keyboard-response","9","85196","0.0-7.0-0.2","603e0fefed5529d4b14e3546","64e77d7b61f440b60e28659d","64eca31d3c7a3b80a335508e","null","null","<p style=""font-size: 60px; font-family: BACS"">JAdLmJUNa</p>","","","","","","","","","",""
"html-keyboard-response","10","86199","0.0-7.0-0.3","603e0fefed5529d4b14e3546","64e77d7b61f440b60e28659d","64eca31d3c7a3b80a335508e","null","null","<p style=""font-size: 60px; font-family: BACS"">CDEmYCKOb</p>","","","","","","","","","",""
"html-keyboard-response","11","87207","0.0-7.0-0.4","603e0fefed5529d4b14e3546","64e77d7b61f440b60e28659d","64eca31d3c7a3b80a335508e","null","null","<p style=""font-size: 60px; font-family: BACS"">ArQuvAvb</p>","","","","","","","","","",""
"html-keyboard-response","12","88210","0.0-7.0-0.5","603e0fefed5529d4b14e3546","64e77d7b61f440b60e28659d","64eca31d3c7a3b80a335508e","null","null","<p style=""font-size: 60px; font-family: BACS"">LOLkUQru</p>","","","","","","","","","",""
"html-keyboard-response","13","89215","0.0-7.0-0.6","603e0fefed5529d4b14e3546","64e77d7b61f440b60e28659d","64eca31d3c7a3b80a335508e","null","null","<p style=""font-size: 60px; font-family: BACS"">LGkAvAvb</p>","","","","","","","","","",""
"html-keyboard-response","14","90220","0.0-7.0-0.7","603e0fefed5529d4b14e3546","64e77d7b61f440b60e28659d","64eca31d3c7a3b80a335508e","null","null","<p style=""font-size: 60px; font-family: BACS"">lTmOAlKD</p>","","","","","","","","","",""
"html-keyboard-response","15","91224","0.0-7.0-0.8","603e0fefed5529d4b14e3546","64e77d7b61f440b60e28659d","64eca31d3c7a3b80a335508e","null","null","<p style=""font-size: 60px; font-family: BACS"">TPCbPEdK</p>","","","","","","","","","",""
"html-keyboard-response","16","92229","0.0-7.0-0.9","603e0fefed5529d4b14e3546","64e77d7b61f440b60e28659d","64eca31d3c7a3b80a335508e","null","null","<p style=""font-size: 60px; font-family: BACS"">EltMBCEM</p>","","","","","","","","","",""
"html-keyboard-response","17","93248","0.0-7.0-0.10","603e0fefed5529d4b14e3546","64e77d7b61f440b60e28659d","64eca31d3c7a3b80a335508e","null","null","<p style=""font-size: 60px; font-family: BACS"">EMYKlRE</p>","","","","","","","","","",""
"html-keyboard-response","18","94253","0.0-7.0-0.11","603e0fefed5529d4b14e3546","64e77d7b61f440b60e28659d","64eca31d3c7a3b80a335508e","null","null","<p style=""font-size: 60px; font-family: BACS"">GLYrAvAvb</p>","","","","","","","","","",""
"html-keyboard-response","19","95271","0.0-7.0-0.12","603e0fefed5529d4b14e3546","64e77d7b61f440b60e28659d","64eca31d3c7a3b80a335508e","null","null","<p style=""font-size: 60px; font-family: BACS"">YlYcCKOb</p>","","","","","","","","","",""
"html-keyboard-response","20","96277","0.0-7.0-0.13","603e0fefed5529d4b14e3546","64e77d7b61f440b60e28659d","64eca31d3c7a3b80a335508e","null","null","<p style=""font-size: 60px; font-family: BACS"">JAaGQru</p>","","","","","","","","","",""
"html-keyboard-response","21","97278","0.0-7.0-0.14","603e0fefed5529d4b14e3546","64e77d7b61f440b60e28659d","64eca31d3c7a3b80a335508e","null","null","<p style=""font-size: 60px; font-family: BACS"">CDEmYAlKD</p>","","","","","","","","","",""
"html-keyboard-response","22","98284","0.0-7.0-0.15","603e0fefed5529d4b14e3546","64e77d7b61f440b60e28659d","64eca31d3c7a3b80a335508e","null","null","<p style=""font-size: 60px; font-family: BACS"">AlTdCEM</p>","","","","","","","","","",""
"html-keyboard-response","23","99290","0.0-7.0-0.16","603e0fefed5529d4b14e3546","64e77d7b61f440b60e28659d","64eca31d3c7a3b80a335508e","null","null","<p style=""font-size: 60px; font-family: BACS"">ArQuJUNa</p>","","","","","","","","","",""
"html-keyboard-response","24","100298","0.0-7.0-0.17","603e0fefed5529d4b14e3546","64e77d7b61f440b60e28659d","64eca31d3c7a3b80a335508e","null","null","<p style=""font-size: 60px; font-family: BACS"">AlTdAlKD</p>","","","","","","","","","",""
"html-keyboard-response","25","101304","0.0-7.0-0.18","603e0fefed5529d4b14e3546","64e77d7b61f440b60e28659d","64eca31d3c7a3b80a335508e","null","null","<p style=""font-size: 60px; font-family: BACS"">TPCblRE</p>","","","","","","","","","",""
"html-keyboard-response","26","102311","0.0-7.0-0.19","603e0fefed5529d4b14e3546","64e77d7b61f440b60e28659d","64eca31d3c7a3b80a335508e","null","null","<p style=""font-size: 60px; font-family: BACS"">lTmOCEM</p>","","","","","","","","","",""
"html-keyboard-response","27","103319","0.0-7.0-0.20","603e0fefed5529d4b14e3546","64e77d7b61f440b60e28659d","64eca31d3c7a3b80a335508e","null","null","<p style=""font-size: 60px; font-family: BACS"">LOLkUJUNa</p>","","","","","","","","","",""
"html-keyboard-response","28","104325","0.0-7.0-0.21","603e0fefed5529d4b14e3546","64e77d7b61f440b60e28659d","64eca31d3c7a3b80a335508e","null","null","<p style=""font-size: 60px; font-family: BACS"">ArQuQru</p>","","","","","","","","","",""
"html-keyboard-response","29","105335","0.0-7.0-0.22","603e0fefed5529d4b14e3546","64e77d7b61f440b60e28659d","64eca31d3c7a3b80a335508e","null","null","<p style=""font-size: 60px; font-family: BACS"">LGkAJUNa</p>","","","","","","","","","",""
"html-keyboard-response","30","106344","0.0-7.0-0.23","603e0fefed5529d4b14e3546","64e77d7b61f440b60e28659d","64eca31d3c7a3b80a335508e","null","null","<p style=""font-size: 60px; font-family: BACS"">cROMtCKOb</p>","","","","","","","","","",""
"html-keyboard-response","31","107356","0.0-7.0-0.24","603e0fefed5529d4b14e3546","64e77d7b61f440b60e28659d","64eca31d3c7a3b80a335508e","null","null","<p style=""font-size: 60px; font-family: BACS"">DRPkYPEdK</p>","","","","","","","","","",""
"html-keyboard-response","32","108363","0.0-7.0-0.25","603e0fefed5529d4b14e3546","64e77d7b61f440b60e28659d","64eca31d3c7a3b80a335508e","null","null","<p style=""font-size: 60px; font-family: BACS"">LOLkUbadk</p>","","","","","","","","","",""
"html-keyboard-response","33","109371","0.0-7.0-0.26","603e0fefed5529d4b14e3546","64e77d7b61f440b60e28659d","64eca31d3c7a3b80a335508e","null","null","<p style=""font-size: 60px; font-family: BACS"">AlTdlRE</p>","","","","","","","","","",""
"html-keyboard-response","34","110378","0.0-7.0-0.27","603e0fefed5529d4b14e3546","64e77d7b61f440b60e28659d","64eca31d3c7a3b80a335508e","null","null","<p style=""font-size: 60px; font-family: BACS"">dMThkPEdK</p>","","","","","","","","","",""
"html-keyboard-response","35","111402","0.0-7.0-0.28","603e0fefed5529d4b14e3546","64e77d7b61f440b60e28659d","64eca31d3c7a3b80a335508e","null","null","<p style=""font-size: 60px; font-family: BACS"">rckOQru</p>","","","","","","","","","",""
"html-keyboard-response","36","112407","0.0-7.0-0.29","603e0fefed5529d4b14e3546","64e77d7b61f440b60e28659d","64eca31d3c7a3b80a335508e","null","null","<p style=""font-size: 60px; font-family: BACS"">krGuJUNa</p>","","","","","","","","","",""
"html-keyboard-response","37","113426","0.0-7.0-0.30","603e0fefed5529d4b14e3546","64e77d7b61f440b60e28659d","64eca31d3c7a3b80a335508e","null","null","<p style=""font-size: 60px; font-family: BACS"">dMThklRE</p>","","","","","","","","","",""
"html-keyboard-response","38","114433","0.0-7.0-0.31","603e0fefed5529d4b14e3546","64e77d7b61f440b60e28659d","64eca31d3c7a3b80a335508e","null","null","<p style=""font-size: 60px; font-family: BACS"">OAblcbadk</p>","","","","","","","","","",""
"html-keyboard-response","39","115439","0.0-7.0-0.32","603e0fefed5529d4b14e3546","64e77d7b61f440b60e28659d","64eca31d3c7a3b80a335508e","null","null","<p style=""font-size: 60px; font-family: BACS"">cROMtlRE</p>","","","","","","","","","",""
"html-keyboard-response","40","116444","0.0-7.0-0.33","603e0fefed5529d4b14e3546","64e77d7b61f440b60e28659d","64eca31d3c7a3b80a335508e","null","null","<p style=""font-size: 60px; font-family: BACS"">OAblcJUNa</p>","","","","","","","","","",""
"html-keyboard-response","41","117452","0.0-7.0-0.34","603e0fefed5529d4b14e3546","64e77d7b61f440b60e28659d","64eca31d3c7a3b80a335508e","null","null","<p style=""font-size: 60px; font-family: BACS"">YlYcAlKD</p>","","","","","","","","","",""
"html-keyboard-response","42","118458","0.0-7.0-0.35","603e0fefed5529d4b14e3546","64e77d7b61f440b60e28659d","64eca31d3c7a3b80a335508e","null","null","<p style=""font-size: 60px; font-family: BACS"">OAblcvAvb</p>","","","","","","","","","",""
"html-keyboard-response","43","119464","0.0-7.0-0.36","603e0fefed5529d4b14e3546","64e77d7b61f440b60e28659d","64eca31d3c7a3b80a335508e","null","null","<p style=""font-size: 60px; font-family: BACS"">JAdLmbadk</p>","","","","","","","","","",""
"html-keyboard-response","44","120472","0.0-7.0-0.37","603e0fefed5529d4b14e3546","64e77d7b61f440b60e28659d","64eca31d3c7a3b80a335508e","null","null","<p style=""font-size: 60px; font-family: BACS"">rckOvAvb</p>","","","","","","","","","",""
"html-keyboard-response","45","121476","0.0-7.0-0.38","603e0fefed5529d4b14e3546","64e77d7b61f440b60e28659d","64eca31d3c7a3b80a335508e","null","null","<p style=""font-size: 60px; font-family: BACS"">YlYcCEM</p>","","","","","","","","","",""
"html-keyboard-response","46","122484","0.0-7.0-0.39","603e0fefed5529d4b14e3546","64e77d7b61f440b60e28659d","64eca31d3c7a3b80a335508e","null","null","<p style=""font-size: 60px; font-family: BACS"">cROMtAlKD</p>","","","","","","","","","",""
"html-keyboard-response","47","123495","0.0-7.0-0.40","603e0fefed5529d4b14e3546","64e77d7b61f440b60e28659d","64eca31d3c7a3b80a335508e","null","null","<p style=""font-size: 60px; font-family: BACS"">uAkrYNu</p>","","","","","","","","","",""
"html-keyboard-response","48","124501","0.0-7.0-0.41","603e0fefed5529d4b14e3546","64e77d7b61f440b60e28659d","64eca31d3c7a3b80a335508e","null","null","<p style=""font-size: 60px; font-family: BACS"">GLYrAbadk</p>","","","","","","","","","",""
"html-keyboard-response","49","125508","0.0-7.0-0.42","603e0fefed5529d4b14e3546","64e77d7b61f440b60e28659d","64eca31d3c7a3b80a335508e","null","null","<p style=""font-size: 60px; font-family: BACS"">LGkAYNu</p>","","","","","","","","","",""
"html-keyboard-response","50","126516","0.0-7.0-0.43","603e0fefed5529d4b14e3546","64e77d7b61f440b60e28659d","64eca31d3c7a3b80a335508e","null","null","<p style=""font-size: 60px; font-family: BACS"">JAaGvAvb</p>","","","","","","","","","",""
"html-keyboard-response","51","127520","0.0-7.0-0.44","603e0fefed5529d4b14e3546","64e77d7b61f440b60e28659d","64eca31d3c7a3b80a335508e","null","null","<p style=""font-size: 60px; font-family: BACS"">TPCbCKOb</p>","","","","","","","","","",""
"html-keyboard-response","52","128527","0.0-7.0-0.45","603e0fefed5529d4b14e3546","64e77d7b61f440b60e28659d","64eca31d3c7a3b80a335508e","null","null","<p style=""font-size: 60px; font-family: BACS"">dMThkAlKD</p>","","","","","","","","","",""
"html-keyboard-response","53","129530","0.0-7.0-0.46","603e0fefed5529d4b14e3546","64e77d7b61f440b60e28659d","64eca31d3c7a3b80a335508e","null","null","<p style=""font-size: 60px; font-family: BACS"">EltMBlRE</p>","","","","","","","","","",""
"html-keyboard-response","54","130552","0.0-7.0-0.47","603e0fefed5529d4b14e3546","64e77d7b61f440b60e28659d","64eca31d3c7a3b80a335508e","null","null","<p style=""font-size: 60px; font-family: BACS"">JAaGYNu</p>","","","","","","","","","",""
"html-keyboard-response","55","131558","0.0-7.0-0.48","603e0fefed5529d4b14e3546","64e77d7b61f440b60e28659d","64eca31d3c7a3b80a335508e","null","null","<p style=""font-size: 60px; font-family: BACS"">EltMBAlKD</p>","","","","","","","","","",""
"html-keyboard-response","56","132562","0.0-7.0-0.49","603e0fefed5529d4b14e3546","64e77d7b61f440b60e28659d","64eca31d3c7a3b80a335508e","null","null","<p style=""font-size: 60px; font-family: BACS"">dMThkCEM</p>","","","","","","","","","",""
"html-keyboard-response","57","133569","0.0-7.0-0.50","603e0fefed5529d4b14e3546","64e77d7b61f440b60e28659d","64eca31d3c7a3b80a335508e","null","null","<p style=""font-size: 60px; font-family: BACS"">cROMtPEdK</p>","","","","","","","","","",""
"html-keyboard-response","58","134570","0.0-7.0-0.51","603e0fefed5529d4b14e3546","64e77d7b61f440b60e28659d","64eca31d3c7a3b80a335508e","null","null","<p style=""font-size: 60px; font-family: BACS"">JAaGbadk</p>","","","","","","","","","",""
"html-keyboard-response","59","135575","0.0-7.0-0.52","603e0fefed5529d4b14e3546","64e77d7b61f440b60e28659d","64eca31d3c7a3b80a335508e","null","null","<p style=""font-size: 60px; font-family: BACS"">rckOYNu</p>","","","","","","","","","",""
"html-keyboard-response","60","136599","0.0-7.0-0.53","603e0fefed5529d4b14e3546","64e77d7b61f440b60e28659d","64eca31d3c7a3b80a335508e","null","null","<p style=""font-size: 60px; font-family: BACS"">uAkrQru</p>","","","","","","","","","",""
"html-keyboard-response","61","137605","0.0-7.0-0.54","603e0fefed5529d4b14e3546","64e77d7b61f440b60e28659d","64eca31d3c7a3b80a335508e","null","null","<p style=""font-size: 60px; font-family: BACS"">GLYrAYNu</p>","","","","","","","","","",""
"html-keyboard-response","62","138610","0.0-7.0-0.55","603e0fefed5529d4b14e3546","64e77d7b61f440b60e28659d","64eca31d3c7a3b80a335508e","null","null","<p style=""font-size: 60px; font-family: BACS"">JAdLmvAvb</p>","","","","","","","","","",""
"html-keyboard-response","63","139614","0.0-7.0-0.56","603e0fefed5529d4b14e3546","64e77d7b61f440b60e28659d","64eca31d3c7a3b80a335508e","null","null","<p style=""font-size: 60px; font-family: BACS"">OAblcYNu</p>","","","","","","","","","",""
"html-keyboard-response","64","140622","0.0-7.0-0.57","603e0fefed5529d4b14e3546","64e77d7b61f440b60e28659d","64eca31d3c7a3b80a335508e","null","null","<p style=""font-size: 60px; font-family: BACS"">krGubadk</p>","","","","","","","","","",""
"html-keyboard-response","65","141627","0.0-7.0-0.58","603e0fefed5529d4b14e3546","64e77d7b61f440b60e28659d","64eca31d3c7a3b80a335508e","null","null","<p style=""font-size: 60px; font-family: BACS"">LOLkUYNu</p>","","","","","","","","","",""
"html-keyboard-response","66","142631","0.0-7.0-0.59","603e0fefed5529d4b14e3546","64e77d7b61f440b60e28659d","64eca31d3c7a3b80a335508e","null","null","<p style=""font-size: 60px; font-family: BACS"">EMYKCEM</p>","","","","","","","","","",""
"html-keyboard-response","67","143636","0.0-7.0-0.60","603e0fefed5529d4b14e3546","64e77d7b61f440b60e28659d","64eca31d3c7a3b80a335508e","null","null","<p style=""font-size: 60px; font-family: BACS"">LGkAQru</p>","","","","","","","","","",""
"html-keyboard-response","68","144644","0.0-7.0-0.61","603e0fefed5529d4b14e3546","64e77d7b61f440b60e28659d","64eca31d3c7a3b80a335508e","null","null","<p style=""font-size: 60px; font-family: BACS"">YlYcPEdK</p>","","","","","","","","","",""
"html-keyboard-response","69","145649","0.0-7.0-0.62","603e0fefed5529d4b14e3546","64e77d7b61f440b60e28659d","64eca31d3c7a3b80a335508e","null","null","<p style=""font-size: 60px; font-family: BACS"">CDEmYCEM</p>","","","","","","","","","",""
"html-keyboard-response","70","146651","0.0-7.0-0.63","603e0fefed5529d4b14e3546","64e77d7b61f440b60e28659d","64eca31d3c7a3b80a335508e","null","null","<p style=""font-size: 60px; font-family: BACS"">lTmOlRE</p>","","","","","","","","","",""
"html-keyboard-response","71","147657","0.0-7.0-0.64","603e0fefed5529d4b14e3546","64e77d7b61f440b60e28659d","64eca31d3c7a3b80a335508e","null","null","<p style=""font-size: 60px; font-family: BACS"">uAkrvAvb</p>","","","","","","","","","",""
"html-keyboard-response","72","148662","0.0-7.0-0.65","603e0fefed5529d4b14e3546","64e77d7b61f440b60e28659d","64eca31d3c7a3b80a335508e","null","null","<p style=""font-size: 60px; font-family: BACS"">JAdLmQru</p>","","","","","","","","","",""
"html-keyboard-response","73","149669","0.0-7.0-0.66","603e0fefed5529d4b14e3546","64e77d7b61f440b60e28659d","64eca31d3c7a3b80a335508e","null","null","<p style=""font-size: 60px; font-family: BACS"">GLYrAJUNa</p>","","","","","","","","","",""
"html-keyboard-response","74","150678","0.0-7.0-0.67","603e0fefed5529d4b14e3546","64e77d7b61f440b60e28659d","64eca31d3c7a3b80a335508e","null","null","<p style=""font-size: 60px; font-family: BACS"">lTmOCKOb</p>","","","","","","","","","",""
"html-keyboard-response","75","151687","0.0-7.0-0.68","603e0fefed5529d4b14e3546","64e77d7b61f440b60e28659d","64eca31d3c7a3b80a335508e","null","null","<p style=""font-size: 60px; font-family: BACS"">DRPkYAlKD</p>","","","","","","","","","",""
"html-keyboard-response","76","152695","0.0-7.0-0.69","603e0fefed5529d4b14e3546","64e77d7b61f440b60e28659d","64eca31d3c7a3b80a335508e","null","null","<p style=""font-size: 60px; font-family: BACS"">krGuQru</p>","","","","","","","","","",""
"html-keyboard-response","77","153704","0.0-7.0-0.70","603e0fefed5529d4b14e3546","64e77d7b61f440b60e28659d","64eca31d3c7a3b80a335508e","null","null","<p style=""font-size: 60px; font-family: BACS"">AlTdPEdK</p>","","","","","","","","","",""
"html-keyboard-response","78","154711","0.0-7.0-0.71","603e0fefed5529d4b14e3546","64e77d7b61f440b60e28659d","64eca31d3c7a3b80a335508e","null","null","<p style=""font-size: 60px; font-family: BACS"">EMYKCKOb</p>","","","","","","","","","",""
"html-keyboard-response","79","155736","0.0-7.0-0.72","603e0fefed5529d4b14e3546","64e77d7b61f440b60e28659d","64eca31d3c7a3b80a335508e","null","null","<p style=""font-size: 60px; font-family: BACS"">rckOJUNa</p>","","","","","","","","","",""
"html-keyboard-response","80","156744","0.0-7.0-0.73","603e0fefed5529d4b14e3546","64e77d7b61f440b60e28659d","64eca31d3c7a3b80a335508e","null","null","<p style=""font-size: 60px; font-family: BACS"">CDEmYPEdK</p>","","","","","","","","","",""
"html-keyboard-response","81","157749","0.0-7.0-0.74","603e0fefed5529d4b14e3546","64e77d7b61f440b60e28659d","64eca31d3c7a3b80a335508e","null","null","<p style=""font-size: 60px; font-family: BACS"">DRPkYCKOb</p>","","","","","","","","","",""
"html-keyboard-response","82","158758","0.0-7.0-0.75","603e0fefed5529d4b14e3546","64e77d7b61f440b60e28659d","64eca31d3c7a3b80a335508e","null","null","<p style=""font-size: 60px; font-family: BACS"">ArQubadk</p>","","","","","","","","","",""
"html-keyboard-response","83","159764","0.0-7.0-0.76","603e0fefed5529d4b14e3546","64e77d7b61f440b60e28659d","64eca31d3c7a3b80a335508e","null","null","<p style=""font-size: 60px; font-family: BACS"">EMYKPEdK</p>","","","","","","","","","",""
"html-keyboard-response","84","160768","0.0-7.0-0.77","603e0fefed5529d4b14e3546","64e77d7b61f440b60e28659d","64eca31d3c7a3b80a335508e","null","null","<p style=""font-size: 60px; font-family: BACS"">EltMBCKOb</p>","","","","","","","","","",""
"html-keyboard-response","85","161772","0.0-7.0-0.78","603e0fefed5529d4b14e3546","64e77d7b61f440b60e28659d","64eca31d3c7a3b80a335508e","null","null","<p style=""font-size: 60px; font-family: BACS"">TPCbCEM</p>","","","","","","","","","",""
"html-keyboard-response","86","162776","0.0-7.0-0.79","603e0fefed5529d4b14e3546","64e77d7b61f440b60e28659d","64eca31d3c7a3b80a335508e","null","null","<p style=""font-size: 60px; font-family: BACS"">DRPkYlRE</p>","","","","","","","","","",""
"html-keyboard-response","87","175713","0.0-8.0","603e0fefed5529d4b14e3546","64e77d7b61f440b60e28659d","64eca31d3c7a3b80a335508e","12935"," ","<p>Great, you've seen the first block of words. You may now take a short break.</p>
      <p>Press the spacebar when you're ready to continue.</p>","","","","","","","","","",""
"html-keyboard-response","88","176720","0.0-9.0-0.0","603e0fefed5529d4b14e3546","64e77d7b61f440b60e28659d","64eca31d3c7a3b80a335508e","null","null","<p style=""font-size: 60px; font-family: BACS"">OAblcYNu</p>","","","","","","","","","",""
"html-keyboard-response","89","177726","0.0-9.0-0.1","603e0fefed5529d4b14e3546","64e77d7b61f440b60e28659d","64eca31d3c7a3b80a335508e","null","null","<p style=""font-size: 60px; font-family: BACS"">rckOJUNa</p>","","","","","","","","","",""
"html-keyboard-response","90","178728","0.0-9.0-0.2","603e0fefed5529d4b14e3546","64e77d7b61f440b60e28659d","64eca31d3c7a3b80a335508e","null","null","<p style=""font-size: 60px; font-family: BACS"">krGubadk</p>","","","","","","","","","",""
"html-keyboard-response","91","179732","0.0-9.0-0.3","603e0fefed5529d4b14e3546","64e77d7b61f440b60e28659d","64eca31d3c7a3b80a335508e","null","null","<p style=""font-size: 60px; font-family: BACS"">CDEmYCEM</p>","","","","","","","","","",""
"html-keyboard-response","92","180737","0.0-9.0-0.4","603e0fefed5529d4b14e3546","64e77d7b61f440b60e28659d","64eca31d3c7a3b80a335508e","null","null","<p style=""font-size: 60px; font-family: BACS"">OAblcJUNa</p>","","","","","","","","","",""
"html-keyboard-response","93","181739","0.0-9.0-0.5","603e0fefed5529d4b14e3546","64e77d7b61f440b60e28659d","64eca31d3c7a3b80a335508e","null","null","<p style=""font-size: 60px; font-family: BACS"">rckOYNu</p>","","","","","","","","","",""
"html-keyboard-response","94","182747","0.0-9.0-0.6","603e0fefed5529d4b14e3546","64e77d7b61f440b60e28659d","64eca31d3c7a3b80a335508e","null","null","<p style=""font-size: 60px; font-family: BACS"">DRPkYCKOb</p>","","","","","","","","","",""
"html-keyboard-response","95","183754","0.0-9.0-0.7","603e0fefed5529d4b14e3546","64e77d7b61f440b60e28659d","64eca31d3c7a3b80a335508e","null","null","<p style=""font-size: 60px; font-family: BACS"">EltMBCEM</p>","","","","","","","","","",""
"html-keyboard-response","96","184759","0.0-9.0-0.8","603e0fefed5529d4b14e3546","64e77d7b61f440b60e28659d","64eca31d3c7a3b80a335508e","null","null","<p style=""font-size: 60px; font-family: BACS"">uAkrQru</p>","","","","","","","","","",""
"html-keyboard-response","97","185765","0.0-9.0-0.9","603e0fefed5529d4b14e3546","64e77d7b61f440b60e28659d","64eca31d3c7a3b80a335508e","null","null","<p style=""font-size: 60px; font-family: BACS"">DRPkYPEdK</p>","","","","","","","","","",""
"html-keyboard-response","98","186771","0.0-9.0-0.10","603e0fefed5529d4b14e3546","64e77d7b61f440b60e28659d","64eca31d3c7a3b80a335508e","null","null","<p style=""font-size: 60px; font-family: BACS"">dMThklRE</p>","","","","","","","","","",""
"html-keyboard-response","99","187776","0.0-9.0-0.11","603e0fefed5529d4b14e3546","64e77d7b61f440b60e28659d","64eca31d3c7a3b80a335508e","null","null","<p style=""font-size: 60px; font-family: BACS"">LOLkUYNu</p>","","","","","","","","","",""
"html-keyboard-response","100","188782","0.0-9.0-0.12","603e0fefed5529d4b14e3546","64e77d7b61f440b60e28659d","64eca31d3c7a3b80a335508e","null","null","<p style=""font-size: 60px; font-family: BACS"">GLYrAvAvb</p>","","","","","","","","","",""
"html-keyboard-response","101","189790","0.0-9.0-0.13","603e0fefed5529d4b14e3546","64e77d7b61f440b60e28659d","64eca31d3c7a3b80a335508e","null","null","<p style=""font-size: 60px; font-family: BACS"">TPCbCEM</p>","","","","","","","","","",""
"html-keyboard-response","102","190809","0.0-9.0-0.14","603e0fefed5529d4b14e3546","64e77d7b61f440b60e28659d","64eca31d3c7a3b80a335508e","null","null","<p style=""font-size: 60px; font-family: BACS"">JAaGYNu</p>","","","","","","","","","",""
"html-keyboard-response","103","191815","0.0-9.0-0.15","603e0fefed5529d4b14e3546","64e77d7b61f440b60e28659d","64eca31d3c7a3b80a335508e","null","null","<p style=""font-size: 60px; font-family: BACS"">rckOvAvb</p>","","","","","","","","","",""
"html-keyboard-response","104","192817","0.0-9.0-0.16","603e0fefed5529d4b14e3546","64e77d7b61f440b60e28659d","64eca31d3c7a3b80a335508e","null","null","<p style=""font-size: 60px; font-family: BACS"">EltMBAlKD</p>","","","","","","","","","",""
"html-keyboard-response","105","193820","0.0-9.0-0.17","603e0fefed5529d4b14e3546","64e77d7b61f440b60e28659d","64eca31d3c7a3b80a335508e","null","null","<p style=""font-size: 60px; font-family: BACS"">LGkAQru</p>","","","","","","","","","",""
"html-keyboard-response","106","194826","0.0-9.0-0.18","603e0fefed5529d4b14e3546","64e77d7b61f440b60e28659d","64eca31d3c7a3b80a335508e","null","null","<p style=""font-size: 60px; font-family: BACS"">OAblcvAvb</p>","","","","","","","","","",""
"html-keyboard-response","107","195833","0.0-9.0-0.19","603e0fefed5529d4b14e3546","64e77d7b61f440b60e28659d","64eca31d3c7a3b80a335508e","null","null","<p style=""font-size: 60px; font-family: BACS"">krGuQru</p>","","","","","","","","","",""
"html-keyboard-response","108","196839","0.0-9.0-0.20","603e0fefed5529d4b14e3546","64e77d7b61f440b60e28659d","64eca31d3c7a3b80a335508e","null","null","<p style=""font-size: 60px; font-family: BACS"">LGkAvAvb</p>","","","","","","","","","",""
"html-keyboard-response","109","197843","0.0-9.0-0.21","603e0fefed5529d4b14e3546","64e77d7b61f440b60e28659d","64eca31d3c7a3b80a335508e","null","null","<p style=""font-size: 60px; font-family: BACS"">AlTdAlKD</p>","","","","","","","","","",""
"html-keyboard-response","110","198849","0.0-9.0-0.22","603e0fefed5529d4b14e3546","64e77d7b61f440b60e28659d","64eca31d3c7a3b80a335508e","null","null","<p style=""font-size: 60px; font-family: BACS"">JAaGvAvb</p>","","","","","","","","","",""
"html-keyboard-response","111","199873","0.0-9.0-0.23","603e0fefed5529d4b14e3546","64e77d7b61f440b60e28659d","64eca31d3c7a3b80a335508e","null","null","<p style=""font-size: 60px; font-family: BACS"">DRPkYlRE</p>","","","","","","","","","",""
"html-keyboard-response","112","200878","0.0-9.0-0.24","603e0fefed5529d4b14e3546","64e77d7b61f440b60e28659d","64eca31d3c7a3b80a335508e","null","null","<p style=""font-size: 60px; font-family: BACS"">EltMBCKOb</p>","","","","","","","","","",""
"html-keyboard-response","113","201886","0.0-9.0-0.25","603e0fefed5529d4b14e3546","64e77d7b61f440b60e28659d","64eca31d3c7a3b80a335508e","null","null","<p style=""font-size: 60px; font-family: BACS"">dMThkPEdK</p>","","","","","","","","","",""
"html-keyboard-response","114","202891","0.0-9.0-0.26","603e0fefed5529d4b14e3546","64e77d7b61f440b60e28659d","64eca31d3c7a3b80a335508e","null","null","<p style=""font-size: 60px; font-family: BACS"">CDEmYCKOb</p>","","","","","","","","","",""
"html-keyboard-response","115","203895","0.0-9.0-0.27","603e0fefed5529d4b14e3546","64e77d7b61f440b60e28659d","64eca31d3c7a3b80a335508e","null","null","<p style=""font-size: 60px; font-family: BACS"">JAaGbadk</p>","","","","","","","","","",""
"html-keyboard-response","116","204900","0.0-9.0-0.28","603e0fefed5529d4b14e3546","64e77d7b61f440b60e28659d","64eca31d3c7a3b80a335508e","null","null","<p style=""font-size: 60px; font-family: BACS"">lTmOCEM</p>","","","","","","","","","",""
"html-keyboard-response","117","205905","0.0-9.0-0.29","603e0fefed5529d4b14e3546","64e77d7b61f440b60e28659d","64eca31d3c7a3b80a335508e","null","null","<p style=""font-size: 60px; font-family: BACS"">ArQuQru</p>","","","","","","","","","",""
"html-keyboard-response","118","206913","0.0-9.0-0.30","603e0fefed5529d4b14e3546","64e77d7b61f440b60e28659d","64eca31d3c7a3b80a335508e","null","null","<p style=""font-size: 60px; font-family: BACS"">AlTdPEdK</p>","","","","","","","","","",""
"html-keyboard-response","119","207915","0.0-9.0-0.31","603e0fefed5529d4b14e3546","64e77d7b61f440b60e28659d","64eca31d3c7a3b80a335508e","null","null","<p style=""font-size: 60px; font-family: BACS"">LOLkUJUNa</p>","","","","","","","","","",""
"html-keyboard-response","120","208934","0.0-9.0-0.32","603e0fefed5529d4b14e3546","64e77d7b61f440b60e28659d","64eca31d3c7a3b80a335508e","null","null","<p style=""font-size: 60px; font-family: BACS"">TPCbCKOb</p>","","","","","","","","","",""
"html-keyboard-response","121","209939","0.0-9.0-0.33","603e0fefed5529d4b14e3546","64e77d7b61f440b60e28659d","64eca31d3c7a3b80a335508e","null","null","<p style=""font-size: 60px; font-family: BACS"">lTmOlRE</p>","","","","","","","","","",""
"html-keyboard-response","122","210942","0.0-9.0-0.34","603e0fefed5529d4b14e3546","64e77d7b61f440b60e28659d","64eca31d3c7a3b80a335508e","null","null","<p style=""font-size: 60px; font-family: BACS"">uAkrbadk</p>","","","","","","","","","",""
"html-keyboard-response","123","211946","0.0-9.0-0.35","603e0fefed5529d4b14e3546","64e77d7b61f440b60e28659d","64eca31d3c7a3b80a335508e","null","null","<p style=""font-size: 60px; font-family: BACS"">CDEmYPEdK</p>","","","","","","","","","",""
"html-keyboard-response","124","212953","0.0-9.0-0.36","603e0fefed5529d4b14e3546","64e77d7b61f440b60e28659d","64eca31d3c7a3b80a335508e","null","null","<p style=""font-size: 60px; font-family: BACS"">TPCblRE</p>","","","","","","","","","",""
"html-keyboard-response","125","213958","0.0-9.0-0.37","603e0fefed5529d4b14e3546","64e77d7b61f440b60e28659d","64eca31d3c7a3b80a335508e","null","null","<p style=""font-size: 60px; font-family: BACS"">uAkrvAvb</p>","","","","","","","","","",""
"html-keyboard-response","126","214976","0.0-9.0-0.38","603e0fefed5529d4b14e3546","64e77d7b61f440b60e28659d","64eca31d3c7a3b80a335508e","null","null","<p style=""font-size: 60px; font-family: BACS"">CDEmYAlKD</p>","","","","","","","","","",""
"html-keyboard-response","127","215981","0.0-9.0-0.39","603e0fefed5529d4b14e3546","64e77d7b61f440b60e28659d","64eca31d3c7a3b80a335508e","null","null","<p style=""font-size: 60px; font-family: BACS"">LOLkUQru</p>","","","","","","","","","",""
"html-keyboard-response","128","216983","0.0-9.0-0.40","603e0fefed5529d4b14e3546","64e77d7b61f440b60e28659d","64eca31d3c7a3b80a335508e","null","null","<p style=""font-size: 60px; font-family: BACS"">AlTdlRE</p>","","","","","","","","","",""
"html-keyboard-response","129","217992","0.0-9.0-0.41","603e0fefed5529d4b14e3546","64e77d7b61f440b60e28659d","64eca31d3c7a3b80a335508e","null","null","<p style=""font-size: 60px; font-family: BACS"">TPCbPEdK</p>","","","","","","","","","",""
"html-keyboard-response","130","218999","0.0-9.0-0.42","603e0fefed5529d4b14e3546","64e77d7b61f440b60e28659d","64eca31d3c7a3b80a335508e","null","null","<p style=""font-size: 60px; font-family: BACS"">LGkAJUNa</p>","","","","","","","","","",""
"html-keyboard-response","131","220002","0.0-9.0-0.43","603e0fefed5529d4b14e3546","64e77d7b61f440b60e28659d","64eca31d3c7a3b80a335508e","null","null","<p style=""font-size: 60px; font-family: BACS"">JAdLmQru</p>","","","","","","","","","",""
"html-keyboard-response","132","221010","0.0-9.0-0.44","603e0fefed5529d4b14e3546","64e77d7b61f440b60e28659d","64eca31d3c7a3b80a335508e","null","null","<p style=""font-size: 60px; font-family: BACS"">cROMtPEdK</p>","","","","","","","","","",""
"html-keyboard-response","133","222015","0.0-9.0-0.45","603e0fefed5529d4b14e3546","64e77d7b61f440b60e28659d","64eca31d3c7a3b80a335508e","null","null","<p style=""font-size: 60px; font-family: BACS"">EMYKlRE</p>","","","","","","","","","",""
"html-keyboard-response","134","223021","0.0-9.0-0.46","603e0fefed5529d4b14e3546","64e77d7b61f440b60e28659d","64eca31d3c7a3b80a335508e","null","null","<p style=""font-size: 60px; font-family: BACS"">JAaGQru</p>","","","","","","","","","",""
"html-keyboard-response","135","224024","0.0-9.0-0.47","603e0fefed5529d4b14e3546","64e77d7b61f440b60e28659d","64eca31d3c7a3b80a335508e","null","null","<p style=""font-size: 60px; font-family: BACS"">ArQuvAvb</p>","","","","","","","","","",""
"html-keyboard-response","136","225033","0.0-9.0-0.48","603e0fefed5529d4b14e3546","64e77d7b61f440b60e28659d","64eca31d3c7a3b80a335508e","null","null","<p style=""font-size: 60px; font-family: BACS"">cROMtlRE</p>","","","","","","","","","",""
"html-keyboard-response","137","226040","0.0-9.0-0.49","603e0fefed5529d4b14e3546","64e77d7b61f440b60e28659d","64eca31d3c7a3b80a335508e","null","null","<p style=""font-size: 60px; font-family: BACS"">YlYcCKOb</p>","","","","","","","","","",""
"html-keyboard-response","138","227047","0.0-9.0-0.50","603e0fefed5529d4b14e3546","64e77d7b61f440b60e28659d","64eca31d3c7a3b80a335508e","null","null","<p style=""font-size: 60px; font-family: BACS"">rckOQru</p>","","","","","","","","","",""
"html-keyboard-response","139","228054","0.0-9.0-0.51","603e0fefed5529d4b14e3546","64e77d7b61f440b60e28659d","64eca31d3c7a3b80a335508e","null","null","<p style=""font-size: 60px; font-family: BACS"">ArQuJUNa</p>","","","","","","","","","",""
"html-keyboard-response","140","229057","0.0-9.0-0.52","603e0fefed5529d4b14e3546","64e77d7b61f440b60e28659d","64eca31d3c7a3b80a335508e","null","null","<p style=""font-size: 60px; font-family: BACS"">GLYrAYNu</p>","","","","","","","","","",""
"html-keyboard-response","141","230067","0.0-9.0-0.53","603e0fefed5529d4b14e3546","64e77d7b61f440b60e28659d","64eca31d3c7a3b80a335508e","null","null","<p style=""font-size: 60px; font-family: BACS"">cROMtAlKD</p>","","","","","","","","","",""
"html-keyboard-response","142","231071","0.0-9.0-0.54","603e0fefed5529d4b14e3546","64e77d7b61f440b60e28659d","64eca31d3c7a3b80a335508e","null","null","<p style=""font-size: 60px; font-family: BACS"">dMThkCEM</p>","","","","","","","","","",""
"html-keyboard-response","143","232076","0.0-9.0-0.55","603e0fefed5529d4b14e3546","64e77d7b61f440b60e28659d","64eca31d3c7a3b80a335508e","null","null","<p style=""font-size: 60px; font-family: BACS"">JAdLmvAvb</p>","","","","","","","","","",""
"html-keyboard-response","144","233082","0.0-9.0-0.56","603e0fefed5529d4b14e3546","64e77d7b61f440b60e28659d","64eca31d3c7a3b80a335508e","null","null","<p style=""font-size: 60px; font-family: BACS"">dMThkAlKD</p>","","","","","","","","","",""
"html-keyboard-response","145","234083","0.0-9.0-0.57","603e0fefed5529d4b14e3546","64e77d7b61f440b60e28659d","64eca31d3c7a3b80a335508e","null","null","<p style=""font-size: 60px; font-family: BACS"">EMYKCEM</p>","","","","","","","","","",""
"html-keyboard-response","146","235089","0.0-9.0-0.58","603e0fefed5529d4b14e3546","64e77d7b61f440b60e28659d","64eca31d3c7a3b80a335508e","null","null","<p style=""font-size: 60px; font-family: BACS"">YlYcPEdK</p>","","","","","","","","","",""
"html-keyboard-response","147","236109","0.0-9.0-0.59","603e0fefed5529d4b14e3546","64e77d7b61f440b60e28659d","64eca31d3c7a3b80a335508e","null","null","<p style=""font-size: 60px; font-family: BACS"">krGuJUNa</p>","","","","","","","","","",""
"html-keyboard-response","148","237115","0.0-9.0-0.60","603e0fefed5529d4b14e3546","64e77d7b61f440b60e28659d","64eca31d3c7a3b80a335508e","null","null","<p style=""font-size: 60px; font-family: BACS"">JAdLmbadk</p>","","","","","","","","","",""
"html-keyboard-response","149","238121","0.0-9.0-0.61","603e0fefed5529d4b14e3546","64e77d7b61f440b60e28659d","64eca31d3c7a3b80a335508e","null","null","<p style=""font-size: 60px; font-family: BACS"">GLYrAJUNa</p>","","","","","","","","","",""
"html-keyboard-response","150","239129","0.0-9.0-0.62","603e0fefed5529d4b14e3546","64e77d7b61f440b60e28659d","64eca31d3c7a3b80a335508e","null","null","<p style=""font-size: 60px; font-family: BACS"">EMYKPEdK</p>","","","","","","","","","",""
"html-keyboard-response","151","240137","0.0-9.0-0.63","603e0fefed5529d4b14e3546","64e77d7b61f440b60e28659d","64eca31d3c7a3b80a335508e","null","null","<p style=""font-size: 60px; font-family: BACS"">DRPkYAlKD</p>","","","","","","","","","",""
"html-keyboard-response","152","241144","0.0-9.0-0.64","603e0fefed5529d4b14e3546","64e77d7b61f440b60e28659d","64eca31d3c7a3b80a335508e","null","null","<p style=""font-size: 60px; font-family: BACS"">YlYcCEM</p>","","","","","","","","","",""
"html-keyboard-response","153","242149","0.0-9.0-0.65","603e0fefed5529d4b14e3546","64e77d7b61f440b60e28659d","64eca31d3c7a3b80a335508e","null","null","<p style=""font-size: 60px; font-family: BACS"">LOLkUbadk</p>","","","","","","","","","",""
"html-keyboard-response","154","243161","0.0-9.0-0.66","603e0fefed5529d4b14e3546","64e77d7b61f440b60e28659d","64eca31d3c7a3b80a335508e","null","null","<p style=""font-size: 60px; font-family: BACS"">LGkAYNu</p>","","","","","","","","","",""
"html-keyboard-response","155","244166","0.0-9.0-0.67","603e0fefed5529d4b14e3546","64e77d7b61f440b60e28659d","64eca31d3c7a3b80a335508e","null","null","<p style=""font-size: 60px; font-family: BACS"">YlYcAlKD</p>","","","","","","","","","",""
"html-keyboard-response","156","245172","0.0-9.0-0.68","603e0fefed5529d4b14e3546","64e77d7b61f440b60e28659d","64eca31d3c7a3b80a335508e","null","null","<p style=""font-size: 60px; font-family: BACS"">EltMBlRE</p>","","","","","","","","","",""
"html-keyboard-response","157","246176","0.0-9.0-0.69","603e0fefed5529d4b14e3546","64e77d7b61f440b60e28659d","64eca31d3c7a3b80a335508e","null","null","<p style=""font-size: 60px; font-family: BACS"">ArQubadk</p>","","","","","","","","","",""
"html-keyboard-response","158","247180","0.0-9.0-0.70","603e0fefed5529d4b14e3546","64e77d7b61f440b60e28659d","64eca31d3c7a3b80a335508e","null","null","<p style=""font-size: 60px; font-family: BACS"">AlTdCEM</p>","","","","","","","","","",""
"html-keyboard-response","159","248187","0.0-9.0-0.71","603e0fefed5529d4b14e3546","64e77d7b61f440b60e28659d","64eca31d3c7a3b80a335508e","null","null","<p style=""font-size: 60px; font-family: BACS"">lTmOAlKD</p>","","","","","","","","","",""
"html-keyboard-response","160","249191","0.0-9.0-0.72","603e0fefed5529d4b14e3546","64e77d7b61f440b60e28659d","64eca31d3c7a3b80a335508e","null","null","<p style=""font-size: 60px; font-family: BACS"">OAblcbadk</p>","","","","","","","","","",""
"html-keyboard-response","161","250197","0.0-9.0-0.73","603e0fefed5529d4b14e3546","64e77d7b61f440b60e28659d","64eca31d3c7a3b80a335508e","null","null","<p style=""font-size: 60px; font-family: BACS"">uAkrYNu</p>","","","","","","","","","",""
"html-keyboard-response","162","251201","0.0-9.0-0.74","603e0fefed5529d4b14e3546","64e77d7b61f440b60e28659d","64eca31d3c7a3b80a335508e","null","null","<p style=""font-size: 60px; font-family: BACS"">lTmOCKOb</p>","","","","","","","","","",""
"html-keyboard-response","163","252206","0.0-9.0-0.75","603e0fefed5529d4b14e3546","64e77d7b61f440b60e28659d","64eca31d3c7a3b80a335508e","null","null","<p style=""font-size: 60px; font-family: BACS"">krGuYNu</p>","","","","","","","","","",""
"html-keyboard-response","164","253210","0.0-9.0-0.76","603e0fefed5529d4b14e3546","64e77d7b61f440b60e28659d","64eca31d3c7a3b80a335508e","null","null","<p style=""font-size: 60px; font-family: BACS"">EMYKCKOb</p>","","","","","","","","","",""
"html-keyboard-response","165","254232","0.0-9.0-0.77","603e0fefed5529d4b14e3546","64e77d7b61f440b60e28659d","64eca31d3c7a3b80a335508e","null","null","<p style=""font-size: 60px; font-family: BACS"">JAdLmJUNa</p>","","","","","","","","","",""
"html-keyboard-response","166","255236","0.0-9.0-0.78","603e0fefed5529d4b14e3546","64e77d7b61f440b60e28659d","64eca31d3c7a3b80a335508e","null","null","<p style=""font-size: 60px; font-family: BACS"">cROMtCKOb</p>","","","","","","","","","",""
"html-keyboard-response","167","256261","0.0-9.0-0.79","603e0fefed5529d4b14e3546","64e77d7b61f440b60e28659d","64eca31d3c7a3b80a335508e","null","null","<p style=""font-size: 60px; font-family: BACS"">GLYrAbadk</p>","","","","","","","","","",""
"html-keyboard-response","168","269913","0.0-10.0","603e0fefed5529d4b14e3546","64e77d7b61f440b60e28659d","64eca31d3c7a3b80a335508e","13652"," ","<p>Great, you've seen the second block of words. You may now take a short break.</p>
      <p>Press the spacebar when you're ready to continue.</p>","","","","","","","","","",""
"html-keyboard-response","169","270916","0.0-11.0-0.0","603e0fefed5529d4b14e3546","64e77d7b61f440b60e28659d","64eca31d3c7a3b80a335508e","null","null","<p style=""font-size: 60px; font-family: BACS"">YlYcCKOb</p>","","","","","","","","","",""
"html-keyboard-response","170","271921","0.0-11.0-0.1","603e0fefed5529d4b14e3546","64e77d7b61f440b60e28659d","64eca31d3c7a3b80a335508e","null","null","<p style=""font-size: 60px; font-family: BACS"">DRPkYAlKD</p>","","","","","","","","","",""
"html-keyboard-response","171","272927","0.0-11.0-0.2","603e0fefed5529d4b14e3546","64e77d7b61f440b60e28659d","64eca31d3c7a3b80a335508e","null","null","<p style=""font-size: 60px; font-family: BACS"">uAkrvAvb</p>","","","","","","","","","",""
"html-keyboard-response","172","273934","0.0-11.0-0.3","603e0fefed5529d4b14e3546","64e77d7b61f440b60e28659d","64eca31d3c7a3b80a335508e","null","null","<p style=""font-size: 60px; font-family: BACS"">lTmOAlKD</p>","","","","","","","","","",""
"html-keyboard-response","173","274936","0.0-11.0-0.4","603e0fefed5529d4b14e3546","64e77d7b61f440b60e28659d","64eca31d3c7a3b80a335508e","null","null","<p style=""font-size: 60px; font-family: BACS"">DRPkYlRE</p>","","","","","","","","","",""
"html-keyboard-response","174","275941","0.0-11.0-0.5","603e0fefed5529d4b14e3546","64e77d7b61f440b60e28659d","64eca31d3c7a3b80a335508e","null","null","<p style=""font-size: 60px; font-family: BACS"">lTmOCKOb</p>","","","","","","","","","",""
"html-keyboard-response","175","276963","0.0-11.0-0.6","603e0fefed5529d4b14e3546","64e77d7b61f440b60e28659d","64eca31d3c7a3b80a335508e","null","null","<p style=""font-size: 60px; font-family: BACS"">LOLkUQru</p>","","","","","","","","","",""
"html-keyboard-response","176","277968","0.0-11.0-0.7","603e0fefed5529d4b14e3546","64e77d7b61f440b60e28659d","64eca31d3c7a3b80a335508e","null","null","<p style=""font-size: 60px; font-family: BACS"">TPCbCEM</p>","","","","","","","","","",""
"html-keyboard-response","177","278976","0.0-11.0-0.8","603e0fefed5529d4b14e3546","64e77d7b61f440b60e28659d","64eca31d3c7a3b80a335508e","null","null","<p style=""font-size: 60px; font-family: BACS"">OAblcvAvb</p>","","","","","","","","","",""
"html-keyboard-response","178","279981","0.0-11.0-0.9","603e0fefed5529d4b14e3546","64e77d7b61f440b60e28659d","64eca31d3c7a3b80a335508e","null","null","<p style=""font-size: 60px; font-family: BACS"">JAaGbadk</p>","","","","","","","","","",""
"html-keyboard-response","179","280990","0.0-11.0-0.10","603e0fefed5529d4b14e3546","64e77d7b61f440b60e28659d","64eca31d3c7a3b80a335508e","null","null","<p style=""font-size: 60px; font-family: BACS"">EltMBlRE</p>","","","","","","","","","",""
"html-keyboard-response","180","281994","0.0-11.0-0.11","603e0fefed5529d4b14e3546","64e77d7b61f440b60e28659d","64eca31d3c7a3b80a335508e","null","null","<p style=""font-size: 60px; font-family: BACS"">JAaGvAvb</p>","","","","","","","","","",""
"html-keyboard-response","181","283016","0.0-11.0-0.12","603e0fefed5529d4b14e3546","64e77d7b61f440b60e28659d","64eca31d3c7a3b80a335508e","null","null","<p style=""font-size: 60px; font-family: BACS"">cROMtlRE</p>","","","","","","","","","",""
"html-keyboard-response","182","284024","0.0-11.0-0.13","603e0fefed5529d4b14e3546","64e77d7b61f440b60e28659d","64eca31d3c7a3b80a335508e","null","null","<p style=""font-size: 60px; font-family: BACS"">LGkAJUNa</p>","","","","","","","","","",""
"html-keyboard-response","183","285032","0.0-11.0-0.14","603e0fefed5529d4b14e3546","64e77d7b61f440b60e28659d","64eca31d3c7a3b80a335508e","null","null","<p style=""font-size: 60px; font-family: BACS"">uAkrbadk</p>","","","","","","","","","",""
"html-keyboard-response","184","286038","0.0-11.0-0.15","603e0fefed5529d4b14e3546","64e77d7b61f440b60e28659d","64eca31d3c7a3b80a335508e","null","null","<p style=""font-size: 60px; font-family: BACS"">JAaGQru</p>","","","","","","","","","",""
"html-keyboard-response","185","287046","0.0-11.0-0.16","603e0fefed5529d4b14e3546","64e77d7b61f440b60e28659d","64eca31d3c7a3b80a335508e","null","null","<p style=""font-size: 60px; font-family: BACS"">LGkAvAvb</p>","","","","","","","","","",""
"html-keyboard-response","186","288059","0.0-11.0-0.17","603e0fefed5529d4b14e3546","64e77d7b61f440b60e28659d","64eca31d3c7a3b80a335508e","null","null","<p style=""font-size: 60px; font-family: BACS"">lTmOlRE</p>","","","","","","","","","",""
"html-keyboard-response","187","289065","0.0-11.0-0.18","603e0fefed5529d4b14e3546","64e77d7b61f440b60e28659d","64eca31d3c7a3b80a335508e","null","null","<p style=""font-size: 60px; font-family: BACS"">JAdLmQru</p>","","","","","","","","","",""
"html-keyboard-response","188","290075","0.0-11.0-0.19","603e0fefed5529d4b14e3546","64e77d7b61f440b60e28659d","64eca31d3c7a3b80a335508e","null","null","<p style=""font-size: 60px; font-family: BACS"">LGkAYNu</p>","","","","","","","","","",""
"html-keyboard-response","189","291079","0.0-11.0-0.20","603e0fefed5529d4b14e3546","64e77d7b61f440b60e28659d","64eca31d3c7a3b80a335508e","null","null","<p style=""font-size: 60px; font-family: BACS"">rckOvAvb</p>","","","","","","","","","",""
"html-keyboard-response","190","292087","0.0-11.0-0.21","603e0fefed5529d4b14e3546","64e77d7b61f440b60e28659d","64eca31d3c7a3b80a335508e","null","null","<p style=""font-size: 60px; font-family: BACS"">krGuJUNa</p>","","","","","","","","","",""
"html-keyboard-response","191","293095","0.0-11.0-0.22","603e0fefed5529d4b14e3546","64e77d7b61f440b60e28659d","64eca31d3c7a3b80a335508e","null","null","<p style=""font-size: 60px; font-family: BACS"">dMThkAlKD</p>","","","","","","","","","",""
"html-keyboard-response","192","294101","0.0-11.0-0.23","603e0fefed5529d4b14e3546","64e77d7b61f440b60e28659d","64eca31d3c7a3b80a335508e","null","null","<p style=""font-size: 60px; font-family: BACS"">TPCbCKOb</p>","","","","","","","","","",""
"html-keyboard-response","193","295104","0.0-11.0-0.24","603e0fefed5529d4b14e3546","64e77d7b61f440b60e28659d","64eca31d3c7a3b80a335508e","null","null","<p style=""font-size: 60px; font-family: BACS"">dMThkPEdK</p>","","","","","","","","","",""
"html-keyboard-response","194","296110","0.0-11.0-0.25","603e0fefed5529d4b14e3546","64e77d7b61f440b60e28659d","64eca31d3c7a3b80a335508e","null","null","<p style=""font-size: 60px; font-family: BACS"">TPCblRE</p>","","","","","","","","","",""
"html-keyboard-response","195","297129","0.0-11.0-0.26","603e0fefed5529d4b14e3546","64e77d7b61f440b60e28659d","64eca31d3c7a3b80a335508e","null","null","<p style=""font-size: 60px; font-family: BACS"">uAkrYNu</p>","","","","","","","","","",""
"html-keyboard-response","196","298132","0.0-11.0-0.27","603e0fefed5529d4b14e3546","64e77d7b61f440b60e28659d","64eca31d3c7a3b80a335508e","null","null","<p style=""font-size: 60px; font-family: BACS"">EltMBAlKD</p>","","","","","","","","","",""
"html-keyboard-response","197","299139","0.0-11.0-0.28","603e0fefed5529d4b14e3546","64e77d7b61f440b60e28659d","64eca31d3c7a3b80a335508e","null","null","<p style=""font-size: 60px; font-family: BACS"">JAaGYNu</p>","","","","","","","","","",""
"html-keyboard-response","198","300143","0.0-11.0-0.29","603e0fefed5529d4b14e3546","64e77d7b61f440b60e28659d","64eca31d3c7a3b80a335508e","null","null","<p style=""font-size: 60px; font-family: BACS"">AlTdlRE</p>","","","","","","","","","",""
"html-keyboard-response","199","301148","0.0-11.0-0.30","603e0fefed5529d4b14e3546","64e77d7b61f440b60e28659d","64eca31d3c7a3b80a335508e","null","null","<p style=""font-size: 60px; font-family: BACS"">GLYrAbadk</p>","","","","","","","","","",""
"html-keyboard-response","200","302154","0.0-11.0-0.31","603e0fefed5529d4b14e3546","64e77d7b61f440b60e28659d","64eca31d3c7a3b80a335508e","null","null","<p style=""font-size: 60px; font-family: BACS"">DRPkYPEdK</p>","","","","","","","","","",""
"html-keyboard-response","201","303159","0.0-11.0-0.32","603e0fefed5529d4b14e3546","64e77d7b61f440b60e28659d","64eca31d3c7a3b80a335508e","null","null","<p style=""font-size: 60px; font-family: BACS"">krGubadk</p>","","","","","","","","","",""
"html-keyboard-response","202","304169","0.0-11.0-0.33","603e0fefed5529d4b14e3546","64e77d7b61f440b60e28659d","64eca31d3c7a3b80a335508e","null","null","<p style=""font-size: 60px; font-family: BACS"">YlYcAlKD</p>","","","","","","","","","",""
"html-keyboard-response","203","305175","0.0-11.0-0.34","603e0fefed5529d4b14e3546","64e77d7b61f440b60e28659d","64eca31d3c7a3b80a335508e","null","null","<p style=""font-size: 60px; font-family: BACS"">EltMBCEM</p>","","","","","","","","","",""
"html-keyboard-response","204","306179","0.0-11.0-0.35","603e0fefed5529d4b14e3546","64e77d7b61f440b60e28659d","64eca31d3c7a3b80a335508e","null","null","<p style=""font-size: 60px; font-family: BACS"">dMThklRE</p>","","","","","","","","","",""
"html-keyboard-response","205","307186","0.0-11.0-0.36","603e0fefed5529d4b14e3546","64e77d7b61f440b60e28659d","64eca31d3c7a3b80a335508e","null","null","<p style=""font-size: 60px; font-family: BACS"">cROMtAlKD</p>","","","","","","","","","",""
"html-keyboard-response","206","308193","0.0-11.0-0.37","603e0fefed5529d4b14e3546","64e77d7b61f440b60e28659d","64eca31d3c7a3b80a335508e","null","null","<p style=""font-size: 60px; font-family: BACS"">DRPkYCKOb</p>","","","","","","","","","",""
"html-keyboard-response","207","309198","0.0-11.0-0.38","603e0fefed5529d4b14e3546","64e77d7b61f440b60e28659d","64eca31d3c7a3b80a335508e","null","null","<p style=""font-size: 60px; font-family: BACS"">GLYrAvAvb</p>","","","","","","","","","",""
"html-keyboard-response","208","310203","0.0-11.0-0.39","603e0fefed5529d4b14e3546","64e77d7b61f440b60e28659d","64eca31d3c7a3b80a335508e","null","null","<p style=""font-size: 60px; font-family: BACS"">LOLkUYNu</p>","","","","","","","","","",""
"html-keyboard-response","209","311208","0.0-11.0-0.40","603e0fefed5529d4b14e3546","64e77d7b61f440b60e28659d","64eca31d3c7a3b80a335508e","null","null","<p style=""font-size: 60px; font-family: BACS"">AlTdAlKD</p>","","","","","","","","","",""
"html-keyboard-response","210","312212","0.0-11.0-0.41","603e0fefed5529d4b14e3546","64e77d7b61f440b60e28659d","64eca31d3c7a3b80a335508e","null","null","<p style=""font-size: 60px; font-family: BACS"">JAdLmJUNa</p>","","","","","","","","","",""
"html-keyboard-response","211","313218","0.0-11.0-0.42","603e0fefed5529d4b14e3546","64e77d7b61f440b60e28659d","64eca31d3c7a3b80a335508e","null","null","<p style=""font-size: 60px; font-family: BACS"">YlYcCEM</p>","","","","","","","","","",""
"html-keyboard-response","212","314244","0.0-11.0-0.43","603e0fefed5529d4b14e3546","64e77d7b61f440b60e28659d","64eca31d3c7a3b80a335508e","null","null","<p style=""font-size: 60px; font-family: BACS"">GLYrAJUNa</p>","","","","","","","","","",""
"html-keyboard-response","213","315250","0.0-11.0-0.44","603e0fefed5529d4b14e3546","64e77d7b61f440b60e28659d","64eca31d3c7a3b80a335508e","null","null","<p style=""font-size: 60px; font-family: BACS"">ArQuvAvb</p>","","","","","","","","","",""
"html-keyboard-response","214","316269","0.0-11.0-0.45","603e0fefed5529d4b14e3546","64e77d7b61f440b60e28659d","64eca31d3c7a3b80a335508e","null","null","<p style=""font-size: 60px; font-family: BACS"">OAblcbadk</p>","","","","","","","","","",""
"html-keyboard-response","215","317275","0.0-11.0-0.46","603e0fefed5529d4b14e3546","64e77d7b61f440b60e28659d","64eca31d3c7a3b80a335508e","null","null","<p style=""font-size: 60px; font-family: BACS"">rckOYNu</p>","","","","","","","","","",""
"html-keyboard-response","216","318276","0.0-11.0-0.47","603e0fefed5529d4b14e3546","64e77d7b61f440b60e28659d","64eca31d3c7a3b80a335508e","null","null","<p style=""font-size: 60px; font-family: BACS"">EMYKCKOb</p>","","","","","","","","","",""
"html-keyboard-response","217","319282","0.0-11.0-0.48","603e0fefed5529d4b14e3546","64e77d7b61f440b60e28659d","64eca31d3c7a3b80a335508e","null","null","<p style=""font-size: 60px; font-family: BACS"">AlTdPEdK</p>","","","","","","","","","",""
"html-keyboard-response","218","320289","0.0-11.0-0.49","603e0fefed5529d4b14e3546","64e77d7b61f440b60e28659d","64eca31d3c7a3b80a335508e","null","null","<p style=""font-size: 60px; font-family: BACS"">CDEmYCKOb</p>","","","","","","","","","",""
"html-keyboard-response","219","321293","0.0-11.0-0.50","603e0fefed5529d4b14e3546","64e77d7b61f440b60e28659d","64eca31d3c7a3b80a335508e","null","null","<p style=""font-size: 60px; font-family: BACS"">ArQuQru</p>","","","","","","","","","",""
"html-keyboard-response","220","322299","0.0-11.0-0.51","603e0fefed5529d4b14e3546","64e77d7b61f440b60e28659d","64eca31d3c7a3b80a335508e","null","null","<p style=""font-size: 60px; font-family: BACS"">lTmOCEM</p>","","","","","","","","","",""
"html-keyboard-response","221","323304","0.0-11.0-0.52","603e0fefed5529d4b14e3546","64e77d7b61f440b60e28659d","64eca31d3c7a3b80a335508e","null","null","<p style=""font-size: 60px; font-family: BACS"">rckOQru</p>","","","","","","","","","",""
"html-keyboard-response","222","324309","0.0-11.0-0.53","603e0fefed5529d4b14e3546","64e77d7b61f440b60e28659d","64eca31d3c7a3b80a335508e","null","null","<p style=""font-size: 60px; font-family: BACS"">CDEmYCEM</p>","","","","","","","","","",""
"html-keyboard-response","223","325315","0.0-11.0-0.54","603e0fefed5529d4b14e3546","64e77d7b61f440b60e28659d","64eca31d3c7a3b80a335508e","null","null","<p style=""font-size: 60px; font-family: BACS"">GLYrAYNu</p>","","","","","","","","","",""
"html-keyboard-response","224","326325","0.0-11.0-0.55","603e0fefed5529d4b14e3546","64e77d7b61f440b60e28659d","64eca31d3c7a3b80a335508e","null","null","<p style=""font-size: 60px; font-family: BACS"">LOLkUbadk</p>","","","","","","","","","",""
"html-keyboard-response","225","327342","0.0-11.0-0.56","603e0fefed5529d4b14e3546","64e77d7b61f440b60e28659d","64eca31d3c7a3b80a335508e","null","null","<p style=""font-size: 60px; font-family: BACS"">ArQuJUNa</p>","","","","","","","","","",""
"html-keyboard-response","226","328347","0.0-11.0-0.57","603e0fefed5529d4b14e3546","64e77d7b61f440b60e28659d","64eca31d3c7a3b80a335508e","null","null","<p style=""font-size: 60px; font-family: BACS"">JAdLmbadk</p>","","","","","","","","","",""
"html-keyboard-response","227","329350","0.0-11.0-0.58","603e0fefed5529d4b14e3546","64e77d7b61f440b60e28659d","64eca31d3c7a3b80a335508e","null","null","<p style=""font-size: 60px; font-family: BACS"">cROMtCKOb</p>","","","","","","","","","",""
"html-keyboard-response","228","330356","0.0-11.0-0.59","603e0fefed5529d4b14e3546","64e77d7b61f440b60e28659d","64eca31d3c7a3b80a335508e","null","null","<p style=""font-size: 60px; font-family: BACS"">AlTdCEM</p>","","","","","","","","","",""
"html-keyboard-response","229","331361","0.0-11.0-0.60","603e0fefed5529d4b14e3546","64e77d7b61f440b60e28659d","64eca31d3c7a3b80a335508e","null","null","<p style=""font-size: 60px; font-family: BACS"">cROMtPEdK</p>","","","","","","","","","",""
"html-keyboard-response","230","332366","0.0-11.0-0.61","603e0fefed5529d4b14e3546","64e77d7b61f440b60e28659d","64eca31d3c7a3b80a335508e","null","null","<p style=""font-size: 60px; font-family: BACS"">CDEmYAlKD</p>","","","","","","","","","",""
"html-keyboard-response","231","333371","0.0-11.0-0.62","603e0fefed5529d4b14e3546","64e77d7b61f440b60e28659d","64eca31d3c7a3b80a335508e","null","null","<p style=""font-size: 60px; font-family: BACS"">JAdLmvAvb</p>","","","","","","","","","",""
"html-keyboard-response","232","334379","0.0-11.0-0.63","603e0fefed5529d4b14e3546","64e77d7b61f440b60e28659d","64eca31d3c7a3b80a335508e","null","null","<p style=""font-size: 60px; font-family: BACS"">TPCbPEdK</p>","","","","","","","","","",""
"html-keyboard-response","233","335386","0.0-11.0-0.64","603e0fefed5529d4b14e3546","64e77d7b61f440b60e28659d","64eca31d3c7a3b80a335508e","null","null","<p style=""font-size: 60px; font-family: BACS"">LGkAQru</p>","","","","","","","","","",""
"html-keyboard-response","234","336391","0.0-11.0-0.65","603e0fefed5529d4b14e3546","64e77d7b61f440b60e28659d","64eca31d3c7a3b80a335508e","null","null","<p style=""font-size: 60px; font-family: BACS"">EMYKPEdK</p>","","","","","","","","","",""
"html-keyboard-response","235","337399","0.0-11.0-0.66","603e0fefed5529d4b14e3546","64e77d7b61f440b60e28659d","64eca31d3c7a3b80a335508e","null","null","<p style=""font-size: 60px; font-family: BACS"">ArQubadk</p>","","","","","","","","","",""
"html-keyboard-response","236","338403","0.0-11.0-0.67","603e0fefed5529d4b14e3546","64e77d7b61f440b60e28659d","64eca31d3c7a3b80a335508e","null","null","<p style=""font-size: 60px; font-family: BACS"">OAblcYNu</p>","","","","","","","","","",""
"html-keyboard-response","237","339407","0.0-11.0-0.68","603e0fefed5529d4b14e3546","64e77d7b61f440b60e28659d","64eca31d3c7a3b80a335508e","null","null","<p style=""font-size: 60px; font-family: BACS"">EMYKlRE</p>","","","","","","","","","",""
"html-keyboard-response","238","340428","0.0-11.0-0.69","603e0fefed5529d4b14e3546","64e77d7b61f440b60e28659d","64eca31d3c7a3b80a335508e","null","null","<p style=""font-size: 60px; font-family: BACS"">krGuYNu</p>","","","","","","","","","",""
"html-keyboard-response","239","341433","0.0-11.0-0.70","603e0fefed5529d4b14e3546","64e77d7b61f440b60e28659d","64eca31d3c7a3b80a335508e","null","null","<p style=""font-size: 60px; font-family: BACS"">LOLkUJUNa</p>","","","","","","","","","",""
"html-keyboard-response","240","342440","0.0-11.0-0.71","603e0fefed5529d4b14e3546","64e77d7b61f440b60e28659d","64eca31d3c7a3b80a335508e","null","null","<p style=""font-size: 60px; font-family: BACS"">YlYcPEdK</p>","","","","","","","","","",""
"html-keyboard-response","241","343444","0.0-11.0-0.72","603e0fefed5529d4b14e3546","64e77d7b61f440b60e28659d","64eca31d3c7a3b80a335508e","null","null","<p style=""font-size: 60px; font-family: BACS"">rckOJUNa</p>","","","","","","","","","",""
"html-keyboard-response","242","344450","0.0-11.0-0.73","603e0fefed5529d4b14e3546","64e77d7b61f440b60e28659d","64eca31d3c7a3b80a335508e","null","null","<p style=""font-size: 60px; font-family: BACS"">EltMBCKOb</p>","","","","","","","","","",""
"html-keyboard-response","243","345454","0.0-11.0-0.74","603e0fefed5529d4b14e3546","64e77d7b61f440b60e28659d","64eca31d3c7a3b80a335508e","null","null","<p style=""font-size: 60px; font-family: BACS"">krGuQru</p>","","","","","","","","","",""
"html-keyboard-response","244","346459","0.0-11.0-0.75","603e0fefed5529d4b14e3546","64e77d7b61f440b60e28659d","64eca31d3c7a3b80a335508e","null","null","<p style=""font-size: 60px; font-family: BACS"">CDEmYPEdK</p>","","","","","","","","","",""
"html-keyboard-response","245","347462","0.0-11.0-0.76","603e0fefed5529d4b14e3546","64e77d7b61f440b60e28659d","64eca31d3c7a3b80a335508e","null","null","<p style=""font-size: 60px; font-family: BACS"">dMThkCEM</p>","","","","","","","","","",""
"html-keyboard-response","246","348467","0.0-11.0-0.77","603e0fefed5529d4b14e3546","64e77d7b61f440b60e28659d","64eca31d3c7a3b80a335508e","null","null","<p style=""font-size: 60px; font-family: BACS"">uAkrQru</p>","","","","","","","","","",""
"html-keyboard-response","247","349488","0.0-11.0-0.78","603e0fefed5529d4b14e3546","64e77d7b61f440b60e28659d","64eca31d3c7a3b80a335508e","null","null","<p style=""font-size: 60px; font-family: BACS"">EMYKCEM</p>","","","","","","","","","",""
"html-keyboard-response","248","350494","0.0-11.0-0.79","603e0fefed5529d4b14e3546","64e77d7b61f440b60e28659d","64eca31d3c7a3b80a335508e","null","null","<p style=""font-size: 60px; font-family: BACS"">OAblcJUNa</p>","","","","","","","","","",""
"html-keyboard-response","249","366334","0.0-12.0","603e0fefed5529d4b14e3546","64e77d7b61f440b60e28659d","64eca31d3c7a3b80a335508e","15838"," ","<p>Great, you've seen the third block of words. You may now take a short break.</p>
      <p>Press the spacebar when you're ready to continue.</p>","","","","","","","","","",""
"html-keyboard-response","250","367342","0.0-13.0-0.0","603e0fefed5529d4b14e3546","64e77d7b61f440b60e28659d","64eca31d3c7a3b80a335508e","null","null","<p style=""font-size: 60px; font-family: BACS"">TPCbCEM</p>","","","","","","","","","",""
"html-keyboard-response","251","368347","0.0-13.0-0.1","603e0fefed5529d4b14e3546","64e77d7b61f440b60e28659d","64eca31d3c7a3b80a335508e","null","null","<p style=""font-size: 60px; font-family: BACS"">OAblcvAvb</p>","","","","","","","","","",""
"html-keyboard-response","252","369356","0.0-13.0-0.2","603e0fefed5529d4b14e3546","64e77d7b61f440b60e28659d","64eca31d3c7a3b80a335508e","null","null","<p style=""font-size: 60px; font-family: BACS"">DRPkYAlKD</p>","","","","","","","","","",""
"html-keyboard-response","253","370360","0.0-13.0-0.3","603e0fefed5529d4b14e3546","64e77d7b61f440b60e28659d","64eca31d3c7a3b80a335508e","null","null","<p style=""font-size: 60px; font-family: BACS"">ArQuQru</p>","","","","","","","","","",""
"html-keyboard-response","254","371365","0.0-13.0-0.4","603e0fefed5529d4b14e3546","64e77d7b61f440b60e28659d","64eca31d3c7a3b80a335508e","null","null","<p style=""font-size: 60px; font-family: BACS"">EMYKPEdK</p>","","","","","","","","","",""
"html-keyboard-response","255","372377","0.0-13.0-0.5","603e0fefed5529d4b14e3546","64e77d7b61f440b60e28659d","64eca31d3c7a3b80a335508e","null","null","<p style=""font-size: 60px; font-family: BACS"">TPCbCKOb</p>","","","","","","","","","",""
"html-keyboard-response","256","373379","0.0-13.0-0.6","603e0fefed5529d4b14e3546","64e77d7b61f440b60e28659d","64eca31d3c7a3b80a335508e","null","null","<p style=""font-size: 60px; font-family: BACS"">ArQubadk</p>","","","","","","","","","",""
"html-keyboard-response","257","374383","0.0-13.0-0.7","603e0fefed5529d4b14e3546","64e77d7b61f440b60e28659d","64eca31d3c7a3b80a335508e","null","null","<p style=""font-size: 60px; font-family: BACS"">OAblcYNu</p>","","","","","","","","","",""
"html-keyboard-response","258","375389","0.0-13.0-0.8","603e0fefed5529d4b14e3546","64e77d7b61f440b60e28659d","64eca31d3c7a3b80a335508e","null","null","<p style=""font-size: 60px; font-family: BACS"">lTmOCEM</p>","","","","","","","","","",""
"html-keyboard-response","259","376396","0.0-13.0-0.9","603e0fefed5529d4b14e3546","64e77d7b61f440b60e28659d","64eca31d3c7a3b80a335508e","null","null","<p style=""font-size: 60px; font-family: BACS"">DRPkYPEdK</p>","","","","","","","","","",""
"html-keyboard-response","260","377401","0.0-13.0-0.10","603e0fefed5529d4b14e3546","64e77d7b61f440b60e28659d","64eca31d3c7a3b80a335508e","null","null","<p style=""font-size: 60px; font-family: BACS"">EMYKCEM</p>","","","","","","","","","",""
"html-keyboard-response","261","378405","0.0-13.0-0.11","603e0fefed5529d4b14e3546","64e77d7b61f440b60e28659d","64eca31d3c7a3b80a335508e","null","null","<p style=""font-size: 60px; font-family: BACS"">cROMtlRE</p>","","","","","","","","","",""
"html-keyboard-response","262","379413","0.0-13.0-0.12","603e0fefed5529d4b14e3546","64e77d7b61f440b60e28659d","64eca31d3c7a3b80a335508e","null","null","<p style=""font-size: 60px; font-family: BACS"">uAkrvAvb</p>","","","","","","","","","",""
"html-keyboard-response","263","380419","0.0-13.0-0.13","603e0fefed5529d4b14e3546","64e77d7b61f440b60e28659d","64eca31d3c7a3b80a335508e","null","null","<p style=""font-size: 60px; font-family: BACS"">CDEmYCEM</p>","","","","","","","","","",""
"html-keyboard-response","264","381423","0.0-13.0-0.14","603e0fefed5529d4b14e3546","64e77d7b61f440b60e28659d","64eca31d3c7a3b80a335508e","null","null","<p style=""font-size: 60px; font-family: BACS"">GLYrAJUNa</p>","","","","","","","","","",""
"html-keyboard-response","265","382427","0.0-13.0-0.15","603e0fefed5529d4b14e3546","64e77d7b61f440b60e28659d","64eca31d3c7a3b80a335508e","null","null","<p style=""font-size: 60px; font-family: BACS"">rckOvAvb</p>","","","","","","","","","",""
"html-keyboard-response","266","383431","0.0-13.0-0.16","603e0fefed5529d4b14e3546","64e77d7b61f440b60e28659d","64eca31d3c7a3b80a335508e","null","null","<p style=""font-size: 60px; font-family: BACS"">dMThkPEdK</p>","","","","","","","","","",""
"html-keyboard-response","267","384437","0.0-13.0-0.17","603e0fefed5529d4b14e3546","64e77d7b61f440b60e28659d","64eca31d3c7a3b80a335508e","null","null","<p style=""font-size: 60px; font-family: BACS"">lTmOAlKD</p>","","","","","","","","","",""
"html-keyboard-response","268","385445","0.0-13.0-0.18","603e0fefed5529d4b14e3546","64e77d7b61f440b60e28659d","64eca31d3c7a3b80a335508e","null","null","<p style=""font-size: 60px; font-family: BACS"">JAdLmJUNa</p>","","","","","","","","","",""
"html-keyboard-response","269","386449","0.0-13.0-0.19","603e0fefed5529d4b14e3546","64e77d7b61f440b60e28659d","64eca31d3c7a3b80a335508e","null","null","<p style=""font-size: 60px; font-family: BACS"">CDEmYCKOb</p>","","","","","","","","","",""
"html-keyboard-response","270","387453","0.0-13.0-0.20","603e0fefed5529d4b14e3546","64e77d7b61f440b60e28659d","64eca31d3c7a3b80a335508e","null","null","<p style=""font-size: 60px; font-family: BACS"">YlYcAlKD</p>","","","","","","","","","",""
"html-keyboard-response","271","388474","0.0-13.0-0.21","603e0fefed5529d4b14e3546","64e77d7b61f440b60e28659d","64eca31d3c7a3b80a335508e","null","null","<p style=""font-size: 60px; font-family: BACS"">krGuYNu</p>","","","","","","","","","",""
"html-keyboard-response","272","389480","0.0-13.0-0.22","603e0fefed5529d4b14e3546","64e77d7b61f440b60e28659d","64eca31d3c7a3b80a335508e","null","null","<p style=""font-size: 60px; font-family: BACS"">dMThkAlKD</p>","","","","","","","","","",""
"html-keyboard-response","273","390499","0.0-13.0-0.23","603e0fefed5529d4b14e3546","64e77d7b61f440b60e28659d","64eca31d3c7a3b80a335508e","null","null","<p style=""font-size: 60px; font-family: BACS"">lTmOCKOb</p>","","","","","","","","","",""
"html-keyboard-response","274","391505","0.0-13.0-0.24","603e0fefed5529d4b14e3546","64e77d7b61f440b60e28659d","64eca31d3c7a3b80a335508e","null","null","<p style=""font-size: 60px; font-family: BACS"">rckOYNu</p>","","","","","","","","","",""
"html-keyboard-response","275","392524","0.0-13.0-0.25","603e0fefed5529d4b14e3546","64e77d7b61f440b60e28659d","64eca31d3c7a3b80a335508e","null","null","<p style=""font-size: 60px; font-family: BACS"">JAdLmbadk</p>","","","","","","","","","",""
"html-keyboard-response","276","393529","0.0-13.0-0.26","603e0fefed5529d4b14e3546","64e77d7b61f440b60e28659d","64eca31d3c7a3b80a335508e","null","null","<p style=""font-size: 60px; font-family: BACS"">EMYKCKOb</p>","","","","","","","","","",""
"html-keyboard-response","277","394548","0.0-13.0-0.27","603e0fefed5529d4b14e3546","64e77d7b61f440b60e28659d","64eca31d3c7a3b80a335508e","null","null","<p style=""font-size: 60px; font-family: BACS"">TPCblRE</p>","","","","","","","","","",""
"html-keyboard-response","278","395551","0.0-13.0-0.28","603e0fefed5529d4b14e3546","64e77d7b61f440b60e28659d","64eca31d3c7a3b80a335508e","null","null","<p style=""font-size: 60px; font-family: BACS"">LGkAvAvb</p>","","","","","","","","","",""
"html-keyboard-response","279","396556","0.0-13.0-0.29","603e0fefed5529d4b14e3546","64e77d7b61f440b60e28659d","64eca31d3c7a3b80a335508e","null","null","<p style=""font-size: 60px; font-family: BACS"">CDEmYPEdK</p>","","","","","","","","","",""
"html-keyboard-response","280","397561","0.0-13.0-0.30","603e0fefed5529d4b14e3546","64e77d7b61f440b60e28659d","64eca31d3c7a3b80a335508e","null","null","<p style=""font-size: 60px; font-family: BACS"">LOLkUJUNa</p>","","","","","","","","","",""
"html-keyboard-response","281","398566","0.0-13.0-0.31","603e0fefed5529d4b14e3546","64e77d7b61f440b60e28659d","64eca31d3c7a3b80a335508e","null","null","<p style=""font-size: 60px; font-family: BACS"">OAblcbadk</p>","","","","","","","","","",""
"html-keyboard-response","282","399571","0.0-13.0-0.32","603e0fefed5529d4b14e3546","64e77d7b61f440b60e28659d","64eca31d3c7a3b80a335508e","null","null","<p style=""font-size: 60px; font-family: BACS"">rckOJUNa</p>","","","","","","","","","",""
"html-keyboard-response","283","400575","0.0-13.0-0.33","603e0fefed5529d4b14e3546","64e77d7b61f440b60e28659d","64eca31d3c7a3b80a335508e","null","null","<p style=""font-size: 60px; font-family: BACS"">uAkrYNu</p>","","","","","","","","","",""
"html-keyboard-response","284","401585","0.0-13.0-0.34","603e0fefed5529d4b14e3546","64e77d7b61f440b60e28659d","64eca31d3c7a3b80a335508e","null","null","<p style=""font-size: 60px; font-family: BACS"">TPCbPEdK</p>","","","","","","","","","",""
"html-keyboard-response","285","402602","0.0-13.0-0.35","603e0fefed5529d4b14e3546","64e77d7b61f440b60e28659d","64eca31d3c7a3b80a335508e","null","null","<p style=""font-size: 60px; font-family: BACS"">EltMBCKOb</p>","","","","","","","","","",""
"html-keyboard-response","286","403606","0.0-13.0-0.36","603e0fefed5529d4b14e3546","64e77d7b61f440b60e28659d","64eca31d3c7a3b80a335508e","null","null","<p style=""font-size: 60px; font-family: BACS"">AlTdPEdK</p>","","","","","","","","","",""
"html-keyboard-response","287","404611","0.0-13.0-0.37","603e0fefed5529d4b14e3546","64e77d7b61f440b60e28659d","64eca31d3c7a3b80a335508e","null","null","<p style=""font-size: 60px; font-family: BACS"">cROMtCKOb</p>","","","","","","","","","",""
"html-keyboard-response","288","405616","0.0-13.0-0.38","603e0fefed5529d4b14e3546","64e77d7b61f440b60e28659d","64eca31d3c7a3b80a335508e","null","null","<p style=""font-size: 60px; font-family: BACS"">LOLkUQru</p>","","","","","","","","","",""
"html-keyboard-response","289","406621","0.0-13.0-0.39","603e0fefed5529d4b14e3546","64e77d7b61f440b60e28659d","64eca31d3c7a3b80a335508e","null","null","<p style=""font-size: 60px; font-family: BACS"">AlTdlRE</p>","","","","","","","","","",""
"html-keyboard-response","290","407628","0.0-13.0-0.40","603e0fefed5529d4b14e3546","64e77d7b61f440b60e28659d","64eca31d3c7a3b80a335508e","null","null","<p style=""font-size: 60px; font-family: BACS"">JAdLmQru</p>","","","","","","","","","",""
"html-keyboard-response","291","408635","0.0-13.0-0.41","603e0fefed5529d4b14e3546","64e77d7b61f440b60e28659d","64eca31d3c7a3b80a335508e","null","null","<p style=""font-size: 60px; font-family: BACS"">AlTdCEM</p>","","","","","","","","","",""
"html-keyboard-response","292","409656","0.0-13.0-0.42","603e0fefed5529d4b14e3546","64e77d7b61f440b60e28659d","64eca31d3c7a3b80a335508e","null","null","<p style=""font-size: 60px; font-family: BACS"">JAaGQru</p>","","","","","","","","","",""
"html-keyboard-response","293","410662","0.0-13.0-0.43","603e0fefed5529d4b14e3546","64e77d7b61f440b60e28659d","64eca31d3c7a3b80a335508e","null","null","<p style=""font-size: 60px; font-family: BACS"">ArQuJUNa</p>","","","","","","","","","",""
"html-keyboard-response","294","411669","0.0-13.0-0.44","603e0fefed5529d4b14e3546","64e77d7b61f440b60e28659d","64eca31d3c7a3b80a335508e","null","null","<p style=""font-size: 60px; font-family: BACS"">GLYrAvAvb</p>","","","","","","","","","",""
"html-keyboard-response","295","412675","0.0-13.0-0.45","603e0fefed5529d4b14e3546","64e77d7b61f440b60e28659d","64eca31d3c7a3b80a335508e","null","null","<p style=""font-size: 60px; font-family: BACS"">DRPkYCKOb</p>","","","","","","","","","",""
"html-keyboard-response","296","413689","0.0-13.0-0.46","603e0fefed5529d4b14e3546","64e77d7b61f440b60e28659d","64eca31d3c7a3b80a335508e","null","null","<p style=""font-size: 60px; font-family: BACS"">ArQuvAvb</p>","","","","","","","","","",""
"html-keyboard-response","297","414692","0.0-13.0-0.47","603e0fefed5529d4b14e3546","64e77d7b61f440b60e28659d","64eca31d3c7a3b80a335508e","null","null","<p style=""font-size: 60px; font-family: BACS"">EMYKlRE</p>","","","","","","","","","",""
"html-keyboard-response","298","415699","0.0-13.0-0.48","603e0fefed5529d4b14e3546","64e77d7b61f440b60e28659d","64eca31d3c7a3b80a335508e","null","null","<p style=""font-size: 60px; font-family: BACS"">LOLkUYNu</p>","","","","","","","","","",""
"html-keyboard-response","299","416705","0.0-13.0-0.49","603e0fefed5529d4b14e3546","64e77d7b61f440b60e28659d","64eca31d3c7a3b80a335508e","null","null","<p style=""font-size: 60px; font-family: BACS"">EltMBAlKD</p>","","","","","","","","","",""
"html-keyboard-response","300","417713","0.0-13.0-0.50","603e0fefed5529d4b14e3546","64e77d7b61f440b60e28659d","64eca31d3c7a3b80a335508e","null","null","<p style=""font-size: 60px; font-family: BACS"">YlYcPEdK</p>","","","","","","","","","",""
"html-keyboard-response","301","418721","0.0-13.0-0.51","603e0fefed5529d4b14e3546","64e77d7b61f440b60e28659d","64eca31d3c7a3b80a335508e","null","null","<p style=""font-size: 60px; font-family: BACS"">OAblcJUNa</p>","","","","","","","","","",""
"html-keyboard-response","302","419730","0.0-13.0-0.52","603e0fefed5529d4b14e3546","64e77d7b61f440b60e28659d","64eca31d3c7a3b80a335508e","null","null","<p style=""font-size: 60px; font-family: BACS"">cROMtAlKD</p>","","","","","","","","","",""
"html-keyboard-response","303","420743","0.0-13.0-0.53","603e0fefed5529d4b14e3546","64e77d7b61f440b60e28659d","64eca31d3c7a3b80a335508e","null","null","<p style=""font-size: 60px; font-family: BACS"">LGkAQru</p>","","","","","","","","","",""
"html-keyboard-response","304","421766","0.0-13.0-0.54","603e0fefed5529d4b14e3546","64e77d7b61f440b60e28659d","64eca31d3c7a3b80a335508e","null","null","<p style=""font-size: 60px; font-family: BACS"">krGubadk</p>","","","","","","","","","",""
"html-keyboard-response","305","422773","0.0-13.0-0.55","603e0fefed5529d4b14e3546","64e77d7b61f440b60e28659d","64eca31d3c7a3b80a335508e","null","null","<p style=""font-size: 60px; font-family: BACS"">YlYcCKOb</p>","","","","","","","","","",""
"html-keyboard-response","306","423796","0.0-13.0-0.56","603e0fefed5529d4b14e3546","64e77d7b61f440b60e28659d","64eca31d3c7a3b80a335508e","null","null","<p style=""font-size: 60px; font-family: BACS"">CDEmYAlKD</p>","","","","","","","","","",""
"html-keyboard-response","307","424809","0.0-13.0-0.57","603e0fefed5529d4b14e3546","64e77d7b61f440b60e28659d","64eca31d3c7a3b80a335508e","null","null","<p style=""font-size: 60px; font-family: BACS"">GLYrAbadk</p>","","","","","","","","","",""
"html-keyboard-response","308","425831","0.0-13.0-0.58","603e0fefed5529d4b14e3546","64e77d7b61f440b60e28659d","64eca31d3c7a3b80a335508e","null","null","<p style=""font-size: 60px; font-family: BACS"">LGkAYNu</p>","","","","","","","","","",""
"html-keyboard-response","309","426837","0.0-13.0-0.59","603e0fefed5529d4b14e3546","64e77d7b61f440b60e28659d","64eca31d3c7a3b80a335508e","null","null","<p style=""font-size: 60px; font-family: BACS"">krGuQru</p>","","","","","","","","","",""
"html-keyboard-response","310","427848","0.0-13.0-0.60","603e0fefed5529d4b14e3546","64e77d7b61f440b60e28659d","64eca31d3c7a3b80a335508e","null","null","<p style=""font-size: 60px; font-family: BACS"">JAdLmvAvb</p>","","","","","","","","","",""
"html-keyboard-response","311","428858","0.0-13.0-0.61","603e0fefed5529d4b14e3546","64e77d7b61f440b60e28659d","64eca31d3c7a3b80a335508e","null","null","<p style=""font-size: 60px; font-family: BACS"">YlYcCEM</p>","","","","","","","","","",""
"html-keyboard-response","312","429867","0.0-13.0-0.62","603e0fefed5529d4b14e3546","64e77d7b61f440b60e28659d","64eca31d3c7a3b80a335508e","null","null","<p style=""font-size: 60px; font-family: BACS"">JAaGYNu</p>","","","","","","","","","",""
"html-keyboard-response","313","430873","0.0-13.0-0.63","603e0fefed5529d4b14e3546","64e77d7b61f440b60e28659d","64eca31d3c7a3b80a335508e","null","null","<p style=""font-size: 60px; font-family: BACS"">LGkAJUNa</p>","","","","","","","","","",""
"html-keyboard-response","314","431877","0.0-13.0-0.64","603e0fefed5529d4b14e3546","64e77d7b61f440b60e28659d","64eca31d3c7a3b80a335508e","null","null","<p style=""font-size: 60px; font-family: BACS"">EltMBCEM</p>","","","","","","","","","",""
"html-keyboard-response","315","432884","0.0-13.0-0.65","603e0fefed5529d4b14e3546","64e77d7b61f440b60e28659d","64eca31d3c7a3b80a335508e","null","null","<p style=""font-size: 60px; font-family: BACS"">dMThklRE</p>","","","","","","","","","",""
"html-keyboard-response","316","433886","0.0-13.0-0.66","603e0fefed5529d4b14e3546","64e77d7b61f440b60e28659d","64eca31d3c7a3b80a335508e","null","null","<p style=""font-size: 60px; font-family: BACS"">cROMtPEdK</p>","","","","","","","","","",""
"html-keyboard-response","317","434906","0.0-13.0-0.67","603e0fefed5529d4b14e3546","64e77d7b61f440b60e28659d","64eca31d3c7a3b80a335508e","null","null","<p style=""font-size: 60px; font-family: BACS"">lTmOlRE</p>","","","","","","","","","",""
"html-keyboard-response","318","435909","0.0-13.0-0.68","603e0fefed5529d4b14e3546","64e77d7b61f440b60e28659d","64eca31d3c7a3b80a335508e","null","null","<p style=""font-size: 60px; font-family: BACS"">uAkrQru</p>","","","","","","","","","",""
"html-keyboard-response","319","436929","0.0-13.0-0.69","603e0fefed5529d4b14e3546","64e77d7b61f440b60e28659d","64eca31d3c7a3b80a335508e","null","null","<p style=""font-size: 60px; font-family: BACS"">dMThkCEM</p>","","","","","","","","","",""
"html-keyboard-response","320","437933","0.0-13.0-0.70","603e0fefed5529d4b14e3546","64e77d7b61f440b60e28659d","64eca31d3c7a3b80a335508e","null","null","<p style=""font-size: 60px; font-family: BACS"">EltMBlRE</p>","","","","","","","","","",""
"html-keyboard-response","321","438940","0.0-13.0-0.71","603e0fefed5529d4b14e3546","64e77d7b61f440b60e28659d","64eca31d3c7a3b80a335508e","null","null","<p style=""font-size: 60px; font-family: BACS"">GLYrAYNu</p>","","","","","","","","","",""
"html-keyboard-response","322","439947","0.0-13.0-0.72","603e0fefed5529d4b14e3546","64e77d7b61f440b60e28659d","64eca31d3c7a3b80a335508e","null","null","<p style=""font-size: 60px; font-family: BACS"">rckOQru</p>","","","","","","","","","",""
"html-keyboard-response","323","440952","0.0-13.0-0.73","603e0fefed5529d4b14e3546","64e77d7b61f440b60e28659d","64eca31d3c7a3b80a335508e","null","null","<p style=""font-size: 60px; font-family: BACS"">krGuJUNa</p>","","","","","","","","","",""
"html-keyboard-response","324","441958","0.0-13.0-0.74","603e0fefed5529d4b14e3546","64e77d7b61f440b60e28659d","64eca31d3c7a3b80a335508e","null","null","<p style=""font-size: 60px; font-family: BACS"">JAaGbadk</p>","","","","","","","","","",""
"html-keyboard-response","325","442965","0.0-13.0-0.75","603e0fefed5529d4b14e3546","64e77d7b61f440b60e28659d","64eca31d3c7a3b80a335508e","null","null","<p style=""font-size: 60px; font-family: BACS"">AlTdAlKD</p>","","","","","","","","","",""
"html-keyboard-response","326","443970","0.0-13.0-0.76","603e0fefed5529d4b14e3546","64e77d7b61f440b60e28659d","64eca31d3c7a3b80a335508e","null","null","<p style=""font-size: 60px; font-family: BACS"">JAaGvAvb</p>","","","","","","","","","",""
"html-keyboard-response","327","444975","0.0-13.0-0.77","603e0fefed5529d4b14e3546","64e77d7b61f440b60e28659d","64eca31d3c7a3b80a335508e","null","null","<p style=""font-size: 60px; font-family: BACS"">uAkrbadk</p>","","","","","","","","","",""
"html-keyboard-response","328","445996","0.0-13.0-0.78","603e0fefed5529d4b14e3546","64e77d7b61f440b60e28659d","64eca31d3c7a3b80a335508e","null","null","<p style=""font-size: 60px; font-family: BACS"">DRPkYlRE</p>","","","","","","","","","",""
"html-keyboard-response","329","447000","0.0-13.0-0.79","603e0fefed5529d4b14e3546","64e77d7b61f440b60e28659d","64eca31d3c7a3b80a335508e","null","null","<p style=""font-size: 60px; font-family: BACS"">LOLkUbadk</p>","","","","","","","","","",""
"html-keyboard-response","330","469628","0.0-14.0","603e0fefed5529d4b14e3546","64e77d7b61f440b60e28659d","64eca31d3c7a3b80a335508e","22626"," ","<p>Great, you've seen the fourth block of words. You may now take a short break.</p>
      <p>Press the spacebar when you're ready to continue.</p>","","","","","","","","","",""
"html-keyboard-response","331","470635","0.0-15.0-0.0","603e0fefed5529d4b14e3546","64e77d7b61f440b60e28659d","64eca31d3c7a3b80a335508e","null","null","<p style=""font-size: 60px; font-family: BACS"">DRPkYlRE</p>","","","","","","","","","",""
"html-keyboard-response","332","471640","0.0-15.0-0.1","603e0fefed5529d4b14e3546","64e77d7b61f440b60e28659d","64eca31d3c7a3b80a335508e","null","null","<p style=""font-size: 60px; font-family: BACS"">DRPkYlRE</p>","","","","","","","","","",""
"html-keyboard-response","333","472643","0.0-15.0-0.2","603e0fefed5529d4b14e3546","64e77d7b61f440b60e28659d","64eca31d3c7a3b80a335508e","null","null","<p style=""font-size: 60px; font-family: BACS"">DRPkYlRE</p>","","","","","","","","","",""
"html-keyboard-response","334","473644","0.0-15.0-0.3","603e0fefed5529d4b14e3546","64e77d7b61f440b60e28659d","64eca31d3c7a3b80a335508e","null","null","<p style=""font-size: 60px; font-family: BACS"">DRPkYlRE</p>","","","","","","","","","",""
"html-keyboard-response","335","474647","0.0-15.0-0.4","603e0fefed5529d4b14e3546","64e77d7b61f440b60e28659d","64eca31d3c7a3b80a335508e","null","null","<p style=""font-size: 60px; font-family: BACS"">DRPkYlRE</p>","","","","","","","","","",""
"html-keyboard-response","336","475654","0.0-15.0-0.5","603e0fefed5529d4b14e3546","64e77d7b61f440b60e28659d","64eca31d3c7a3b80a335508e","null","null","<p style=""font-size: 60px; font-family: BACS"">DRPkYlRE</p>","","","","","","","","","",""
"html-keyboard-response","337","476659","0.0-15.0-0.6","603e0fefed5529d4b14e3546","64e77d7b61f440b60e28659d","64eca31d3c7a3b80a335508e","null","null","<p style=""font-size: 60px; font-family: BACS"">DRPkYlRE</p>","","","","","","","","","",""
"html-keyboard-response","338","477667","0.0-15.0-0.7","603e0fefed5529d4b14e3546","64e77d7b61f440b60e28659d","64eca31d3c7a3b80a335508e","null","null","<p style=""font-size: 60px; font-family: BACS"">DRPkYlRE</p>","","","","","","","","","",""
"html-keyboard-response","339","478676","0.0-15.0-0.8","603e0fefed5529d4b14e3546","64e77d7b61f440b60e28659d","64eca31d3c7a3b80a335508e","null","null","<p style=""font-size: 60px; font-family: BACS"">DRPkYlRE</p>","","","","","","","","","",""
"html-keyboard-response","340","479682","0.0-15.0-0.9","603e0fefed5529d4b14e3546","64e77d7b61f440b60e28659d","64eca31d3c7a3b80a335508e","null","null","<p style=""font-size: 60px; font-family: BACS"">DRPkYlRE</p>","","","","","","","","","",""
"html-keyboard-response","341","480687","0.0-15.0-0.10","603e0fefed5529d4b14e3546","64e77d7b61f440b60e28659d","64eca31d3c7a3b80a335508e","null","null","<p style=""font-size: 60px; font-family: BACS"">DRPkYlRE</p>","","","","","","","","","",""
"html-keyboard-response","342","481694","0.0-15.0-0.11","603e0fefed5529d4b14e3546","64e77d7b61f440b60e28659d","64eca31d3c7a3b80a335508e","null","null","<p style=""font-size: 60px; font-family: BACS"">DRPkYlRE</p>","","","","","","","","","",""
"html-keyboard-response","343","482701","0.0-15.0-0.12","603e0fefed5529d4b14e3546","64e77d7b61f440b60e28659d","64eca31d3c7a3b80a335508e","null","null","<p style=""font-size: 60px; font-family: BACS"">DRPkYlRE</p>","","","","","","","","","",""
"html-keyboard-response","344","483709","0.0-15.0-0.13","603e0fefed5529d4b14e3546","64e77d7b61f440b60e28659d","64eca31d3c7a3b80a335508e","null","null","<p style=""font-size: 60px; font-family: BACS"">DRPkYlRE</p>","","","","","","","","","",""
"html-keyboard-response","345","484721","0.0-15.0-0.14","603e0fefed5529d4b14e3546","64e77d7b61f440b60e28659d","64eca31d3c7a3b80a335508e","null","null","<p style=""font-size: 60px; font-family: BACS"">DRPkYlRE</p>","","","","","","","","","",""
"html-keyboard-response","346","485725","0.0-15.0-0.15","603e0fefed5529d4b14e3546","64e77d7b61f440b60e28659d","64eca31d3c7a3b80a335508e","null","null","<p style=""font-size: 60px; font-family: BACS"">DRPkYlRE</p>","","","","","","","","","",""
"html-keyboard-response","347","486731","0.0-15.0-0.16","603e0fefed5529d4b14e3546","64e77d7b61f440b60e28659d","64eca31d3c7a3b80a335508e","null","null","<p style=""font-size: 60px; font-family: BACS"">DRPkYlRE</p>","","","","","","","","","",""
"html-keyboard-response","348","487738","0.0-15.0-0.17","603e0fefed5529d4b14e3546","64e77d7b61f440b60e28659d","64eca31d3c7a3b80a335508e","null","null","<p style=""font-size: 60px; font-family: BACS"">DRPkYlRE</p>","","","","","","","","","",""
"html-keyboard-response","349","488745","0.0-15.0-0.18","603e0fefed5529d4b14e3546","64e77d7b61f440b60e28659d","64eca31d3c7a3b80a335508e","null","null","<p style=""font-size: 60px; font-family: BACS"">DRPkYlRE</p>","","","","","","","","","",""
"html-keyboard-response","350","489749","0.0-15.0-0.19","603e0fefed5529d4b14e3546","64e77d7b61f440b60e28659d","64eca31d3c7a3b80a335508e","null","null","<p style=""font-size: 60px; font-family: BACS"">DRPkYlRE</p>","","","","","","","","","",""
"html-keyboard-response","351","490756","0.0-15.0-0.20","603e0fefed5529d4b14e3546","64e77d7b61f440b60e28659d","64eca31d3c7a3b80a335508e","null","null","<p style=""font-size: 60px; font-family: BACS"">DRPkYlRE</p>","","","","","","","","","",""
"html-keyboard-response","352","491775","0.0-15.0-0.21","603e0fefed5529d4b14e3546","64e77d7b61f440b60e28659d","64eca31d3c7a3b80a335508e","null","null","<p style=""font-size: 60px; font-family: BACS"">DRPkYlRE</p>","","","","","","","","","",""
"html-keyboard-response","353","492781","0.0-15.0-0.22","603e0fefed5529d4b14e3546","64e77d7b61f440b60e28659d","64eca31d3c7a3b80a335508e","null","null","<p style=""font-size: 60px; font-family: BACS"">DRPkYlRE</p>","","","","","","","","","",""
"html-keyboard-response","354","493801","0.0-15.0-0.23","603e0fefed5529d4b14e3546","64e77d7b61f440b60e28659d","64eca31d3c7a3b80a335508e","null","null","<p style=""font-size: 60px; font-family: BACS"">DRPkYlRE</p>","","","","","","","","","",""
"html-keyboard-response","355","494805","0.0-15.0-0.24","603e0fefed5529d4b14e3546","64e77d7b61f440b60e28659d","64eca31d3c7a3b80a335508e","null","null","<p style=""font-size: 60px; font-family: BACS"">DRPkYlRE</p>","","","","","","","","","",""
"html-keyboard-response","356","495812","0.0-15.0-0.25","603e0fefed5529d4b14e3546","64e77d7b61f440b60e28659d","64eca31d3c7a3b80a335508e","null","null","<p style=""font-size: 60px; font-family: BACS"">DRPkYlRE</p>","","","","","","","","","",""
"html-keyboard-response","357","496819","0.0-15.0-0.26","603e0fefed5529d4b14e3546","64e77d7b61f440b60e28659d","64eca31d3c7a3b80a335508e","null","null","<p style=""font-size: 60px; font-family: BACS"">DRPkYlRE</p>","","","","","","","","","",""
"html-keyboard-response","358","497827","0.0-15.0-0.27","603e0fefed5529d4b14e3546","64e77d7b61f440b60e28659d","64eca31d3c7a3b80a335508e","null","null","<p style=""font-size: 60px; font-family: BACS"">DRPkYlRE</p>","","","","","","","","","",""
"html-keyboard-response","359","498833","0.0-15.0-0.28","603e0fefed5529d4b14e3546","64e77d7b61f440b60e28659d","64eca31d3c7a3b80a335508e","null","null","<p style=""font-size: 60px; font-family: BACS"">DRPkYlRE</p>","","","","","","","","","",""
"html-keyboard-response","360","499841","0.0-15.0-0.29","603e0fefed5529d4b14e3546","64e77d7b61f440b60e28659d","64eca31d3c7a3b80a335508e","null","null","<p style=""font-size: 60px; font-family: BACS"">DRPkYlRE</p>","","","","","","","","","",""
"html-keyboard-response","361","500847","0.0-15.0-0.30","603e0fefed5529d4b14e3546","64e77d7b61f440b60e28659d","64eca31d3c7a3b80a335508e","null","null","<p style=""font-size: 60px; font-family: BACS"">DRPkYlRE</p>","","","","","","","","","",""
"html-keyboard-response","362","501854","0.0-15.0-0.31","603e0fefed5529d4b14e3546","64e77d7b61f440b60e28659d","64eca31d3c7a3b80a335508e","null","null","<p style=""font-size: 60px; font-family: BACS"">DRPkYlRE</p>","","","","","","","","","",""
"html-keyboard-response","363","502886","0.0-15.0-0.32","603e0fefed5529d4b14e3546","64e77d7b61f440b60e28659d","64eca31d3c7a3b80a335508e","null","null","<p style=""font-size: 60px; font-family: BACS"">DRPkYlRE</p>","","","","","","","","","",""
"html-keyboard-response","364","503894","0.0-15.0-0.33","603e0fefed5529d4b14e3546","64e77d7b61f440b60e28659d","64eca31d3c7a3b80a335508e","null","null","<p style=""font-size: 60px; font-family: BACS"">DRPkYlRE</p>","","","","","","","","","",""
"html-keyboard-response","365","504900","0.0-15.0-0.34","603e0fefed5529d4b14e3546","64e77d7b61f440b60e28659d","64eca31d3c7a3b80a335508e","null","null","<p style=""font-size: 60px; font-family: BACS"">DRPkYlRE</p>","","","","","","","","","",""
"html-keyboard-response","366","505908","0.0-15.0-0.35","603e0fefed5529d4b14e3546","64e77d7b61f440b60e28659d","64eca31d3c7a3b80a335508e","null","null","<p style=""font-size: 60px; font-family: BACS"">DRPkYlRE</p>","","","","","","","","","",""
"html-keyboard-response","367","506917","0.0-15.0-0.36","603e0fefed5529d4b14e3546","64e77d7b61f440b60e28659d","64eca31d3c7a3b80a335508e","null","null","<p style=""font-size: 60px; font-family: BACS"">DRPkYlRE</p>","","","","","","","","","",""
"html-keyboard-response","368","507921","0.0-15.0-0.37","603e0fefed5529d4b14e3546","64e77d7b61f440b60e28659d","64eca31d3c7a3b80a335508e","null","null","<p style=""font-size: 60px; font-family: BACS"">DRPkYlRE</p>","","","","","","","","","",""
"html-keyboard-response","369","508927","0.0-15.0-0.38","603e0fefed5529d4b14e3546","64e77d7b61f440b60e28659d","64eca31d3c7a3b80a335508e","null","null","<p style=""font-size: 60px; font-family: BACS"">DRPkYlRE</p>","","","","","","","","","",""
"html-keyboard-response","370","509930","0.0-15.0-0.39","603e0fefed5529d4b14e3546","64e77d7b61f440b60e28659d","64eca31d3c7a3b80a335508e","null","null","<p style=""font-size: 60px; font-family: BACS"">DRPkYlRE</p>","","","","","","","","","",""
"html-keyboard-response","371","510940","0.0-15.0-0.40","603e0fefed5529d4b14e3546","64e77d7b61f440b60e28659d","64eca31d3c7a3b80a335508e","null","null","<p style=""font-size: 60px; font-family: BACS"">DRPkYlRE</p>","","","","","","","","","",""
"html-keyboard-response","372","511960","0.0-15.0-0.41","603e0fefed5529d4b14e3546","64e77d7b61f440b60e28659d","64eca31d3c7a3b80a335508e","null","null","<p style=""font-size: 60px; font-family: BACS"">DRPkYlRE</p>","","","","","","","","","",""
"html-keyboard-response","373","512964","0.0-15.0-0.42","603e0fefed5529d4b14e3546","64e77d7b61f440b60e28659d","64eca31d3c7a3b80a335508e","null","null","<p style=""font-size: 60px; font-family: BACS"">DRPkYlRE</p>","","","","","","","","","",""
"html-keyboard-response","374","513985","0.0-15.0-0.43","603e0fefed5529d4b14e3546","64e77d7b61f440b60e28659d","64eca31d3c7a3b80a335508e","null","null","<p style=""font-size: 60px; font-family: BACS"">DRPkYlRE</p>","","","","","","","","","",""
"html-keyboard-response","375","514989","0.0-15.0-0.44","603e0fefed5529d4b14e3546","64e77d7b61f440b60e28659d","64eca31d3c7a3b80a335508e","null","null","<p style=""font-size: 60px; font-family: BACS"">DRPkYlRE</p>","","","","","","","","","",""
"html-keyboard-response","376","515995","0.0-15.0-0.45","603e0fefed5529d4b14e3546","64e77d7b61f440b60e28659d","64eca31d3c7a3b80a335508e","null","null","<p style=""font-size: 60px; font-family: BACS"">DRPkYlRE</p>","","","","","","","","","",""
"html-keyboard-response","377","517000","0.0-15.0-0.46","603e0fefed5529d4b14e3546","64e77d7b61f440b60e28659d","64eca31d3c7a3b80a335508e","null","null","<p style=""font-size: 60px; font-family: BACS"">DRPkYlRE</p>","","","","","","","","","",""
"html-keyboard-response","378","518008","0.0-15.0-0.47","603e0fefed5529d4b14e3546","64e77d7b61f440b60e28659d","64eca31d3c7a3b80a335508e","null","null","<p style=""font-size: 60px; font-family: BACS"">DRPkYlRE</p>","","","","","","","","","",""
"html-keyboard-response","379","519013","0.0-15.0-0.48","603e0fefed5529d4b14e3546","64e77d7b61f440b60e28659d","64eca31d3c7a3b80a335508e","null","null","<p style=""font-size: 60px; font-family: BACS"">DRPkYlRE</p>","","","","","","","","","",""
"html-keyboard-response","380","520017","0.0-15.0-0.49","603e0fefed5529d4b14e3546","64e77d7b61f440b60e28659d","64eca31d3c7a3b80a335508e","null","null","<p style=""font-size: 60px; font-family: BACS"">DRPkYlRE</p>","","","","","","","","","",""
"html-keyboard-response","381","521018","0.0-15.0-0.50","603e0fefed5529d4b14e3546","64e77d7b61f440b60e28659d","64eca31d3c7a3b80a335508e","null","null","<p style=""font-size: 60px; font-family: BACS"">DRPkYlRE</p>","","","","","","","","","",""
"html-keyboard-response","382","522022","0.0-15.0-0.51","603e0fefed5529d4b14e3546","64e77d7b61f440b60e28659d","64eca31d3c7a3b80a335508e","null","null","<p style=""font-size: 60px; font-family: BACS"">DRPkYlRE</p>","","","","","","","","","",""
"html-keyboard-response","383","523026","0.0-15.0-0.52","603e0fefed5529d4b14e3546","64e77d7b61f440b60e28659d","64eca31d3c7a3b80a335508e","null","null","<p style=""font-size: 60px; font-family: BACS"">DRPkYlRE</p>","","","","","","","","","",""
"html-keyboard-response","384","524030","0.0-15.0-0.53","603e0fefed5529d4b14e3546","64e77d7b61f440b60e28659d","64eca31d3c7a3b80a335508e","null","null","<p style=""font-size: 60px; font-family: BACS"">DRPkYlRE</p>","","","","","","","","","",""
"html-keyboard-response","385","525036","0.0-15.0-0.54","603e0fefed5529d4b14e3546","64e77d7b61f440b60e28659d","64eca31d3c7a3b80a335508e","null","null","<p style=""font-size: 60px; font-family: BACS"">DRPkYlRE</p>","","","","","","","","","",""
"html-keyboard-response","386","526042","0.0-15.0-0.55","603e0fefed5529d4b14e3546","64e77d7b61f440b60e28659d","64eca31d3c7a3b80a335508e","null","null","<p style=""font-size: 60px; font-family: BACS"">DRPkYlRE</p>","","","","","","","","","",""
"html-keyboard-response","387","527063","0.0-15.0-0.56","603e0fefed5529d4b14e3546","64e77d7b61f440b60e28659d","64eca31d3c7a3b80a335508e","null","null","<p style=""font-size: 60px; font-family: BACS"">DRPkYlRE</p>","","","","","","","","","",""
"html-keyboard-response","388","528068","0.0-15.0-0.57","603e0fefed5529d4b14e3546","64e77d7b61f440b60e28659d","64eca31d3c7a3b80a335508e","null","null","<p style=""font-size: 60px; font-family: BACS"">DRPkYlRE</p>","","","","","","","","","",""
"html-keyboard-response","389","529072","0.0-15.0-0.58","603e0fefed5529d4b14e3546","64e77d7b61f440b60e28659d","64eca31d3c7a3b80a335508e","null","null","<p style=""font-size: 60px; font-family: BACS"">DRPkYlRE</p>","","","","","","","","","",""
"html-keyboard-response","390","530076","0.0-15.0-0.59","603e0fefed5529d4b14e3546","64e77d7b61f440b60e28659d","64eca31d3c7a3b80a335508e","null","null","<p style=""font-size: 60px; font-family: BACS"">DRPkYlRE</p>","","","","","","","","","",""
"html-keyboard-response","391","531079","0.0-15.0-0.60","603e0fefed5529d4b14e3546","64e77d7b61f440b60e28659d","64eca31d3c7a3b80a335508e","null","null","<p style=""font-size: 60px; font-family: BACS"">DRPkYlRE</p>","","","","","","","","","",""
"html-keyboard-response","392","532084","0.0-15.0-0.61","603e0fefed5529d4b14e3546","64e77d7b61f440b60e28659d","64eca31d3c7a3b80a335508e","null","null","<p style=""font-size: 60px; font-family: BACS"">DRPkYlRE</p>","","","","","","","","","",""
"html-keyboard-response","393","533091","0.0-15.0-0.62","603e0fefed5529d4b14e3546","64e77d7b61f440b60e28659d","64eca31d3c7a3b80a335508e","null","null","<p style=""font-size: 60px; font-family: BACS"">DRPkYlRE</p>","","","","","","","","","",""
"html-keyboard-response","394","534097","0.0-15.0-0.63","603e0fefed5529d4b14e3546","64e77d7b61f440b60e28659d","64eca31d3c7a3b80a335508e","null","null","<p style=""font-size: 60px; font-family: BACS"">DRPkYlRE</p>","","","","","","","","","",""
"html-keyboard-response","395","535108","0.0-15.0-0.64","603e0fefed5529d4b14e3546","64e77d7b61f440b60e28659d","64eca31d3c7a3b80a335508e","null","null","<p style=""font-size: 60px; font-family: BACS"">DRPkYlRE</p>","","","","","","","","","",""
