"trial_type","trial_index","time_elapsed","internal_node_id","subject_id","study_id","session_id","rt","response","stimulus","success","item","task","correct_response","testing_condition","correct","target","confound","name"
"pavlovia","0","2622","0.0-0.0","5e433ed3393e971e19f4735d","650c16f0f2faf8d7a0d14c09","651c1cbd74802622968a5b08","","","","","","","","","","","",""
"survey-html-form","1","10646","0.0-1.0","5e433ed3393e971e19f4735d","650c16f0f2faf8d7a0d14c09","651c1cbd74802622968a5b08","8023","{""ID"":""5e433ed3393e971e19f4735d""}","","","","","","","","","",""
"html-keyboard-response","2","22981","0.0-2.0","5e433ed3393e971e19f4735d","650c16f0f2faf8d7a0d14c09","651c1cbd74802622968a5b08","12333"," ","<p style=""font-size: 15px;"">Before beginning, we ask that you read the consent information and confirm your agreement to participate in the experiment.</p>
      <p style=""font-size: 15px;""> We ask that you remember that this is a research project and that your participation is entirely voluntary. You can stop your participation at any time, without needing to provide any explanation. The study we're asking you to participate in aims at examining how readers process written words. You will be engaged in a session of apprximately 20 minutes, followed by a brief questionnaire. You will have the opportunity to take a few breaks during the experiment. You will be paid £4 for your participation, corresponding to a rate of £8/hour. While this experiment looks at cognitive faculties, this experiment doesn't constitute clinical proof of eventual pathologies.</p>
      <p style=""font-size: 15px;"">All of the information collected thanks to yours and others' participation will be held in a secure password-protected server, and will not be shared with anyone not authorised to view it. Your personal information will be kept with an arbitrary participant ID. Thanks to this data anonymity process, any researcher analysing the data won't be able to track the information back to a specific participant. Therefore, this process will make identifying you impossibile, even when results from the study will be published in scientific reviews, presented at congresses, or at any other public forum. More generally, the collected data will be treated in accordance with the laws on privacy and conformity to the Legislative Degree n. 196 ""Code regarding the protection of personal data"" of the 30th of June 2003 and to the European Regulation 2016/670 (General Data Protection Regulation - GDPR). The Data Protection Officer is Avv. Valentina Carollo, who can be contacted at the following email addresses: <a href=""mailto:dpo@sissa.it"">dpo@sissa.it</a> or <a href=""mailto:rpd@sissa.it"">rpd@sissa.it</a> - PEC: <a href=""mailto:protocollo@pec.sissa.it"">protocollo@pec.sissa.it</a>.</p>
      <p style=""font-size: 15px;""> Before expressing your consent to participate, we would like to remind you again that in case you need explanations on any aspect of the experimental procedure, the researcher is at your disposition (<a href=""mailto:aliebelt@sissa.it"">aliebelt@sissa.it</a>, <a href=""mailto:davide.crepaldi@sissa.it"">davide.crepaldi@sissa.it</a>).</p>
      <p style=""font-size: 15px;"">If you would like to download the informed consent form, you can do so here: <a href=""BASL-Informed_Consent.pdf"" download>informed consent form</a>.</p>
      <p style=""font-size: 15px;"">We ask that you press the spacebar to proceed to the consent section.</p>","","","","","","","","",""
"survey-html-form","3","37861","0.0-3.0","5e433ed3393e971e19f4735d","650c16f0f2faf8d7a0d14c09","651c1cbd74802622968a5b08","14880","{""consent1"":""YES"",""consent2"":""YES"",""consent3"":""YES"",""consent4"":""YES"",""consent5"":""YES"",""consent6"":""YES""}","","","","","","","","","",""
"fullscreen","4","40999","0.0-4.0","5e433ed3393e971e19f4735d","650c16f0f2faf8d7a0d14c09","651c1cbd74802622968a5b08","","","","true","","","","","","","",""
"html-keyboard-response","5","56095","0.0-5.0","5e433ed3393e971e19f4735d","650c16f0f2faf8d7a0d14c09","651c1cbd74802622968a5b08","15097"," ","<p>Welcome, and thank you very much for your time!</p>
      <p>In this experiment, you'll be a language expert who's been asked to take a look at words that Earth has received in its first communication with aliens. Your task, in this first part of the experiment, is to pay close attention to the words you'll be shown; later, world leaders will ask you questions on what you saw. The words will be shown to you quite quickly; it seems that the aliens were in a hurry :-)</p>
      <p>Press the spacebar to continue.<p>","","","","","","","","",""
"html-keyboard-response","6","56157","0.0-6.0","5e433ed3393e971e19f4735d","650c16f0f2faf8d7a0d14c09","651c1cbd74802622968a5b08","null","null","<p style=""font-size: 120px; font-family: BACS""> </p>","","","","","","","","",""
"html-keyboard-response","7","66988","0.0-7.0","5e433ed3393e971e19f4735d","650c16f0f2faf8d7a0d14c09","651c1cbd74802622968a5b08","10831"," ","<p>Here is an example of the words you'll see:</p>
      <img src='esempio.png' height='400px'>
      <p>When you're ready to begin, press the spacebar.</p></div>","","","","","","","","",""
"html-keyboard-response","8","67994","0.0-8.0-0.0","5e433ed3393e971e19f4735d","650c16f0f2faf8d7a0d14c09","651c1cbd74802622968a5b08","null","null","<p style=""font-size: 60px; font-family: BACS"">TDKhtAY</p>","","","","","","","","",""
"html-keyboard-response","9","68997","0.0-8.0-0.1","5e433ed3393e971e19f4735d","650c16f0f2faf8d7a0d14c09","651c1cbd74802622968a5b08","null","null","<p style=""font-size: 60px; font-family: BACS"">rckOvcb</p>","","","","","","","","",""
"html-keyboard-response","10","69998","0.0-8.0-0.2","5e433ed3393e971e19f4735d","650c16f0f2faf8d7a0d14c09","651c1cbd74802622968a5b08","null","null","<p style=""font-size: 60px; font-family: BACS"">bmdABbTE</p>","","","","","","","","",""
"html-keyboard-response","11","71005","0.0-8.0-0.3","5e433ed3393e971e19f4735d","650c16f0f2faf8d7a0d14c09","651c1cbd74802622968a5b08","null","null","<p style=""font-size: 60px; font-family: BACS"">OLJblvcb</p>","","","","","","","","",""
"html-keyboard-response","12","72013","0.0-8.0-0.4","5e433ed3393e971e19f4735d","650c16f0f2faf8d7a0d14c09","651c1cbd74802622968a5b08","null","null","<p style=""font-size: 60px; font-family: BACS"">BOckPOBT</p>","","","","","","","","",""
"html-keyboard-response","13","73016","0.0-8.0-0.5","5e433ed3393e971e19f4735d","650c16f0f2faf8d7a0d14c09","651c1cbd74802622968a5b08","null","null","<p style=""font-size: 60px; font-family: BACS"">OLJblmZb</p>","","","","","","","","",""
"html-keyboard-response","14","74029","0.0-8.0-0.6","5e433ed3393e971e19f4735d","650c16f0f2faf8d7a0d14c09","651c1cbd74802622968a5b08","null","null","<p style=""font-size: 60px; font-family: BACS"">NaJbGrub</p>","","","","","","","","",""
"html-keyboard-response","15","75031","0.0-8.0-0.7","5e433ed3393e971e19f4735d","650c16f0f2faf8d7a0d14c09","651c1cbd74802622968a5b08","null","null","<p style=""font-size: 60px; font-family: BACS"">TDKhOBT</p>","","","","","","","","",""
"html-keyboard-response","16","76045","0.0-8.0-0.8","5e433ed3393e971e19f4735d","650c16f0f2faf8d7a0d14c09","651c1cbd74802622968a5b08","null","null","<p style=""font-size: 60px; font-family: BACS"">DdckABb</p>","","","","","","","","",""
"html-keyboard-response","17","77045","0.0-8.0-0.9","5e433ed3393e971e19f4735d","650c16f0f2faf8d7a0d14c09","651c1cbd74802622968a5b08","null","null","<p style=""font-size: 60px; font-family: BACS"">OMlTtAY</p>","","","","","","","","",""
"html-keyboard-response","18","78046","0.0-8.0-0.10","5e433ed3393e971e19f4735d","650c16f0f2faf8d7a0d14c09","651c1cbd74802622968a5b08","null","null","<p style=""font-size: 60px; font-family: BACS"">bvkrGrub</p>","","","","","","","","",""
"html-keyboard-response","19","79047","0.0-8.0-0.11","5e433ed3393e971e19f4735d","650c16f0f2faf8d7a0d14c09","651c1cbd74802622968a5b08","null","null","<p style=""font-size: 60px; font-family: BACS"">ObZbAmZb</p>","","","","","","","","",""
"html-keyboard-response","20","80057","0.0-8.0-0.12","5e433ed3393e971e19f4735d","650c16f0f2faf8d7a0d14c09","651c1cbd74802622968a5b08","null","null","<p style=""font-size: 60px; font-family: BACS"">mLdkZYaOk</p>","","","","","","","","",""
"html-keyboard-response","21","81068","0.0-8.0-0.13","5e433ed3393e971e19f4735d","650c16f0f2faf8d7a0d14c09","651c1cbd74802622968a5b08","null","null","<p style=""font-size: 60px; font-family: BACS"">cuOJbGrub</p>","","","","","","","","",""
"html-keyboard-response","22","82083","0.0-8.0-0.14","5e433ed3393e971e19f4735d","650c16f0f2faf8d7a0d14c09","651c1cbd74802622968a5b08","null","null","<p style=""font-size: 60px; font-family: BACS"">NbacAmZb</p>","","","","","","","","",""
"html-keyboard-response","23","83098","0.0-8.0-0.15","5e433ed3393e971e19f4735d","650c16f0f2faf8d7a0d14c09","651c1cbd74802622968a5b08","null","null","<p style=""font-size: 60px; font-family: BACS"">rckOYaOk</p>","","","","","","","","",""
"html-keyboard-response","24","84100","0.0-8.0-0.16","5e433ed3393e971e19f4735d","650c16f0f2faf8d7a0d14c09","651c1cbd74802622968a5b08","null","null","<p style=""font-size: 60px; font-family: BACS"">RCcEABb</p>","","","","","","","","",""
"html-keyboard-response","25","85112","0.0-8.0-0.17","5e433ed3393e971e19f4735d","650c16f0f2faf8d7a0d14c09","651c1cbd74802622968a5b08","null","null","<p style=""font-size: 60px; font-family: BACS"">NaJbvcb</p>","","","","","","","","",""
"html-keyboard-response","26","86127","0.0-8.0-0.18","5e433ed3393e971e19f4735d","650c16f0f2faf8d7a0d14c09","651c1cbd74802622968a5b08","null","null","<p style=""font-size: 60px; font-family: BACS"">BOckPtAY</p>","","","","","","","","",""
"html-keyboard-response","27","87139","0.0-8.0-0.19","5e433ed3393e971e19f4735d","650c16f0f2faf8d7a0d14c09","651c1cbd74802622968a5b08","null","null","<p style=""font-size: 60px; font-family: BACS"">bmdABOBT</p>","","","","","","","","",""
"html-keyboard-response","28","88150","0.0-8.0-0.20","5e433ed3393e971e19f4735d","650c16f0f2faf8d7a0d14c09","651c1cbd74802622968a5b08","null","null","<p style=""font-size: 60px; font-family: BACS"">NbacAGrub</p>","","","","","","","","",""
"html-keyboard-response","29","89152","0.0-8.0-0.21","5e433ed3393e971e19f4735d","650c16f0f2faf8d7a0d14c09","651c1cbd74802622968a5b08","null","null","<p style=""font-size: 60px; font-family: BACS"">RCcEbTE</p>","","","","","","","","",""
"html-keyboard-response","30","90156","0.0-8.0-0.22","5e433ed3393e971e19f4735d","650c16f0f2faf8d7a0d14c09","651c1cbd74802622968a5b08","null","null","<p style=""font-size: 60px; font-family: BACS"">NaJbmZb</p>","","","","","","","","",""
"html-keyboard-response","31","91171","0.0-8.0-0.23","5e433ed3393e971e19f4735d","650c16f0f2faf8d7a0d14c09","651c1cbd74802622968a5b08","null","null","<p style=""font-size: 60px; font-family: BACS"">mLdkZJcUk</p>","","","","","","","","",""
"html-keyboard-response","32","92185","0.0-8.0-0.24","5e433ed3393e971e19f4735d","650c16f0f2faf8d7a0d14c09","651c1cbd74802622968a5b08","null","null","<p style=""font-size: 60px; font-family: BACS"">bmdABOMC</p>","","","","","","","","",""
"html-keyboard-response","33","93200","0.0-8.0-0.25","5e433ed3393e971e19f4735d","650c16f0f2faf8d7a0d14c09","651c1cbd74802622968a5b08","null","null","<p style=""font-size: 60px; font-family: BACS"">RCcEtAY</p>","","","","","","","","",""
"html-keyboard-response","34","94212","0.0-8.0-0.26","5e433ed3393e971e19f4735d","650c16f0f2faf8d7a0d14c09","651c1cbd74802622968a5b08","null","null","<p style=""font-size: 60px; font-family: BACS"">OLJblJcUk</p>","","","","","","","","",""
"html-keyboard-response","35","95224","0.0-8.0-0.27","5e433ed3393e971e19f4735d","650c16f0f2faf8d7a0d14c09","651c1cbd74802622968a5b08","null","null","<p style=""font-size: 60px; font-family: BACS"">cuOJbYaOk</p>","","","","","","","","",""
"html-keyboard-response","36","96227","0.0-8.0-0.28","5e433ed3393e971e19f4735d","650c16f0f2faf8d7a0d14c09","651c1cbd74802622968a5b08","null","null","<p style=""font-size: 60px; font-family: BACS"">bvkrmZb</p>","","","","","","","","",""
"html-keyboard-response","37","97242","0.0-8.0-0.29","5e433ed3393e971e19f4735d","650c16f0f2faf8d7a0d14c09","651c1cbd74802622968a5b08","null","null","<p style=""font-size: 60px; font-family: BACS"">mLdkZGrub</p>","","","","","","","","",""
"html-keyboard-response","38","98244","0.0-8.0-0.30","5e433ed3393e971e19f4735d","650c16f0f2faf8d7a0d14c09","651c1cbd74802622968a5b08","null","null","<p style=""font-size: 60px; font-family: BACS"">bmdABtAY</p>","","","","","","","","",""
"html-keyboard-response","39","99254","0.0-8.0-0.31","5e433ed3393e971e19f4735d","650c16f0f2faf8d7a0d14c09","651c1cbd74802622968a5b08","null","null","<p style=""font-size: 60px; font-family: BACS"">kcOYbTE</p>","","","","","","","","",""
"html-keyboard-response","40","100269","0.0-8.0-0.32","5e433ed3393e971e19f4735d","650c16f0f2faf8d7a0d14c09","651c1cbd74802622968a5b08","null","null","<p style=""font-size: 60px; font-family: BACS"">cuOJbvcb</p>","","","","","","","","",""
"html-keyboard-response","41","101282","0.0-8.0-0.33","5e433ed3393e971e19f4735d","650c16f0f2faf8d7a0d14c09","651c1cbd74802622968a5b08","null","null","<p style=""font-size: 60px; font-family: BACS"">OMlTOMC</p>","","","","","","","","",""
"html-keyboard-response","42","102295","0.0-8.0-0.34","5e433ed3393e971e19f4735d","650c16f0f2faf8d7a0d14c09","651c1cbd74802622968a5b08","null","null","<p style=""font-size: 60px; font-family: BACS"">DdckOBT</p>","","","","","","","","",""
"html-keyboard-response","43","103309","0.0-8.0-0.35","5e433ed3393e971e19f4735d","650c16f0f2faf8d7a0d14c09","651c1cbd74802622968a5b08","null","null","<p style=""font-size: 60px; font-family: BACS"">htmhCABb</p>","","","","","","","","",""
"html-keyboard-response","44","104325","0.0-8.0-0.36","5e433ed3393e971e19f4735d","650c16f0f2faf8d7a0d14c09","651c1cbd74802622968a5b08","null","null","<p style=""font-size: 60px; font-family: BACS"">hmKPMOMC</p>","","","","","","","","",""
"html-keyboard-response","45","105338","0.0-8.0-0.37","5e433ed3393e971e19f4735d","650c16f0f2faf8d7a0d14c09","651c1cbd74802622968a5b08","null","null","<p style=""font-size: 60px; font-family: BACS"">kZUbYaOk</p>","","","","","","","","",""
"html-keyboard-response","46","106343","0.0-8.0-0.38","5e433ed3393e971e19f4735d","650c16f0f2faf8d7a0d14c09","651c1cbd74802622968a5b08","null","null","<p style=""font-size: 60px; font-family: BACS"">TDKhABb</p>","","","","","","","","",""
"html-keyboard-response","47","107347","0.0-8.0-0.39","5e433ed3393e971e19f4735d","650c16f0f2faf8d7a0d14c09","651c1cbd74802622968a5b08","null","null","<p style=""font-size: 60px; font-family: BACS"">BOckPOMC</p>","","","","","","","","",""
"html-keyboard-response","48","108359","0.0-8.0-0.40","5e433ed3393e971e19f4735d","650c16f0f2faf8d7a0d14c09","651c1cbd74802622968a5b08","null","null","<p style=""font-size: 60px; font-family: BACS"">OMlTABb</p>","","","","","","","","",""
"html-keyboard-response","49","109374","0.0-8.0-0.41","5e433ed3393e971e19f4735d","650c16f0f2faf8d7a0d14c09","651c1cbd74802622968a5b08","null","null","<p style=""font-size: 60px; font-family: BACS"">BbODbTE</p>","","","","","","","","",""
"html-keyboard-response","50","110386","0.0-8.0-0.42","5e433ed3393e971e19f4735d","650c16f0f2faf8d7a0d14c09","651c1cbd74802622968a5b08","null","null","<p style=""font-size: 60px; font-family: BACS"">kZUbmZb</p>","","","","","","","","",""
"html-keyboard-response","51","111387","0.0-8.0-0.43","5e433ed3393e971e19f4735d","650c16f0f2faf8d7a0d14c09","651c1cbd74802622968a5b08","null","null","<p style=""font-size: 60px; font-family: BACS"">rckOGrub</p>","","","","","","","","",""
"html-keyboard-response","52","112400","0.0-8.0-0.44","5e433ed3393e971e19f4735d","650c16f0f2faf8d7a0d14c09","651c1cbd74802622968a5b08","null","null","<p style=""font-size: 60px; font-family: BACS"">ObZbAvcb</p>","","","","","","","","",""
"html-keyboard-response","53","113411","0.0-8.0-0.45","5e433ed3393e971e19f4735d","650c16f0f2faf8d7a0d14c09","651c1cbd74802622968a5b08","null","null","<p style=""font-size: 60px; font-family: BACS"">NbacAJcUk</p>","","","","","","","","",""
"html-keyboard-response","54","114426","0.0-8.0-0.46","5e433ed3393e971e19f4735d","650c16f0f2faf8d7a0d14c09","651c1cbd74802622968a5b08","null","null","<p style=""font-size: 60px; font-family: BACS"">OMlTbTE</p>","","","","","","","","",""
"html-keyboard-response","55","115458","0.0-8.0-0.47","5e433ed3393e971e19f4735d","650c16f0f2faf8d7a0d14c09","651c1cbd74802622968a5b08","null","null","<p style=""font-size: 60px; font-family: BACS"">htmhCOMC</p>","","","","","","","","",""
"html-keyboard-response","56","116470","0.0-8.0-0.48","5e433ed3393e971e19f4735d","650c16f0f2faf8d7a0d14c09","651c1cbd74802622968a5b08","null","null","<p style=""font-size: 60px; font-family: BACS"">hmKPMABb</p>","","","","","","","","",""
"html-keyboard-response","57","117485","0.0-8.0-0.49","5e433ed3393e971e19f4735d","650c16f0f2faf8d7a0d14c09","651c1cbd74802622968a5b08","null","null","<p style=""font-size: 60px; font-family: BACS"">ObZbAJcUk</p>","","","","","","","","",""
"html-keyboard-response","58","118500","0.0-8.0-0.50","5e433ed3393e971e19f4735d","650c16f0f2faf8d7a0d14c09","651c1cbd74802622968a5b08","null","null","<p style=""font-size: 60px; font-family: BACS"">htmhCtAY</p>","","","","","","","","",""
"html-keyboard-response","59","119531","0.0-8.0-0.51","5e433ed3393e971e19f4735d","650c16f0f2faf8d7a0d14c09","651c1cbd74802622968a5b08","null","null","<p style=""font-size: 60px; font-family: BACS"">cuOJbJcUk</p>","","","","","","","","",""
"html-keyboard-response","60","120546","0.0-8.0-0.52","5e433ed3393e971e19f4735d","650c16f0f2faf8d7a0d14c09","651c1cbd74802622968a5b08","null","null","<p style=""font-size: 60px; font-family: BACS"">hmKPMOBT</p>","","","","","","","","",""
"html-keyboard-response","61","121556","0.0-8.0-0.53","5e433ed3393e971e19f4735d","650c16f0f2faf8d7a0d14c09","651c1cbd74802622968a5b08","null","null","<p style=""font-size: 60px; font-family: BACS"">rckOmZb</p>","","","","","","","","",""
"html-keyboard-response","62","122571","0.0-8.0-0.54","5e433ed3393e971e19f4735d","650c16f0f2faf8d7a0d14c09","651c1cbd74802622968a5b08","null","null","<p style=""font-size: 60px; font-family: BACS"">htmhCbTE</p>","","","","","","","","",""
"html-keyboard-response","63","123585","0.0-8.0-0.55","5e433ed3393e971e19f4735d","650c16f0f2faf8d7a0d14c09","651c1cbd74802622968a5b08","null","null","<p style=""font-size: 60px; font-family: BACS"">NaJbJcUk</p>","","","","","","","","",""
"html-keyboard-response","64","124590","0.0-8.0-0.56","5e433ed3393e971e19f4735d","650c16f0f2faf8d7a0d14c09","651c1cbd74802622968a5b08","null","null","<p style=""font-size: 60px; font-family: BACS"">RCcEOBT</p>","","","","","","","","",""
"html-keyboard-response","65","125591","0.0-8.0-0.57","5e433ed3393e971e19f4735d","650c16f0f2faf8d7a0d14c09","651c1cbd74802622968a5b08","null","null","<p style=""font-size: 60px; font-family: BACS"">ALOrlmZb</p>","","","","","","","","",""
"html-keyboard-response","66","126595","0.0-8.0-0.58","5e433ed3393e971e19f4735d","650c16f0f2faf8d7a0d14c09","651c1cbd74802622968a5b08","null","null","<p style=""font-size: 60px; font-family: BACS"">DdckOMC</p>","","","","","","","","",""
"html-keyboard-response","67","127610","0.0-8.0-0.59","5e433ed3393e971e19f4735d","650c16f0f2faf8d7a0d14c09","651c1cbd74802622968a5b08","null","null","<p style=""font-size: 60px; font-family: BACS"">kcOYABb</p>","","","","","","","","",""
"html-keyboard-response","68","128619","0.0-8.0-0.60","5e433ed3393e971e19f4735d","650c16f0f2faf8d7a0d14c09","651c1cbd74802622968a5b08","null","null","<p style=""font-size: 60px; font-family: BACS"">ALOrlvcb</p>","","","","","","","","",""
"html-keyboard-response","69","129632","0.0-8.0-0.61","5e433ed3393e971e19f4735d","650c16f0f2faf8d7a0d14c09","651c1cbd74802622968a5b08","null","null","<p style=""font-size: 60px; font-family: BACS"">bvkrYaOk</p>","","","","","","","","",""
"html-keyboard-response","70","130636","0.0-8.0-0.62","5e433ed3393e971e19f4735d","650c16f0f2faf8d7a0d14c09","651c1cbd74802622968a5b08","null","null","<p style=""font-size: 60px; font-family: BACS"">kZUbGrub</p>","","","","","","","","",""
"html-keyboard-response","71","131640","0.0-8.0-0.63","5e433ed3393e971e19f4735d","650c16f0f2faf8d7a0d14c09","651c1cbd74802622968a5b08","null","null","<p style=""font-size: 60px; font-family: BACS"">DdcktAY</p>","","","","","","","","",""
"html-keyboard-response","72","132655","0.0-8.0-0.64","5e433ed3393e971e19f4735d","650c16f0f2faf8d7a0d14c09","651c1cbd74802622968a5b08","null","null","<p style=""font-size: 60px; font-family: BACS"">kZUbvcb</p>","","","","","","","","",""
"html-keyboard-response","73","133668","0.0-8.0-0.65","5e433ed3393e971e19f4735d","650c16f0f2faf8d7a0d14c09","651c1cbd74802622968a5b08","null","null","<p style=""font-size: 60px; font-family: BACS"">kcOYOMC</p>","","","","","","","","",""
"html-keyboard-response","74","134683","0.0-8.0-0.66","5e433ed3393e971e19f4735d","650c16f0f2faf8d7a0d14c09","651c1cbd74802622968a5b08","null","null","<p style=""font-size: 60px; font-family: BACS"">BbODOBT</p>","","","","","","","","",""
"html-keyboard-response","75","135695","0.0-8.0-0.67","5e433ed3393e971e19f4735d","650c16f0f2faf8d7a0d14c09","651c1cbd74802622968a5b08","null","null","<p style=""font-size: 60px; font-family: BACS"">ObZbAYaOk</p>","","","","","","","","",""
"html-keyboard-response","76","136709","0.0-8.0-0.68","5e433ed3393e971e19f4735d","650c16f0f2faf8d7a0d14c09","651c1cbd74802622968a5b08","null","null","<p style=""font-size: 60px; font-family: BACS"">hmKPMtAY</p>","","","","","","","","",""
"html-keyboard-response","77","137739","0.0-8.0-0.69","5e433ed3393e971e19f4735d","650c16f0f2faf8d7a0d14c09","651c1cbd74802622968a5b08","null","null","<p style=""font-size: 60px; font-family: BACS"">kcOYOBT</p>","","","","","","","","",""
"html-keyboard-response","78","138741","0.0-8.0-0.70","5e433ed3393e971e19f4735d","650c16f0f2faf8d7a0d14c09","651c1cbd74802622968a5b08","null","null","<p style=""font-size: 60px; font-family: BACS"">TDKhbTE</p>","","","","","","","","",""
"html-keyboard-response","79","139743","0.0-8.0-0.71","5e433ed3393e971e19f4735d","650c16f0f2faf8d7a0d14c09","651c1cbd74802622968a5b08","null","null","<p style=""font-size: 60px; font-family: BACS"">mLdkZvcb</p>","","","","","","","","",""
"html-keyboard-response","80","140748","0.0-8.0-0.72","5e433ed3393e971e19f4735d","650c16f0f2faf8d7a0d14c09","651c1cbd74802622968a5b08","null","null","<p style=""font-size: 60px; font-family: BACS"">ALOrlJcUk</p>","","","","","","","","",""
"html-keyboard-response","81","141749","0.0-8.0-0.73","5e433ed3393e971e19f4735d","650c16f0f2faf8d7a0d14c09","651c1cbd74802622968a5b08","null","null","<p style=""font-size: 60px; font-family: BACS"">BbODABb</p>","","","","","","","","",""
"html-keyboard-response","82","142764","0.0-8.0-0.74","5e433ed3393e971e19f4735d","650c16f0f2faf8d7a0d14c09","651c1cbd74802622968a5b08","null","null","<p style=""font-size: 60px; font-family: BACS"">NbacAYaOk</p>","","","","","","","","",""
"html-keyboard-response","83","143779","0.0-8.0-0.75","5e433ed3393e971e19f4735d","650c16f0f2faf8d7a0d14c09","651c1cbd74802622968a5b08","null","null","<p style=""font-size: 60px; font-family: BACS"">ALOrlGrub</p>","","","","","","","","",""
"html-keyboard-response","84","144793","0.0-8.0-0.76","5e433ed3393e971e19f4735d","650c16f0f2faf8d7a0d14c09","651c1cbd74802622968a5b08","null","null","<p style=""font-size: 60px; font-family: BACS"">BbODOMC</p>","","","","","","","","",""
"html-keyboard-response","85","145805","0.0-8.0-0.77","5e433ed3393e971e19f4735d","650c16f0f2faf8d7a0d14c09","651c1cbd74802622968a5b08","null","null","<p style=""font-size: 60px; font-family: BACS"">bvkrJcUk</p>","","","","","","","","",""
"html-keyboard-response","86","146817","0.0-8.0-0.78","5e433ed3393e971e19f4735d","650c16f0f2faf8d7a0d14c09","651c1cbd74802622968a5b08","null","null","<p style=""font-size: 60px; font-family: BACS"">BOckPbTE</p>","","","","","","","","",""
"html-keyboard-response","87","147820","0.0-8.0-0.79","5e433ed3393e971e19f4735d","650c16f0f2faf8d7a0d14c09","651c1cbd74802622968a5b08","null","null","<p style=""font-size: 60px; font-family: BACS"">OLJblYaOk</p>","","","","","","","","",""
"html-keyboard-response","88","176715","0.0-9.0","5e433ed3393e971e19f4735d","650c16f0f2faf8d7a0d14c09","651c1cbd74802622968a5b08","28895"," ","<p>Great, you've seen the first block of words. You may now take a short break.</p>
      <p>Press the spacebar when you're ready to continue.</p>","","","","","","","","",""
"html-keyboard-response","89","177729","0.0-10.0-0.0","5e433ed3393e971e19f4735d","650c16f0f2faf8d7a0d14c09","651c1cbd74802622968a5b08","null","null","<p style=""font-size: 60px; font-family: BACS"">ObZbAJcUk</p>","","","","","","","","",""
"html-keyboard-response","90","178744","0.0-10.0-0.1","5e433ed3393e971e19f4735d","650c16f0f2faf8d7a0d14c09","651c1cbd74802622968a5b08","null","null","<p style=""font-size: 60px; font-family: BACS"">kcOYABb</p>","","","","","","","","",""
"html-keyboard-response","91","179774","0.0-10.0-0.2","5e433ed3393e971e19f4735d","650c16f0f2faf8d7a0d14c09","651c1cbd74802622968a5b08","null","null","<p style=""font-size: 60px; font-family: BACS"">kZUbmZb</p>","","","","","","","","",""
"html-keyboard-response","92","180787","0.0-10.0-0.3","5e433ed3393e971e19f4735d","650c16f0f2faf8d7a0d14c09","651c1cbd74802622968a5b08","null","null","<p style=""font-size: 60px; font-family: BACS"">kcOYOMC</p>","","","","","","","","",""
"html-keyboard-response","93","181803","0.0-10.0-0.4","5e433ed3393e971e19f4735d","650c16f0f2faf8d7a0d14c09","651c1cbd74802622968a5b08","null","null","<p style=""font-size: 60px; font-family: BACS"">ObZbAmZb</p>","","","","","","","","",""
"html-keyboard-response","94","182816","0.0-10.0-0.5","5e433ed3393e971e19f4735d","650c16f0f2faf8d7a0d14c09","651c1cbd74802622968a5b08","null","null","<p style=""font-size: 60px; font-family: BACS"">bvkrGrub</p>","","","","","","","","",""
"html-keyboard-response","95","183820","0.0-10.0-0.6","5e433ed3393e971e19f4735d","650c16f0f2faf8d7a0d14c09","651c1cbd74802622968a5b08","null","null","<p style=""font-size: 60px; font-family: BACS"">htmhCABb</p>","","","","","","","","",""
"html-keyboard-response","96","184821","0.0-10.0-0.7","5e433ed3393e971e19f4735d","650c16f0f2faf8d7a0d14c09","651c1cbd74802622968a5b08","null","null","<p style=""font-size: 60px; font-family: BACS"">ALOrlJcUk</p>","","","","","","","","",""
"html-keyboard-response","97","185834","0.0-10.0-0.8","5e433ed3393e971e19f4735d","650c16f0f2faf8d7a0d14c09","651c1cbd74802622968a5b08","null","null","<p style=""font-size: 60px; font-family: BACS"">BbODOMC</p>","","","","","","","","",""
"html-keyboard-response","98","186848","0.0-10.0-0.9","5e433ed3393e971e19f4735d","650c16f0f2faf8d7a0d14c09","651c1cbd74802622968a5b08","null","null","<p style=""font-size: 60px; font-family: BACS"">OLJblvcb</p>","","","","","","","","",""
"html-keyboard-response","99","187861","0.0-10.0-0.10","5e433ed3393e971e19f4735d","650c16f0f2faf8d7a0d14c09","651c1cbd74802622968a5b08","null","null","<p style=""font-size: 60px; font-family: BACS"">DdcktAY</p>","","","","","","","","",""
"html-keyboard-response","100","188874","0.0-10.0-0.11","5e433ed3393e971e19f4735d","650c16f0f2faf8d7a0d14c09","651c1cbd74802622968a5b08","null","null","<p style=""font-size: 60px; font-family: BACS"">bmdABbTE</p>","","","","","","","","",""
"html-keyboard-response","101","189875","0.0-10.0-0.12","5e433ed3393e971e19f4735d","650c16f0f2faf8d7a0d14c09","651c1cbd74802622968a5b08","null","null","<p style=""font-size: 60px; font-family: BACS"">NaJbJcUk</p>","","","","","","","","",""
"html-keyboard-response","102","190884","0.0-10.0-0.13","5e433ed3393e971e19f4735d","650c16f0f2faf8d7a0d14c09","651c1cbd74802622968a5b08","null","null","<p style=""font-size: 60px; font-family: BACS"">DdckOMC</p>","","","","","","","","",""
"html-keyboard-response","103","191887","0.0-10.0-0.14","5e433ed3393e971e19f4735d","650c16f0f2faf8d7a0d14c09","651c1cbd74802622968a5b08","null","null","<p style=""font-size: 60px; font-family: BACS"">OLJblJcUk</p>","","","","","","","","",""
"html-keyboard-response","104","192887","0.0-10.0-0.15","5e433ed3393e971e19f4735d","650c16f0f2faf8d7a0d14c09","651c1cbd74802622968a5b08","null","null","<p style=""font-size: 60px; font-family: BACS"">bmdABOMC</p>","","","","","","","","",""
"html-keyboard-response","105","193900","0.0-10.0-0.16","5e433ed3393e971e19f4735d","650c16f0f2faf8d7a0d14c09","651c1cbd74802622968a5b08","null","null","<p style=""font-size: 60px; font-family: BACS"">RCcEbTE</p>","","","","","","","","",""
"html-keyboard-response","106","194902","0.0-10.0-0.17","5e433ed3393e971e19f4735d","650c16f0f2faf8d7a0d14c09","651c1cbd74802622968a5b08","null","null","<p style=""font-size: 60px; font-family: BACS"">rckOvcb</p>","","","","","","","","",""
"html-keyboard-response","107","195917","0.0-10.0-0.18","5e433ed3393e971e19f4735d","650c16f0f2faf8d7a0d14c09","651c1cbd74802622968a5b08","null","null","<p style=""font-size: 60px; font-family: BACS"">hmKPMtAY</p>","","","","","","","","",""
"html-keyboard-response","108","196931","0.0-10.0-0.19","5e433ed3393e971e19f4735d","650c16f0f2faf8d7a0d14c09","651c1cbd74802622968a5b08","null","null","<p style=""font-size: 60px; font-family: BACS"">mLdkZGrub</p>","","","","","","","","",""
"html-keyboard-response","109","197943","0.0-10.0-0.20","5e433ed3393e971e19f4735d","650c16f0f2faf8d7a0d14c09","651c1cbd74802622968a5b08","null","null","<p style=""font-size: 60px; font-family: BACS"">ObZbAvcb</p>","","","","","","","","",""
"html-keyboard-response","110","198943","0.0-10.0-0.21","5e433ed3393e971e19f4735d","650c16f0f2faf8d7a0d14c09","651c1cbd74802622968a5b08","null","null","<p style=""font-size: 60px; font-family: BACS"">OLJblYaOk</p>","","","","","","","","",""
"html-keyboard-response","111","199957","0.0-10.0-0.22","5e433ed3393e971e19f4735d","650c16f0f2faf8d7a0d14c09","651c1cbd74802622968a5b08","null","null","<p style=""font-size: 60px; font-family: BACS"">hmKPMOMC</p>","","","","","","","","",""
"html-keyboard-response","112","200970","0.0-10.0-0.23","5e433ed3393e971e19f4735d","650c16f0f2faf8d7a0d14c09","651c1cbd74802622968a5b08","null","null","<p style=""font-size: 60px; font-family: BACS"">OLJblmZb</p>","","","","","","","","",""
"html-keyboard-response","113","201984","0.0-10.0-0.24","5e433ed3393e971e19f4735d","650c16f0f2faf8d7a0d14c09","651c1cbd74802622968a5b08","null","null","<p style=""font-size: 60px; font-family: BACS"">htmhCOMC</p>","","","","","","","","",""
"html-keyboard-response","114","202984","0.0-10.0-0.25","5e433ed3393e971e19f4735d","650c16f0f2faf8d7a0d14c09","651c1cbd74802622968a5b08","null","null","<p style=""font-size: 60px; font-family: BACS"">NbacAJcUk</p>","","","","","","","","",""
"html-keyboard-response","115","203998","0.0-10.0-0.26","5e433ed3393e971e19f4735d","650c16f0f2faf8d7a0d14c09","651c1cbd74802622968a5b08","null","null","<p style=""font-size: 60px; font-family: BACS"">bmdABOBT</p>","","","","","","","","",""
"html-keyboard-response","116","205013","0.0-10.0-0.27","5e433ed3393e971e19f4735d","650c16f0f2faf8d7a0d14c09","651c1cbd74802622968a5b08","null","null","<p style=""font-size: 60px; font-family: BACS"">mLdkZJcUk</p>","","","","","","","","",""
"html-keyboard-response","117","206015","0.0-10.0-0.28","5e433ed3393e971e19f4735d","650c16f0f2faf8d7a0d14c09","651c1cbd74802622968a5b08","null","null","<p style=""font-size: 60px; font-family: BACS"">NbacAmZb</p>","","","","","","","","",""
"html-keyboard-response","118","207026","0.0-10.0-0.29","5e433ed3393e971e19f4735d","650c16f0f2faf8d7a0d14c09","651c1cbd74802622968a5b08","null","null","<p style=""font-size: 60px; font-family: BACS"">NaJbvcb</p>","","","","","","","","",""
"html-keyboard-response","119","208039","0.0-10.0-0.30","5e433ed3393e971e19f4735d","650c16f0f2faf8d7a0d14c09","651c1cbd74802622968a5b08","null","null","<p style=""font-size: 60px; font-family: BACS"">bvkrYaOk</p>","","","","","","","","",""
"html-keyboard-response","120","209054","0.0-10.0-0.31","5e433ed3393e971e19f4735d","650c16f0f2faf8d7a0d14c09","651c1cbd74802622968a5b08","null","null","<p style=""font-size: 60px; font-family: BACS"">ALOrlmZb</p>","","","","","","","","",""
"html-keyboard-response","121","210068","0.0-10.0-0.32","5e433ed3393e971e19f4735d","650c16f0f2faf8d7a0d14c09","651c1cbd74802622968a5b08","null","null","<p style=""font-size: 60px; font-family: BACS"">hmKPMOBT</p>","","","","","","","","",""
"html-keyboard-response","122","211080","0.0-10.0-0.33","5e433ed3393e971e19f4735d","650c16f0f2faf8d7a0d14c09","651c1cbd74802622968a5b08","null","null","<p style=""font-size: 60px; font-family: BACS"">OMlTOMC</p>","","","","","","","","",""
"html-keyboard-response","123","212080","0.0-10.0-0.34","5e433ed3393e971e19f4735d","650c16f0f2faf8d7a0d14c09","651c1cbd74802622968a5b08","null","null","<p style=""font-size: 60px; font-family: BACS"">kcOYbTE</p>","","","","","","","","",""
"html-keyboard-response","124","213096","0.0-10.0-0.35","5e433ed3393e971e19f4735d","650c16f0f2faf8d7a0d14c09","651c1cbd74802622968a5b08","null","null","<p style=""font-size: 60px; font-family: BACS"">ALOrlvcb</p>","","","","","","","","",""
"html-keyboard-response","125","214108","0.0-10.0-0.36","5e433ed3393e971e19f4735d","650c16f0f2faf8d7a0d14c09","651c1cbd74802622968a5b08","null","null","<p style=""font-size: 60px; font-family: BACS"">BOckPOMC</p>","","","","","","","","",""
"html-keyboard-response","126","215121","0.0-10.0-0.37","5e433ed3393e971e19f4735d","650c16f0f2faf8d7a0d14c09","651c1cbd74802622968a5b08","null","null","<p style=""font-size: 60px; font-family: BACS"">OMlTABb</p>","","","","","","","","",""
"html-keyboard-response","127","216134","0.0-10.0-0.38","5e433ed3393e971e19f4735d","650c16f0f2faf8d7a0d14c09","651c1cbd74802622968a5b08","null","null","<p style=""font-size: 60px; font-family: BACS"">rckOGrub</p>","","","","","","","","",""
"html-keyboard-response","128","217149","0.0-10.0-0.39","5e433ed3393e971e19f4735d","650c16f0f2faf8d7a0d14c09","651c1cbd74802622968a5b08","null","null","<p style=""font-size: 60px; font-family: BACS"">RCcEtAY</p>","","","","","","","","",""
"html-keyboard-response","129","218163","0.0-10.0-0.40","5e433ed3393e971e19f4735d","650c16f0f2faf8d7a0d14c09","651c1cbd74802622968a5b08","null","null","<p style=""font-size: 60px; font-family: BACS"">mLdkZvcb</p>","","","","","","","","",""
"html-keyboard-response","130","219179","0.0-10.0-0.41","5e433ed3393e971e19f4735d","650c16f0f2faf8d7a0d14c09","651c1cbd74802622968a5b08","null","null","<p style=""font-size: 60px; font-family: BACS"">BbODOBT</p>","","","","","","","","",""
"html-keyboard-response","131","220192","0.0-10.0-0.42","5e433ed3393e971e19f4735d","650c16f0f2faf8d7a0d14c09","651c1cbd74802622968a5b08","null","null","<p style=""font-size: 60px; font-family: BACS"">cuOJbJcUk</p>","","","","","","","","",""
"html-keyboard-response","132","221206","0.0-10.0-0.43","5e433ed3393e971e19f4735d","650c16f0f2faf8d7a0d14c09","651c1cbd74802622968a5b08","null","null","<p style=""font-size: 60px; font-family: BACS"">kZUbYaOk</p>","","","","","","","","",""
"html-keyboard-response","133","222218","0.0-10.0-0.44","5e433ed3393e971e19f4735d","650c16f0f2faf8d7a0d14c09","651c1cbd74802622968a5b08","null","null","<p style=""font-size: 60px; font-family: BACS"">NaJbmZb</p>","","","","","","","","",""
"html-keyboard-response","134","223249","0.0-10.0-0.45","5e433ed3393e971e19f4735d","650c16f0f2faf8d7a0d14c09","651c1cbd74802622968a5b08","null","null","<p style=""font-size: 60px; font-family: BACS"">kcOYOBT</p>","","","","","","","","",""
"html-keyboard-response","135","224262","0.0-10.0-0.46","5e433ed3393e971e19f4735d","650c16f0f2faf8d7a0d14c09","651c1cbd74802622968a5b08","null","null","<p style=""font-size: 60px; font-family: BACS"">bvkrJcUk</p>","","","","","","","","",""
"html-keyboard-response","136","225263","0.0-10.0-0.47","5e433ed3393e971e19f4735d","650c16f0f2faf8d7a0d14c09","651c1cbd74802622968a5b08","null","null","<p style=""font-size: 60px; font-family: BACS"">TDKhOBT</p>","","","","","","","","",""
"html-keyboard-response","137","226264","0.0-10.0-0.48","5e433ed3393e971e19f4735d","650c16f0f2faf8d7a0d14c09","651c1cbd74802622968a5b08","null","null","<p style=""font-size: 60px; font-family: BACS"">cuOJbYaOk</p>","","","","","","","","",""
"html-keyboard-response","138","227277","0.0-10.0-0.49","5e433ed3393e971e19f4735d","650c16f0f2faf8d7a0d14c09","651c1cbd74802622968a5b08","null","null","<p style=""font-size: 60px; font-family: BACS"">TDKhbTE</p>","","","","","","","","",""
"html-keyboard-response","139","228280","0.0-10.0-0.50","5e433ed3393e971e19f4735d","650c16f0f2faf8d7a0d14c09","651c1cbd74802622968a5b08","null","null","<p style=""font-size: 60px; font-family: BACS"">rckOmZb</p>","","","","","","","","",""
"html-keyboard-response","140","229294","0.0-10.0-0.51","5e433ed3393e971e19f4735d","650c16f0f2faf8d7a0d14c09","651c1cbd74802622968a5b08","null","null","<p style=""font-size: 60px; font-family: BACS"">RCcEABb</p>","","","","","","","","",""
"html-keyboard-response","141","230305","0.0-10.0-0.52","5e433ed3393e971e19f4735d","650c16f0f2faf8d7a0d14c09","651c1cbd74802622968a5b08","null","null","<p style=""font-size: 60px; font-family: BACS"">ObZbAYaOk</p>","","","","","","","","",""
"html-keyboard-response","142","231319","0.0-10.0-0.53","5e433ed3393e971e19f4735d","650c16f0f2faf8d7a0d14c09","651c1cbd74802622968a5b08","null","null","<p style=""font-size: 60px; font-family: BACS"">bmdABtAY</p>","","","","","","","","",""
"html-keyboard-response","143","232334","0.0-10.0-0.54","5e433ed3393e971e19f4735d","650c16f0f2faf8d7a0d14c09","651c1cbd74802622968a5b08","null","null","<p style=""font-size: 60px; font-family: BACS"">hmKPMABb</p>","","","","","","","","",""
"html-keyboard-response","144","233349","0.0-10.0-0.55","5e433ed3393e971e19f4735d","650c16f0f2faf8d7a0d14c09","651c1cbd74802622968a5b08","null","null","<p style=""font-size: 60px; font-family: BACS"">mLdkZYaOk</p>","","","","","","","","",""
"html-keyboard-response","145","234350","0.0-10.0-0.56","5e433ed3393e971e19f4735d","650c16f0f2faf8d7a0d14c09","651c1cbd74802622968a5b08","null","null","<p style=""font-size: 60px; font-family: BACS"">ALOrlGrub</p>","","","","","","","","",""
"html-keyboard-response","146","235351","0.0-10.0-0.57","5e433ed3393e971e19f4735d","650c16f0f2faf8d7a0d14c09","651c1cbd74802622968a5b08","null","null","<p style=""font-size: 60px; font-family: BACS"">OMlTtAY</p>","","","","","","","","",""
"html-keyboard-response","147","236365","0.0-10.0-0.58","5e433ed3393e971e19f4735d","650c16f0f2faf8d7a0d14c09","651c1cbd74802622968a5b08","null","null","<p style=""font-size: 60px; font-family: BACS"">kZUbGrub</p>","","","","","","","","",""
"html-keyboard-response","148","237393","0.0-10.0-0.59","5e433ed3393e971e19f4735d","650c16f0f2faf8d7a0d14c09","651c1cbd74802622968a5b08","null","null","<p style=""font-size: 60px; font-family: BACS"">htmhCtAY</p>","","","","","","","","",""
"html-keyboard-response","149","238407","0.0-10.0-0.60","5e433ed3393e971e19f4735d","650c16f0f2faf8d7a0d14c09","651c1cbd74802622968a5b08","null","null","<p style=""font-size: 60px; font-family: BACS"">rckOYaOk</p>","","","","","","","","",""
"html-keyboard-response","150","239438","0.0-10.0-0.61","5e433ed3393e971e19f4735d","650c16f0f2faf8d7a0d14c09","651c1cbd74802622968a5b08","null","null","<p style=""font-size: 60px; font-family: BACS"">BbODbTE</p>","","","","","","","","",""
"html-keyboard-response","151","240451","0.0-10.0-0.62","5e433ed3393e971e19f4735d","650c16f0f2faf8d7a0d14c09","651c1cbd74802622968a5b08","null","null","<p style=""font-size: 60px; font-family: BACS"">NbacAYaOk</p>","","","","","","","","",""
"html-keyboard-response","152","241483","0.0-10.0-0.63","5e433ed3393e971e19f4735d","650c16f0f2faf8d7a0d14c09","651c1cbd74802622968a5b08","null","null","<p style=""font-size: 60px; font-family: BACS"">kZUbvcb</p>","","","","","","","","",""
"html-keyboard-response","153","242513","0.0-10.0-0.64","5e433ed3393e971e19f4735d","650c16f0f2faf8d7a0d14c09","651c1cbd74802622968a5b08","null","null","<p style=""font-size: 60px; font-family: BACS"">NaJbGrub</p>","","","","","","","","",""
"html-keyboard-response","154","243541","0.0-10.0-0.65","5e433ed3393e971e19f4735d","650c16f0f2faf8d7a0d14c09","651c1cbd74802622968a5b08","null","null","<p style=""font-size: 60px; font-family: BACS"">DdckOBT</p>","","","","","","","","",""
"html-keyboard-response","155","244542","0.0-10.0-0.66","5e433ed3393e971e19f4735d","650c16f0f2faf8d7a0d14c09","651c1cbd74802622968a5b08","null","null","<p style=""font-size: 60px; font-family: BACS"">BbODABb</p>","","","","","","","","",""
"html-keyboard-response","156","245570","0.0-10.0-0.67","5e433ed3393e971e19f4735d","650c16f0f2faf8d7a0d14c09","651c1cbd74802622968a5b08","null","null","<p style=""font-size: 60px; font-family: BACS"">TDKhtAY</p>","","","","","","","","",""
"html-keyboard-response","157","246601","0.0-10.0-0.68","5e433ed3393e971e19f4735d","650c16f0f2faf8d7a0d14c09","651c1cbd74802622968a5b08","null","null","<p style=""font-size: 60px; font-family: BACS"">bvkrmZb</p>","","","","","","","","",""
"html-keyboard-response","158","247629","0.0-10.0-0.69","5e433ed3393e971e19f4735d","650c16f0f2faf8d7a0d14c09","651c1cbd74802622968a5b08","null","null","<p style=""font-size: 60px; font-family: BACS"">TDKhABb</p>","","","","","","","","",""
"html-keyboard-response","159","248632","0.0-10.0-0.70","5e433ed3393e971e19f4735d","650c16f0f2faf8d7a0d14c09","651c1cbd74802622968a5b08","null","null","<p style=""font-size: 60px; font-family: BACS"">BOckPtAY</p>","","","","","","","","",""
"html-keyboard-response","160","249660","0.0-10.0-0.71","5e433ed3393e971e19f4735d","650c16f0f2faf8d7a0d14c09","651c1cbd74802622968a5b08","null","null","<p style=""font-size: 60px; font-family: BACS"">htmhCbTE</p>","","","","","","","","",""
"html-keyboard-response","161","250662","0.0-10.0-0.72","5e433ed3393e971e19f4735d","650c16f0f2faf8d7a0d14c09","651c1cbd74802622968a5b08","null","null","<p style=""font-size: 60px; font-family: BACS"">cuOJbGrub</p>","","","","","","","","",""
"html-keyboard-response","162","251690","0.0-10.0-0.73","5e433ed3393e971e19f4735d","650c16f0f2faf8d7a0d14c09","651c1cbd74802622968a5b08","null","null","<p style=""font-size: 60px; font-family: BACS"">BOckPbTE</p>","","","","","","","","",""
"html-keyboard-response","163","252698","0.0-10.0-0.74","5e433ed3393e971e19f4735d","650c16f0f2faf8d7a0d14c09","651c1cbd74802622968a5b08","null","null","<p style=""font-size: 60px; font-family: BACS"">RCcEOBT</p>","","","","","","","","",""
"html-keyboard-response","164","253721","0.0-10.0-0.75","5e433ed3393e971e19f4735d","650c16f0f2faf8d7a0d14c09","651c1cbd74802622968a5b08","null","null","<p style=""font-size: 60px; font-family: BACS"">DdckABb</p>","","","","","","","","",""
"html-keyboard-response","165","254723","0.0-10.0-0.76","5e433ed3393e971e19f4735d","650c16f0f2faf8d7a0d14c09","651c1cbd74802622968a5b08","null","null","<p style=""font-size: 60px; font-family: BACS"">BOckPOBT</p>","","","","","","","","",""
"html-keyboard-response","166","255754","0.0-10.0-0.77","5e433ed3393e971e19f4735d","650c16f0f2faf8d7a0d14c09","651c1cbd74802622968a5b08","null","null","<p style=""font-size: 60px; font-family: BACS"">NbacAGrub</p>","","","","","","","","",""
"html-keyboard-response","167","256755","0.0-10.0-0.78","5e433ed3393e971e19f4735d","650c16f0f2faf8d7a0d14c09","651c1cbd74802622968a5b08","null","null","<p style=""font-size: 60px; font-family: BACS"">OMlTbTE</p>","","","","","","","","",""
"html-keyboard-response","168","257757","0.0-10.0-0.79","5e433ed3393e971e19f4735d","650c16f0f2faf8d7a0d14c09","651c1cbd74802622968a5b08","null","null","<p style=""font-size: 60px; font-family: BACS"">cuOJbvcb</p>","","","","","","","","",""
"html-keyboard-response","169","271441","0.0-11.0","5e433ed3393e971e19f4735d","650c16f0f2faf8d7a0d14c09","651c1cbd74802622968a5b08","13684"," ","<p>Great, you've seen the second block of words. You may now take a short break.</p>
      <p>Press the spacebar when you're ready to continue.</p>","","","","","","","","",""
"html-keyboard-response","170","272446","0.0-12.0-0.0","5e433ed3393e971e19f4735d","650c16f0f2faf8d7a0d14c09","651c1cbd74802622968a5b08","null","null","<p style=""font-size: 60px; font-family: BACS"">OLJblYaOk</p>","","","","","","","","",""
"html-keyboard-response","171","273459","0.0-12.0-0.1","5e433ed3393e971e19f4735d","650c16f0f2faf8d7a0d14c09","651c1cbd74802622968a5b08","null","null","<p style=""font-size: 60px; font-family: BACS"">ALOrlJcUk</p>","","","","","","","","",""
"html-keyboard-response","172","274473","0.0-12.0-0.2","5e433ed3393e971e19f4735d","650c16f0f2faf8d7a0d14c09","651c1cbd74802622968a5b08","null","null","<p style=""font-size: 60px; font-family: BACS"">rckOGrub</p>","","","","","","","","",""
"html-keyboard-response","173","275488","0.0-12.0-0.3","5e433ed3393e971e19f4735d","650c16f0f2faf8d7a0d14c09","651c1cbd74802622968a5b08","null","null","<p style=""font-size: 60px; font-family: BACS"">BOckPOMC</p>","","","","","","","","",""
"html-keyboard-response","174","276504","0.0-12.0-0.4","5e433ed3393e971e19f4735d","650c16f0f2faf8d7a0d14c09","651c1cbd74802622968a5b08","null","null","<p style=""font-size: 60px; font-family: BACS"">hmKPMABb</p>","","","","","","","","",""
"html-keyboard-response","175","277515","0.0-12.0-0.5","5e433ed3393e971e19f4735d","650c16f0f2faf8d7a0d14c09","651c1cbd74802622968a5b08","null","null","<p style=""font-size: 60px; font-family: BACS"">DdckOMC</p>","","","","","","","","",""
"html-keyboard-response","176","278531","0.0-12.0-0.6","5e433ed3393e971e19f4735d","650c16f0f2faf8d7a0d14c09","651c1cbd74802622968a5b08","null","null","<p style=""font-size: 60px; font-family: BACS"">NbacAGrub</p>","","","","","","","","",""
"html-keyboard-response","177","279546","0.0-12.0-0.7","5e433ed3393e971e19f4735d","650c16f0f2faf8d7a0d14c09","651c1cbd74802622968a5b08","null","null","<p style=""font-size: 60px; font-family: BACS"">OMlTOMC</p>","","","","","","","","",""
"html-keyboard-response","178","280549","0.0-12.0-0.8","5e433ed3393e971e19f4735d","650c16f0f2faf8d7a0d14c09","651c1cbd74802622968a5b08","null","null","<p style=""font-size: 60px; font-family: BACS"">htmhCbTE</p>","","","","","","","","",""
"html-keyboard-response","179","281562","0.0-12.0-0.9","5e433ed3393e971e19f4735d","650c16f0f2faf8d7a0d14c09","651c1cbd74802622968a5b08","null","null","<p style=""font-size: 60px; font-family: BACS"">ALOrlmZb</p>","","","","","","","","",""
"html-keyboard-response","180","282563","0.0-12.0-0.10","5e433ed3393e971e19f4735d","650c16f0f2faf8d7a0d14c09","651c1cbd74802622968a5b08","null","null","<p style=""font-size: 60px; font-family: BACS"">bvkrGrub</p>","","","","","","","","",""
"html-keyboard-response","181","283564","0.0-12.0-0.11","5e433ed3393e971e19f4735d","650c16f0f2faf8d7a0d14c09","651c1cbd74802622968a5b08","null","null","<p style=""font-size: 60px; font-family: BACS"">NbacAYaOk</p>","","","","","","","","",""
"html-keyboard-response","182","284579","0.0-12.0-0.12","5e433ed3393e971e19f4735d","650c16f0f2faf8d7a0d14c09","651c1cbd74802622968a5b08","null","null","<p style=""font-size: 60px; font-family: BACS"">cuOJbvcb</p>","","","","","","","","",""
"html-keyboard-response","183","285581","0.0-12.0-0.13","5e433ed3393e971e19f4735d","650c16f0f2faf8d7a0d14c09","651c1cbd74802622968a5b08","null","null","<p style=""font-size: 60px; font-family: BACS"">kcOYOMC</p>","","","","","","","","",""
"html-keyboard-response","184","286588","0.0-12.0-0.14","5e433ed3393e971e19f4735d","650c16f0f2faf8d7a0d14c09","651c1cbd74802622968a5b08","null","null","<p style=""font-size: 60px; font-family: BACS"">mLdkZYaOk</p>","","","","","","","","",""
"html-keyboard-response","185","287602","0.0-12.0-0.15","5e433ed3393e971e19f4735d","650c16f0f2faf8d7a0d14c09","651c1cbd74802622968a5b08","null","null","<p style=""font-size: 60px; font-family: BACS"">ObZbAvcb</p>","","","","","","","","",""
"html-keyboard-response","186","288633","0.0-12.0-0.16","5e433ed3393e971e19f4735d","650c16f0f2faf8d7a0d14c09","651c1cbd74802622968a5b08","null","null","<p style=""font-size: 60px; font-family: BACS"">bmdABtAY</p>","","","","","","","","",""
"html-keyboard-response","187","289645","0.0-12.0-0.17","5e433ed3393e971e19f4735d","650c16f0f2faf8d7a0d14c09","651c1cbd74802622968a5b08","null","null","<p style=""font-size: 60px; font-family: BACS"">NbacAmZb</p>","","","","","","","","",""
"html-keyboard-response","188","290647","0.0-12.0-0.18","5e433ed3393e971e19f4735d","650c16f0f2faf8d7a0d14c09","651c1cbd74802622968a5b08","null","null","<p style=""font-size: 60px; font-family: BACS"">OMlTABb</p>","","","","","","","","",""
"html-keyboard-response","189","291662","0.0-12.0-0.19","5e433ed3393e971e19f4735d","650c16f0f2faf8d7a0d14c09","651c1cbd74802622968a5b08","null","null","<p style=""font-size: 60px; font-family: BACS"">BbODOMC</p>","","","","","","","","",""
"html-keyboard-response","190","292665","0.0-12.0-0.20","5e433ed3393e971e19f4735d","650c16f0f2faf8d7a0d14c09","651c1cbd74802622968a5b08","null","null","<p style=""font-size: 60px; font-family: BACS"">TDKhbTE</p>","","","","","","","","",""
"html-keyboard-response","191","293695","0.0-12.0-0.21","5e433ed3393e971e19f4735d","650c16f0f2faf8d7a0d14c09","651c1cbd74802622968a5b08","null","null","<p style=""font-size: 60px; font-family: BACS"">kcOYABb</p>","","","","","","","","",""
"html-keyboard-response","192","294706","0.0-12.0-0.22","5e433ed3393e971e19f4735d","650c16f0f2faf8d7a0d14c09","651c1cbd74802622968a5b08","null","null","<p style=""font-size: 60px; font-family: BACS"">OMlTbTE</p>","","","","","","","","",""
"html-keyboard-response","193","295707","0.0-12.0-0.23","5e433ed3393e971e19f4735d","650c16f0f2faf8d7a0d14c09","651c1cbd74802622968a5b08","null","null","<p style=""font-size: 60px; font-family: BACS"">bmdABOMC</p>","","","","","","","","",""
"html-keyboard-response","194","296708","0.0-12.0-0.24","5e433ed3393e971e19f4735d","650c16f0f2faf8d7a0d14c09","651c1cbd74802622968a5b08","null","null","<p style=""font-size: 60px; font-family: BACS"">mLdkZGrub</p>","","","","","","","","",""
"html-keyboard-response","195","297710","0.0-12.0-0.25","5e433ed3393e971e19f4735d","650c16f0f2faf8d7a0d14c09","651c1cbd74802622968a5b08","null","null","<p style=""font-size: 60px; font-family: BACS"">BbODOBT</p>","","","","","","","","",""
"html-keyboard-response","196","298714","0.0-12.0-0.26","5e433ed3393e971e19f4735d","650c16f0f2faf8d7a0d14c09","651c1cbd74802622968a5b08","null","null","<p style=""font-size: 60px; font-family: BACS"">kZUbmZb</p>","","","","","","","","",""
"html-keyboard-response","197","299714","0.0-12.0-0.27","5e433ed3393e971e19f4735d","650c16f0f2faf8d7a0d14c09","651c1cbd74802622968a5b08","null","null","<p style=""font-size: 60px; font-family: BACS"">NaJbJcUk</p>","","","","","","","","",""
"html-keyboard-response","198","300728","0.0-12.0-0.28","5e433ed3393e971e19f4735d","650c16f0f2faf8d7a0d14c09","651c1cbd74802622968a5b08","null","null","<p style=""font-size: 60px; font-family: BACS"">ALOrlvcb</p>","","","","","","","","",""
"html-keyboard-response","199","301728","0.0-12.0-0.29","5e433ed3393e971e19f4735d","650c16f0f2faf8d7a0d14c09","651c1cbd74802622968a5b08","null","null","<p style=""font-size: 60px; font-family: BACS"">BOckPbTE</p>","","","","","","","","",""
"html-keyboard-response","200","302739","0.0-12.0-0.30","5e433ed3393e971e19f4735d","650c16f0f2faf8d7a0d14c09","651c1cbd74802622968a5b08","null","null","<p style=""font-size: 60px; font-family: BACS"">NbacAJcUk</p>","","","","","","","","",""
"html-keyboard-response","201","303741","0.0-12.0-0.31","5e433ed3393e971e19f4735d","650c16f0f2faf8d7a0d14c09","651c1cbd74802622968a5b08","null","null","<p style=""font-size: 60px; font-family: BACS"">kZUbYaOk</p>","","","","","","","","",""
"html-keyboard-response","202","304742","0.0-12.0-0.32","5e433ed3393e971e19f4735d","650c16f0f2faf8d7a0d14c09","651c1cbd74802622968a5b08","null","null","<p style=""font-size: 60px; font-family: BACS"">RCcEbTE</p>","","","","","","","","",""
"html-keyboard-response","203","305758","0.0-12.0-0.33","5e433ed3393e971e19f4735d","650c16f0f2faf8d7a0d14c09","651c1cbd74802622968a5b08","null","null","<p style=""font-size: 60px; font-family: BACS"">bmdABOBT</p>","","","","","","","","",""
"html-keyboard-response","204","306769","0.0-12.0-0.34","5e433ed3393e971e19f4735d","650c16f0f2faf8d7a0d14c09","651c1cbd74802622968a5b08","null","null","<p style=""font-size: 60px; font-family: BACS"">bvkrYaOk</p>","","","","","","","","",""
"html-keyboard-response","205","307773","0.0-12.0-0.35","5e433ed3393e971e19f4735d","650c16f0f2faf8d7a0d14c09","651c1cbd74802622968a5b08","null","null","<p style=""font-size: 60px; font-family: BACS"">hmKPMOBT</p>","","","","","","","","",""
"html-keyboard-response","206","308785","0.0-12.0-0.36","5e433ed3393e971e19f4735d","650c16f0f2faf8d7a0d14c09","651c1cbd74802622968a5b08","null","null","<p style=""font-size: 60px; font-family: BACS"">BOckPtAY</p>","","","","","","","","",""
"html-keyboard-response","207","309800","0.0-12.0-0.37","5e433ed3393e971e19f4735d","650c16f0f2faf8d7a0d14c09","651c1cbd74802622968a5b08","null","null","<p style=""font-size: 60px; font-family: BACS"">ALOrlGrub</p>","","","","","","","","",""
"html-keyboard-response","208","310809","0.0-12.0-0.38","5e433ed3393e971e19f4735d","650c16f0f2faf8d7a0d14c09","651c1cbd74802622968a5b08","null","null","<p style=""font-size: 60px; font-family: BACS"">rckOYaOk</p>","","","","","","","","",""
"html-keyboard-response","209","311823","0.0-12.0-0.39","5e433ed3393e971e19f4735d","650c16f0f2faf8d7a0d14c09","651c1cbd74802622968a5b08","null","null","<p style=""font-size: 60px; font-family: BACS"">bmdABbTE</p>","","","","","","","","",""
"html-keyboard-response","210","312825","0.0-12.0-0.40","5e433ed3393e971e19f4735d","650c16f0f2faf8d7a0d14c09","651c1cbd74802622968a5b08","null","null","<p style=""font-size: 60px; font-family: BACS"">TDKhtAY</p>","","","","","","","","",""
"html-keyboard-response","211","313837","0.0-12.0-0.41","5e433ed3393e971e19f4735d","650c16f0f2faf8d7a0d14c09","651c1cbd74802622968a5b08","null","null","<p style=""font-size: 60px; font-family: BACS"">rckOvcb</p>","","","","","","","","",""
"html-keyboard-response","212","314851","0.0-12.0-0.42","5e433ed3393e971e19f4735d","650c16f0f2faf8d7a0d14c09","651c1cbd74802622968a5b08","null","null","<p style=""font-size: 60px; font-family: BACS"">ObZbAYaOk</p>","","","","","","","","",""
"html-keyboard-response","213","315854","0.0-12.0-0.43","5e433ed3393e971e19f4735d","650c16f0f2faf8d7a0d14c09","651c1cbd74802622968a5b08","null","null","<p style=""font-size: 60px; font-family: BACS"">kZUbGrub</p>","","","","","","","","",""
"html-keyboard-response","214","316860","0.0-12.0-0.44","5e433ed3393e971e19f4735d","650c16f0f2faf8d7a0d14c09","651c1cbd74802622968a5b08","null","null","<p style=""font-size: 60px; font-family: BACS"">kcOYbTE</p>","","","","","","","","",""
"html-keyboard-response","215","317862","0.0-12.0-0.45","5e433ed3393e971e19f4735d","650c16f0f2faf8d7a0d14c09","651c1cbd74802622968a5b08","null","null","<p style=""font-size: 60px; font-family: BACS"">TDKhOBT</p>","","","","","","","","",""
"html-keyboard-response","216","318874","0.0-12.0-0.46","5e433ed3393e971e19f4735d","650c16f0f2faf8d7a0d14c09","651c1cbd74802622968a5b08","null","null","<p style=""font-size: 60px; font-family: BACS"">htmhCABb</p>","","","","","","","","",""
"html-keyboard-response","217","319878","0.0-12.0-0.47","5e433ed3393e971e19f4735d","650c16f0f2faf8d7a0d14c09","651c1cbd74802622968a5b08","null","null","<p style=""font-size: 60px; font-family: BACS"">BOckPOBT</p>","","","","","","","","",""
"html-keyboard-response","218","320880","0.0-12.0-0.48","5e433ed3393e971e19f4735d","650c16f0f2faf8d7a0d14c09","651c1cbd74802622968a5b08","null","null","<p style=""font-size: 60px; font-family: BACS"">RCcEtAY</p>","","","","","","","","",""
"html-keyboard-response","219","321893","0.0-12.0-0.49","5e433ed3393e971e19f4735d","650c16f0f2faf8d7a0d14c09","651c1cbd74802622968a5b08","null","null","<p style=""font-size: 60px; font-family: BACS"">TDKhABb</p>","","","","","","","","",""
"html-keyboard-response","220","322908","0.0-12.0-0.50","5e433ed3393e971e19f4735d","650c16f0f2faf8d7a0d14c09","651c1cbd74802622968a5b08","null","null","<p style=""font-size: 60px; font-family: BACS"">NaJbGrub</p>","","","","","","","","",""
"html-keyboard-response","221","323923","0.0-12.0-0.51","5e433ed3393e971e19f4735d","650c16f0f2faf8d7a0d14c09","651c1cbd74802622968a5b08","null","null","<p style=""font-size: 60px; font-family: BACS"">BbODbTE</p>","","","","","","","","",""
"html-keyboard-response","222","324936","0.0-12.0-0.52","5e433ed3393e971e19f4735d","650c16f0f2faf8d7a0d14c09","651c1cbd74802622968a5b08","null","null","<p style=""font-size: 60px; font-family: BACS"">bvkrJcUk</p>","","","","","","","","",""
"html-keyboard-response","223","325951","0.0-12.0-0.53","5e433ed3393e971e19f4735d","650c16f0f2faf8d7a0d14c09","651c1cbd74802622968a5b08","null","null","<p style=""font-size: 60px; font-family: BACS"">DdcktAY</p>","","","","","","","","",""
"html-keyboard-response","224","326952","0.0-12.0-0.54","5e433ed3393e971e19f4735d","650c16f0f2faf8d7a0d14c09","651c1cbd74802622968a5b08","null","null","<p style=""font-size: 60px; font-family: BACS"">bvkrmZb</p>","","","","","","","","",""
"html-keyboard-response","225","327966","0.0-12.0-0.55","5e433ed3393e971e19f4735d","650c16f0f2faf8d7a0d14c09","651c1cbd74802622968a5b08","null","null","<p style=""font-size: 60px; font-family: BACS"">cuOJbGrub</p>","","","","","","","","",""
"html-keyboard-response","226","328973","0.0-12.0-0.56","5e433ed3393e971e19f4735d","650c16f0f2faf8d7a0d14c09","651c1cbd74802622968a5b08","null","null","<p style=""font-size: 60px; font-family: BACS"">ObZbAmZb</p>","","","","","","","","",""
"html-keyboard-response","227","329989","0.0-12.0-0.57","5e433ed3393e971e19f4735d","650c16f0f2faf8d7a0d14c09","651c1cbd74802622968a5b08","null","null","<p style=""font-size: 60px; font-family: BACS"">htmhCtAY</p>","","","","","","","","",""
"html-keyboard-response","228","331002","0.0-12.0-0.58","5e433ed3393e971e19f4735d","650c16f0f2faf8d7a0d14c09","651c1cbd74802622968a5b08","null","null","<p style=""font-size: 60px; font-family: BACS"">RCcEOBT</p>","","","","","","","","",""
"html-keyboard-response","229","332008","0.0-12.0-0.59","5e433ed3393e971e19f4735d","650c16f0f2faf8d7a0d14c09","651c1cbd74802622968a5b08","null","null","<p style=""font-size: 60px; font-family: BACS"">hmKPMtAY</p>","","","","","","","","",""
"html-keyboard-response","230","333009","0.0-12.0-0.60","5e433ed3393e971e19f4735d","650c16f0f2faf8d7a0d14c09","651c1cbd74802622968a5b08","null","null","<p style=""font-size: 60px; font-family: BACS"">BbODABb</p>","","","","","","","","",""
"html-keyboard-response","231","334025","0.0-12.0-0.61","5e433ed3393e971e19f4735d","650c16f0f2faf8d7a0d14c09","651c1cbd74802622968a5b08","null","null","<p style=""font-size: 60px; font-family: BACS"">hmKPMOMC</p>","","","","","","","","",""
"html-keyboard-response","232","335037","0.0-12.0-0.62","5e433ed3393e971e19f4735d","650c16f0f2faf8d7a0d14c09","651c1cbd74802622968a5b08","null","null","<p style=""font-size: 60px; font-family: BACS"">DdckOBT</p>","","","","","","","","",""
"html-keyboard-response","233","336052","0.0-12.0-0.63","5e433ed3393e971e19f4735d","650c16f0f2faf8d7a0d14c09","651c1cbd74802622968a5b08","null","null","<p style=""font-size: 60px; font-family: BACS"">NaJbmZb</p>","","","","","","","","",""
"html-keyboard-response","234","337066","0.0-12.0-0.64","5e433ed3393e971e19f4735d","650c16f0f2faf8d7a0d14c09","651c1cbd74802622968a5b08","null","null","<p style=""font-size: 60px; font-family: BACS"">OLJblJcUk</p>","","","","","","","","",""
"html-keyboard-response","235","338075","0.0-12.0-0.65","5e433ed3393e971e19f4735d","650c16f0f2faf8d7a0d14c09","651c1cbd74802622968a5b08","null","null","<p style=""font-size: 60px; font-family: BACS"">mLdkZvcb</p>","","","","","","","","",""
"html-keyboard-response","236","339079","0.0-12.0-0.66","5e433ed3393e971e19f4735d","650c16f0f2faf8d7a0d14c09","651c1cbd74802622968a5b08","null","null","<p style=""font-size: 60px; font-family: BACS"">cuOJbJcUk</p>","","","","","","","","",""
"html-keyboard-response","237","340082","0.0-12.0-0.67","5e433ed3393e971e19f4735d","650c16f0f2faf8d7a0d14c09","651c1cbd74802622968a5b08","null","null","<p style=""font-size: 60px; font-family: BACS"">OMlTtAY</p>","","","","","","","","",""
"html-keyboard-response","238","341087","0.0-12.0-0.68","5e433ed3393e971e19f4735d","650c16f0f2faf8d7a0d14c09","651c1cbd74802622968a5b08","null","null","<p style=""font-size: 60px; font-family: BACS"">DdckABb</p>","","","","","","","","",""
"html-keyboard-response","239","342089","0.0-12.0-0.69","5e433ed3393e971e19f4735d","650c16f0f2faf8d7a0d14c09","651c1cbd74802622968a5b08","null","null","<p style=""font-size: 60px; font-family: BACS"">mLdkZJcUk</p>","","","","","","","","",""
"html-keyboard-response","240","343094","0.0-12.0-0.70","5e433ed3393e971e19f4735d","650c16f0f2faf8d7a0d14c09","651c1cbd74802622968a5b08","null","null","<p style=""font-size: 60px; font-family: BACS"">NaJbvcb</p>","","","","","","","","",""
"html-keyboard-response","241","344108","0.0-12.0-0.71","5e433ed3393e971e19f4735d","650c16f0f2faf8d7a0d14c09","651c1cbd74802622968a5b08","null","null","<p style=""font-size: 60px; font-family: BACS"">ObZbAJcUk</p>","","","","","","","","",""
"html-keyboard-response","242","345121","0.0-12.0-0.72","5e433ed3393e971e19f4735d","650c16f0f2faf8d7a0d14c09","651c1cbd74802622968a5b08","null","null","<p style=""font-size: 60px; font-family: BACS"">htmhCOMC</p>","","","","","","","","",""
"html-keyboard-response","243","346136","0.0-12.0-0.73","5e433ed3393e971e19f4735d","650c16f0f2faf8d7a0d14c09","651c1cbd74802622968a5b08","null","null","<p style=""font-size: 60px; font-family: BACS"">OLJblmZb</p>","","","","","","","","",""
"html-keyboard-response","244","347152","0.0-12.0-0.74","5e433ed3393e971e19f4735d","650c16f0f2faf8d7a0d14c09","651c1cbd74802622968a5b08","null","null","<p style=""font-size: 60px; font-family: BACS"">RCcEABb</p>","","","","","","","","",""
"html-keyboard-response","245","348179","0.0-12.0-0.75","5e433ed3393e971e19f4735d","650c16f0f2faf8d7a0d14c09","651c1cbd74802622968a5b08","null","null","<p style=""font-size: 60px; font-family: BACS"">OLJblvcb</p>","","","","","","","","",""
"html-keyboard-response","246","349210","0.0-12.0-0.76","5e433ed3393e971e19f4735d","650c16f0f2faf8d7a0d14c09","651c1cbd74802622968a5b08","null","null","<p style=""font-size: 60px; font-family: BACS"">kcOYOBT</p>","","","","","","","","",""
"html-keyboard-response","247","350237","0.0-12.0-0.77","5e433ed3393e971e19f4735d","650c16f0f2faf8d7a0d14c09","651c1cbd74802622968a5b08","null","null","<p style=""font-size: 60px; font-family: BACS"">cuOJbYaOk</p>","","","","","","","","",""
"html-keyboard-response","248","351252","0.0-12.0-0.78","5e433ed3393e971e19f4735d","650c16f0f2faf8d7a0d14c09","651c1cbd74802622968a5b08","null","null","<p style=""font-size: 60px; font-family: BACS"">rckOmZb</p>","","","","","","","","",""
"html-keyboard-response","249","352282","0.0-12.0-0.79","5e433ed3393e971e19f4735d","650c16f0f2faf8d7a0d14c09","651c1cbd74802622968a5b08","null","null","<p style=""font-size: 60px; font-family: BACS"">kZUbvcb</p>","","","","","","","","",""
"html-keyboard-response","250","468942","0.0-13.0","5e433ed3393e971e19f4735d","650c16f0f2faf8d7a0d14c09","651c1cbd74802622968a5b08","116660"," ","<p>Great, you've seen the third block of words. You may now take a short break.</p>
      <p>Press the spacebar when you're ready to continue.</p>","","","","","","","","",""
"html-keyboard-response","251","469951","0.0-14.0-0.0","5e433ed3393e971e19f4735d","650c16f0f2faf8d7a0d14c09","651c1cbd74802622968a5b08","null","null","<p style=""font-size: 60px; font-family: BACS"">hmKPMABb</p>","","","","","","","","",""
"html-keyboard-response","252","470961","0.0-14.0-0.1","5e433ed3393e971e19f4735d","650c16f0f2faf8d7a0d14c09","651c1cbd74802622968a5b08","null","null","<p style=""font-size: 60px; font-family: BACS"">BOckPbTE</p>","","","","","","","","",""
"html-keyboard-response","253","471975","0.0-14.0-0.2","5e433ed3393e971e19f4735d","650c16f0f2faf8d7a0d14c09","651c1cbd74802622968a5b08","null","null","<p style=""font-size: 60px; font-family: BACS"">NbacAYaOk</p>","","","","","","","","",""
"html-keyboard-response","254","472989","0.0-14.0-0.3","5e433ed3393e971e19f4735d","650c16f0f2faf8d7a0d14c09","651c1cbd74802622968a5b08","null","null","<p style=""font-size: 60px; font-family: BACS"">NaJbvcb</p>","","","","","","","","",""
"html-keyboard-response","255","473992","0.0-14.0-0.4","5e433ed3393e971e19f4735d","650c16f0f2faf8d7a0d14c09","651c1cbd74802622968a5b08","null","null","<p style=""font-size: 60px; font-family: BACS"">kZUbmZb</p>","","","","","","","","",""
"html-keyboard-response","256","475005","0.0-14.0-0.5","5e433ed3393e971e19f4735d","650c16f0f2faf8d7a0d14c09","651c1cbd74802622968a5b08","null","null","<p style=""font-size: 60px; font-family: BACS"">DdckOBT</p>","","","","","","","","",""
"html-keyboard-response","257","476005","0.0-14.0-0.6","5e433ed3393e971e19f4735d","650c16f0f2faf8d7a0d14c09","651c1cbd74802622968a5b08","null","null","<p style=""font-size: 60px; font-family: BACS"">RCcEABb</p>","","","","","","","","",""
"html-keyboard-response","258","477006","0.0-14.0-0.7","5e433ed3393e971e19f4735d","650c16f0f2faf8d7a0d14c09","651c1cbd74802622968a5b08","null","null","<p style=""font-size: 60px; font-family: BACS"">NaJbmZb</p>","","","","","","","","",""
"html-keyboard-response","259","478018","0.0-14.0-0.8","5e433ed3393e971e19f4735d","650c16f0f2faf8d7a0d14c09","651c1cbd74802622968a5b08","null","null","<p style=""font-size: 60px; font-family: BACS"">OMlTABb</p>","","","","","","","","",""
"html-keyboard-response","260","479030","0.0-14.0-0.9","5e433ed3393e971e19f4735d","650c16f0f2faf8d7a0d14c09","651c1cbd74802622968a5b08","null","null","<p style=""font-size: 60px; font-family: BACS"">ALOrlvcb</p>","","","","","","","","",""
"html-keyboard-response","261","480044","0.0-14.0-0.10","5e433ed3393e971e19f4735d","650c16f0f2faf8d7a0d14c09","651c1cbd74802622968a5b08","null","null","<p style=""font-size: 60px; font-family: BACS"">kZUbGrub</p>","","","","","","","","",""
"html-keyboard-response","262","481057","0.0-14.0-0.11","5e433ed3393e971e19f4735d","650c16f0f2faf8d7a0d14c09","651c1cbd74802622968a5b08","null","null","<p style=""font-size: 60px; font-family: BACS"">mLdkZvcb</p>","","","","","","","","",""
"html-keyboard-response","263","482058","0.0-14.0-0.12","5e433ed3393e971e19f4735d","650c16f0f2faf8d7a0d14c09","651c1cbd74802622968a5b08","null","null","<p style=""font-size: 60px; font-family: BACS"">NaJbGrub</p>","","","","","","","","",""
"html-keyboard-response","264","483061","0.0-14.0-0.13","5e433ed3393e971e19f4735d","650c16f0f2faf8d7a0d14c09","651c1cbd74802622968a5b08","null","null","<p style=""font-size: 60px; font-family: BACS"">htmhCtAY</p>","","","","","","","","",""
"html-keyboard-response","265","484064","0.0-14.0-0.14","5e433ed3393e971e19f4735d","650c16f0f2faf8d7a0d14c09","651c1cbd74802622968a5b08","null","null","<p style=""font-size: 60px; font-family: BACS"">rckOvcb</p>","","","","","","","","",""
"html-keyboard-response","266","485065","0.0-14.0-0.15","5e433ed3393e971e19f4735d","650c16f0f2faf8d7a0d14c09","651c1cbd74802622968a5b08","null","null","<p style=""font-size: 60px; font-family: BACS"">TDKhOBT</p>","","","","","","","","",""
"html-keyboard-response","267","486079","0.0-14.0-0.16","5e433ed3393e971e19f4735d","650c16f0f2faf8d7a0d14c09","651c1cbd74802622968a5b08","null","null","<p style=""font-size: 60px; font-family: BACS"">OLJblYaOk</p>","","","","","","","","",""
"html-keyboard-response","268","487093","0.0-14.0-0.17","5e433ed3393e971e19f4735d","650c16f0f2faf8d7a0d14c09","651c1cbd74802622968a5b08","null","null","<p style=""font-size: 60px; font-family: BACS"">OMlTbTE</p>","","","","","","","","",""
"html-keyboard-response","269","488102","0.0-14.0-0.18","5e433ed3393e971e19f4735d","650c16f0f2faf8d7a0d14c09","651c1cbd74802622968a5b08","null","null","<p style=""font-size: 60px; font-family: BACS"">ALOrlGrub</p>","","","","","","","","",""
"html-keyboard-response","270","489117","0.0-14.0-0.19","5e433ed3393e971e19f4735d","650c16f0f2faf8d7a0d14c09","651c1cbd74802622968a5b08","null","null","<p style=""font-size: 60px; font-family: BACS"">NbacAmZb</p>","","","","","","","","",""
"html-keyboard-response","271","490132","0.0-14.0-0.20","5e433ed3393e971e19f4735d","650c16f0f2faf8d7a0d14c09","651c1cbd74802622968a5b08","null","null","<p style=""font-size: 60px; font-family: BACS"">TDKhbTE</p>","","","","","","","","",""
"html-keyboard-response","272","491146","0.0-14.0-0.21","5e433ed3393e971e19f4735d","650c16f0f2faf8d7a0d14c09","651c1cbd74802622968a5b08","null","null","<p style=""font-size: 60px; font-family: BACS"">OMlTtAY</p>","","","","","","","","",""
"html-keyboard-response","273","492147","0.0-14.0-0.22","5e433ed3393e971e19f4735d","650c16f0f2faf8d7a0d14c09","651c1cbd74802622968a5b08","null","null","<p style=""font-size: 60px; font-family: BACS"">mLdkZGrub</p>","","","","","","","","",""
"html-keyboard-response","274","493160","0.0-14.0-0.23","5e433ed3393e971e19f4735d","650c16f0f2faf8d7a0d14c09","651c1cbd74802622968a5b08","null","null","<p style=""font-size: 60px; font-family: BACS"">ObZbAvcb</p>","","","","","","","","",""
"html-keyboard-response","275","494188","0.0-14.0-0.24","5e433ed3393e971e19f4735d","650c16f0f2faf8d7a0d14c09","651c1cbd74802622968a5b08","null","null","<p style=""font-size: 60px; font-family: BACS"">NaJbJcUk</p>","","","","","","","","",""
"html-keyboard-response","276","495218","0.0-14.0-0.25","5e433ed3393e971e19f4735d","650c16f0f2faf8d7a0d14c09","651c1cbd74802622968a5b08","null","null","<p style=""font-size: 60px; font-family: BACS"">htmhCABb</p>","","","","","","","","",""
"html-keyboard-response","277","496221","0.0-14.0-0.26","5e433ed3393e971e19f4735d","650c16f0f2faf8d7a0d14c09","651c1cbd74802622968a5b08","null","null","<p style=""font-size: 60px; font-family: BACS"">RCcEOBT</p>","","","","","","","","",""
"html-keyboard-response","278","497224","0.0-14.0-0.27","5e433ed3393e971e19f4735d","650c16f0f2faf8d7a0d14c09","651c1cbd74802622968a5b08","null","null","<p style=""font-size: 60px; font-family: BACS"">mLdkZJcUk</p>","","","","","","","","",""
"html-keyboard-response","279","498236","0.0-14.0-0.28","5e433ed3393e971e19f4735d","650c16f0f2faf8d7a0d14c09","651c1cbd74802622968a5b08","null","null","<p style=""font-size: 60px; font-family: BACS"">BbODABb</p>","","","","","","","","",""
"html-keyboard-response","280","499251","0.0-14.0-0.29","5e433ed3393e971e19f4735d","650c16f0f2faf8d7a0d14c09","651c1cbd74802622968a5b08","null","null","<p style=""font-size: 60px; font-family: BACS"">cuOJbGrub</p>","","","","","","","","",""
"html-keyboard-response","281","500263","0.0-14.0-0.30","5e433ed3393e971e19f4735d","650c16f0f2faf8d7a0d14c09","651c1cbd74802622968a5b08","null","null","<p style=""font-size: 60px; font-family: BACS"">bvkrYaOk</p>","","","","","","","","",""
"html-keyboard-response","282","501273","0.0-14.0-0.31","5e433ed3393e971e19f4735d","650c16f0f2faf8d7a0d14c09","651c1cbd74802622968a5b08","null","null","<p style=""font-size: 60px; font-family: BACS"">htmhCbTE</p>","","","","","","","","",""
"html-keyboard-response","283","502274","0.0-14.0-0.32","5e433ed3393e971e19f4735d","650c16f0f2faf8d7a0d14c09","651c1cbd74802622968a5b08","null","null","<p style=""font-size: 60px; font-family: BACS"">bmdABtAY</p>","","","","","","","","",""
"html-keyboard-response","284","503303","0.0-14.0-0.33","5e433ed3393e971e19f4735d","650c16f0f2faf8d7a0d14c09","651c1cbd74802622968a5b08","null","null","<p style=""font-size: 60px; font-family: BACS"">kcOYbTE</p>","","","","","","","","",""
"html-keyboard-response","285","504304","0.0-14.0-0.34","5e433ed3393e971e19f4735d","650c16f0f2faf8d7a0d14c09","651c1cbd74802622968a5b08","null","null","<p style=""font-size: 60px; font-family: BACS"">cuOJbYaOk</p>","","","","","","","","",""
"html-keyboard-response","286","505317","0.0-14.0-0.35","5e433ed3393e971e19f4735d","650c16f0f2faf8d7a0d14c09","651c1cbd74802622968a5b08","null","null","<p style=""font-size: 60px; font-family: BACS"">DdckOMC</p>","","","","","","","","",""
"html-keyboard-response","287","506332","0.0-14.0-0.36","5e433ed3393e971e19f4735d","650c16f0f2faf8d7a0d14c09","651c1cbd74802622968a5b08","null","null","<p style=""font-size: 60px; font-family: BACS"">cuOJbJcUk</p>","","","","","","","","",""
"html-keyboard-response","288","507333","0.0-14.0-0.37","5e433ed3393e971e19f4735d","650c16f0f2faf8d7a0d14c09","651c1cbd74802622968a5b08","null","null","<p style=""font-size: 60px; font-family: BACS"">TDKhABb</p>","","","","","","","","",""
"html-keyboard-response","289","508344","0.0-14.0-0.38","5e433ed3393e971e19f4735d","650c16f0f2faf8d7a0d14c09","651c1cbd74802622968a5b08","null","null","<p style=""font-size: 60px; font-family: BACS"">ObZbAmZb</p>","","","","","","","","",""
"html-keyboard-response","290","509357","0.0-14.0-0.39","5e433ed3393e971e19f4735d","650c16f0f2faf8d7a0d14c09","651c1cbd74802622968a5b08","null","null","<p style=""font-size: 60px; font-family: BACS"">DdckABb</p>","","","","","","","","",""
"html-keyboard-response","291","510370","0.0-14.0-0.40","5e433ed3393e971e19f4735d","650c16f0f2faf8d7a0d14c09","651c1cbd74802622968a5b08","null","null","<p style=""font-size: 60px; font-family: BACS"">hmKPMOMC</p>","","","","","","","","",""
"html-keyboard-response","292","511384","0.0-14.0-0.41","5e433ed3393e971e19f4735d","650c16f0f2faf8d7a0d14c09","651c1cbd74802622968a5b08","null","null","<p style=""font-size: 60px; font-family: BACS"">ALOrlJcUk</p>","","","","","","","","",""
"html-keyboard-response","293","512385","0.0-14.0-0.42","5e433ed3393e971e19f4735d","650c16f0f2faf8d7a0d14c09","651c1cbd74802622968a5b08","null","null","<p style=""font-size: 60px; font-family: BACS"">rckOYaOk</p>","","","","","","","","",""
"html-keyboard-response","294","513387","0.0-14.0-0.43","5e433ed3393e971e19f4735d","650c16f0f2faf8d7a0d14c09","651c1cbd74802622968a5b08","null","null","<p style=""font-size: 60px; font-family: BACS"">BbODOMC</p>","","","","","","","","",""
"html-keyboard-response","295","514399","0.0-14.0-0.44","5e433ed3393e971e19f4735d","650c16f0f2faf8d7a0d14c09","651c1cbd74802622968a5b08","null","null","<p style=""font-size: 60px; font-family: BACS"">NbacAGrub</p>","","","","","","","","",""
"html-keyboard-response","296","515411","0.0-14.0-0.45","5e433ed3393e971e19f4735d","650c16f0f2faf8d7a0d14c09","651c1cbd74802622968a5b08","null","null","<p style=""font-size: 60px; font-family: BACS"">OLJblmZb</p>","","","","","","","","",""
"html-keyboard-response","297","516412","0.0-14.0-0.46","5e433ed3393e971e19f4735d","650c16f0f2faf8d7a0d14c09","651c1cbd74802622968a5b08","null","null","<p style=""font-size: 60px; font-family: BACS"">kZUbvcb</p>","","","","","","","","",""
"html-keyboard-response","298","517427","0.0-14.0-0.47","5e433ed3393e971e19f4735d","650c16f0f2faf8d7a0d14c09","651c1cbd74802622968a5b08","null","null","<p style=""font-size: 60px; font-family: BACS"">kcOYOMC</p>","","","","","","","","",""
"html-keyboard-response","299","518439","0.0-14.0-0.48","5e433ed3393e971e19f4735d","650c16f0f2faf8d7a0d14c09","651c1cbd74802622968a5b08","null","null","<p style=""font-size: 60px; font-family: BACS"">kZUbYaOk</p>","","","","","","","","",""
"html-keyboard-response","300","519454","0.0-14.0-0.49","5e433ed3393e971e19f4735d","650c16f0f2faf8d7a0d14c09","651c1cbd74802622968a5b08","null","null","<p style=""font-size: 60px; font-family: BACS"">htmhCOMC</p>","","","","","","","","",""
"html-keyboard-response","301","520467","0.0-14.0-0.50","5e433ed3393e971e19f4735d","650c16f0f2faf8d7a0d14c09","651c1cbd74802622968a5b08","null","null","<p style=""font-size: 60px; font-family: BACS"">rckOmZb</p>","","","","","","","","",""
"html-keyboard-response","302","521501","0.0-14.0-0.51","5e433ed3393e971e19f4735d","650c16f0f2faf8d7a0d14c09","651c1cbd74802622968a5b08","null","null","<p style=""font-size: 60px; font-family: BACS"">bmdABbTE</p>","","","","","","","","",""
"html-keyboard-response","303","522515","0.0-14.0-0.52","5e433ed3393e971e19f4735d","650c16f0f2faf8d7a0d14c09","651c1cbd74802622968a5b08","null","null","<p style=""font-size: 60px; font-family: BACS"">BOckPOBT</p>","","","","","","","","",""
"html-keyboard-response","304","523528","0.0-14.0-0.53","5e433ed3393e971e19f4735d","650c16f0f2faf8d7a0d14c09","651c1cbd74802622968a5b08","null","null","<p style=""font-size: 60px; font-family: BACS"">OLJblvcb</p>","","","","","","","","",""
"html-keyboard-response","305","524543","0.0-14.0-0.54","5e433ed3393e971e19f4735d","650c16f0f2faf8d7a0d14c09","651c1cbd74802622968a5b08","null","null","<p style=""font-size: 60px; font-family: BACS"">BOckPOMC</p>","","","","","","","","",""
"html-keyboard-response","306","525544","0.0-14.0-0.55","5e433ed3393e971e19f4735d","650c16f0f2faf8d7a0d14c09","651c1cbd74802622968a5b08","null","null","<p style=""font-size: 60px; font-family: BACS"">DdcktAY</p>","","","","","","","","",""
"html-keyboard-response","307","526559","0.0-14.0-0.56","5e433ed3393e971e19f4735d","650c16f0f2faf8d7a0d14c09","651c1cbd74802622968a5b08","null","null","<p style=""font-size: 60px; font-family: BACS"">cuOJbvcb</p>","","","","","","","","",""
"html-keyboard-response","308","527561","0.0-14.0-0.57","5e433ed3393e971e19f4735d","650c16f0f2faf8d7a0d14c09","651c1cbd74802622968a5b08","null","null","<p style=""font-size: 60px; font-family: BACS"">RCcEtAY</p>","","","","","","","","",""
"html-keyboard-response","309","528577","0.0-14.0-0.58","5e433ed3393e971e19f4735d","650c16f0f2faf8d7a0d14c09","651c1cbd74802622968a5b08","null","null","<p style=""font-size: 60px; font-family: BACS"">ObZbAJcUk</p>","","","","","","","","",""
"html-keyboard-response","310","529578","0.0-14.0-0.59","5e433ed3393e971e19f4735d","650c16f0f2faf8d7a0d14c09","651c1cbd74802622968a5b08","null","null","<p style=""font-size: 60px; font-family: BACS"">BbODOBT</p>","","","","","","","","",""
"html-keyboard-response","311","530590","0.0-14.0-0.60","5e433ed3393e971e19f4735d","650c16f0f2faf8d7a0d14c09","651c1cbd74802622968a5b08","null","null","<p style=""font-size: 60px; font-family: BACS"">hmKPMtAY</p>","","","","","","","","",""
"html-keyboard-response","312","531604","0.0-14.0-0.61","5e433ed3393e971e19f4735d","650c16f0f2faf8d7a0d14c09","651c1cbd74802622968a5b08","null","null","<p style=""font-size: 60px; font-family: BACS"">bvkrJcUk</p>","","","","","","","","",""
"html-keyboard-response","313","532633","0.0-14.0-0.62","5e433ed3393e971e19f4735d","650c16f0f2faf8d7a0d14c09","651c1cbd74802622968a5b08","null","null","<p style=""font-size: 60px; font-family: BACS"">ObZbAYaOk</p>","","","","","","","","",""
"html-keyboard-response","314","533646","0.0-14.0-0.63","5e433ed3393e971e19f4735d","650c16f0f2faf8d7a0d14c09","651c1cbd74802622968a5b08","null","null","<p style=""font-size: 60px; font-family: BACS"">hmKPMOBT</p>","","","","","","","","",""
"html-keyboard-response","315","534648","0.0-14.0-0.64","5e433ed3393e971e19f4735d","650c16f0f2faf8d7a0d14c09","651c1cbd74802622968a5b08","null","null","<p style=""font-size: 60px; font-family: BACS"">BOckPtAY</p>","","","","","","","","",""
"html-keyboard-response","316","535663","0.0-14.0-0.65","5e433ed3393e971e19f4735d","650c16f0f2faf8d7a0d14c09","651c1cbd74802622968a5b08","null","null","<p style=""font-size: 60px; font-family: BACS"">bmdABOBT</p>","","","","","","","","",""
"html-keyboard-response","317","536664","0.0-14.0-0.66","5e433ed3393e971e19f4735d","650c16f0f2faf8d7a0d14c09","651c1cbd74802622968a5b08","null","null","<p style=""font-size: 60px; font-family: BACS"">ALOrlmZb</p>","","","","","","","","",""
"html-keyboard-response","318","537664","0.0-14.0-0.67","5e433ed3393e971e19f4735d","650c16f0f2faf8d7a0d14c09","651c1cbd74802622968a5b08","null","null","<p style=""font-size: 60px; font-family: BACS"">NbacAJcUk</p>","","","","","","","","",""
"html-keyboard-response","319","538680","0.0-14.0-0.68","5e433ed3393e971e19f4735d","650c16f0f2faf8d7a0d14c09","651c1cbd74802622968a5b08","null","null","<p style=""font-size: 60px; font-family: BACS"">BbODbTE</p>","","","","","","","","",""
"html-keyboard-response","320","539694","0.0-14.0-0.69","5e433ed3393e971e19f4735d","650c16f0f2faf8d7a0d14c09","651c1cbd74802622968a5b08","null","null","<p style=""font-size: 60px; font-family: BACS"">OMlTOMC</p>","","","","","","","","",""
"html-keyboard-response","321","540697","0.0-14.0-0.70","5e433ed3393e971e19f4735d","650c16f0f2faf8d7a0d14c09","651c1cbd74802622968a5b08","null","null","<p style=""font-size: 60px; font-family: BACS"">OLJblJcUk</p>","","","","","","","","",""
"html-keyboard-response","322","541710","0.0-14.0-0.71","5e433ed3393e971e19f4735d","650c16f0f2faf8d7a0d14c09","651c1cbd74802622968a5b08","null","null","<p style=""font-size: 60px; font-family: BACS"">mLdkZYaOk</p>","","","","","","","","",""
"html-keyboard-response","323","542724","0.0-14.0-0.72","5e433ed3393e971e19f4735d","650c16f0f2faf8d7a0d14c09","651c1cbd74802622968a5b08","null","null","<p style=""font-size: 60px; font-family: BACS"">bvkrGrub</p>","","","","","","","","",""
"html-keyboard-response","324","543736","0.0-14.0-0.73","5e433ed3393e971e19f4735d","650c16f0f2faf8d7a0d14c09","651c1cbd74802622968a5b08","null","null","<p style=""font-size: 60px; font-family: BACS"">RCcEbTE</p>","","","","","","","","",""
"html-keyboard-response","325","544751","0.0-14.0-0.74","5e433ed3393e971e19f4735d","650c16f0f2faf8d7a0d14c09","651c1cbd74802622968a5b08","null","null","<p style=""font-size: 60px; font-family: BACS"">rckOGrub</p>","","","","","","","","",""
"html-keyboard-response","326","545751","0.0-14.0-0.75","5e433ed3393e971e19f4735d","650c16f0f2faf8d7a0d14c09","651c1cbd74802622968a5b08","null","null","<p style=""font-size: 60px; font-family: BACS"">kcOYOBT</p>","","","","","","","","",""
"html-keyboard-response","327","546752","0.0-14.0-0.76","5e433ed3393e971e19f4735d","650c16f0f2faf8d7a0d14c09","651c1cbd74802622968a5b08","null","null","<p style=""font-size: 60px; font-family: BACS"">bmdABOMC</p>","","","","","","","","",""
"html-keyboard-response","328","547767","0.0-14.0-0.77","5e433ed3393e971e19f4735d","650c16f0f2faf8d7a0d14c09","651c1cbd74802622968a5b08","null","null","<p style=""font-size: 60px; font-family: BACS"">TDKhtAY</p>","","","","","","","","",""
"html-keyboard-response","329","548783","0.0-14.0-0.78","5e433ed3393e971e19f4735d","650c16f0f2faf8d7a0d14c09","651c1cbd74802622968a5b08","null","null","<p style=""font-size: 60px; font-family: BACS"">kcOYABb</p>","","","","","","","","",""
"html-keyboard-response","330","549795","0.0-14.0-0.79","5e433ed3393e971e19f4735d","650c16f0f2faf8d7a0d14c09","651c1cbd74802622968a5b08","null","null","<p style=""font-size: 60px; font-family: BACS"">bvkrmZb</p>","","","","","","","","",""
"html-keyboard-response","331","572780","0.0-15.0","5e433ed3393e971e19f4735d","650c16f0f2faf8d7a0d14c09","651c1cbd74802622968a5b08","22984"," ","<p>Great, you've seen the fourth block of words. You may now take a short break.</p>
      <p>Press the spacebar when you're ready to continue.</p>","","","","","","","","",""
"html-keyboard-response","332","573783","0.0-16.0-0.0","5e433ed3393e971e19f4735d","650c16f0f2faf8d7a0d14c09","651c1cbd74802622968a5b08","null","null","<p style=""font-size: 60px; font-family: BACS"">OLJblYaOk</p>","","","","","","","","",""
"html-keyboard-response","333","574785","0.0-16.0-0.1","5e433ed3393e971e19f4735d","650c16f0f2faf8d7a0d14c09","651c1cbd74802622968a5b08","null","null","<p style=""font-size: 60px; font-family: BACS"">OLJblYaOk</p>","","","","","","","","",""
"html-keyboard-response","334","575787","0.0-16.0-0.2","5e433ed3393e971e19f4735d","650c16f0f2faf8d7a0d14c09","651c1cbd74802622968a5b08","null","null","<p style=""font-size: 60px; font-family: BACS"">OLJblYaOk</p>","","","","","","","","",""
"html-keyboard-response","335","576799","0.0-16.0-0.3","5e433ed3393e971e19f4735d","650c16f0f2faf8d7a0d14c09","651c1cbd74802622968a5b08","null","null","<p style=""font-size: 60px; font-family: BACS"">OLJblYaOk</p>","","","","","","","","",""
"html-keyboard-response","336","577809","0.0-16.0-0.4","5e433ed3393e971e19f4735d","650c16f0f2faf8d7a0d14c09","651c1cbd74802622968a5b08","null","null","<p style=""font-size: 60px; font-family: BACS"">OLJblYaOk</p>","","","","","","","","",""
"html-keyboard-response","337","578812","0.0-16.0-0.5","5e433ed3393e971e19f4735d","650c16f0f2faf8d7a0d14c09","651c1cbd74802622968a5b08","null","null","<p style=""font-size: 60px; font-family: BACS"">OLJblYaOk</p>","","","","","","","","",""
"html-keyboard-response","338","579814","0.0-16.0-0.6","5e433ed3393e971e19f4735d","650c16f0f2faf8d7a0d14c09","651c1cbd74802622968a5b08","null","null","<p style=""font-size: 60px; font-family: BACS"">OLJblYaOk</p>","","","","","","","","",""
"html-keyboard-response","339","580816","0.0-16.0-0.7","5e433ed3393e971e19f4735d","650c16f0f2faf8d7a0d14c09","651c1cbd74802622968a5b08","null","null","<p style=""font-size: 60px; font-family: BACS"">OLJblYaOk</p>","","","","","","","","",""
"html-keyboard-response","340","581826","0.0-16.0-0.8","5e433ed3393e971e19f4735d","650c16f0f2faf8d7a0d14c09","651c1cbd74802622968a5b08","null","null","<p style=""font-size: 60px; font-family: BACS"">OLJblYaOk</p>","","","","","","","","",""
"html-keyboard-response","341","582841","0.0-16.0-0.9","5e433ed3393e971e19f4735d","650c16f0f2faf8d7a0d14c09","651c1cbd74802622968a5b08","null","null","<p style=""font-size: 60px; font-family: BACS"">OLJblYaOk</p>","","","","","","","","",""
"html-keyboard-response","342","583855","0.0-16.0-0.10","5e433ed3393e971e19f4735d","650c16f0f2faf8d7a0d14c09","651c1cbd74802622968a5b08","null","null","<p style=""font-size: 60px; font-family: BACS"">OLJblYaOk</p>","","","","","","","","",""
"html-keyboard-response","343","584868","0.0-16.0-0.11","5e433ed3393e971e19f4735d","650c16f0f2faf8d7a0d14c09","651c1cbd74802622968a5b08","null","null","<p style=""font-size: 60px; font-family: BACS"">OLJblYaOk</p>","","","","","","","","",""
"html-keyboard-response","344","585872","0.0-16.0-0.12","5e433ed3393e971e19f4735d","650c16f0f2faf8d7a0d14c09","651c1cbd74802622968a5b08","null","null","<p style=""font-size: 60px; font-family: BACS"">OLJblYaOk</p>","","","","","","","","",""
"html-keyboard-response","345","586888","0.0-16.0-0.13","5e433ed3393e971e19f4735d","650c16f0f2faf8d7a0d14c09","651c1cbd74802622968a5b08","null","null","<p style=""font-size: 60px; font-family: BACS"">OLJblYaOk</p>","","","","","","","","",""
"html-keyboard-response","346","587900","0.0-16.0-0.14","5e433ed3393e971e19f4735d","650c16f0f2faf8d7a0d14c09","651c1cbd74802622968a5b08","null","null","<p style=""font-size: 60px; font-family: BACS"">OLJblYaOk</p>","","","","","","","","",""
"html-keyboard-response","347","588915","0.0-16.0-0.15","5e433ed3393e971e19f4735d","650c16f0f2faf8d7a0d14c09","651c1cbd74802622968a5b08","null","null","<p style=""font-size: 60px; font-family: BACS"">OLJblYaOk</p>","","","","","","","","",""
"html-keyboard-response","348","589918","0.0-16.0-0.16","5e433ed3393e971e19f4735d","650c16f0f2faf8d7a0d14c09","651c1cbd74802622968a5b08","null","null","<p style=""font-size: 60px; font-family: BACS"">OLJblYaOk</p>","","","","","","","","",""
"html-keyboard-response","349","590933","0.0-16.0-0.17","5e433ed3393e971e19f4735d","650c16f0f2faf8d7a0d14c09","651c1cbd74802622968a5b08","null","null","<p style=""font-size: 60px; font-family: BACS"">OLJblYaOk</p>","","","","","","","","",""
"html-keyboard-response","350","591948","0.0-16.0-0.18","5e433ed3393e971e19f4735d","650c16f0f2faf8d7a0d14c09","651c1cbd74802622968a5b08","null","null","<p style=""font-size: 60px; font-family: BACS"">OLJblYaOk</p>","","","","","","","","",""
"html-keyboard-response","351","592962","0.0-16.0-0.19","5e433ed3393e971e19f4735d","650c16f0f2faf8d7a0d14c09","651c1cbd74802622968a5b08","null","null","<p style=""font-size: 60px; font-family: BACS"">OLJblYaOk</p>","","","","","","","","",""
"html-keyboard-response","352","593977","0.0-16.0-0.20","5e433ed3393e971e19f4735d","650c16f0f2faf8d7a0d14c09","651c1cbd74802622968a5b08","null","null","<p style=""font-size: 60px; font-family: BACS"">OLJblYaOk</p>","","","","","","","","",""
"html-keyboard-response","353","594992","0.0-16.0-0.21","5e433ed3393e971e19f4735d","650c16f0f2faf8d7a0d14c09","651c1cbd74802622968a5b08","null","null","<p style=""font-size: 60px; font-family: BACS"">OLJblYaOk</p>","","","","","","","","",""
"html-keyboard-response","354","595995","0.0-16.0-0.22","5e433ed3393e971e19f4735d","650c16f0f2faf8d7a0d14c09","651c1cbd74802622968a5b08","null","null","<p style=""font-size: 60px; font-family: BACS"">OLJblYaOk</p>","","","","","","","","",""
"html-keyboard-response","355","597008","0.0-16.0-0.23","5e433ed3393e971e19f4735d","650c16f0f2faf8d7a0d14c09","651c1cbd74802622968a5b08","null","null","<p style=""font-size: 60px; font-family: BACS"">OLJblYaOk</p>","","","","","","","","",""
"html-keyboard-response","356","598016","0.0-16.0-0.24","5e433ed3393e971e19f4735d","650c16f0f2faf8d7a0d14c09","651c1cbd74802622968a5b08","null","null","<p style=""font-size: 60px; font-family: BACS"">OLJblYaOk</p>","","","","","","","","",""
"html-keyboard-response","357","599031","0.0-16.0-0.25","5e433ed3393e971e19f4735d","650c16f0f2faf8d7a0d14c09","651c1cbd74802622968a5b08","null","null","<p style=""font-size: 60px; font-family: BACS"">OLJblYaOk</p>","","","","","","","","",""
"html-keyboard-response","358","600034","0.0-16.0-0.26","5e433ed3393e971e19f4735d","650c16f0f2faf8d7a0d14c09","651c1cbd74802622968a5b08","null","null","<p style=""font-size: 60px; font-family: BACS"">OLJblYaOk</p>","","","","","","","","",""
"html-keyboard-response","359","601035","0.0-16.0-0.27","5e433ed3393e971e19f4735d","650c16f0f2faf8d7a0d14c09","651c1cbd74802622968a5b08","null","null","<p style=""font-size: 60px; font-family: BACS"">OLJblYaOk</p>","","","","","","","","",""
"html-keyboard-response","360","602049","0.0-16.0-0.28","5e433ed3393e971e19f4735d","650c16f0f2faf8d7a0d14c09","651c1cbd74802622968a5b08","null","null","<p style=""font-size: 60px; font-family: BACS"">OLJblYaOk</p>","","","","","","","","",""
"html-keyboard-response","361","603057","0.0-16.0-0.29","5e433ed3393e971e19f4735d","650c16f0f2faf8d7a0d14c09","651c1cbd74802622968a5b08","null","null","<p style=""font-size: 60px; font-family: BACS"">OLJblYaOk</p>","","","","","","","","",""
"html-keyboard-response","362","604072","0.0-16.0-0.30","5e433ed3393e971e19f4735d","650c16f0f2faf8d7a0d14c09","651c1cbd74802622968a5b08","null","null","<p style=""font-size: 60px; font-family: BACS"">OLJblYaOk</p>","","","","","","","","",""
"html-keyboard-response","363","605074","0.0-16.0-0.31","5e433ed3393e971e19f4735d","650c16f0f2faf8d7a0d14c09","651c1cbd74802622968a5b08","null","null","<p style=""font-size: 60px; font-family: BACS"">OLJblYaOk</p>","","","","","","","","",""
"html-keyboard-response","364","606086","0.0-16.0-0.32","5e433ed3393e971e19f4735d","650c16f0f2faf8d7a0d14c09","651c1cbd74802622968a5b08","null","null","<p style=""font-size: 60px; font-family: BACS"">OLJblYaOk</p>","","","","","","","","",""
"html-keyboard-response","365","607100","0.0-16.0-0.33","5e433ed3393e971e19f4735d","650c16f0f2faf8d7a0d14c09","651c1cbd74802622968a5b08","null","null","<p style=""font-size: 60px; font-family: BACS"">OLJblYaOk</p>","","","","","","","","",""
"html-keyboard-response","366","608104","0.0-16.0-0.34","5e433ed3393e971e19f4735d","650c16f0f2faf8d7a0d14c09","651c1cbd74802622968a5b08","null","null","<p style=""font-size: 60px; font-family: BACS"">OLJblYaOk</p>","","","","","","","","",""
"html-keyboard-response","367","609118","0.0-16.0-0.35","5e433ed3393e971e19f4735d","650c16f0f2faf8d7a0d14c09","651c1cbd74802622968a5b08","null","null","<p style=""font-size: 60px; font-family: BACS"">OLJblYaOk</p>","","","","","","","","",""
"html-keyboard-response","368","610133","0.0-16.0-0.36","5e433ed3393e971e19f4735d","650c16f0f2faf8d7a0d14c09","651c1cbd74802622968a5b08","null","null","<p style=""font-size: 60px; font-family: BACS"">OLJblYaOk</p>","","","","","","","","",""
"html-keyboard-response","369","611134","0.0-16.0-0.37","5e433ed3393e971e19f4735d","650c16f0f2faf8d7a0d14c09","651c1cbd74802622968a5b08","null","null","<p style=""font-size: 60px; font-family: BACS"">OLJblYaOk</p>","","","","","","","","",""
"html-keyboard-response","370","612135","0.0-16.0-0.38","5e433ed3393e971e19f4735d","650c16f0f2faf8d7a0d14c09","651c1cbd74802622968a5b08","null","null","<p style=""font-size: 60px; font-family: BACS"">OLJblYaOk</p>","","","","","","","","",""
"html-keyboard-response","371","613148","0.0-16.0-0.39","5e433ed3393e971e19f4735d","650c16f0f2faf8d7a0d14c09","651c1cbd74802622968a5b08","null","null","<p style=""font-size: 60px; font-family: BACS"">OLJblYaOk</p>","","","","","","","","",""
"html-keyboard-response","372","614151","0.0-16.0-0.40","5e433ed3393e971e19f4735d","650c16f0f2faf8d7a0d14c09","651c1cbd74802622968a5b08","null","null","<p style=""font-size: 60px; font-family: BACS"">OLJblYaOk</p>","","","","","","","","",""
"html-keyboard-response","373","615154","0.0-16.0-0.41","5e433ed3393e971e19f4735d","650c16f0f2faf8d7a0d14c09","651c1cbd74802622968a5b08","null","null","<p style=""font-size: 60px; font-family: BACS"">OLJblYaOk</p>","","","","","","","","",""
"html-keyboard-response","374","616169","0.0-16.0-0.42","5e433ed3393e971e19f4735d","650c16f0f2faf8d7a0d14c09","651c1cbd74802622968a5b08","null","null","<p style=""font-size: 60px; font-family: BACS"">OLJblYaOk</p>","","","","","","","","",""
"html-keyboard-response","375","617184","0.0-16.0-0.43","5e433ed3393e971e19f4735d","650c16f0f2faf8d7a0d14c09","651c1cbd74802622968a5b08","null","null","<p style=""font-size: 60px; font-family: BACS"">OLJblYaOk</p>","","","","","","","","",""
"html-keyboard-response","376","618186","0.0-16.0-0.44","5e433ed3393e971e19f4735d","650c16f0f2faf8d7a0d14c09","651c1cbd74802622968a5b08","null","null","<p style=""font-size: 60px; font-family: BACS"">OLJblYaOk</p>","","","","","","","","",""
"html-keyboard-response","377","619200","0.0-16.0-0.45","5e433ed3393e971e19f4735d","650c16f0f2faf8d7a0d14c09","651c1cbd74802622968a5b08","null","null","<p style=""font-size: 60px; font-family: BACS"">OLJblYaOk</p>","","","","","","","","",""
"html-keyboard-response","378","620215","0.0-16.0-0.46","5e433ed3393e971e19f4735d","650c16f0f2faf8d7a0d14c09","651c1cbd74802622968a5b08","null","null","<p style=""font-size: 60px; font-family: BACS"">OLJblYaOk</p>","","","","","","","","",""
"html-keyboard-response","379","621231","0.0-16.0-0.47","5e433ed3393e971e19f4735d","650c16f0f2faf8d7a0d14c09","651c1cbd74802622968a5b08","null","null","<p style=""font-size: 60px; font-family: BACS"">OLJblYaOk</p>","","","","","","","","",""
"html-keyboard-response","380","622244","0.0-16.0-0.48","5e433ed3393e971e19f4735d","650c16f0f2faf8d7a0d14c09","651c1cbd74802622968a5b08","null","null","<p style=""font-size: 60px; font-family: BACS"">OLJblYaOk</p>","","","","","","","","",""
"html-keyboard-response","381","623257","0.0-16.0-0.49","5e433ed3393e971e19f4735d","650c16f0f2faf8d7a0d14c09","651c1cbd74802622968a5b08","null","null","<p style=""font-size: 60px; font-family: BACS"">OLJblYaOk</p>","","","","","","","","",""
"html-keyboard-response","382","624258","0.0-16.0-0.50","5e433ed3393e971e19f4735d","650c16f0f2faf8d7a0d14c09","651c1cbd74802622968a5b08","null","null","<p style=""font-size: 60px; font-family: BACS"">OLJblYaOk</p>","","","","","","","","",""
"html-keyboard-response","383","625272","0.0-16.0-0.51","5e433ed3393e971e19f4735d","650c16f0f2faf8d7a0d14c09","651c1cbd74802622968a5b08","null","null","<p style=""font-size: 60px; font-family: BACS"">OLJblYaOk</p>","","","","","","","","",""
"html-keyboard-response","384","626302","0.0-16.0-0.52","5e433ed3393e971e19f4735d","650c16f0f2faf8d7a0d14c09","651c1cbd74802622968a5b08","null","null","<p style=""font-size: 60px; font-family: BACS"">OLJblYaOk</p>","","","","","","","","",""
"html-keyboard-response","385","627317","0.0-16.0-0.53","5e433ed3393e971e19f4735d","650c16f0f2faf8d7a0d14c09","651c1cbd74802622968a5b08","null","null","<p style=""font-size: 60px; font-family: BACS"">OLJblYaOk</p>","","","","","","","","",""
"html-keyboard-response","386","628332","0.0-16.0-0.54","5e433ed3393e971e19f4735d","650c16f0f2faf8d7a0d14c09","651c1cbd74802622968a5b08","null","null","<p style=""font-size: 60px; font-family: BACS"">OLJblYaOk</p>","","","","","","","","",""
"html-keyboard-response","387","629337","0.0-16.0-0.55","5e433ed3393e971e19f4735d","650c16f0f2faf8d7a0d14c09","651c1cbd74802622968a5b08","null","null","<p style=""font-size: 60px; font-family: BACS"">OLJblYaOk</p>","","","","","","","","",""
"html-keyboard-response","388","630352","0.0-16.0-0.56","5e433ed3393e971e19f4735d","650c16f0f2faf8d7a0d14c09","651c1cbd74802622968a5b08","null","null","<p style=""font-size: 60px; font-family: BACS"">OLJblYaOk</p>","","","","","","","","",""
"html-keyboard-response","389","631363","0.0-16.0-0.57","5e433ed3393e971e19f4735d","650c16f0f2faf8d7a0d14c09","651c1cbd74802622968a5b08","null","null","<p style=""font-size: 60px; font-family: BACS"">OLJblYaOk</p>","","","","","","","","",""
"html-keyboard-response","390","632379","0.0-16.0-0.58","5e433ed3393e971e19f4735d","650c16f0f2faf8d7a0d14c09","651c1cbd74802622968a5b08","null","null","<p style=""font-size: 60px; font-family: BACS"">OLJblYaOk</p>","","","","","","","","",""
"html-keyboard-response","391","633390","0.0-16.0-0.59","5e433ed3393e971e19f4735d","650c16f0f2faf8d7a0d14c09","651c1cbd74802622968a5b08","null","null","<p style=""font-size: 60px; font-family: BACS"">OLJblYaOk</p>","","","","","","","","",""
"html-keyboard-response","392","634391","0.0-16.0-0.60","5e433ed3393e971e19f4735d","650c16f0f2faf8d7a0d14c09","651c1cbd74802622968a5b08","null","null","<p style=""font-size: 60px; font-family: BACS"">OLJblYaOk</p>","","","","","","","","",""
"html-keyboard-response","393","635421","0.0-16.0-0.61","5e433ed3393e971e19f4735d","650c16f0f2faf8d7a0d14c09","651c1cbd74802622968a5b08","null","null","<p style=""font-size: 60px; font-family: BACS"">OLJblYaOk</p>","","","","","","","","",""
"html-keyboard-response","394","636433","0.0-16.0-0.62","5e433ed3393e971e19f4735d","650c16f0f2faf8d7a0d14c09","651c1cbd74802622968a5b08","null","null","<p style=""font-size: 60px; font-family: BACS"">OLJblYaOk</p>","","","","","","","","",""
"html-keyboard-response","395","637440","0.0-16.0-0.63","5e433ed3393e971e19f4735d","650c16f0f2faf8d7a0d14c09","651c1cbd74802622968a5b08","null","null","<p style=""font-size: 60px; font-family: BACS"">OLJblYaOk</p>","","","","","","","","",""
"html-keyboard-response","396","638449","0.0-16.0-0.64","5e433ed3393e971e19f4735d","650c16f0f2faf8d7a0d14c09","651c1cbd74802622968a5b08","null","null","<p style=""font-size: 60px; font-family: BACS"">OLJblYaOk</p>","","","","","","","","",""
"html-keyboard-response","397","639463","0.0-16.0-0.65","5e433ed3393e971e19f4735d","650c16f0f2faf8d7a0d14c09","651c1cbd74802622968a5b08","null","null","<p style=""font-size: 60px; font-family: BACS"">OLJblYaOk</p>","","","","","","","","",""
"html-keyboard-response","398","640477","0.0-16.0-0.66","5e433ed3393e971e19f4735d","650c16f0f2faf8d7a0d14c09","651c1cbd74802622968a5b08","null","null","<p style=""font-size: 60px; font-family: BACS"">OLJblYaOk</p>","","","","","","","","",""
