"trial_type","trial_index","time_elapsed","internal_node_id","subject_id","study_id","session_id","rt","response","stimulus","success","item","task","correct_response","testing_condition","correct","target","confound","name"
"pavlovia","0","1059","0.0-0.0","61520b079436973e05f72d33","650c16f0f2faf8d7a0d14c09","651c359907678fb99f795e3f","","","","","","","","","","","",""
"survey-html-form","1","12884","0.0-1.0","61520b079436973e05f72d33","650c16f0f2faf8d7a0d14c09","651c359907678fb99f795e3f","11824","{""ID"":""61520b079436973e05f72d33""}","","","","","","","","","",""
"html-keyboard-response","2","25864","0.0-2.0","61520b079436973e05f72d33","650c16f0f2faf8d7a0d14c09","651c359907678fb99f795e3f","12980"," ","<p style=""font-size: 15px;"">Before beginning, we ask that you read the consent information and confirm your agreement to participate in the experiment.</p>
      <p style=""font-size: 15px;""> We ask that you remember that this is a research project and that your participation is entirely voluntary. You can stop your participation at any time, without needing to provide any explanation. The study we're asking you to participate in aims at examining how readers process written words. You will be engaged in a session of apprximately 20 minutes, followed by a brief questionnaire. You will have the opportunity to take a few breaks during the experiment. You will be paid £4 for your participation, corresponding to a rate of £8/hour. While this experiment looks at cognitive faculties, this experiment doesn't constitute clinical proof of eventual pathologies.</p>
      <p style=""font-size: 15px;"">All of the information collected thanks to yours and others' participation will be held in a secure password-protected server, and will not be shared with anyone not authorised to view it. Your personal information will be kept with an arbitrary participant ID. Thanks to this data anonymity process, any researcher analysing the data won't be able to track the information back to a specific participant. Therefore, this process will make identifying you impossibile, even when results from the study will be published in scientific reviews, presented at congresses, or at any other public forum. More generally, the collected data will be treated in accordance with the laws on privacy and conformity to the Legislative Degree n. 196 ""Code regarding the protection of personal data"" of the 30th of June 2003 and to the European Regulation 2016/670 (General Data Protection Regulation - GDPR). The Data Protection Officer is Avv. Valentina Carollo, who can be contacted at the following email addresses: <a href=""mailto:dpo@sissa.it"">dpo@sissa.it</a> or <a href=""mailto:rpd@sissa.it"">rpd@sissa.it</a> - PEC: <a href=""mailto:protocollo@pec.sissa.it"">protocollo@pec.sissa.it</a>.</p>
      <p style=""font-size: 15px;""> Before expressing your consent to participate, we would like to remind you again that in case you need explanations on any aspect of the experimental procedure, the researcher is at your disposition (<a href=""mailto:aliebelt@sissa.it"">aliebelt@sissa.it</a>, <a href=""mailto:davide.crepaldi@sissa.it"">davide.crepaldi@sissa.it</a>).</p>
      <p style=""font-size: 15px;"">If you would like to download the informed consent form, you can do so here: <a href=""BASL-Informed_Consent.pdf"" download>informed consent form</a>.</p>
      <p style=""font-size: 15px;"">We ask that you press the spacebar to proceed to the consent section.</p>","","","","","","","","",""
"survey-html-form","3","39332","0.0-3.0","61520b079436973e05f72d33","650c16f0f2faf8d7a0d14c09","651c359907678fb99f795e3f","13467","{""consent1"":""YES"",""consent2"":""YES"",""consent3"":""YES"",""consent4"":""YES"",""consent5"":""YES"",""consent6"":""YES""}","","","","","","","","","",""
"fullscreen","4","48580","0.0-4.0","61520b079436973e05f72d33","650c16f0f2faf8d7a0d14c09","651c359907678fb99f795e3f","","","","true","","","","","","","",""
"html-keyboard-response","5","131627","0.0-5.0","61520b079436973e05f72d33","650c16f0f2faf8d7a0d14c09","651c359907678fb99f795e3f","83047"," ","<p>Welcome, and thank you very much for your time!</p>
      <p>In this experiment, you'll be a language expert who's been asked to take a look at words that Earth has received in its first communication with aliens. Your task, in this first part of the experiment, is to pay close attention to the words you'll be shown; later, world leaders will ask you questions on what you saw. The words will be shown to you quite quickly; it seems that the aliens were in a hurry :-)</p>
      <p>Press the spacebar to continue.<p>","","","","","","","","",""
"html-keyboard-response","6","131691","0.0-6.0","61520b079436973e05f72d33","650c16f0f2faf8d7a0d14c09","651c359907678fb99f795e3f","null","null","<p style=""font-size: 120px; font-family: BACS""> </p>","","","","","","","","",""
"html-keyboard-response","7","137346","0.0-7.0","61520b079436973e05f72d33","650c16f0f2faf8d7a0d14c09","651c359907678fb99f795e3f","5655"," ","<p>Here is an example of the words you'll see:</p>
      <img src='esempio.png' height='400px'>
      <p>When you're ready to begin, press the spacebar.</p></div>","","","","","","","","",""
"html-keyboard-response","8","138360","0.0-8.0-0.0","61520b079436973e05f72d33","650c16f0f2faf8d7a0d14c09","651c359907678fb99f795e3f","null","null","<p style=""font-size: 60px; font-family: BACS"">DhCPdTAh</p>","","","","","","","","",""
"html-keyboard-response","9","139362","0.0-8.0-0.1","61520b079436973e05f72d33","650c16f0f2faf8d7a0d14c09","651c359907678fb99f795e3f","null","null","<p style=""font-size: 60px; font-family: BACS"">bcORBYhT</p>","","","","","","","","",""
"html-keyboard-response","10","140371","0.0-8.0-0.2","61520b079436973e05f72d33","650c16f0f2faf8d7a0d14c09","651c359907678fb99f795e3f","null","null","<p style=""font-size: 60px; font-family: BACS"">QLrOJNUZ</p>","","","","","","","","",""
"html-keyboard-response","11","141386","0.0-8.0-0.3","61520b079436973e05f72d33","650c16f0f2faf8d7a0d14c09","651c359907678fb99f795e3f","null","null","<p style=""font-size: 60px; font-family: BACS"">YZJmvcb</p>","","","","","","","","",""
"html-keyboard-response","12","142393","0.0-8.0-0.4","61520b079436973e05f72d33","650c16f0f2faf8d7a0d14c09","651c359907678fb99f795e3f","null","null","<p style=""font-size: 60px; font-family: BACS"">rbYbuYArG</p>","","","","","","","","",""
"html-keyboard-response","13","143397","0.0-8.0-0.5","61520b079436973e05f72d33","650c16f0f2faf8d7a0d14c09","651c359907678fb99f795e3f","null","null","<p style=""font-size: 60px; font-family: BACS"">QLrOJLcO</p>","","","","","","","","",""
"html-keyboard-response","14","144403","0.0-8.0-0.6","61520b079436973e05f72d33","650c16f0f2faf8d7a0d14c09","651c359907678fb99f795e3f","null","null","<p style=""font-size: 60px; font-family: BACS"">GLYrAvcb</p>","","","","","","","","",""
"html-keyboard-response","15","145405","0.0-8.0-0.7","61520b079436973e05f72d33","650c16f0f2faf8d7a0d14c09","651c359907678fb99f795e3f","null","null","<p style=""font-size: 60px; font-family: BACS"">aYQmYArG</p>","","","","","","","","",""
"html-keyboard-response","16","146411","0.0-8.0-0.8","61520b079436973e05f72d33","650c16f0f2faf8d7a0d14c09","651c359907678fb99f795e3f","null","null","<p style=""font-size: 60px; font-family: BACS"">kcdOtBYhT</p>","","","","","","","","",""
"html-keyboard-response","17","147424","0.0-8.0-0.9","61520b079436973e05f72d33","650c16f0f2faf8d7a0d14c09","651c359907678fb99f795e3f","null","null","<p style=""font-size: 60px; font-family: BACS"">rbYbuNUZ</p>","","","","","","","","",""
"html-keyboard-response","18","148438","0.0-8.0-0.10","61520b079436973e05f72d33","650c16f0f2faf8d7a0d14c09","651c359907678fb99f795e3f","null","null","<p style=""font-size: 60px; font-family: BACS"">rkJuYArG</p>","","","","","","","","",""
"html-keyboard-response","19","149452","0.0-8.0-0.11","61520b079436973e05f72d33","650c16f0f2faf8d7a0d14c09","651c359907678fb99f795e3f","null","null","<p style=""font-size: 60px; font-family: BACS"">mrOdvcb</p>","","","","","","","","",""
"html-keyboard-response","20","150467","0.0-8.0-0.12","61520b079436973e05f72d33","650c16f0f2faf8d7a0d14c09","651c359907678fb99f795e3f","null","null","<p style=""font-size: 60px; font-family: BACS"">JAaGYArG</p>","","","","","","","","",""
"html-keyboard-response","21","151469","0.0-8.0-0.13","61520b079436973e05f72d33","650c16f0f2faf8d7a0d14c09","651c359907678fb99f795e3f","null","null","<p style=""font-size: 60px; font-family: BACS"">kcdOtTbk</p>","","","","","","","","",""
"html-keyboard-response","22","152478","0.0-8.0-0.14","61520b079436973e05f72d33","650c16f0f2faf8d7a0d14c09","651c359907678fb99f795e3f","null","null","<p style=""font-size: 60px; font-family: BACS"">mBYldTAh</p>","","","","","","","","",""
"html-keyboard-response","23","153480","0.0-8.0-0.15","61520b079436973e05f72d33","650c16f0f2faf8d7a0d14c09","651c359907678fb99f795e3f","null","null","<p style=""font-size: 60px; font-family: BACS"">bcORDmh</p>","","","","","","","","",""
"html-keyboard-response","24","154495","0.0-8.0-0.16","61520b079436973e05f72d33","650c16f0f2faf8d7a0d14c09","651c359907678fb99f795e3f","null","null","<p style=""font-size: 60px; font-family: BACS"">aYQmvcb</p>","","","","","","","","",""
"html-keyboard-response","25","155511","0.0-8.0-0.17","61520b079436973e05f72d33","650c16f0f2faf8d7a0d14c09","651c359907678fb99f795e3f","null","null","<p style=""font-size: 60px; font-family: BACS"">bcORTPOM</p>","","","","","","","","",""
"html-keyboard-response","26","156523","0.0-8.0-0.18","61520b079436973e05f72d33","650c16f0f2faf8d7a0d14c09","651c359907678fb99f795e3f","null","null","<p style=""font-size: 60px; font-family: BACS"">TObCOdTAh</p>","","","","","","","","",""
"html-keyboard-response","27","157537","0.0-8.0-0.19","61520b079436973e05f72d33","650c16f0f2faf8d7a0d14c09","651c359907678fb99f795e3f","null","null","<p style=""font-size: 60px; font-family: BACS"">GLYrAQvlZ</p>","","","","","","","","",""
"html-keyboard-response","28","158542","0.0-8.0-0.20","61520b079436973e05f72d33","650c16f0f2faf8d7a0d14c09","651c359907678fb99f795e3f","null","null","<p style=""font-size: 60px; font-family: BACS"">kcOYTPOM</p>","","","","","","","","",""
"html-keyboard-response","29","159542","0.0-8.0-0.21","61520b079436973e05f72d33","650c16f0f2faf8d7a0d14c09","651c359907678fb99f795e3f","null","null","<p style=""font-size: 60px; font-family: BACS"">BECkDmh</p>","","","","","","","","",""
"html-keyboard-response","30","160544","0.0-8.0-0.22","61520b079436973e05f72d33","650c16f0f2faf8d7a0d14c09","651c359907678fb99f795e3f","null","null","<p style=""font-size: 60px; font-family: BACS"">TObCOTbk</p>","","","","","","","","",""
"html-keyboard-response","31","161551","0.0-8.0-0.23","61520b079436973e05f72d33","650c16f0f2faf8d7a0d14c09","651c359907678fb99f795e3f","null","null","<p style=""font-size: 60px; font-family: BACS"">kKRCDmh</p>","","","","","","","","",""
"html-keyboard-response","32","162559","0.0-8.0-0.24","61520b079436973e05f72d33","650c16f0f2faf8d7a0d14c09","651c359907678fb99f795e3f","null","null","<p style=""font-size: 60px; font-family: BACS"">QLrOJQvlZ</p>","","","","","","","","",""
"html-keyboard-response","33","163561","0.0-8.0-0.25","61520b079436973e05f72d33","650c16f0f2faf8d7a0d14c09","651c359907678fb99f795e3f","null","null","<p style=""font-size: 60px; font-family: BACS"">TObCOBYhT</p>","","","","","","","","",""
"html-keyboard-response","34","164574","0.0-8.0-0.26","61520b079436973e05f72d33","650c16f0f2faf8d7a0d14c09","651c359907678fb99f795e3f","null","null","<p style=""font-size: 60px; font-family: BACS"">JAaGNUZ</p>","","","","","","","","",""
"html-keyboard-response","35","165579","0.0-8.0-0.27","61520b079436973e05f72d33","650c16f0f2faf8d7a0d14c09","651c359907678fb99f795e3f","null","null","<p style=""font-size: 60px; font-family: BACS"">DhCPTPOM</p>","","","","","","","","",""
"html-keyboard-response","36","166587","0.0-8.0-0.28","61520b079436973e05f72d33","650c16f0f2faf8d7a0d14c09","651c359907678fb99f795e3f","null","null","<p style=""font-size: 60px; font-family: BACS"">kcOYdTAh</p>","","","","","","","","",""
"html-keyboard-response","37","167589","0.0-8.0-0.29","61520b079436973e05f72d33","650c16f0f2faf8d7a0d14c09","651c359907678fb99f795e3f","null","null","<p style=""font-size: 60px; font-family: BACS"">ubALmLcO</p>","","","","","","","","",""
"html-keyboard-response","38","168604","0.0-8.0-0.30","61520b079436973e05f72d33","650c16f0f2faf8d7a0d14c09","651c359907678fb99f795e3f","null","null","<p style=""font-size: 60px; font-family: BACS"">YZJmNUZ</p>","","","","","","","","",""
"html-keyboard-response","39","169608","0.0-8.0-0.31","61520b079436973e05f72d33","650c16f0f2faf8d7a0d14c09","651c359907678fb99f795e3f","null","null","<p style=""font-size: 60px; font-family: BACS"">RCcEBYhT</p>","","","","","","","","",""
"html-keyboard-response","40","170609","0.0-8.0-0.32","61520b079436973e05f72d33","650c16f0f2faf8d7a0d14c09","651c359907678fb99f795e3f","null","null","<p style=""font-size: 60px; font-family: BACS"">ubALmNUZ</p>","","","","","","","","",""
"html-keyboard-response","41","171623","0.0-8.0-0.33","61520b079436973e05f72d33","650c16f0f2faf8d7a0d14c09","651c359907678fb99f795e3f","null","null","<p style=""font-size: 60px; font-family: BACS"">kcOYBYhT</p>","","","","","","","","",""
"html-keyboard-response","42","172634","0.0-8.0-0.34","61520b079436973e05f72d33","650c16f0f2faf8d7a0d14c09","651c359907678fb99f795e3f","null","null","<p style=""font-size: 60px; font-family: BACS"">mrOdNUZ</p>","","","","","","","","",""
"html-keyboard-response","43","173648","0.0-8.0-0.35","61520b079436973e05f72d33","650c16f0f2faf8d7a0d14c09","651c359907678fb99f795e3f","null","null","<p style=""font-size: 60px; font-family: BACS"">kKRCdTAh</p>","","","","","","","","",""
"html-keyboard-response","44","174654","0.0-8.0-0.36","61520b079436973e05f72d33","650c16f0f2faf8d7a0d14c09","651c359907678fb99f795e3f","null","null","<p style=""font-size: 60px; font-family: BACS"">rkJuvcb</p>","","","","","","","","",""
"html-keyboard-response","45","175668","0.0-8.0-0.37","61520b079436973e05f72d33","650c16f0f2faf8d7a0d14c09","651c359907678fb99f795e3f","null","null","<p style=""font-size: 60px; font-family: BACS"">GLYrALcO</p>","","","","","","","","",""
"html-keyboard-response","46","176676","0.0-8.0-0.38","61520b079436973e05f72d33","650c16f0f2faf8d7a0d14c09","651c359907678fb99f795e3f","null","null","<p style=""font-size: 60px; font-family: BACS"">kKEdMBYhT</p>","","","","","","","","",""
"html-keyboard-response","47","177690","0.0-8.0-0.39","61520b079436973e05f72d33","650c16f0f2faf8d7a0d14c09","651c359907678fb99f795e3f","null","null","<p style=""font-size: 60px; font-family: BACS"">RCcETPOM</p>","","","","","","","","",""
"html-keyboard-response","48","178703","0.0-8.0-0.40","61520b079436973e05f72d33","650c16f0f2faf8d7a0d14c09","651c359907678fb99f795e3f","null","null","<p style=""font-size: 60px; font-family: BACS"">AZaJcvcb</p>","","","","","","","","",""
"html-keyboard-response","49","179711","0.0-8.0-0.41","61520b079436973e05f72d33","650c16f0f2faf8d7a0d14c09","651c359907678fb99f795e3f","null","null","<p style=""font-size: 60px; font-family: BACS"">kcOYTbk</p>","","","","","","","","",""
"html-keyboard-response","50","180713","0.0-8.0-0.42","61520b079436973e05f72d33","650c16f0f2faf8d7a0d14c09","651c359907678fb99f795e3f","null","null","<p style=""font-size: 60px; font-family: BACS"">rkJuNUZ</p>","","","","","","","","",""
"html-keyboard-response","51","181719","0.0-8.0-0.43","61520b079436973e05f72d33","650c16f0f2faf8d7a0d14c09","651c359907678fb99f795e3f","null","null","<p style=""font-size: 60px; font-family: BACS"">BECkTbk</p>","","","","","","","","",""
"html-keyboard-response","52","182729","0.0-8.0-0.44","61520b079436973e05f72d33","650c16f0f2faf8d7a0d14c09","651c359907678fb99f795e3f","null","null","<p style=""font-size: 60px; font-family: BACS"">kKRCTPOM</p>","","","","","","","","",""
"html-keyboard-response","53","183744","0.0-8.0-0.45","61520b079436973e05f72d33","650c16f0f2faf8d7a0d14c09","651c359907678fb99f795e3f","null","null","<p style=""font-size: 60px; font-family: BACS"">kcdOtDmh</p>","","","","","","","","",""
"html-keyboard-response","54","184755","0.0-8.0-0.46","61520b079436973e05f72d33","650c16f0f2faf8d7a0d14c09","651c359907678fb99f795e3f","null","null","<p style=""font-size: 60px; font-family: BACS"">AZaJcQvlZ</p>","","","","","","","","",""
"html-keyboard-response","55","185768","0.0-8.0-0.47","61520b079436973e05f72d33","650c16f0f2faf8d7a0d14c09","651c359907678fb99f795e3f","null","null","<p style=""font-size: 60px; font-family: BACS"">kKEdMDmh</p>","","","","","","","","",""
"html-keyboard-response","56","186769","0.0-8.0-0.48","61520b079436973e05f72d33","650c16f0f2faf8d7a0d14c09","651c359907678fb99f795e3f","null","null","<p style=""font-size: 60px; font-family: BACS"">mrOdLcO</p>","","","","","","","","",""
"html-keyboard-response","57","187782","0.0-8.0-0.49","61520b079436973e05f72d33","650c16f0f2faf8d7a0d14c09","651c359907678fb99f795e3f","null","null","<p style=""font-size: 60px; font-family: BACS"">YZJmQvlZ</p>","","","","","","","","",""
"html-keyboard-response","58","188796","0.0-8.0-0.50","61520b079436973e05f72d33","650c16f0f2faf8d7a0d14c09","651c359907678fb99f795e3f","null","null","<p style=""font-size: 60px; font-family: BACS"">DhCPDmh</p>","","","","","","","","",""
"html-keyboard-response","59","189811","0.0-8.0-0.51","61520b079436973e05f72d33","650c16f0f2faf8d7a0d14c09","651c359907678fb99f795e3f","null","null","<p style=""font-size: 60px; font-family: BACS"">rbYbuLcO</p>","","","","","","","","",""
"html-keyboard-response","60","190825","0.0-8.0-0.52","61520b079436973e05f72d33","650c16f0f2faf8d7a0d14c09","651c359907678fb99f795e3f","null","null","<p style=""font-size: 60px; font-family: BACS"">QLrOJvcb</p>","","","","","","","","",""
"html-keyboard-response","61","191827","0.0-8.0-0.53","61520b079436973e05f72d33","650c16f0f2faf8d7a0d14c09","651c359907678fb99f795e3f","null","null","<p style=""font-size: 60px; font-family: BACS"">AZaJcYArG</p>","","","","","","","","",""
"html-keyboard-response","62","192828","0.0-8.0-0.54","61520b079436973e05f72d33","650c16f0f2faf8d7a0d14c09","651c359907678fb99f795e3f","null","null","<p style=""font-size: 60px; font-family: BACS"">rkJuQvlZ</p>","","","","","","","","",""
"html-keyboard-response","63","193837","0.0-8.0-0.55","61520b079436973e05f72d33","650c16f0f2faf8d7a0d14c09","651c359907678fb99f795e3f","null","null","<p style=""font-size: 60px; font-family: BACS"">mBYlTbk</p>","","","","","","","","",""
"html-keyboard-response","64","194843","0.0-8.0-0.56","61520b079436973e05f72d33","650c16f0f2faf8d7a0d14c09","651c359907678fb99f795e3f","null","null","<p style=""font-size: 60px; font-family: BACS"">BECkdTAh</p>","","","","","","","","",""
"html-keyboard-response","65","195853","0.0-8.0-0.57","61520b079436973e05f72d33","650c16f0f2faf8d7a0d14c09","651c359907678fb99f795e3f","null","null","<p style=""font-size: 60px; font-family: BACS"">DhCPBYhT</p>","","","","","","","","",""
"html-keyboard-response","66","196866","0.0-8.0-0.58","61520b079436973e05f72d33","650c16f0f2faf8d7a0d14c09","651c359907678fb99f795e3f","null","null","<p style=""font-size: 60px; font-family: BACS"">kKRCTbk</p>","","","","","","","","",""
"html-keyboard-response","67","197867","0.0-8.0-0.59","61520b079436973e05f72d33","650c16f0f2faf8d7a0d14c09","651c359907678fb99f795e3f","null","null","<p style=""font-size: 60px; font-family: BACS"">RCcEDmh</p>","","","","","","","","",""
"html-keyboard-response","68","198876","0.0-8.0-0.60","61520b079436973e05f72d33","650c16f0f2faf8d7a0d14c09","651c359907678fb99f795e3f","null","null","<p style=""font-size: 60px; font-family: BACS"">kKEdMTPOM</p>","","","","","","","","",""
"html-keyboard-response","69","199883","0.0-8.0-0.61","61520b079436973e05f72d33","650c16f0f2faf8d7a0d14c09","651c359907678fb99f795e3f","null","null","<p style=""font-size: 60px; font-family: BACS"">JAaGLcO</p>","","","","","","","","",""
"html-keyboard-response","70","200897","0.0-8.0-0.62","61520b079436973e05f72d33","650c16f0f2faf8d7a0d14c09","651c359907678fb99f795e3f","null","null","<p style=""font-size: 60px; font-family: BACS"">mBYlDmh</p>","","","","","","","","",""
"html-keyboard-response","71","201909","0.0-8.0-0.63","61520b079436973e05f72d33","650c16f0f2faf8d7a0d14c09","651c359907678fb99f795e3f","null","null","<p style=""font-size: 60px; font-family: BACS"">kKEdMTbk</p>","","","","","","","","",""
"html-keyboard-response","72","202911","0.0-8.0-0.64","61520b079436973e05f72d33","650c16f0f2faf8d7a0d14c09","651c359907678fb99f795e3f","null","null","<p style=""font-size: 60px; font-family: BACS"">ubALmYArG</p>","","","","","","","","",""
"html-keyboard-response","73","203912","0.0-8.0-0.65","61520b079436973e05f72d33","650c16f0f2faf8d7a0d14c09","651c359907678fb99f795e3f","null","null","<p style=""font-size: 60px; font-family: BACS"">AZaJcNUZ</p>","","","","","","","","",""
"html-keyboard-response","74","204919","0.0-8.0-0.66","61520b079436973e05f72d33","650c16f0f2faf8d7a0d14c09","651c359907678fb99f795e3f","null","null","<p style=""font-size: 60px; font-family: BACS"">RCcEdTAh</p>","","","","","","","","",""
"html-keyboard-response","75","205929","0.0-8.0-0.67","61520b079436973e05f72d33","650c16f0f2faf8d7a0d14c09","651c359907678fb99f795e3f","null","null","<p style=""font-size: 60px; font-family: BACS"">rbYbuQvlZ</p>","","","","","","","","",""
"html-keyboard-response","76","206945","0.0-8.0-0.68","61520b079436973e05f72d33","650c16f0f2faf8d7a0d14c09","651c359907678fb99f795e3f","null","null","<p style=""font-size: 60px; font-family: BACS"">mBYlBYhT</p>","","","","","","","","",""
"html-keyboard-response","77","207948","0.0-8.0-0.69","61520b079436973e05f72d33","650c16f0f2faf8d7a0d14c09","651c359907678fb99f795e3f","null","null","<p style=""font-size: 60px; font-family: BACS"">TObCOTPOM</p>","","","","","","","","",""
"html-keyboard-response","78","208952","0.0-8.0-0.70","61520b079436973e05f72d33","650c16f0f2faf8d7a0d14c09","651c359907678fb99f795e3f","null","null","<p style=""font-size: 60px; font-family: BACS"">kcdOtdTAh</p>","","","","","","","","",""
"html-keyboard-response","79","209955","0.0-8.0-0.71","61520b079436973e05f72d33","650c16f0f2faf8d7a0d14c09","651c359907678fb99f795e3f","null","null","<p style=""font-size: 60px; font-family: BACS"">BECkTPOM</p>","","","","","","","","",""
"html-keyboard-response","80","210966","0.0-8.0-0.72","61520b079436973e05f72d33","650c16f0f2faf8d7a0d14c09","651c359907678fb99f795e3f","null","null","<p style=""font-size: 60px; font-family: BACS"">bcORTbk</p>","","","","","","","","",""
"html-keyboard-response","81","211969","0.0-8.0-0.73","61520b079436973e05f72d33","650c16f0f2faf8d7a0d14c09","651c359907678fb99f795e3f","null","null","<p style=""font-size: 60px; font-family: BACS"">mrOdYArG</p>","","","","","","","","",""
"html-keyboard-response","82","212974","0.0-8.0-0.74","61520b079436973e05f72d33","650c16f0f2faf8d7a0d14c09","651c359907678fb99f795e3f","null","null","<p style=""font-size: 60px; font-family: BACS"">ubALmvcb</p>","","","","","","","","",""
"html-keyboard-response","83","213987","0.0-8.0-0.75","61520b079436973e05f72d33","650c16f0f2faf8d7a0d14c09","651c359907678fb99f795e3f","null","null","<p style=""font-size: 60px; font-family: BACS"">aYQmQvlZ</p>","","","","","","","","",""
"html-keyboard-response","84","214993","0.0-8.0-0.76","61520b079436973e05f72d33","650c16f0f2faf8d7a0d14c09","651c359907678fb99f795e3f","null","null","<p style=""font-size: 60px; font-family: BACS"">YZJmLcO</p>","","","","","","","","",""
"html-keyboard-response","85","215999","0.0-8.0-0.77","61520b079436973e05f72d33","650c16f0f2faf8d7a0d14c09","651c359907678fb99f795e3f","null","null","<p style=""font-size: 60px; font-family: BACS"">GLYrAYArG</p>","","","","","","","","",""
"html-keyboard-response","86","217007","0.0-8.0-0.78","61520b079436973e05f72d33","650c16f0f2faf8d7a0d14c09","651c359907678fb99f795e3f","null","null","<p style=""font-size: 60px; font-family: BACS"">aYQmLcO</p>","","","","","","","","",""
"html-keyboard-response","87","218011","0.0-8.0-0.79","61520b079436973e05f72d33","650c16f0f2faf8d7a0d14c09","651c359907678fb99f795e3f","null","null","<p style=""font-size: 60px; font-family: BACS"">JAaGQvlZ</p>","","","","","","","","",""
"html-keyboard-response","88","376268","0.0-9.0","61520b079436973e05f72d33","650c16f0f2faf8d7a0d14c09","651c359907678fb99f795e3f","158256"," ","<p>Great, you've seen the first block of words. You may now take a short break.</p>
      <p>Press the spacebar when you're ready to continue.</p>","","","","","","","","",""
"html-keyboard-response","89","377275","0.0-10.0-0.0","61520b079436973e05f72d33","650c16f0f2faf8d7a0d14c09","651c359907678fb99f795e3f","null","null","<p style=""font-size: 60px; font-family: BACS"">DhCPDmh</p>","","","","","","","","",""
"html-keyboard-response","90","378284","0.0-10.0-0.1","61520b079436973e05f72d33","650c16f0f2faf8d7a0d14c09","651c359907678fb99f795e3f","null","null","<p style=""font-size: 60px; font-family: BACS"">rbYbuNUZ</p>","","","","","","","","",""
"html-keyboard-response","91","379285","0.0-10.0-0.2","61520b079436973e05f72d33","650c16f0f2faf8d7a0d14c09","651c359907678fb99f795e3f","null","null","<p style=""font-size: 60px; font-family: BACS"">kcOYTPOM</p>","","","","","","","","",""
"html-keyboard-response","92","380299","0.0-10.0-0.3","61520b079436973e05f72d33","650c16f0f2faf8d7a0d14c09","651c359907678fb99f795e3f","null","null","<p style=""font-size: 60px; font-family: BACS"">JAaGNUZ</p>","","","","","","","","",""
"html-keyboard-response","93","381300","0.0-10.0-0.4","61520b079436973e05f72d33","650c16f0f2faf8d7a0d14c09","651c359907678fb99f795e3f","null","null","<p style=""font-size: 60px; font-family: BACS"">QLrOJQvlZ</p>","","","","","","","","",""
"html-keyboard-response","94","382302","0.0-10.0-0.5","61520b079436973e05f72d33","650c16f0f2faf8d7a0d14c09","651c359907678fb99f795e3f","null","null","<p style=""font-size: 60px; font-family: BACS"">ubALmNUZ</p>","","","","","","","","",""
"html-keyboard-response","95","383309","0.0-10.0-0.6","61520b079436973e05f72d33","650c16f0f2faf8d7a0d14c09","651c359907678fb99f795e3f","null","null","<p style=""font-size: 60px; font-family: BACS"">RCcEdTAh</p>","","","","","","","","",""
"html-keyboard-response","96","384315","0.0-10.0-0.7","61520b079436973e05f72d33","650c16f0f2faf8d7a0d14c09","651c359907678fb99f795e3f","null","null","<p style=""font-size: 60px; font-family: BACS"">AZaJcvcb</p>","","","","","","","","",""
"html-keyboard-response","97","385323","0.0-10.0-0.8","61520b079436973e05f72d33","650c16f0f2faf8d7a0d14c09","651c359907678fb99f795e3f","null","null","<p style=""font-size: 60px; font-family: BACS"">rkJuQvlZ</p>","","","","","","","","",""
"html-keyboard-response","98","386330","0.0-10.0-0.9","61520b079436973e05f72d33","650c16f0f2faf8d7a0d14c09","651c359907678fb99f795e3f","null","null","<p style=""font-size: 60px; font-family: BACS"">GLYrAvcb</p>","","","","","","","","",""
"html-keyboard-response","99","387343","0.0-10.0-0.10","61520b079436973e05f72d33","650c16f0f2faf8d7a0d14c09","651c359907678fb99f795e3f","null","null","<p style=""font-size: 60px; font-family: BACS"">kcdOtTbk</p>","","","","","","","","",""
"html-keyboard-response","100","388358","0.0-10.0-0.11","61520b079436973e05f72d33","650c16f0f2faf8d7a0d14c09","651c359907678fb99f795e3f","null","null","<p style=""font-size: 60px; font-family: BACS"">rbYbuQvlZ</p>","","","","","","","","",""
"html-keyboard-response","101","389372","0.0-10.0-0.12","61520b079436973e05f72d33","650c16f0f2faf8d7a0d14c09","651c359907678fb99f795e3f","null","null","<p style=""font-size: 60px; font-family: BACS"">bcORDmh</p>","","","","","","","","",""
"html-keyboard-response","102","390378","0.0-10.0-0.13","61520b079436973e05f72d33","650c16f0f2faf8d7a0d14c09","651c359907678fb99f795e3f","null","null","<p style=""font-size: 60px; font-family: BACS"">mBYldTAh</p>","","","","","","","","",""
"html-keyboard-response","103","391385","0.0-10.0-0.14","61520b079436973e05f72d33","650c16f0f2faf8d7a0d14c09","651c359907678fb99f795e3f","null","null","<p style=""font-size: 60px; font-family: BACS"">kKEdMBYhT</p>","","","","","","","","",""
"html-keyboard-response","104","392391","0.0-10.0-0.15","61520b079436973e05f72d33","650c16f0f2faf8d7a0d14c09","651c359907678fb99f795e3f","null","null","<p style=""font-size: 60px; font-family: BACS"">rkJuYArG</p>","","","","","","","","",""
"html-keyboard-response","105","393395","0.0-10.0-0.16","61520b079436973e05f72d33","650c16f0f2faf8d7a0d14c09","651c359907678fb99f795e3f","null","null","<p style=""font-size: 60px; font-family: BACS"">kKEdMDmh</p>","","","","","","","","",""
"html-keyboard-response","106","394400","0.0-10.0-0.17","61520b079436973e05f72d33","650c16f0f2faf8d7a0d14c09","651c359907678fb99f795e3f","null","null","<p style=""font-size: 60px; font-family: BACS"">BECkTbk</p>","","","","","","","","",""
"html-keyboard-response","107","395406","0.0-10.0-0.18","61520b079436973e05f72d33","650c16f0f2faf8d7a0d14c09","651c359907678fb99f795e3f","null","null","<p style=""font-size: 60px; font-family: BACS"">kcOYBYhT</p>","","","","","","","","",""
"html-keyboard-response","108","396412","0.0-10.0-0.19","61520b079436973e05f72d33","650c16f0f2faf8d7a0d14c09","651c359907678fb99f795e3f","null","null","<p style=""font-size: 60px; font-family: BACS"">rbYbuYArG</p>","","","","","","","","",""
"html-keyboard-response","109","397415","0.0-10.0-0.20","61520b079436973e05f72d33","650c16f0f2faf8d7a0d14c09","651c359907678fb99f795e3f","null","null","<p style=""font-size: 60px; font-family: BACS"">AZaJcQvlZ</p>","","","","","","","","",""
"html-keyboard-response","110","398427","0.0-10.0-0.21","61520b079436973e05f72d33","650c16f0f2faf8d7a0d14c09","651c359907678fb99f795e3f","null","null","<p style=""font-size: 60px; font-family: BACS"">kcdOtDmh</p>","","","","","","","","",""
"html-keyboard-response","111","399437","0.0-10.0-0.22","61520b079436973e05f72d33","650c16f0f2faf8d7a0d14c09","651c359907678fb99f795e3f","null","null","<p style=""font-size: 60px; font-family: BACS"">JAaGQvlZ</p>","","","","","","","","",""
"html-keyboard-response","112","400450","0.0-10.0-0.23","61520b079436973e05f72d33","650c16f0f2faf8d7a0d14c09","651c359907678fb99f795e3f","null","null","<p style=""font-size: 60px; font-family: BACS"">bcORTPOM</p>","","","","","","","","",""
"html-keyboard-response","113","401453","0.0-10.0-0.24","61520b079436973e05f72d33","650c16f0f2faf8d7a0d14c09","651c359907678fb99f795e3f","null","null","<p style=""font-size: 60px; font-family: BACS"">DhCPBYhT</p>","","","","","","","","",""
"html-keyboard-response","114","402453","0.0-10.0-0.25","61520b079436973e05f72d33","650c16f0f2faf8d7a0d14c09","651c359907678fb99f795e3f","null","null","<p style=""font-size: 60px; font-family: BACS"">aYQmQvlZ</p>","","","","","","","","",""
"html-keyboard-response","115","403457","0.0-10.0-0.26","61520b079436973e05f72d33","650c16f0f2faf8d7a0d14c09","651c359907678fb99f795e3f","null","null","<p style=""font-size: 60px; font-family: BACS"">bcORBYhT</p>","","","","","","","","",""
"html-keyboard-response","116","404463","0.0-10.0-0.27","61520b079436973e05f72d33","650c16f0f2faf8d7a0d14c09","651c359907678fb99f795e3f","null","null","<p style=""font-size: 60px; font-family: BACS"">aYQmLcO</p>","","","","","","","","",""
"html-keyboard-response","117","405474","0.0-10.0-0.28","61520b079436973e05f72d33","650c16f0f2faf8d7a0d14c09","651c359907678fb99f795e3f","null","null","<p style=""font-size: 60px; font-family: BACS"">YZJmQvlZ</p>","","","","","","","","",""
"html-keyboard-response","118","406479","0.0-10.0-0.29","61520b079436973e05f72d33","650c16f0f2faf8d7a0d14c09","651c359907678fb99f795e3f","null","null","<p style=""font-size: 60px; font-family: BACS"">JAaGYArG</p>","","","","","","","","",""
"html-keyboard-response","119","407480","0.0-10.0-0.30","61520b079436973e05f72d33","650c16f0f2faf8d7a0d14c09","651c359907678fb99f795e3f","null","null","<p style=""font-size: 60px; font-family: BACS"">YZJmLcO</p>","","","","","","","","",""
"html-keyboard-response","120","408481","0.0-10.0-0.31","61520b079436973e05f72d33","650c16f0f2faf8d7a0d14c09","651c359907678fb99f795e3f","null","null","<p style=""font-size: 60px; font-family: BACS"">kKRCdTAh</p>","","","","","","","","",""
"html-keyboard-response","121","409482","0.0-10.0-0.32","61520b079436973e05f72d33","650c16f0f2faf8d7a0d14c09","651c359907678fb99f795e3f","null","null","<p style=""font-size: 60px; font-family: BACS"">JAaGLcO</p>","","","","","","","","",""
"html-keyboard-response","122","410496","0.0-10.0-0.33","61520b079436973e05f72d33","650c16f0f2faf8d7a0d14c09","651c359907678fb99f795e3f","null","null","<p style=""font-size: 60px; font-family: BACS"">TObCOBYhT</p>","","","","","","","","",""
"html-keyboard-response","123","411500","0.0-10.0-0.34","61520b079436973e05f72d33","650c16f0f2faf8d7a0d14c09","651c359907678fb99f795e3f","null","null","<p style=""font-size: 60px; font-family: BACS"">bcORTbk</p>","","","","","","","","",""
"html-keyboard-response","124","412514","0.0-10.0-0.35","61520b079436973e05f72d33","650c16f0f2faf8d7a0d14c09","651c359907678fb99f795e3f","null","null","<p style=""font-size: 60px; font-family: BACS"">RCcETPOM</p>","","","","","","","","",""
"html-keyboard-response","125","413522","0.0-10.0-0.36","61520b079436973e05f72d33","650c16f0f2faf8d7a0d14c09","651c359907678fb99f795e3f","null","null","<p style=""font-size: 60px; font-family: BACS"">mrOdvcb</p>","","","","","","","","",""
"html-keyboard-response","126","414530","0.0-10.0-0.37","61520b079436973e05f72d33","650c16f0f2faf8d7a0d14c09","651c359907678fb99f795e3f","null","null","<p style=""font-size: 60px; font-family: BACS"">kKRCTPOM</p>","","","","","","","","",""
"html-keyboard-response","127","415533","0.0-10.0-0.38","61520b079436973e05f72d33","650c16f0f2faf8d7a0d14c09","651c359907678fb99f795e3f","null","null","<p style=""font-size: 60px; font-family: BACS"">BECkdTAh</p>","","","","","","","","",""
"html-keyboard-response","128","416546","0.0-10.0-0.39","61520b079436973e05f72d33","650c16f0f2faf8d7a0d14c09","651c359907678fb99f795e3f","null","null","<p style=""font-size: 60px; font-family: BACS"">DhCPTPOM</p>","","","","","","","","",""
"html-keyboard-response","129","417560","0.0-10.0-0.40","61520b079436973e05f72d33","650c16f0f2faf8d7a0d14c09","651c359907678fb99f795e3f","null","null","<p style=""font-size: 60px; font-family: BACS"">YZJmvcb</p>","","","","","","","","",""
"html-keyboard-response","130","418566","0.0-10.0-0.41","61520b079436973e05f72d33","650c16f0f2faf8d7a0d14c09","651c359907678fb99f795e3f","null","null","<p style=""font-size: 60px; font-family: BACS"">kcdOtBYhT</p>","","","","","","","","",""
"html-keyboard-response","131","419568","0.0-10.0-0.42","61520b079436973e05f72d33","650c16f0f2faf8d7a0d14c09","651c359907678fb99f795e3f","null","null","<p style=""font-size: 60px; font-family: BACS"">QLrOJvcb</p>","","","","","","","","",""
"html-keyboard-response","132","420584","0.0-10.0-0.43","61520b079436973e05f72d33","650c16f0f2faf8d7a0d14c09","651c359907678fb99f795e3f","null","null","<p style=""font-size: 60px; font-family: BACS"">kKEdMTbk</p>","","","","","","","","",""
"html-keyboard-response","133","421589","0.0-10.0-0.44","61520b079436973e05f72d33","650c16f0f2faf8d7a0d14c09","651c359907678fb99f795e3f","null","null","<p style=""font-size: 60px; font-family: BACS"">GLYrAYArG</p>","","","","","","","","",""
"html-keyboard-response","134","422598","0.0-10.0-0.45","61520b079436973e05f72d33","650c16f0f2faf8d7a0d14c09","651c359907678fb99f795e3f","null","null","<p style=""font-size: 60px; font-family: BACS"">kKEdMTPOM</p>","","","","","","","","",""
"html-keyboard-response","135","423598","0.0-10.0-0.46","61520b079436973e05f72d33","650c16f0f2faf8d7a0d14c09","651c359907678fb99f795e3f","null","null","<p style=""font-size: 60px; font-family: BACS"">AZaJcNUZ</p>","","","","","","","","",""
"html-keyboard-response","136","424601","0.0-10.0-0.47","61520b079436973e05f72d33","650c16f0f2faf8d7a0d14c09","651c359907678fb99f795e3f","null","null","<p style=""font-size: 60px; font-family: BACS"">TObCOTPOM</p>","","","","","","","","",""
"html-keyboard-response","137","425614","0.0-10.0-0.48","61520b079436973e05f72d33","650c16f0f2faf8d7a0d14c09","651c359907678fb99f795e3f","null","null","<p style=""font-size: 60px; font-family: BACS"">RCcEDmh</p>","","","","","","","","",""
"html-keyboard-response","138","426624","0.0-10.0-0.49","61520b079436973e05f72d33","650c16f0f2faf8d7a0d14c09","651c359907678fb99f795e3f","null","null","<p style=""font-size: 60px; font-family: BACS"">kKRCTbk</p>","","","","","","","","",""
"html-keyboard-response","139","427633","0.0-10.0-0.50","61520b079436973e05f72d33","650c16f0f2faf8d7a0d14c09","651c359907678fb99f795e3f","null","null","<p style=""font-size: 60px; font-family: BACS"">aYQmYArG</p>","","","","","","","","",""
"html-keyboard-response","140","428648","0.0-10.0-0.51","61520b079436973e05f72d33","650c16f0f2faf8d7a0d14c09","651c359907678fb99f795e3f","null","null","<p style=""font-size: 60px; font-family: BACS"">rkJuvcb</p>","","","","","","","","",""
"html-keyboard-response","141","429661","0.0-10.0-0.52","61520b079436973e05f72d33","650c16f0f2faf8d7a0d14c09","651c359907678fb99f795e3f","null","null","<p style=""font-size: 60px; font-family: BACS"">AZaJcYArG</p>","","","","","","","","",""
"html-keyboard-response","142","430672","0.0-10.0-0.53","61520b079436973e05f72d33","650c16f0f2faf8d7a0d14c09","651c359907678fb99f795e3f","null","null","<p style=""font-size: 60px; font-family: BACS"">rbYbuLcO</p>","","","","","","","","",""
"html-keyboard-response","143","431675","0.0-10.0-0.54","61520b079436973e05f72d33","650c16f0f2faf8d7a0d14c09","651c359907678fb99f795e3f","null","null","<p style=""font-size: 60px; font-family: BACS"">ubALmYArG</p>","","","","","","","","",""
"html-keyboard-response","144","432692","0.0-10.0-0.55","61520b079436973e05f72d33","650c16f0f2faf8d7a0d14c09","651c359907678fb99f795e3f","null","null","<p style=""font-size: 60px; font-family: BACS"">kKRCDmh</p>","","","","","","","","",""
"html-keyboard-response","145","433696","0.0-10.0-0.56","61520b079436973e05f72d33","650c16f0f2faf8d7a0d14c09","651c359907678fb99f795e3f","null","null","<p style=""font-size: 60px; font-family: BACS"">aYQmvcb</p>","","","","","","","","",""
"html-keyboard-response","146","434700","0.0-10.0-0.57","61520b079436973e05f72d33","650c16f0f2faf8d7a0d14c09","651c359907678fb99f795e3f","null","null","<p style=""font-size: 60px; font-family: BACS"">TObCOTbk</p>","","","","","","","","",""
"html-keyboard-response","147","435715","0.0-10.0-0.58","61520b079436973e05f72d33","650c16f0f2faf8d7a0d14c09","651c359907678fb99f795e3f","null","null","<p style=""font-size: 60px; font-family: BACS"">ubALmvcb</p>","","","","","","","","",""
"html-keyboard-response","148","436715","0.0-10.0-0.59","61520b079436973e05f72d33","650c16f0f2faf8d7a0d14c09","651c359907678fb99f795e3f","null","null","<p style=""font-size: 60px; font-family: BACS"">kcOYTbk</p>","","","","","","","","",""
"html-keyboard-response","149","437719","0.0-10.0-0.60","61520b079436973e05f72d33","650c16f0f2faf8d7a0d14c09","651c359907678fb99f795e3f","null","null","<p style=""font-size: 60px; font-family: BACS"">mrOdNUZ</p>","","","","","","","","",""
"html-keyboard-response","150","438723","0.0-10.0-0.61","61520b079436973e05f72d33","650c16f0f2faf8d7a0d14c09","651c359907678fb99f795e3f","null","null","<p style=""font-size: 60px; font-family: BACS"">DhCPdTAh</p>","","","","","","","","",""
"html-keyboard-response","151","439732","0.0-10.0-0.62","61520b079436973e05f72d33","650c16f0f2faf8d7a0d14c09","651c359907678fb99f795e3f","null","null","<p style=""font-size: 60px; font-family: BACS"">mrOdLcO</p>","","","","","","","","",""
"html-keyboard-response","152","440733","0.0-10.0-0.63","61520b079436973e05f72d33","650c16f0f2faf8d7a0d14c09","651c359907678fb99f795e3f","null","null","<p style=""font-size: 60px; font-family: BACS"">rkJuNUZ</p>","","","","","","","","",""
"html-keyboard-response","153","441734","0.0-10.0-0.64","61520b079436973e05f72d33","650c16f0f2faf8d7a0d14c09","651c359907678fb99f795e3f","null","null","<p style=""font-size: 60px; font-family: BACS"">BECkDmh</p>","","","","","","","","",""
"html-keyboard-response","154","442736","0.0-10.0-0.65","61520b079436973e05f72d33","650c16f0f2faf8d7a0d14c09","651c359907678fb99f795e3f","null","null","<p style=""font-size: 60px; font-family: BACS"">ubALmLcO</p>","","","","","","","","",""
"html-keyboard-response","155","443749","0.0-10.0-0.66","61520b079436973e05f72d33","650c16f0f2faf8d7a0d14c09","651c359907678fb99f795e3f","null","null","<p style=""font-size: 60px; font-family: BACS"">mBYlBYhT</p>","","","","","","","","",""
"html-keyboard-response","156","444759","0.0-10.0-0.67","61520b079436973e05f72d33","650c16f0f2faf8d7a0d14c09","651c359907678fb99f795e3f","null","null","<p style=""font-size: 60px; font-family: BACS"">BECkTPOM</p>","","","","","","","","",""
"html-keyboard-response","157","445766","0.0-10.0-0.68","61520b079436973e05f72d33","650c16f0f2faf8d7a0d14c09","651c359907678fb99f795e3f","null","null","<p style=""font-size: 60px; font-family: BACS"">YZJmNUZ</p>","","","","","","","","",""
"html-keyboard-response","158","446768","0.0-10.0-0.69","61520b079436973e05f72d33","650c16f0f2faf8d7a0d14c09","651c359907678fb99f795e3f","null","null","<p style=""font-size: 60px; font-family: BACS"">kcdOtdTAh</p>","","","","","","","","",""
"html-keyboard-response","159","447779","0.0-10.0-0.70","61520b079436973e05f72d33","650c16f0f2faf8d7a0d14c09","651c359907678fb99f795e3f","null","null","<p style=""font-size: 60px; font-family: BACS"">mBYlTbk</p>","","","","","","","","",""
"html-keyboard-response","160","448789","0.0-10.0-0.71","61520b079436973e05f72d33","650c16f0f2faf8d7a0d14c09","651c359907678fb99f795e3f","null","null","<p style=""font-size: 60px; font-family: BACS"">QLrOJLcO</p>","","","","","","","","",""
"html-keyboard-response","161","449800","0.0-10.0-0.72","61520b079436973e05f72d33","650c16f0f2faf8d7a0d14c09","651c359907678fb99f795e3f","null","null","<p style=""font-size: 60px; font-family: BACS"">RCcEBYhT</p>","","","","","","","","",""
"html-keyboard-response","162","450816","0.0-10.0-0.73","61520b079436973e05f72d33","650c16f0f2faf8d7a0d14c09","651c359907678fb99f795e3f","null","null","<p style=""font-size: 60px; font-family: BACS"">kcOYdTAh</p>","","","","","","","","",""
"html-keyboard-response","163","451821","0.0-10.0-0.74","61520b079436973e05f72d33","650c16f0f2faf8d7a0d14c09","651c359907678fb99f795e3f","null","null","<p style=""font-size: 60px; font-family: BACS"">GLYrALcO</p>","","","","","","","","",""
"html-keyboard-response","164","452830","0.0-10.0-0.75","61520b079436973e05f72d33","650c16f0f2faf8d7a0d14c09","651c359907678fb99f795e3f","null","null","<p style=""font-size: 60px; font-family: BACS"">mBYlDmh</p>","","","","","","","","",""
"html-keyboard-response","165","453843","0.0-10.0-0.76","61520b079436973e05f72d33","650c16f0f2faf8d7a0d14c09","651c359907678fb99f795e3f","null","null","<p style=""font-size: 60px; font-family: BACS"">GLYrAQvlZ</p>","","","","","","","","",""
"html-keyboard-response","166","454856","0.0-10.0-0.77","61520b079436973e05f72d33","650c16f0f2faf8d7a0d14c09","651c359907678fb99f795e3f","null","null","<p style=""font-size: 60px; font-family: BACS"">TObCOdTAh</p>","","","","","","","","",""
"html-keyboard-response","167","455857","0.0-10.0-0.78","61520b079436973e05f72d33","650c16f0f2faf8d7a0d14c09","651c359907678fb99f795e3f","null","null","<p style=""font-size: 60px; font-family: BACS"">mrOdYArG</p>","","","","","","","","",""
"html-keyboard-response","168","456859","0.0-10.0-0.79","61520b079436973e05f72d33","650c16f0f2faf8d7a0d14c09","651c359907678fb99f795e3f","null","null","<p style=""font-size: 60px; font-family: BACS"">QLrOJNUZ</p>","","","","","","","","",""
"html-keyboard-response","169","475860","0.0-11.0","61520b079436973e05f72d33","650c16f0f2faf8d7a0d14c09","651c359907678fb99f795e3f","19001"," ","<p>Great, you've seen the second block of words. You may now take a short break.</p>
      <p>Press the spacebar when you're ready to continue.</p>","","","","","","","","",""
"html-keyboard-response","170","476869","0.0-12.0-0.0","61520b079436973e05f72d33","650c16f0f2faf8d7a0d14c09","651c359907678fb99f795e3f","null","null","<p style=""font-size: 60px; font-family: BACS"">BECkTbk</p>","","","","","","","","",""
"html-keyboard-response","171","477876","0.0-12.0-0.1","61520b079436973e05f72d33","650c16f0f2faf8d7a0d14c09","651c359907678fb99f795e3f","null","null","<p style=""font-size: 60px; font-family: BACS"">GLYrALcO</p>","","","","","","","","",""
"html-keyboard-response","172","478889","0.0-12.0-0.2","61520b079436973e05f72d33","650c16f0f2faf8d7a0d14c09","651c359907678fb99f795e3f","null","null","<p style=""font-size: 60px; font-family: BACS"">aYQmvcb</p>","","","","","","","","",""
"html-keyboard-response","173","479892","0.0-12.0-0.3","61520b079436973e05f72d33","650c16f0f2faf8d7a0d14c09","651c359907678fb99f795e3f","null","null","<p style=""font-size: 60px; font-family: BACS"">DhCPTPOM</p>","","","","","","","","",""
"html-keyboard-response","174","480900","0.0-12.0-0.4","61520b079436973e05f72d33","650c16f0f2faf8d7a0d14c09","651c359907678fb99f795e3f","null","null","<p style=""font-size: 60px; font-family: BACS"">YZJmvcb</p>","","","","","","","","",""
"html-keyboard-response","175","481913","0.0-12.0-0.5","61520b079436973e05f72d33","650c16f0f2faf8d7a0d14c09","651c359907678fb99f795e3f","null","null","<p style=""font-size: 60px; font-family: BACS"">aYQmLcO</p>","","","","","","","","",""
"html-keyboard-response","176","482915","0.0-12.0-0.6","61520b079436973e05f72d33","650c16f0f2faf8d7a0d14c09","651c359907678fb99f795e3f","null","null","<p style=""font-size: 60px; font-family: BACS"">kKRCDmh</p>","","","","","","","","",""
"html-keyboard-response","177","483928","0.0-12.0-0.7","61520b079436973e05f72d33","650c16f0f2faf8d7a0d14c09","651c359907678fb99f795e3f","null","null","<p style=""font-size: 60px; font-family: BACS"">JAaGQvlZ</p>","","","","","","","","",""
"html-keyboard-response","178","484929","0.0-12.0-0.8","61520b079436973e05f72d33","650c16f0f2faf8d7a0d14c09","651c359907678fb99f795e3f","null","null","<p style=""font-size: 60px; font-family: BACS"">mrOdYArG</p>","","","","","","","","",""
"html-keyboard-response","179","485939","0.0-12.0-0.9","61520b079436973e05f72d33","650c16f0f2faf8d7a0d14c09","651c359907678fb99f795e3f","null","null","<p style=""font-size: 60px; font-family: BACS"">rbYbuNUZ</p>","","","","","","","","",""
"html-keyboard-response","180","486945","0.0-12.0-0.10","61520b079436973e05f72d33","650c16f0f2faf8d7a0d14c09","651c359907678fb99f795e3f","null","null","<p style=""font-size: 60px; font-family: BACS"">kKEdMBYhT</p>","","","","","","","","",""
"html-keyboard-response","181","487951","0.0-12.0-0.11","61520b079436973e05f72d33","650c16f0f2faf8d7a0d14c09","651c359907678fb99f795e3f","null","null","<p style=""font-size: 60px; font-family: BACS"">QLrOJNUZ</p>","","","","","","","","",""
"html-keyboard-response","182","488963","0.0-12.0-0.12","61520b079436973e05f72d33","650c16f0f2faf8d7a0d14c09","651c359907678fb99f795e3f","null","null","<p style=""font-size: 60px; font-family: BACS"">kcOYTbk</p>","","","","","","","","",""
"html-keyboard-response","183","489977","0.0-12.0-0.13","61520b079436973e05f72d33","650c16f0f2faf8d7a0d14c09","651c359907678fb99f795e3f","null","null","<p style=""font-size: 60px; font-family: BACS"">mrOdLcO</p>","","","","","","","","",""
"html-keyboard-response","184","490992","0.0-12.0-0.14","61520b079436973e05f72d33","650c16f0f2faf8d7a0d14c09","651c359907678fb99f795e3f","null","null","<p style=""font-size: 60px; font-family: BACS"">rbYbuQvlZ</p>","","","","","","","","",""
"html-keyboard-response","185","492001","0.0-12.0-0.15","61520b079436973e05f72d33","650c16f0f2faf8d7a0d14c09","651c359907678fb99f795e3f","null","null","<p style=""font-size: 60px; font-family: BACS"">bcORDmh</p>","","","","","","","","",""
"html-keyboard-response","186","493002","0.0-12.0-0.16","61520b079436973e05f72d33","650c16f0f2faf8d7a0d14c09","651c359907678fb99f795e3f","null","null","<p style=""font-size: 60px; font-family: BACS"">GLYrAvcb</p>","","","","","","","","",""
"html-keyboard-response","187","494014","0.0-12.0-0.17","61520b079436973e05f72d33","650c16f0f2faf8d7a0d14c09","651c359907678fb99f795e3f","null","null","<p style=""font-size: 60px; font-family: BACS"">rkJuQvlZ</p>","","","","","","","","",""
"html-keyboard-response","188","495022","0.0-12.0-0.18","61520b079436973e05f72d33","650c16f0f2faf8d7a0d14c09","651c359907678fb99f795e3f","null","null","<p style=""font-size: 60px; font-family: BACS"">DhCPDmh</p>","","","","","","","","",""
"html-keyboard-response","189","496028","0.0-12.0-0.19","61520b079436973e05f72d33","650c16f0f2faf8d7a0d14c09","651c359907678fb99f795e3f","null","null","<p style=""font-size: 60px; font-family: BACS"">BECkdTAh</p>","","","","","","","","",""
"html-keyboard-response","190","497032","0.0-12.0-0.20","61520b079436973e05f72d33","650c16f0f2faf8d7a0d14c09","651c359907678fb99f795e3f","null","null","<p style=""font-size: 60px; font-family: BACS"">TObCOBYhT</p>","","","","","","","","",""
"html-keyboard-response","191","498042","0.0-12.0-0.21","61520b079436973e05f72d33","650c16f0f2faf8d7a0d14c09","651c359907678fb99f795e3f","null","null","<p style=""font-size: 60px; font-family: BACS"">kKRCTbk</p>","","","","","","","","",""
"html-keyboard-response","192","499054","0.0-12.0-0.22","61520b079436973e05f72d33","650c16f0f2faf8d7a0d14c09","651c359907678fb99f795e3f","null","null","<p style=""font-size: 60px; font-family: BACS"">JAaGYArG</p>","","","","","","","","",""
"html-keyboard-response","193","500070","0.0-12.0-0.23","61520b079436973e05f72d33","650c16f0f2faf8d7a0d14c09","651c359907678fb99f795e3f","null","null","<p style=""font-size: 60px; font-family: BACS"">mrOdNUZ</p>","","","","","","","","",""
"html-keyboard-response","194","501082","0.0-12.0-0.24","61520b079436973e05f72d33","650c16f0f2faf8d7a0d14c09","651c359907678fb99f795e3f","null","null","<p style=""font-size: 60px; font-family: BACS"">AZaJcvcb</p>","","","","","","","","",""
"html-keyboard-response","195","502091","0.0-12.0-0.25","61520b079436973e05f72d33","650c16f0f2faf8d7a0d14c09","651c359907678fb99f795e3f","null","null","<p style=""font-size: 60px; font-family: BACS"">QLrOJQvlZ</p>","","","","","","","","",""
"html-keyboard-response","196","503094","0.0-12.0-0.26","61520b079436973e05f72d33","650c16f0f2faf8d7a0d14c09","651c359907678fb99f795e3f","null","null","<p style=""font-size: 60px; font-family: BACS"">kKRCTPOM</p>","","","","","","","","",""
"html-keyboard-response","197","504094","0.0-12.0-0.27","61520b079436973e05f72d33","650c16f0f2faf8d7a0d14c09","651c359907678fb99f795e3f","null","null","<p style=""font-size: 60px; font-family: BACS"">GLYrAYArG</p>","","","","","","","","",""
"html-keyboard-response","198","505108","0.0-12.0-0.28","61520b079436973e05f72d33","650c16f0f2faf8d7a0d14c09","651c359907678fb99f795e3f","null","null","<p style=""font-size: 60px; font-family: BACS"">bcORTPOM</p>","","","","","","","","",""
"html-keyboard-response","199","506120","0.0-12.0-0.29","61520b079436973e05f72d33","650c16f0f2faf8d7a0d14c09","651c359907678fb99f795e3f","null","null","<p style=""font-size: 60px; font-family: BACS"">JAaGNUZ</p>","","","","","","","","",""
"html-keyboard-response","200","507121","0.0-12.0-0.30","61520b079436973e05f72d33","650c16f0f2faf8d7a0d14c09","651c359907678fb99f795e3f","null","null","<p style=""font-size: 60px; font-family: BACS"">AZaJcQvlZ</p>","","","","","","","","",""
"html-keyboard-response","201","508134","0.0-12.0-0.31","61520b079436973e05f72d33","650c16f0f2faf8d7a0d14c09","651c359907678fb99f795e3f","null","null","<p style=""font-size: 60px; font-family: BACS"">rkJuNUZ</p>","","","","","","","","",""
"html-keyboard-response","202","509150","0.0-12.0-0.32","61520b079436973e05f72d33","650c16f0f2faf8d7a0d14c09","651c359907678fb99f795e3f","null","null","<p style=""font-size: 60px; font-family: BACS"">kKEdMTbk</p>","","","","","","","","",""
"html-keyboard-response","203","510151","0.0-12.0-0.33","61520b079436973e05f72d33","650c16f0f2faf8d7a0d14c09","651c359907678fb99f795e3f","null","null","<p style=""font-size: 60px; font-family: BACS"">kcOYdTAh</p>","","","","","","","","",""
"html-keyboard-response","204","511163","0.0-12.0-0.34","61520b079436973e05f72d33","650c16f0f2faf8d7a0d14c09","651c359907678fb99f795e3f","null","null","<p style=""font-size: 60px; font-family: BACS"">RCcEDmh</p>","","","","","","","","",""
"html-keyboard-response","205","512171","0.0-12.0-0.35","61520b079436973e05f72d33","650c16f0f2faf8d7a0d14c09","651c359907678fb99f795e3f","null","null","<p style=""font-size: 60px; font-family: BACS"">TObCOdTAh</p>","","","","","","","","",""
"html-keyboard-response","206","513183","0.0-12.0-0.36","61520b079436973e05f72d33","650c16f0f2faf8d7a0d14c09","651c359907678fb99f795e3f","null","null","<p style=""font-size: 60px; font-family: BACS"">BECkDmh</p>","","","","","","","","",""
"html-keyboard-response","207","514184","0.0-12.0-0.37","61520b079436973e05f72d33","650c16f0f2faf8d7a0d14c09","651c359907678fb99f795e3f","null","null","<p style=""font-size: 60px; font-family: BACS"">rkJuYArG</p>","","","","","","","","",""
"html-keyboard-response","208","515194","0.0-12.0-0.38","61520b079436973e05f72d33","650c16f0f2faf8d7a0d14c09","651c359907678fb99f795e3f","null","null","<p style=""font-size: 60px; font-family: BACS"">rbYbuLcO</p>","","","","","","","","",""
"html-keyboard-response","209","516194","0.0-12.0-0.39","61520b079436973e05f72d33","650c16f0f2faf8d7a0d14c09","651c359907678fb99f795e3f","null","null","<p style=""font-size: 60px; font-family: BACS"">kKEdMDmh</p>","","","","","","","","",""
"html-keyboard-response","210","517208","0.0-12.0-0.40","61520b079436973e05f72d33","650c16f0f2faf8d7a0d14c09","651c359907678fb99f795e3f","null","null","<p style=""font-size: 60px; font-family: BACS"">kcOYBYhT</p>","","","","","","","","",""
"html-keyboard-response","211","518223","0.0-12.0-0.41","61520b079436973e05f72d33","650c16f0f2faf8d7a0d14c09","651c359907678fb99f795e3f","null","null","<p style=""font-size: 60px; font-family: BACS"">AZaJcYArG</p>","","","","","","","","",""
"html-keyboard-response","212","519226","0.0-12.0-0.42","61520b079436973e05f72d33","650c16f0f2faf8d7a0d14c09","651c359907678fb99f795e3f","null","null","<p style=""font-size: 60px; font-family: BACS"">JAaGLcO</p>","","","","","","","","",""
"html-keyboard-response","213","520233","0.0-12.0-0.43","61520b079436973e05f72d33","650c16f0f2faf8d7a0d14c09","651c359907678fb99f795e3f","null","null","<p style=""font-size: 60px; font-family: BACS"">RCcETPOM</p>","","","","","","","","",""
"html-keyboard-response","214","521238","0.0-12.0-0.44","61520b079436973e05f72d33","650c16f0f2faf8d7a0d14c09","651c359907678fb99f795e3f","null","null","<p style=""font-size: 60px; font-family: BACS"">aYQmQvlZ</p>","","","","","","","","",""
"html-keyboard-response","215","522247","0.0-12.0-0.45","61520b079436973e05f72d33","650c16f0f2faf8d7a0d14c09","651c359907678fb99f795e3f","null","null","<p style=""font-size: 60px; font-family: BACS"">mBYlBYhT</p>","","","","","","","","",""
"html-keyboard-response","216","523249","0.0-12.0-0.46","61520b079436973e05f72d33","650c16f0f2faf8d7a0d14c09","651c359907678fb99f795e3f","null","null","<p style=""font-size: 60px; font-family: BACS"">GLYrAQvlZ</p>","","","","","","","","",""
"html-keyboard-response","217","524264","0.0-12.0-0.47","61520b079436973e05f72d33","650c16f0f2faf8d7a0d14c09","651c359907678fb99f795e3f","null","null","<p style=""font-size: 60px; font-family: BACS"">ubALmNUZ</p>","","","","","","","","",""
"html-keyboard-response","218","525272","0.0-12.0-0.48","61520b079436973e05f72d33","650c16f0f2faf8d7a0d14c09","651c359907678fb99f795e3f","null","null","<p style=""font-size: 60px; font-family: BACS"">QLrOJLcO</p>","","","","","","","","",""
"html-keyboard-response","219","526276","0.0-12.0-0.49","61520b079436973e05f72d33","650c16f0f2faf8d7a0d14c09","651c359907678fb99f795e3f","null","null","<p style=""font-size: 60px; font-family: BACS"">YZJmQvlZ</p>","","","","","","","","",""
"html-keyboard-response","220","527278","0.0-12.0-0.50","61520b079436973e05f72d33","650c16f0f2faf8d7a0d14c09","651c359907678fb99f795e3f","null","null","<p style=""font-size: 60px; font-family: BACS"">mrOdvcb</p>","","","","","","","","",""
"html-keyboard-response","221","528287","0.0-12.0-0.51","61520b079436973e05f72d33","650c16f0f2faf8d7a0d14c09","651c359907678fb99f795e3f","null","null","<p style=""font-size: 60px; font-family: BACS"">kKEdMTPOM</p>","","","","","","","","",""
"html-keyboard-response","222","529293","0.0-12.0-0.52","61520b079436973e05f72d33","650c16f0f2faf8d7a0d14c09","651c359907678fb99f795e3f","null","null","<p style=""font-size: 60px; font-family: BACS"">ubALmLcO</p>","","","","","","","","",""
"html-keyboard-response","223","530308","0.0-12.0-0.53","61520b079436973e05f72d33","650c16f0f2faf8d7a0d14c09","651c359907678fb99f795e3f","null","null","<p style=""font-size: 60px; font-family: BACS"">bcORBYhT</p>","","","","","","","","",""
"html-keyboard-response","224","531321","0.0-12.0-0.54","61520b079436973e05f72d33","650c16f0f2faf8d7a0d14c09","651c359907678fb99f795e3f","null","null","<p style=""font-size: 60px; font-family: BACS"">kcdOtdTAh</p>","","","","","","","","",""
"html-keyboard-response","225","532331","0.0-12.0-0.55","61520b079436973e05f72d33","650c16f0f2faf8d7a0d14c09","651c359907678fb99f795e3f","null","null","<p style=""font-size: 60px; font-family: BACS"">mBYlTbk</p>","","","","","","","","",""
"html-keyboard-response","226","533341","0.0-12.0-0.56","61520b079436973e05f72d33","650c16f0f2faf8d7a0d14c09","651c359907678fb99f795e3f","null","null","<p style=""font-size: 60px; font-family: BACS"">QLrOJvcb</p>","","","","","","","","",""
"html-keyboard-response","227","534345","0.0-12.0-0.57","61520b079436973e05f72d33","650c16f0f2faf8d7a0d14c09","651c359907678fb99f795e3f","null","null","<p style=""font-size: 60px; font-family: BACS"">TObCOTbk</p>","","","","","","","","",""
"html-keyboard-response","228","535346","0.0-12.0-0.58","61520b079436973e05f72d33","650c16f0f2faf8d7a0d14c09","651c359907678fb99f795e3f","null","null","<p style=""font-size: 60px; font-family: BACS"">RCcEdTAh</p>","","","","","","","","",""
"html-keyboard-response","229","536351","0.0-12.0-0.59","61520b079436973e05f72d33","650c16f0f2faf8d7a0d14c09","651c359907678fb99f795e3f","null","null","<p style=""font-size: 60px; font-family: BACS"">DhCPBYhT</p>","","","","","","","","",""
"html-keyboard-response","230","537352","0.0-12.0-0.60","61520b079436973e05f72d33","650c16f0f2faf8d7a0d14c09","651c359907678fb99f795e3f","null","null","<p style=""font-size: 60px; font-family: BACS"">ubALmYArG</p>","","","","","","","","",""
"html-keyboard-response","231","538352","0.0-12.0-0.61","61520b079436973e05f72d33","650c16f0f2faf8d7a0d14c09","651c359907678fb99f795e3f","null","null","<p style=""font-size: 60px; font-family: BACS"">bcORTbk</p>","","","","","","","","",""
"html-keyboard-response","232","539366","0.0-12.0-0.62","61520b079436973e05f72d33","650c16f0f2faf8d7a0d14c09","651c359907678fb99f795e3f","null","null","<p style=""font-size: 60px; font-family: BACS"">YZJmLcO</p>","","","","","","","","",""
"html-keyboard-response","233","540379","0.0-12.0-0.63","61520b079436973e05f72d33","650c16f0f2faf8d7a0d14c09","651c359907678fb99f795e3f","null","null","<p style=""font-size: 60px; font-family: BACS"">mBYldTAh</p>","","","","","","","","",""
"html-keyboard-response","234","541380","0.0-12.0-0.64","61520b079436973e05f72d33","650c16f0f2faf8d7a0d14c09","651c359907678fb99f795e3f","null","null","<p style=""font-size: 60px; font-family: BACS"">AZaJcNUZ</p>","","","","","","","","",""
"html-keyboard-response","235","542385","0.0-12.0-0.65","61520b079436973e05f72d33","650c16f0f2faf8d7a0d14c09","651c359907678fb99f795e3f","null","null","<p style=""font-size: 60px; font-family: BACS"">kKRCdTAh</p>","","","","","","","","",""
"html-keyboard-response","236","543401","0.0-12.0-0.66","61520b079436973e05f72d33","650c16f0f2faf8d7a0d14c09","651c359907678fb99f795e3f","null","null","<p style=""font-size: 60px; font-family: BACS"">kcOYTPOM</p>","","","","","","","","",""
"html-keyboard-response","237","544405","0.0-12.0-0.67","61520b079436973e05f72d33","650c16f0f2faf8d7a0d14c09","651c359907678fb99f795e3f","null","null","<p style=""font-size: 60px; font-family: BACS"">ubALmvcb</p>","","","","","","","","",""
"html-keyboard-response","238","545406","0.0-12.0-0.68","61520b079436973e05f72d33","650c16f0f2faf8d7a0d14c09","651c359907678fb99f795e3f","null","null","<p style=""font-size: 60px; font-family: BACS"">YZJmNUZ</p>","","","","","","","","",""
"html-keyboard-response","239","546410","0.0-12.0-0.69","61520b079436973e05f72d33","650c16f0f2faf8d7a0d14c09","651c359907678fb99f795e3f","null","null","<p style=""font-size: 60px; font-family: BACS"">RCcEBYhT</p>","","","","","","","","",""
"html-keyboard-response","240","547425","0.0-12.0-0.70","61520b079436973e05f72d33","650c16f0f2faf8d7a0d14c09","651c359907678fb99f795e3f","null","null","<p style=""font-size: 60px; font-family: BACS"">aYQmYArG</p>","","","","","","","","",""
"html-keyboard-response","241","548440","0.0-12.0-0.71","61520b079436973e05f72d33","650c16f0f2faf8d7a0d14c09","651c359907678fb99f795e3f","null","null","<p style=""font-size: 60px; font-family: BACS"">mBYlDmh</p>","","","","","","","","",""
"html-keyboard-response","242","549442","0.0-12.0-0.72","61520b079436973e05f72d33","650c16f0f2faf8d7a0d14c09","651c359907678fb99f795e3f","null","null","<p style=""font-size: 60px; font-family: BACS"">BECkTPOM</p>","","","","","","","","",""
"html-keyboard-response","243","550457","0.0-12.0-0.73","61520b079436973e05f72d33","650c16f0f2faf8d7a0d14c09","651c359907678fb99f795e3f","null","null","<p style=""font-size: 60px; font-family: BACS"">DhCPdTAh</p>","","","","","","","","",""
"html-keyboard-response","244","551472","0.0-12.0-0.74","61520b079436973e05f72d33","650c16f0f2faf8d7a0d14c09","651c359907678fb99f795e3f","null","null","<p style=""font-size: 60px; font-family: BACS"">kcdOtBYhT</p>","","","","","","","","",""
"html-keyboard-response","245","552488","0.0-12.0-0.75","61520b079436973e05f72d33","650c16f0f2faf8d7a0d14c09","651c359907678fb99f795e3f","null","null","<p style=""font-size: 60px; font-family: BACS"">rkJuvcb</p>","","","","","","","","",""
"html-keyboard-response","246","553501","0.0-12.0-0.76","61520b079436973e05f72d33","650c16f0f2faf8d7a0d14c09","651c359907678fb99f795e3f","null","null","<p style=""font-size: 60px; font-family: BACS"">kcdOtDmh</p>","","","","","","","","",""
"html-keyboard-response","247","554513","0.0-12.0-0.77","61520b079436973e05f72d33","650c16f0f2faf8d7a0d14c09","651c359907678fb99f795e3f","null","null","<p style=""font-size: 60px; font-family: BACS"">TObCOTPOM</p>","","","","","","","","",""
"html-keyboard-response","248","555516","0.0-12.0-0.78","61520b079436973e05f72d33","650c16f0f2faf8d7a0d14c09","651c359907678fb99f795e3f","null","null","<p style=""font-size: 60px; font-family: BACS"">rbYbuYArG</p>","","","","","","","","",""
"html-keyboard-response","249","556520","0.0-12.0-0.79","61520b079436973e05f72d33","650c16f0f2faf8d7a0d14c09","651c359907678fb99f795e3f","null","null","<p style=""font-size: 60px; font-family: BACS"">kcdOtTbk</p>","","","","","","","","",""
"html-keyboard-response","250","565388","0.0-13.0","61520b079436973e05f72d33","650c16f0f2faf8d7a0d14c09","651c359907678fb99f795e3f","8868"," ","<p>Great, you've seen the third block of words. You may now take a short break.</p>
      <p>Press the spacebar when you're ready to continue.</p>","","","","","","","","",""
"html-keyboard-response","251","566399","0.0-14.0-0.0","61520b079436973e05f72d33","650c16f0f2faf8d7a0d14c09","651c359907678fb99f795e3f","null","null","<p style=""font-size: 60px; font-family: BACS"">kKEdMDmh</p>","","","","","","","","",""
"html-keyboard-response","252","567403","0.0-14.0-0.1","61520b079436973e05f72d33","650c16f0f2faf8d7a0d14c09","651c359907678fb99f795e3f","null","null","<p style=""font-size: 60px; font-family: BACS"">rkJuNUZ</p>","","","","","","","","",""
"html-keyboard-response","253","568404","0.0-14.0-0.2","61520b079436973e05f72d33","650c16f0f2faf8d7a0d14c09","651c359907678fb99f795e3f","null","null","<p style=""font-size: 60px; font-family: BACS"">JAaGYArG</p>","","","","","","","","",""
"html-keyboard-response","254","569415","0.0-14.0-0.3","61520b079436973e05f72d33","650c16f0f2faf8d7a0d14c09","651c359907678fb99f795e3f","null","null","<p style=""font-size: 60px; font-family: BACS"">kKRCDmh</p>","","","","","","","","",""
"html-keyboard-response","255","570419","0.0-14.0-0.4","61520b079436973e05f72d33","650c16f0f2faf8d7a0d14c09","651c359907678fb99f795e3f","null","null","<p style=""font-size: 60px; font-family: BACS"">AZaJcNUZ</p>","","","","","","","","",""
"html-keyboard-response","256","571432","0.0-14.0-0.5","61520b079436973e05f72d33","650c16f0f2faf8d7a0d14c09","651c359907678fb99f795e3f","null","null","<p style=""font-size: 60px; font-family: BACS"">ubALmYArG</p>","","","","","","","","",""
"html-keyboard-response","257","572447","0.0-14.0-0.6","61520b079436973e05f72d33","650c16f0f2faf8d7a0d14c09","651c359907678fb99f795e3f","null","null","<p style=""font-size: 60px; font-family: BACS"">kKRCTbk</p>","","","","","","","","",""
"html-keyboard-response","258","573449","0.0-14.0-0.7","61520b079436973e05f72d33","650c16f0f2faf8d7a0d14c09","651c359907678fb99f795e3f","null","null","<p style=""font-size: 60px; font-family: BACS"">ubALmvcb</p>","","","","","","","","",""
"html-keyboard-response","259","574462","0.0-14.0-0.8","61520b079436973e05f72d33","650c16f0f2faf8d7a0d14c09","651c359907678fb99f795e3f","null","null","<p style=""font-size: 60px; font-family: BACS"">BECkDmh</p>","","","","","","","","",""
"html-keyboard-response","260","575467","0.0-14.0-0.9","61520b079436973e05f72d33","650c16f0f2faf8d7a0d14c09","651c359907678fb99f795e3f","null","null","<p style=""font-size: 60px; font-family: BACS"">aYQmLcO</p>","","","","","","","","",""
"html-keyboard-response","261","576472","0.0-14.0-0.10","61520b079436973e05f72d33","650c16f0f2faf8d7a0d14c09","651c359907678fb99f795e3f","null","null","<p style=""font-size: 60px; font-family: BACS"">AZaJcYArG</p>","","","","","","","","",""
"html-keyboard-response","262","577480","0.0-14.0-0.11","61520b079436973e05f72d33","650c16f0f2faf8d7a0d14c09","651c359907678fb99f795e3f","null","null","<p style=""font-size: 60px; font-family: BACS"">kcdOtTbk</p>","","","","","","","","",""
"html-keyboard-response","263","578489","0.0-14.0-0.12","61520b079436973e05f72d33","650c16f0f2faf8d7a0d14c09","651c359907678fb99f795e3f","null","null","<p style=""font-size: 60px; font-family: BACS"">QLrOJLcO</p>","","","","","","","","",""
"html-keyboard-response","264","579495","0.0-14.0-0.13","61520b079436973e05f72d33","650c16f0f2faf8d7a0d14c09","651c359907678fb99f795e3f","null","null","<p style=""font-size: 60px; font-family: BACS"">YZJmNUZ</p>","","","","","","","","",""
"html-keyboard-response","265","580500","0.0-14.0-0.14","61520b079436973e05f72d33","650c16f0f2faf8d7a0d14c09","651c359907678fb99f795e3f","null","null","<p style=""font-size: 60px; font-family: BACS"">rkJuYArG</p>","","","","","","","","",""
"html-keyboard-response","266","581513","0.0-14.0-0.15","61520b079436973e05f72d33","650c16f0f2faf8d7a0d14c09","651c359907678fb99f795e3f","null","null","<p style=""font-size: 60px; font-family: BACS"">kcdOtDmh</p>","","","","","","","","",""
"html-keyboard-response","267","582527","0.0-14.0-0.16","61520b079436973e05f72d33","650c16f0f2faf8d7a0d14c09","651c359907678fb99f795e3f","null","null","<p style=""font-size: 60px; font-family: BACS"">mrOdLcO</p>","","","","","","","","",""
"html-keyboard-response","268","583541","0.0-14.0-0.17","61520b079436973e05f72d33","650c16f0f2faf8d7a0d14c09","651c359907678fb99f795e3f","null","null","<p style=""font-size: 60px; font-family: BACS"">kcOYBYhT</p>","","","","","","","","",""
"html-keyboard-response","269","584551","0.0-14.0-0.18","61520b079436973e05f72d33","650c16f0f2faf8d7a0d14c09","651c359907678fb99f795e3f","null","null","<p style=""font-size: 60px; font-family: BACS"">AZaJcQvlZ</p>","","","","","","","","",""
"html-keyboard-response","270","585565","0.0-14.0-0.19","61520b079436973e05f72d33","650c16f0f2faf8d7a0d14c09","651c359907678fb99f795e3f","null","null","<p style=""font-size: 60px; font-family: BACS"">TObCOBYhT</p>","","","","","","","","",""
"html-keyboard-response","271","586569","0.0-14.0-0.20","61520b079436973e05f72d33","650c16f0f2faf8d7a0d14c09","651c359907678fb99f795e3f","null","null","<p style=""font-size: 60px; font-family: BACS"">rbYbuYArG</p>","","","","","","","","",""
"html-keyboard-response","272","587573","0.0-14.0-0.21","61520b079436973e05f72d33","650c16f0f2faf8d7a0d14c09","651c359907678fb99f795e3f","null","null","<p style=""font-size: 60px; font-family: BACS"">aYQmvcb</p>","","","","","","","","",""
"html-keyboard-response","273","588575","0.0-14.0-0.22","61520b079436973e05f72d33","650c16f0f2faf8d7a0d14c09","651c359907678fb99f795e3f","null","null","<p style=""font-size: 60px; font-family: BACS"">mBYldTAh</p>","","","","","","","","",""
"html-keyboard-response","274","589589","0.0-14.0-0.23","61520b079436973e05f72d33","650c16f0f2faf8d7a0d14c09","651c359907678fb99f795e3f","null","null","<p style=""font-size: 60px; font-family: BACS"">kKEdMTbk</p>","","","","","","","","",""
"html-keyboard-response","275","590600","0.0-14.0-0.24","61520b079436973e05f72d33","650c16f0f2faf8d7a0d14c09","651c359907678fb99f795e3f","null","null","<p style=""font-size: 60px; font-family: BACS"">RCcEBYhT</p>","","","","","","","","",""
"html-keyboard-response","276","591615","0.0-14.0-0.25","61520b079436973e05f72d33","650c16f0f2faf8d7a0d14c09","651c359907678fb99f795e3f","null","null","<p style=""font-size: 60px; font-family: BACS"">BECkTPOM</p>","","","","","","","","",""
"html-keyboard-response","277","592628","0.0-14.0-0.26","61520b079436973e05f72d33","650c16f0f2faf8d7a0d14c09","651c359907678fb99f795e3f","null","null","<p style=""font-size: 60px; font-family: BACS"">DhCPDmh</p>","","","","","","","","",""
"html-keyboard-response","278","593628","0.0-14.0-0.27","61520b079436973e05f72d33","650c16f0f2faf8d7a0d14c09","651c359907678fb99f795e3f","null","null","<p style=""font-size: 60px; font-family: BACS"">aYQmQvlZ</p>","","","","","","","","",""
"html-keyboard-response","279","594634","0.0-14.0-0.28","61520b079436973e05f72d33","650c16f0f2faf8d7a0d14c09","651c359907678fb99f795e3f","null","null","<p style=""font-size: 60px; font-family: BACS"">mBYlTbk</p>","","","","","","","","",""
"html-keyboard-response","280","595643","0.0-14.0-0.29","61520b079436973e05f72d33","650c16f0f2faf8d7a0d14c09","651c359907678fb99f795e3f","null","null","<p style=""font-size: 60px; font-family: BACS"">kKEdMTPOM</p>","","","","","","","","",""
"html-keyboard-response","281","596645","0.0-14.0-0.30","61520b079436973e05f72d33","650c16f0f2faf8d7a0d14c09","651c359907678fb99f795e3f","null","null","<p style=""font-size: 60px; font-family: BACS"">GLYrALcO</p>","","","","","","","","",""
"html-keyboard-response","282","597655","0.0-14.0-0.31","61520b079436973e05f72d33","650c16f0f2faf8d7a0d14c09","651c359907678fb99f795e3f","null","null","<p style=""font-size: 60px; font-family: BACS"">BECkTbk</p>","","","","","","","","",""
"html-keyboard-response","283","598658","0.0-14.0-0.32","61520b079436973e05f72d33","650c16f0f2faf8d7a0d14c09","651c359907678fb99f795e3f","null","null","<p style=""font-size: 60px; font-family: BACS"">bcORBYhT</p>","","","","","","","","",""
"html-keyboard-response","284","599664","0.0-14.0-0.33","61520b079436973e05f72d33","650c16f0f2faf8d7a0d14c09","651c359907678fb99f795e3f","null","null","<p style=""font-size: 60px; font-family: BACS"">YZJmLcO</p>","","","","","","","","",""
"html-keyboard-response","285","600671","0.0-14.0-0.34","61520b079436973e05f72d33","650c16f0f2faf8d7a0d14c09","651c359907678fb99f795e3f","null","null","<p style=""font-size: 60px; font-family: BACS"">bcORTbk</p>","","","","","","","","",""
"html-keyboard-response","286","601679","0.0-14.0-0.35","61520b079436973e05f72d33","650c16f0f2faf8d7a0d14c09","651c359907678fb99f795e3f","null","null","<p style=""font-size: 60px; font-family: BACS"">kKRCdTAh</p>","","","","","","","","",""
"html-keyboard-response","287","602686","0.0-14.0-0.36","61520b079436973e05f72d33","650c16f0f2faf8d7a0d14c09","651c359907678fb99f795e3f","null","null","<p style=""font-size: 60px; font-family: BACS"">kcOYTbk</p>","","","","","","","","",""
"html-keyboard-response","288","603696","0.0-14.0-0.37","61520b079436973e05f72d33","650c16f0f2faf8d7a0d14c09","651c359907678fb99f795e3f","null","null","<p style=""font-size: 60px; font-family: BACS"">kKRCTPOM</p>","","","","","","","","",""
"html-keyboard-response","289","604707","0.0-14.0-0.38","61520b079436973e05f72d33","650c16f0f2faf8d7a0d14c09","651c359907678fb99f795e3f","null","null","<p style=""font-size: 60px; font-family: BACS"">GLYrAQvlZ</p>","","","","","","","","",""
"html-keyboard-response","290","605711","0.0-14.0-0.39","61520b079436973e05f72d33","650c16f0f2faf8d7a0d14c09","651c359907678fb99f795e3f","null","null","<p style=""font-size: 60px; font-family: BACS"">DhCPTPOM</p>","","","","","","","","",""
"html-keyboard-response","291","606713","0.0-14.0-0.40","61520b079436973e05f72d33","650c16f0f2faf8d7a0d14c09","651c359907678fb99f795e3f","null","null","<p style=""font-size: 60px; font-family: BACS"">QLrOJNUZ</p>","","","","","","","","",""
"html-keyboard-response","292","607726","0.0-14.0-0.41","61520b079436973e05f72d33","650c16f0f2faf8d7a0d14c09","651c359907678fb99f795e3f","null","null","<p style=""font-size: 60px; font-family: BACS"">RCcEdTAh</p>","","","","","","","","",""
"html-keyboard-response","293","608741","0.0-14.0-0.42","61520b079436973e05f72d33","650c16f0f2faf8d7a0d14c09","651c359907678fb99f795e3f","null","null","<p style=""font-size: 60px; font-family: BACS"">ubALmLcO</p>","","","","","","","","",""
"html-keyboard-response","294","609743","0.0-14.0-0.43","61520b079436973e05f72d33","650c16f0f2faf8d7a0d14c09","651c359907678fb99f795e3f","null","null","<p style=""font-size: 60px; font-family: BACS"">aYQmYArG</p>","","","","","","","","",""
"html-keyboard-response","295","610757","0.0-14.0-0.44","61520b079436973e05f72d33","650c16f0f2faf8d7a0d14c09","651c359907678fb99f795e3f","null","null","<p style=""font-size: 60px; font-family: BACS"">DhCPBYhT</p>","","","","","","","","",""
"html-keyboard-response","296","611763","0.0-14.0-0.45","61520b079436973e05f72d33","650c16f0f2faf8d7a0d14c09","651c359907678fb99f795e3f","null","null","<p style=""font-size: 60px; font-family: BACS"">JAaGQvlZ</p>","","","","","","","","",""
"html-keyboard-response","297","612771","0.0-14.0-0.46","61520b079436973e05f72d33","650c16f0f2faf8d7a0d14c09","651c359907678fb99f795e3f","null","null","<p style=""font-size: 60px; font-family: BACS"">rbYbuNUZ</p>","","","","","","","","",""
"html-keyboard-response","298","613776","0.0-14.0-0.47","61520b079436973e05f72d33","650c16f0f2faf8d7a0d14c09","651c359907678fb99f795e3f","null","null","<p style=""font-size: 60px; font-family: BACS"">mrOdvcb</p>","","","","","","","","",""
"html-keyboard-response","299","614780","0.0-14.0-0.48","61520b079436973e05f72d33","650c16f0f2faf8d7a0d14c09","651c359907678fb99f795e3f","null","null","<p style=""font-size: 60px; font-family: BACS"">RCcETPOM</p>","","","","","","","","",""
"html-keyboard-response","300","615796","0.0-14.0-0.49","61520b079436973e05f72d33","650c16f0f2faf8d7a0d14c09","651c359907678fb99f795e3f","null","null","<p style=""font-size: 60px; font-family: BACS"">TObCOTbk</p>","","","","","","","","",""
"html-keyboard-response","301","616805","0.0-14.0-0.50","61520b079436973e05f72d33","650c16f0f2faf8d7a0d14c09","651c359907678fb99f795e3f","null","null","<p style=""font-size: 60px; font-family: BACS"">GLYrAvcb</p>","","","","","","","","",""
"html-keyboard-response","302","617814","0.0-14.0-0.51","61520b079436973e05f72d33","650c16f0f2faf8d7a0d14c09","651c359907678fb99f795e3f","null","null","<p style=""font-size: 60px; font-family: BACS"">DhCPdTAh</p>","","","","","","","","",""
"html-keyboard-response","303","618821","0.0-14.0-0.52","61520b079436973e05f72d33","650c16f0f2faf8d7a0d14c09","651c359907678fb99f795e3f","null","null","<p style=""font-size: 60px; font-family: BACS"">GLYrAYArG</p>","","","","","","","","",""
"html-keyboard-response","304","619824","0.0-14.0-0.53","61520b079436973e05f72d33","650c16f0f2faf8d7a0d14c09","651c359907678fb99f795e3f","null","null","<p style=""font-size: 60px; font-family: BACS"">QLrOJvcb</p>","","","","","","","","",""
"html-keyboard-response","305","620835","0.0-14.0-0.54","61520b079436973e05f72d33","650c16f0f2faf8d7a0d14c09","651c359907678fb99f795e3f","null","null","<p style=""font-size: 60px; font-family: BACS"">mBYlBYhT</p>","","","","","","","","",""
"html-keyboard-response","306","621845","0.0-14.0-0.55","61520b079436973e05f72d33","650c16f0f2faf8d7a0d14c09","651c359907678fb99f795e3f","null","null","<p style=""font-size: 60px; font-family: BACS"">mrOdNUZ</p>","","","","","","","","",""
"html-keyboard-response","307","622848","0.0-14.0-0.56","61520b079436973e05f72d33","650c16f0f2faf8d7a0d14c09","651c359907678fb99f795e3f","null","null","<p style=""font-size: 60px; font-family: BACS"">rkJuQvlZ</p>","","","","","","","","",""
"html-keyboard-response","308","623863","0.0-14.0-0.57","61520b079436973e05f72d33","650c16f0f2faf8d7a0d14c09","651c359907678fb99f795e3f","null","null","<p style=""font-size: 60px; font-family: BACS"">JAaGLcO</p>","","","","","","","","",""
"html-keyboard-response","309","624875","0.0-14.0-0.58","61520b079436973e05f72d33","650c16f0f2faf8d7a0d14c09","651c359907678fb99f795e3f","null","null","<p style=""font-size: 60px; font-family: BACS"">TObCOTPOM</p>","","","","","","","","",""
"html-keyboard-response","310","625880","0.0-14.0-0.59","61520b079436973e05f72d33","650c16f0f2faf8d7a0d14c09","651c359907678fb99f795e3f","null","null","<p style=""font-size: 60px; font-family: BACS"">QLrOJQvlZ</p>","","","","","","","","",""
"html-keyboard-response","311","626886","0.0-14.0-0.60","61520b079436973e05f72d33","650c16f0f2faf8d7a0d14c09","651c359907678fb99f795e3f","null","null","<p style=""font-size: 60px; font-family: BACS"">AZaJcvcb</p>","","","","","","","","",""
"html-keyboard-response","312","627893","0.0-14.0-0.61","61520b079436973e05f72d33","650c16f0f2faf8d7a0d14c09","651c359907678fb99f795e3f","null","null","<p style=""font-size: 60px; font-family: BACS"">kcOYdTAh</p>","","","","","","","","",""
"html-keyboard-response","313","628902","0.0-14.0-0.62","61520b079436973e05f72d33","650c16f0f2faf8d7a0d14c09","651c359907678fb99f795e3f","null","null","<p style=""font-size: 60px; font-family: BACS"">rkJuvcb</p>","","","","","","","","",""
"html-keyboard-response","314","629909","0.0-14.0-0.63","61520b079436973e05f72d33","650c16f0f2faf8d7a0d14c09","651c359907678fb99f795e3f","null","null","<p style=""font-size: 60px; font-family: BACS"">RCcEDmh</p>","","","","","","","","",""
"html-keyboard-response","315","630917","0.0-14.0-0.64","61520b079436973e05f72d33","650c16f0f2faf8d7a0d14c09","651c359907678fb99f795e3f","null","null","<p style=""font-size: 60px; font-family: BACS"">kcOYTPOM</p>","","","","","","","","",""
"html-keyboard-response","316","631929","0.0-14.0-0.65","61520b079436973e05f72d33","650c16f0f2faf8d7a0d14c09","651c359907678fb99f795e3f","null","null","<p style=""font-size: 60px; font-family: BACS"">JAaGNUZ</p>","","","","","","","","",""
"html-keyboard-response","317","632930","0.0-14.0-0.66","61520b079436973e05f72d33","650c16f0f2faf8d7a0d14c09","651c359907678fb99f795e3f","null","null","<p style=""font-size: 60px; font-family: BACS"">kcdOtdTAh</p>","","","","","","","","",""
"html-keyboard-response","318","633942","0.0-14.0-0.67","61520b079436973e05f72d33","650c16f0f2faf8d7a0d14c09","651c359907678fb99f795e3f","null","null","<p style=""font-size: 60px; font-family: BACS"">rbYbuQvlZ</p>","","","","","","","","",""
"html-keyboard-response","319","634943","0.0-14.0-0.68","61520b079436973e05f72d33","650c16f0f2faf8d7a0d14c09","651c359907678fb99f795e3f","null","null","<p style=""font-size: 60px; font-family: BACS"">YZJmvcb</p>","","","","","","","","",""
"html-keyboard-response","320","635957","0.0-14.0-0.69","61520b079436973e05f72d33","650c16f0f2faf8d7a0d14c09","651c359907678fb99f795e3f","null","null","<p style=""font-size: 60px; font-family: BACS"">TObCOdTAh</p>","","","","","","","","",""
"html-keyboard-response","321","636958","0.0-14.0-0.70","61520b079436973e05f72d33","650c16f0f2faf8d7a0d14c09","651c359907678fb99f795e3f","null","null","<p style=""font-size: 60px; font-family: BACS"">ubALmNUZ</p>","","","","","","","","",""
"html-keyboard-response","322","637969","0.0-14.0-0.71","61520b079436973e05f72d33","650c16f0f2faf8d7a0d14c09","651c359907678fb99f795e3f","null","null","<p style=""font-size: 60px; font-family: BACS"">kKEdMBYhT</p>","","","","","","","","",""
"html-keyboard-response","323","638985","0.0-14.0-0.72","61520b079436973e05f72d33","650c16f0f2faf8d7a0d14c09","651c359907678fb99f795e3f","null","null","<p style=""font-size: 60px; font-family: BACS"">bcORDmh</p>","","","","","","","","",""
"html-keyboard-response","324","639993","0.0-14.0-0.73","61520b079436973e05f72d33","650c16f0f2faf8d7a0d14c09","651c359907678fb99f795e3f","null","null","<p style=""font-size: 60px; font-family: BACS"">rbYbuLcO</p>","","","","","","","","",""
"html-keyboard-response","325","640994","0.0-14.0-0.74","61520b079436973e05f72d33","650c16f0f2faf8d7a0d14c09","651c359907678fb99f795e3f","null","null","<p style=""font-size: 60px; font-family: BACS"">bcORTPOM</p>","","","","","","","","",""
"html-keyboard-response","326","642008","0.0-14.0-0.75","61520b079436973e05f72d33","650c16f0f2faf8d7a0d14c09","651c359907678fb99f795e3f","null","null","<p style=""font-size: 60px; font-family: BACS"">mBYlDmh</p>","","","","","","","","",""
"html-keyboard-response","327","643015","0.0-14.0-0.76","61520b079436973e05f72d33","650c16f0f2faf8d7a0d14c09","651c359907678fb99f795e3f","null","null","<p style=""font-size: 60px; font-family: BACS"">mrOdYArG</p>","","","","","","","","",""
"html-keyboard-response","328","644017","0.0-14.0-0.77","61520b079436973e05f72d33","650c16f0f2faf8d7a0d14c09","651c359907678fb99f795e3f","null","null","<p style=""font-size: 60px; font-family: BACS"">kcdOtBYhT</p>","","","","","","","","",""
"html-keyboard-response","329","645022","0.0-14.0-0.78","61520b079436973e05f72d33","650c16f0f2faf8d7a0d14c09","651c359907678fb99f795e3f","null","null","<p style=""font-size: 60px; font-family: BACS"">BECkdTAh</p>","","","","","","","","",""
"html-keyboard-response","330","646036","0.0-14.0-0.79","61520b079436973e05f72d33","650c16f0f2faf8d7a0d14c09","651c359907678fb99f795e3f","null","null","<p style=""font-size: 60px; font-family: BACS"">YZJmQvlZ</p>","","","","","","","","",""
"html-keyboard-response","331","658847","0.0-15.0","61520b079436973e05f72d33","650c16f0f2faf8d7a0d14c09","651c359907678fb99f795e3f","12810"," ","<p>Great, you've seen the fourth block of words. You may now take a short break.</p>
      <p>Press the spacebar when you're ready to continue.</p>","","","","","","","","",""
"html-keyboard-response","332","659849","0.0-16.0-0.0","61520b079436973e05f72d33","650c16f0f2faf8d7a0d14c09","651c359907678fb99f795e3f","null","null","<p style=""font-size: 60px; font-family: BACS"">JAaGQvlZ</p>","","","","","","","","",""
"html-keyboard-response","333","660853","0.0-16.0-0.1","61520b079436973e05f72d33","650c16f0f2faf8d7a0d14c09","651c359907678fb99f795e3f","null","null","<p style=""font-size: 60px; font-family: BACS"">JAaGQvlZ</p>","","","","","","","","",""
"html-keyboard-response","334","661853","0.0-16.0-0.2","61520b079436973e05f72d33","650c16f0f2faf8d7a0d14c09","651c359907678fb99f795e3f","null","null","<p style=""font-size: 60px; font-family: BACS"">JAaGQvlZ</p>","","","","","","","","",""
"html-keyboard-response","335","662869","0.0-16.0-0.3","61520b079436973e05f72d33","650c16f0f2faf8d7a0d14c09","651c359907678fb99f795e3f","null","null","<p style=""font-size: 60px; font-family: BACS"">JAaGQvlZ</p>","","","","","","","","",""
"html-keyboard-response","336","663871","0.0-16.0-0.4","61520b079436973e05f72d33","650c16f0f2faf8d7a0d14c09","651c359907678fb99f795e3f","null","null","<p style=""font-size: 60px; font-family: BACS"">JAaGQvlZ</p>","","","","","","","","",""
"html-keyboard-response","337","664875","0.0-16.0-0.5","61520b079436973e05f72d33","650c16f0f2faf8d7a0d14c09","651c359907678fb99f795e3f","null","null","<p style=""font-size: 60px; font-family: BACS"">JAaGQvlZ</p>","","","","","","","","",""
"html-keyboard-response","338","665881","0.0-16.0-0.6","61520b079436973e05f72d33","650c16f0f2faf8d7a0d14c09","651c359907678fb99f795e3f","null","null","<p style=""font-size: 60px; font-family: BACS"">JAaGQvlZ</p>","","","","","","","","",""
"html-keyboard-response","339","666892","0.0-16.0-0.7","61520b079436973e05f72d33","650c16f0f2faf8d7a0d14c09","651c359907678fb99f795e3f","null","null","<p style=""font-size: 60px; font-family: BACS"">JAaGQvlZ</p>","","","","","","","","",""
"html-keyboard-response","340","667895","0.0-16.0-0.8","61520b079436973e05f72d33","650c16f0f2faf8d7a0d14c09","651c359907678fb99f795e3f","null","null","<p style=""font-size: 60px; font-family: BACS"">JAaGQvlZ</p>","","","","","","","","",""
"html-keyboard-response","341","668904","0.0-16.0-0.9","61520b079436973e05f72d33","650c16f0f2faf8d7a0d14c09","651c359907678fb99f795e3f","null","null","<p style=""font-size: 60px; font-family: BACS"">JAaGQvlZ</p>","","","","","","","","",""
"html-keyboard-response","342","669909","0.0-16.0-0.10","61520b079436973e05f72d33","650c16f0f2faf8d7a0d14c09","651c359907678fb99f795e3f","null","null","<p style=""font-size: 60px; font-family: BACS"">JAaGQvlZ</p>","","","","","","","","",""
"html-keyboard-response","343","670911","0.0-16.0-0.11","61520b079436973e05f72d33","650c16f0f2faf8d7a0d14c09","651c359907678fb99f795e3f","null","null","<p style=""font-size: 60px; font-family: BACS"">JAaGQvlZ</p>","","","","","","","","",""
"html-keyboard-response","344","671914","0.0-16.0-0.12","61520b079436973e05f72d33","650c16f0f2faf8d7a0d14c09","651c359907678fb99f795e3f","null","null","<p style=""font-size: 60px; font-family: BACS"">JAaGQvlZ</p>","","","","","","","","",""
"html-keyboard-response","345","672922","0.0-16.0-0.13","61520b079436973e05f72d33","650c16f0f2faf8d7a0d14c09","651c359907678fb99f795e3f","null","null","<p style=""font-size: 60px; font-family: BACS"">JAaGQvlZ</p>","","","","","","","","",""
"html-keyboard-response","346","673934","0.0-16.0-0.14","61520b079436973e05f72d33","650c16f0f2faf8d7a0d14c09","651c359907678fb99f795e3f","null","null","<p style=""font-size: 60px; font-family: BACS"">JAaGQvlZ</p>","","","","","","","","",""
"html-keyboard-response","347","674944","0.0-16.0-0.15","61520b079436973e05f72d33","650c16f0f2faf8d7a0d14c09","651c359907678fb99f795e3f","null","null","<p style=""font-size: 60px; font-family: BACS"">JAaGQvlZ</p>","","","","","","","","",""
"html-keyboard-response","348","675951","0.0-16.0-0.16","61520b079436973e05f72d33","650c16f0f2faf8d7a0d14c09","651c359907678fb99f795e3f","null","null","<p style=""font-size: 60px; font-family: BACS"">JAaGQvlZ</p>","","","","","","","","",""
"html-keyboard-response","349","676952","0.0-16.0-0.17","61520b079436973e05f72d33","650c16f0f2faf8d7a0d14c09","651c359907678fb99f795e3f","null","null","<p style=""font-size: 60px; font-family: BACS"">JAaGQvlZ</p>","","","","","","","","",""
"html-keyboard-response","350","677952","0.0-16.0-0.18","61520b079436973e05f72d33","650c16f0f2faf8d7a0d14c09","651c359907678fb99f795e3f","null","null","<p style=""font-size: 60px; font-family: BACS"">JAaGQvlZ</p>","","","","","","","","",""
"html-keyboard-response","351","678953","0.0-16.0-0.19","61520b079436973e05f72d33","650c16f0f2faf8d7a0d14c09","651c359907678fb99f795e3f","null","null","<p style=""font-size: 60px; font-family: BACS"">JAaGQvlZ</p>","","","","","","","","",""
"html-keyboard-response","352","679965","0.0-16.0-0.20","61520b079436973e05f72d33","650c16f0f2faf8d7a0d14c09","651c359907678fb99f795e3f","null","null","<p style=""font-size: 60px; font-family: BACS"">JAaGQvlZ</p>","","","","","","","","",""
"html-keyboard-response","353","680968","0.0-16.0-0.21","61520b079436973e05f72d33","650c16f0f2faf8d7a0d14c09","651c359907678fb99f795e3f","null","null","<p style=""font-size: 60px; font-family: BACS"">JAaGQvlZ</p>","","","","","","","","",""
"html-keyboard-response","354","681983","0.0-16.0-0.22","61520b079436973e05f72d33","650c16f0f2faf8d7a0d14c09","651c359907678fb99f795e3f","null","null","<p style=""font-size: 60px; font-family: BACS"">JAaGQvlZ</p>","","","","","","","","",""
"html-keyboard-response","355","682984","0.0-16.0-0.23","61520b079436973e05f72d33","650c16f0f2faf8d7a0d14c09","651c359907678fb99f795e3f","null","null","<p style=""font-size: 60px; font-family: BACS"">JAaGQvlZ</p>","","","","","","","","",""
"html-keyboard-response","356","683999","0.0-16.0-0.24","61520b079436973e05f72d33","650c16f0f2faf8d7a0d14c09","651c359907678fb99f795e3f","null","null","<p style=""font-size: 60px; font-family: BACS"">JAaGQvlZ</p>","","","","","","","","",""
"html-keyboard-response","357","685002","0.0-16.0-0.25","61520b079436973e05f72d33","650c16f0f2faf8d7a0d14c09","651c359907678fb99f795e3f","null","null","<p style=""font-size: 60px; font-family: BACS"">JAaGQvlZ</p>","","","","","","","","",""
"html-keyboard-response","358","686003","0.0-16.0-0.26","61520b079436973e05f72d33","650c16f0f2faf8d7a0d14c09","651c359907678fb99f795e3f","null","null","<p style=""font-size: 60px; font-family: BACS"">JAaGQvlZ</p>","","","","","","","","",""
"html-keyboard-response","359","687014","0.0-16.0-0.27","61520b079436973e05f72d33","650c16f0f2faf8d7a0d14c09","651c359907678fb99f795e3f","null","null","<p style=""font-size: 60px; font-family: BACS"">JAaGQvlZ</p>","","","","","","","","",""
"html-keyboard-response","360","688028","0.0-16.0-0.28","61520b079436973e05f72d33","650c16f0f2faf8d7a0d14c09","651c359907678fb99f795e3f","null","null","<p style=""font-size: 60px; font-family: BACS"">JAaGQvlZ</p>","","","","","","","","",""
"html-keyboard-response","361","689031","0.0-16.0-0.29","61520b079436973e05f72d33","650c16f0f2faf8d7a0d14c09","651c359907678fb99f795e3f","null","null","<p style=""font-size: 60px; font-family: BACS"">JAaGQvlZ</p>","","","","","","","","",""
"html-keyboard-response","362","690034","0.0-16.0-0.30","61520b079436973e05f72d33","650c16f0f2faf8d7a0d14c09","651c359907678fb99f795e3f","null","null","<p style=""font-size: 60px; font-family: BACS"">JAaGQvlZ</p>","","","","","","","","",""
"html-keyboard-response","363","691048","0.0-16.0-0.31","61520b079436973e05f72d33","650c16f0f2faf8d7a0d14c09","651c359907678fb99f795e3f","null","null","<p style=""font-size: 60px; font-family: BACS"">JAaGQvlZ</p>","","","","","","","","",""
"html-keyboard-response","364","692049","0.0-16.0-0.32","61520b079436973e05f72d33","650c16f0f2faf8d7a0d14c09","651c359907678fb99f795e3f","null","null","<p style=""font-size: 60px; font-family: BACS"">JAaGQvlZ</p>","","","","","","","","",""
"html-keyboard-response","365","693055","0.0-16.0-0.33","61520b079436973e05f72d33","650c16f0f2faf8d7a0d14c09","651c359907678fb99f795e3f","null","null","<p style=""font-size: 60px; font-family: BACS"">JAaGQvlZ</p>","","","","","","","","",""
"html-keyboard-response","366","694063","0.0-16.0-0.34","61520b079436973e05f72d33","650c16f0f2faf8d7a0d14c09","651c359907678fb99f795e3f","null","null","<p style=""font-size: 60px; font-family: BACS"">JAaGQvlZ</p>","","","","","","","","",""
"html-keyboard-response","367","695065","0.0-16.0-0.35","61520b079436973e05f72d33","650c16f0f2faf8d7a0d14c09","651c359907678fb99f795e3f","null","null","<p style=""font-size: 60px; font-family: BACS"">JAaGQvlZ</p>","","","","","","","","",""
"html-keyboard-response","368","696071","0.0-16.0-0.36","61520b079436973e05f72d33","650c16f0f2faf8d7a0d14c09","651c359907678fb99f795e3f","null","null","<p style=""font-size: 60px; font-family: BACS"">JAaGQvlZ</p>","","","","","","","","",""
"html-keyboard-response","369","697077","0.0-16.0-0.37","61520b079436973e05f72d33","650c16f0f2faf8d7a0d14c09","651c359907678fb99f795e3f","null","null","<p style=""font-size: 60px; font-family: BACS"">JAaGQvlZ</p>","","","","","","","","",""
"html-keyboard-response","370","698092","0.0-16.0-0.38","61520b079436973e05f72d33","650c16f0f2faf8d7a0d14c09","651c359907678fb99f795e3f","null","null","<p style=""font-size: 60px; font-family: BACS"">JAaGQvlZ</p>","","","","","","","","",""
"html-keyboard-response","371","699107","0.0-16.0-0.39","61520b079436973e05f72d33","650c16f0f2faf8d7a0d14c09","651c359907678fb99f795e3f","null","null","<p style=""font-size: 60px; font-family: BACS"">JAaGQvlZ</p>","","","","","","","","",""
"html-keyboard-response","372","700108","0.0-16.0-0.40","61520b079436973e05f72d33","650c16f0f2faf8d7a0d14c09","651c359907678fb99f795e3f","null","null","<p style=""font-size: 60px; font-family: BACS"">JAaGQvlZ</p>","","","","","","","","",""
"html-keyboard-response","373","701123","0.0-16.0-0.41","61520b079436973e05f72d33","650c16f0f2faf8d7a0d14c09","651c359907678fb99f795e3f","null","null","<p style=""font-size: 60px; font-family: BACS"">JAaGQvlZ</p>","","","","","","","","",""
"html-keyboard-response","374","702125","0.0-16.0-0.42","61520b079436973e05f72d33","650c16f0f2faf8d7a0d14c09","651c359907678fb99f795e3f","null","null","<p style=""font-size: 60px; font-family: BACS"">JAaGQvlZ</p>","","","","","","","","",""
"html-keyboard-response","375","703129","0.0-16.0-0.43","61520b079436973e05f72d33","650c16f0f2faf8d7a0d14c09","651c359907678fb99f795e3f","null","null","<p style=""font-size: 60px; font-family: BACS"">JAaGQvlZ</p>","","","","","","","","",""
"html-keyboard-response","376","704131","0.0-16.0-0.44","61520b079436973e05f72d33","650c16f0f2faf8d7a0d14c09","651c359907678fb99f795e3f","null","null","<p style=""font-size: 60px; font-family: BACS"">JAaGQvlZ</p>","","","","","","","","",""
"html-keyboard-response","377","705145","0.0-16.0-0.45","61520b079436973e05f72d33","650c16f0f2faf8d7a0d14c09","651c359907678fb99f795e3f","null","null","<p style=""font-size: 60px; font-family: BACS"">JAaGQvlZ</p>","","","","","","","","",""
"html-keyboard-response","378","706151","0.0-16.0-0.46","61520b079436973e05f72d33","650c16f0f2faf8d7a0d14c09","651c359907678fb99f795e3f","null","null","<p style=""font-size: 60px; font-family: BACS"">JAaGQvlZ</p>","","","","","","","","",""
"html-keyboard-response","379","707158","0.0-16.0-0.47","61520b079436973e05f72d33","650c16f0f2faf8d7a0d14c09","651c359907678fb99f795e3f","null","null","<p style=""font-size: 60px; font-family: BACS"">JAaGQvlZ</p>","","","","","","","","",""
"html-keyboard-response","380","708167","0.0-16.0-0.48","61520b079436973e05f72d33","650c16f0f2faf8d7a0d14c09","651c359907678fb99f795e3f","null","null","<p style=""font-size: 60px; font-family: BACS"">JAaGQvlZ</p>","","","","","","","","",""
"html-keyboard-response","381","709168","0.0-16.0-0.49","61520b079436973e05f72d33","650c16f0f2faf8d7a0d14c09","651c359907678fb99f795e3f","null","null","<p style=""font-size: 60px; font-family: BACS"">JAaGQvlZ</p>","","","","","","","","",""
"html-keyboard-response","382","710182","0.0-16.0-0.50","61520b079436973e05f72d33","650c16f0f2faf8d7a0d14c09","651c359907678fb99f795e3f","null","null","<p style=""font-size: 60px; font-family: BACS"">JAaGQvlZ</p>","","","","","","","","",""
"html-keyboard-response","383","711189","0.0-16.0-0.51","61520b079436973e05f72d33","650c16f0f2faf8d7a0d14c09","651c359907678fb99f795e3f","null","null","<p style=""font-size: 60px; font-family: BACS"">JAaGQvlZ</p>","","","","","","","","",""
"html-keyboard-response","384","712197","0.0-16.0-0.52","61520b079436973e05f72d33","650c16f0f2faf8d7a0d14c09","651c359907678fb99f795e3f","null","null","<p style=""font-size: 60px; font-family: BACS"">JAaGQvlZ</p>","","","","","","","","",""
"html-keyboard-response","385","713205","0.0-16.0-0.53","61520b079436973e05f72d33","650c16f0f2faf8d7a0d14c09","651c359907678fb99f795e3f","null","null","<p style=""font-size: 60px; font-family: BACS"">JAaGQvlZ</p>","","","","","","","","",""
"html-keyboard-response","386","714211","0.0-16.0-0.54","61520b079436973e05f72d33","650c16f0f2faf8d7a0d14c09","651c359907678fb99f795e3f","null","null","<p style=""font-size: 60px; font-family: BACS"">JAaGQvlZ</p>","","","","","","","","",""
"html-keyboard-response","387","715219","0.0-16.0-0.55","61520b079436973e05f72d33","650c16f0f2faf8d7a0d14c09","651c359907678fb99f795e3f","null","null","<p style=""font-size: 60px; font-family: BACS"">JAaGQvlZ</p>","","","","","","","","",""
"html-keyboard-response","388","716233","0.0-16.0-0.56","61520b079436973e05f72d33","650c16f0f2faf8d7a0d14c09","651c359907678fb99f795e3f","null","null","<p style=""font-size: 60px; font-family: BACS"">JAaGQvlZ</p>","","","","","","","","",""
"html-keyboard-response","389","717242","0.0-16.0-0.57","61520b079436973e05f72d33","650c16f0f2faf8d7a0d14c09","651c359907678fb99f795e3f","null","null","<p style=""font-size: 60px; font-family: BACS"">JAaGQvlZ</p>","","","","","","","","",""
"html-keyboard-response","390","718243","0.0-16.0-0.58","61520b079436973e05f72d33","650c16f0f2faf8d7a0d14c09","651c359907678fb99f795e3f","null","null","<p style=""font-size: 60px; font-family: BACS"">JAaGQvlZ</p>","","","","","","","","",""
"html-keyboard-response","391","719251","0.0-16.0-0.59","61520b079436973e05f72d33","650c16f0f2faf8d7a0d14c09","651c359907678fb99f795e3f","null","null","<p style=""font-size: 60px; font-family: BACS"">JAaGQvlZ</p>","","","","","","","","",""
"html-keyboard-response","392","720259","0.0-16.0-0.60","61520b079436973e05f72d33","650c16f0f2faf8d7a0d14c09","651c359907678fb99f795e3f","null","null","<p style=""font-size: 60px; font-family: BACS"">JAaGQvlZ</p>","","","","","","","","",""
"html-keyboard-response","393","721270","0.0-16.0-0.61","61520b079436973e05f72d33","650c16f0f2faf8d7a0d14c09","651c359907678fb99f795e3f","null","null","<p style=""font-size: 60px; font-family: BACS"">JAaGQvlZ</p>","","","","","","","","",""
"html-keyboard-response","394","722277","0.0-16.0-0.62","61520b079436973e05f72d33","650c16f0f2faf8d7a0d14c09","651c359907678fb99f795e3f","null","null","<p style=""font-size: 60px; font-family: BACS"">JAaGQvlZ</p>","","","","","","","","",""
"html-keyboard-response","395","723281","0.0-16.0-0.63","61520b079436973e05f72d33","650c16f0f2faf8d7a0d14c09","651c359907678fb99f795e3f","null","null","<p style=""font-size: 60px; font-family: BACS"">JAaGQvlZ</p>","","","","","","","","",""
"html-keyboard-response","396","724282","0.0-16.0-0.64","61520b079436973e05f72d33","650c16f0f2faf8d7a0d14c09","651c359907678fb99f795e3f","null","null","<p style=""font-size: 60px; font-family: BACS"">JAaGQvlZ</p>","","","","","","","","",""
"html-keyboard-response","397","725290","0.0-16.0-0.65","61520b079436973e05f72d33","650c16f0f2faf8d7a0d14c09","651c359907678fb99f795e3f","null","null","<p style=""font-size: 60px; font-family: BACS"">JAaGQvlZ</p>","","","","","","","","",""
"html-keyboard-response","398","726292","0.0-16.0-0.66","61520b079436973e05f72d33","650c16f0f2faf8d7a0d14c09","651c359907678fb99f795e3f","null","null","<p style=""font-size: 60px; font-family: BACS"">JAaGQvlZ</p>","","","","","","","","",""
