"trial_type","trial_index","time_elapsed","internal_node_id","subject_id","study_id","session_id","rt","response","stimulus","success","item","task","correct_response","testing_condition","correct","target","confound","name"
"pavlovia","0","1930","0.0-0.0","61143bd22a1649da3b52ae32","650c16f0f2faf8d7a0d14c09","651d21f6376e523635797796","","","","","","","","","","","",""
"survey-html-form","1","56915","0.0-1.0","61143bd22a1649da3b52ae32","650c16f0f2faf8d7a0d14c09","651d21f6376e523635797796","54982","{""ID"":""61143bd22a1649da3b52ae32""}","","","","","","","","","",""
"html-keyboard-response","2","287462","0.0-2.0","61143bd22a1649da3b52ae32","650c16f0f2faf8d7a0d14c09","651d21f6376e523635797796","230544"," ","<p style=""font-size: 15px;"">Before beginning, we ask that you read the consent information and confirm your agreement to participate in the experiment.</p>
      <p style=""font-size: 15px;""> We ask that you remember that this is a research project and that your participation is entirely voluntary. You can stop your participation at any time, without needing to provide any explanation. The study we're asking you to participate in aims at examining how readers process written words. You will be engaged in a session of apprximately 20 minutes, followed by a brief questionnaire. You will have the opportunity to take a few breaks during the experiment. You will be paid £4 for your participation, corresponding to a rate of £8/hour. While this experiment looks at cognitive faculties, this experiment doesn't constitute clinical proof of eventual pathologies.</p>
      <p style=""font-size: 15px;"">All of the information collected thanks to yours and others' participation will be held in a secure password-protected server, and will not be shared with anyone not authorised to view it. Your personal information will be kept with an arbitrary participant ID. Thanks to this data anonymity process, any researcher analysing the data won't be able to track the information back to a specific participant. Therefore, this process will make identifying you impossibile, even when results from the study will be published in scientific reviews, presented at congresses, or at any other public forum. More generally, the collected data will be treated in accordance with the laws on privacy and conformity to the Legislative Degree n. 196 ""Code regarding the protection of personal data"" of the 30th of June 2003 and to the European Regulation 2016/670 (General Data Protection Regulation - GDPR). The Data Protection Officer is Avv. Valentina Carollo, who can be contacted at the following email addresses: <a href=""mailto:dpo@sissa.it"">dpo@sissa.it</a> or <a href=""mailto:rpd@sissa.it"">rpd@sissa.it</a> - PEC: <a href=""mailto:protocollo@pec.sissa.it"">protocollo@pec.sissa.it</a>.</p>
      <p style=""font-size: 15px;""> Before expressing your consent to participate, we would like to remind you again that in case you need explanations on any aspect of the experimental procedure, the researcher is at your disposition (<a href=""mailto:aliebelt@sissa.it"">aliebelt@sissa.it</a>, <a href=""mailto:davide.crepaldi@sissa.it"">davide.crepaldi@sissa.it</a>).</p>
      <p style=""font-size: 15px;"">If you would like to download the informed consent form, you can do so here: <a href=""BASL-Informed_Consent.pdf"" download>informed consent form</a>.</p>
      <p style=""font-size: 15px;"">We ask that you press the spacebar to proceed to the consent section.</p>","","","","","","","","",""
"survey-html-form","3","315897","0.0-3.0","61143bd22a1649da3b52ae32","650c16f0f2faf8d7a0d14c09","651d21f6376e523635797796","28434","{""consent1"":""YES"",""consent2"":""YES"",""consent3"":""YES"",""consent4"":""YES"",""consent5"":""YES"",""consent6"":""YES""}","","","","","","","","","",""
"fullscreen","4","319695","0.0-4.0","61143bd22a1649da3b52ae32","650c16f0f2faf8d7a0d14c09","651d21f6376e523635797796","","","","true","","","","","","","",""
"html-keyboard-response","5","352362","0.0-5.0","61143bd22a1649da3b52ae32","650c16f0f2faf8d7a0d14c09","651d21f6376e523635797796","32666"," ","<p>Welcome, and thank you very much for your time!</p>
      <p>In this experiment, you'll be a language expert who's been asked to take a look at words that Earth has received in its first communication with aliens. Your task, in this first part of the experiment, is to pay close attention to the words you'll be shown; later, world leaders will ask you questions on what you saw. The words will be shown to you quite quickly; it seems that the aliens were in a hurry :-)</p>
      <p>Press the spacebar to continue.<p>","","","","","","","","",""
"html-keyboard-response","6","352414","0.0-6.0","61143bd22a1649da3b52ae32","650c16f0f2faf8d7a0d14c09","651d21f6376e523635797796","null","null","<p style=""font-size: 120px; font-family: BACS""> </p>","","","","","","","","",""
"html-keyboard-response","7","364628","0.0-7.0","61143bd22a1649da3b52ae32","650c16f0f2faf8d7a0d14c09","651d21f6376e523635797796","12214"," ","<p>Here is an example of the words you'll see:</p>
      <img src='esempio.png' height='400px'>
      <p>When you're ready to begin, press the spacebar.</p></div>","","","","","","","","",""
"html-keyboard-response","8","365642","0.0-8.0-0.0","61143bd22a1649da3b52ae32","650c16f0f2faf8d7a0d14c09","651d21f6376e523635797796","null","null","<p style=""font-size: 60px; font-family: BACS"">DdckYDE</p>","","","","","","","","",""
"html-keyboard-response","9","366646","0.0-8.0-0.1","61143bd22a1649da3b52ae32","650c16f0f2faf8d7a0d14c09","651d21f6376e523635797796","null","null","<p style=""font-size: 60px; font-family: BACS"">tRPDAdYl</p>","","","","","","","","",""
"html-keyboard-response","10","367655","0.0-8.0-0.2","61143bd22a1649da3b52ae32","650c16f0f2faf8d7a0d14c09","651d21f6376e523635797796","null","null","<p style=""font-size: 60px; font-family: BACS"">udkmAvdk</p>","","","","","","","","",""
"html-keyboard-response","11","368660","0.0-8.0-0.3","61143bd22a1649da3b52ae32","650c16f0f2faf8d7a0d14c09","651d21f6376e523635797796","null","null","<p style=""font-size: 60px; font-family: BACS"">QbkAcNac</p>","","","","","","","","",""
"html-keyboard-response","12","369675","0.0-8.0-0.4","61143bd22a1649da3b52ae32","650c16f0f2faf8d7a0d14c09","651d21f6376e523635797796","null","null","<p style=""font-size: 60px; font-family: BACS"">DBklEcR</p>","","","","","","","","",""
"html-keyboard-response","13","370689","0.0-8.0-0.5","61143bd22a1649da3b52ae32","650c16f0f2faf8d7a0d14c09","651d21f6376e523635797796","null","null","<p style=""font-size: 60px; font-family: BACS"">kZUbNac</p>","","","","","","","","",""
"html-keyboard-response","14","371699","0.0-8.0-0.6","61143bd22a1649da3b52ae32","650c16f0f2faf8d7a0d14c09","651d21f6376e523635797796","null","null","<p style=""font-size: 60px; font-family: BACS"">OMlTYDE</p>","","","","","","","","",""
"html-keyboard-response","15","372709","0.0-8.0-0.7","61143bd22a1649da3b52ae32","650c16f0f2faf8d7a0d14c09","651d21f6376e523635797796","null","null","<p style=""font-size: 60px; font-family: BACS"">DcPTcEcR</p>","","","","","","","","",""
"html-keyboard-response","16","373715","0.0-8.0-0.8","61143bd22a1649da3b52ae32","650c16f0f2faf8d7a0d14c09","651d21f6376e523635797796","null","null","<p style=""font-size: 60px; font-family: BACS"">lBKtdBC</p>","","","","","","","","",""
"html-keyboard-response","17","374726","0.0-8.0-0.9","61143bd22a1649da3b52ae32","650c16f0f2faf8d7a0d14c09","651d21f6376e523635797796","null","null","<p style=""font-size: 60px; font-family: BACS"">tRPDhRKm</p>","","","","","","","","",""
"html-keyboard-response","18","375735","0.0-8.0-0.10","61143bd22a1649da3b52ae32","650c16f0f2faf8d7a0d14c09","651d21f6376e523635797796","null","null","<p style=""font-size: 60px; font-family: BACS"">DdckEcR</p>","","","","","","","","",""
"html-keyboard-response","19","376743","0.0-8.0-0.11","61143bd22a1649da3b52ae32","650c16f0f2faf8d7a0d14c09","651d21f6376e523635797796","null","null","<p style=""font-size: 60px; font-family: BACS"">udkmrAm</p>","","","","","","","","",""
"html-keyboard-response","20","377746","0.0-8.0-0.12","61143bd22a1649da3b52ae32","650c16f0f2faf8d7a0d14c09","651d21f6376e523635797796","null","null","<p style=""font-size: 60px; font-family: BACS"">bYuQAvdk</p>","","","","","","","","",""
"html-keyboard-response","21","378756","0.0-8.0-0.13","61143bd22a1649da3b52ae32","650c16f0f2faf8d7a0d14c09","651d21f6376e523635797796","null","null","<p style=""font-size: 60px; font-family: BACS"">udkmuda</p>","","","","","","","","",""
"html-keyboard-response","22","379772","0.0-8.0-0.14","61143bd22a1649da3b52ae32","650c16f0f2faf8d7a0d14c09","651d21f6376e523635797796","null","null","<p style=""font-size: 60px; font-family: BACS"">kZUbrGl</p>","","","","","","","","",""
"html-keyboard-response","23","380776","0.0-8.0-0.15","61143bd22a1649da3b52ae32","650c16f0f2faf8d7a0d14c09","651d21f6376e523635797796","null","null","<p style=""font-size: 60px; font-family: BACS"">adYrcNac</p>","","","","","","","","",""
"html-keyboard-response","24","381779","0.0-8.0-0.16","61143bd22a1649da3b52ae32","650c16f0f2faf8d7a0d14c09","651d21f6376e523635797796","null","null","<p style=""font-size: 60px; font-family: BACS"">lBKtAdYl</p>","","","","","","","","",""
"html-keyboard-response","25","382780","0.0-8.0-0.17","61143bd22a1649da3b52ae32","650c16f0f2faf8d7a0d14c09","651d21f6376e523635797796","null","null","<p style=""font-size: 60px; font-family: BACS"">hYDmthRKm</p>","","","","","","","","",""
"html-keyboard-response","26","383793","0.0-8.0-0.18","61143bd22a1649da3b52ae32","650c16f0f2faf8d7a0d14c09","651d21f6376e523635797796","null","null","<p style=""font-size: 60px; font-family: BACS"">DcPTcdBC</p>","","","","","","","","",""
"html-keyboard-response","27","384795","0.0-8.0-0.19","61143bd22a1649da3b52ae32","650c16f0f2faf8d7a0d14c09","651d21f6376e523635797796","null","null","<p style=""font-size: 60px; font-family: BACS"">QbkAcAvdk</p>","","","","","","","","",""
"html-keyboard-response","28","385808","0.0-8.0-0.20","61143bd22a1649da3b52ae32","650c16f0f2faf8d7a0d14c09","651d21f6376e523635797796","null","null","<p style=""font-size: 60px; font-family: BACS"">YdudrAm</p>","","","","","","","","",""
"html-keyboard-response","29","386809","0.0-8.0-0.21","61143bd22a1649da3b52ae32","650c16f0f2faf8d7a0d14c09","651d21f6376e523635797796","null","null","<p style=""font-size: 60px; font-family: BACS"">YcdOAvdk</p>","","","","","","","","",""
"html-keyboard-response","30","387812","0.0-8.0-0.22","61143bd22a1649da3b52ae32","650c16f0f2faf8d7a0d14c09","651d21f6376e523635797796","null","null","<p style=""font-size: 60px; font-family: BACS"">lCbcmAdYl</p>","","","","","","","","",""
"html-keyboard-response","31","388818","0.0-8.0-0.23","61143bd22a1649da3b52ae32","650c16f0f2faf8d7a0d14c09","651d21f6376e523635797796","null","null","<p style=""font-size: 60px; font-family: BACS"">NaAQdAvdk</p>","","","","","","","","",""
"html-keyboard-response","32","389825","0.0-8.0-0.24","61143bd22a1649da3b52ae32","650c16f0f2faf8d7a0d14c09","651d21f6376e523635797796","null","null","<p style=""font-size: 60px; font-family: BACS"">bYuQNac</p>","","","","","","","","",""
"html-keyboard-response","33","390841","0.0-8.0-0.25","61143bd22a1649da3b52ae32","650c16f0f2faf8d7a0d14c09","651d21f6376e523635797796","null","null","<p style=""font-size: 60px; font-family: BACS"">DhMtEcR</p>","","","","","","","","",""
"html-keyboard-response","34","391856","0.0-8.0-0.26","61143bd22a1649da3b52ae32","650c16f0f2faf8d7a0d14c09","651d21f6376e523635797796","null","null","<p style=""font-size: 60px; font-family: BACS"">DBkldBC</p>","","","","","","","","",""
"html-keyboard-response","35","392870","0.0-8.0-0.27","61143bd22a1649da3b52ae32","650c16f0f2faf8d7a0d14c09","651d21f6376e523635797796","null","null","<p style=""font-size: 60px; font-family: BACS"">DhMtYDE</p>","","","","","","","","",""
"html-keyboard-response","36","393874","0.0-8.0-0.28","61143bd22a1649da3b52ae32","650c16f0f2faf8d7a0d14c09","651d21f6376e523635797796","null","null","<p style=""font-size: 60px; font-family: BACS"">adYrcrGl</p>","","","","","","","","",""
"html-keyboard-response","37","394877","0.0-8.0-0.29","61143bd22a1649da3b52ae32","650c16f0f2faf8d7a0d14c09","651d21f6376e523635797796","null","null","<p style=""font-size: 60px; font-family: BACS"">alJYNac</p>","","","","","","","","",""
"html-keyboard-response","38","395886","0.0-8.0-0.30","61143bd22a1649da3b52ae32","650c16f0f2faf8d7a0d14c09","651d21f6376e523635797796","null","null","<p style=""font-size: 60px; font-family: BACS"">kZUbrAm</p>","","","","","","","","",""
"html-keyboard-response","39","396892","0.0-8.0-0.31","61143bd22a1649da3b52ae32","650c16f0f2faf8d7a0d14c09","651d21f6376e523635797796","null","null","<p style=""font-size: 60px; font-family: BACS"">Ydududa</p>","","","","","","","","",""
"html-keyboard-response","40","397907","0.0-8.0-0.32","61143bd22a1649da3b52ae32","650c16f0f2faf8d7a0d14c09","651d21f6376e523635797796","null","null","<p style=""font-size: 60px; font-family: BACS"">adYrcrAm</p>","","","","","","","","",""
"html-keyboard-response","41","398918","0.0-8.0-0.33","61143bd22a1649da3b52ae32","650c16f0f2faf8d7a0d14c09","651d21f6376e523635797796","null","null","<p style=""font-size: 60px; font-family: BACS"">OMlThRKm</p>","","","","","","","","",""
"html-keyboard-response","42","399920","0.0-8.0-0.34","61143bd22a1649da3b52ae32","650c16f0f2faf8d7a0d14c09","651d21f6376e523635797796","null","null","<p style=""font-size: 60px; font-family: BACS"">YdudNac</p>","","","","","","","","",""
"html-keyboard-response","43","400923","0.0-8.0-0.35","61143bd22a1649da3b52ae32","650c16f0f2faf8d7a0d14c09","651d21f6376e523635797796","null","null","<p style=""font-size: 60px; font-family: BACS"">alJYrGl</p>","","","","","","","","",""
"html-keyboard-response","44","401930","0.0-8.0-0.36","61143bd22a1649da3b52ae32","650c16f0f2faf8d7a0d14c09","651d21f6376e523635797796","null","null","<p style=""font-size: 60px; font-family: BACS"">hYDmtYDE</p>","","","","","","","","",""
"html-keyboard-response","45","402940","0.0-8.0-0.37","61143bd22a1649da3b52ae32","650c16f0f2faf8d7a0d14c09","651d21f6376e523635797796","null","null","<p style=""font-size: 60px; font-family: BACS"">lBKtEcR</p>","","","","","","","","",""
"html-keyboard-response","46","403956","0.0-8.0-0.38","61143bd22a1649da3b52ae32","650c16f0f2faf8d7a0d14c09","651d21f6376e523635797796","null","null","<p style=""font-size: 60px; font-family: BACS"">YcdOrAm</p>","","","","","","","","",""
"html-keyboard-response","47","404965","0.0-8.0-0.39","61143bd22a1649da3b52ae32","650c16f0f2faf8d7a0d14c09","651d21f6376e523635797796","null","null","<p style=""font-size: 60px; font-family: BACS"">DcPTchRKm</p>","","","","","","","","",""
"html-keyboard-response","48","405977","0.0-8.0-0.40","61143bd22a1649da3b52ae32","650c16f0f2faf8d7a0d14c09","651d21f6376e523635797796","null","null","<p style=""font-size: 60px; font-family: BACS"">bYuQrGl</p>","","","","","","","","",""
"html-keyboard-response","49","406991","0.0-8.0-0.41","61143bd22a1649da3b52ae32","650c16f0f2faf8d7a0d14c09","651d21f6376e523635797796","null","null","<p style=""font-size: 60px; font-family: BACS"">YcdOuda</p>","","","","","","","","",""
"html-keyboard-response","50","408000","0.0-8.0-0.42","61143bd22a1649da3b52ae32","650c16f0f2faf8d7a0d14c09","651d21f6376e523635797796","null","null","<p style=""font-size: 60px; font-family: BACS"">DcPTcAdYl</p>","","","","","","","","",""
"html-keyboard-response","51","409012","0.0-8.0-0.43","61143bd22a1649da3b52ae32","650c16f0f2faf8d7a0d14c09","651d21f6376e523635797796","null","null","<p style=""font-size: 60px; font-family: BACS"">BlmclhRKm</p>","","","","","","","","",""
"html-keyboard-response","52","410023","0.0-8.0-0.44","61143bd22a1649da3b52ae32","650c16f0f2faf8d7a0d14c09","651d21f6376e523635797796","null","null","<p style=""font-size: 60px; font-family: BACS"">tRPDdBC</p>","","","","","","","","",""
"html-keyboard-response","53","411030","0.0-8.0-0.45","61143bd22a1649da3b52ae32","650c16f0f2faf8d7a0d14c09","651d21f6376e523635797796","null","null","<p style=""font-size: 60px; font-family: BACS"">alJYAvdk</p>","","","","","","","","",""
"html-keyboard-response","54","412042","0.0-8.0-0.46","61143bd22a1649da3b52ae32","650c16f0f2faf8d7a0d14c09","651d21f6376e523635797796","null","null","<p style=""font-size: 60px; font-family: BACS"">UdbdNac</p>","","","","","","","","",""
"html-keyboard-response","55","413046","0.0-8.0-0.47","61143bd22a1649da3b52ae32","650c16f0f2faf8d7a0d14c09","651d21f6376e523635797796","null","null","<p style=""font-size: 60px; font-family: BACS"">BlmclEcR</p>","","","","","","","","",""
"html-keyboard-response","56","414050","0.0-8.0-0.48","61143bd22a1649da3b52ae32","650c16f0f2faf8d7a0d14c09","651d21f6376e523635797796","null","null","<p style=""font-size: 60px; font-family: BACS"">DdckdBC</p>","","","","","","","","",""
"html-keyboard-response","57","415062","0.0-8.0-0.49","61143bd22a1649da3b52ae32","650c16f0f2faf8d7a0d14c09","651d21f6376e523635797796","null","null","<p style=""font-size: 60px; font-family: BACS"">UdbdrAm</p>","","","","","","","","",""
"html-keyboard-response","58","416072","0.0-8.0-0.50","61143bd22a1649da3b52ae32","650c16f0f2faf8d7a0d14c09","651d21f6376e523635797796","null","null","<p style=""font-size: 60px; font-family: BACS"">DBklhRKm</p>","","","","","","","","",""
"html-keyboard-response","59","417086","0.0-8.0-0.51","61143bd22a1649da3b52ae32","650c16f0f2faf8d7a0d14c09","651d21f6376e523635797796","null","null","<p style=""font-size: 60px; font-family: BACS"">hYDmtEcR</p>","","","","","","","","",""
"html-keyboard-response","60","418102","0.0-8.0-0.52","61143bd22a1649da3b52ae32","650c16f0f2faf8d7a0d14c09","651d21f6376e523635797796","null","null","<p style=""font-size: 60px; font-family: BACS"">NaAQdNac</p>","","","","","","","","",""
"html-keyboard-response","61","419106","0.0-8.0-0.53","61143bd22a1649da3b52ae32","650c16f0f2faf8d7a0d14c09","651d21f6376e523635797796","null","null","<p style=""font-size: 60px; font-family: BACS"">udkmrGl</p>","","","","","","","","",""
"html-keyboard-response","62","420108","0.0-8.0-0.54","61143bd22a1649da3b52ae32","650c16f0f2faf8d7a0d14c09","651d21f6376e523635797796","null","null","<p style=""font-size: 60px; font-family: BACS"">YdudAvdk</p>","","","","","","","","",""
"html-keyboard-response","63","421109","0.0-8.0-0.55","61143bd22a1649da3b52ae32","650c16f0f2faf8d7a0d14c09","651d21f6376e523635797796","null","null","<p style=""font-size: 60px; font-family: BACS"">QbkAcrGl</p>","","","","","","","","",""
"html-keyboard-response","64","422112","0.0-8.0-0.56","61143bd22a1649da3b52ae32","650c16f0f2faf8d7a0d14c09","651d21f6376e523635797796","null","null","<p style=""font-size: 60px; font-family: BACS"">bYuQrAm</p>","","","","","","","","",""
"html-keyboard-response","65","423124","0.0-8.0-0.57","61143bd22a1649da3b52ae32","650c16f0f2faf8d7a0d14c09","651d21f6376e523635797796","null","null","<p style=""font-size: 60px; font-family: BACS"">lCbcmhRKm</p>","","","","","","","","",""
"html-keyboard-response","66","424134","0.0-8.0-0.58","61143bd22a1649da3b52ae32","650c16f0f2faf8d7a0d14c09","651d21f6376e523635797796","null","null","<p style=""font-size: 60px; font-family: BACS"">BlmclAdYl</p>","","","","","","","","",""
"html-keyboard-response","67","425147","0.0-8.0-0.59","61143bd22a1649da3b52ae32","650c16f0f2faf8d7a0d14c09","651d21f6376e523635797796","null","null","<p style=""font-size: 60px; font-family: BACS"">OMlTEcR</p>","","","","","","","","",""
"html-keyboard-response","68","426160","0.0-8.0-0.60","61143bd22a1649da3b52ae32","650c16f0f2faf8d7a0d14c09","651d21f6376e523635797796","null","null","<p style=""font-size: 60px; font-family: BACS"">UdbdAvdk</p>","","","","","","","","",""
"html-keyboard-response","69","427162","0.0-8.0-0.61","61143bd22a1649da3b52ae32","650c16f0f2faf8d7a0d14c09","651d21f6376e523635797796","null","null","<p style=""font-size: 60px; font-family: BACS"">tRPDYDE</p>","","","","","","","","",""
"html-keyboard-response","70","428168","0.0-8.0-0.62","61143bd22a1649da3b52ae32","650c16f0f2faf8d7a0d14c09","651d21f6376e523635797796","null","null","<p style=""font-size: 60px; font-family: BACS"">YcdOrGl</p>","","","","","","","","",""
"html-keyboard-response","71","429171","0.0-8.0-0.63","61143bd22a1649da3b52ae32","650c16f0f2faf8d7a0d14c09","651d21f6376e523635797796","null","null","<p style=""font-size: 60px; font-family: BACS"">kZUbuda</p>","","","","","","","","",""
"html-keyboard-response","72","430177","0.0-8.0-0.64","61143bd22a1649da3b52ae32","650c16f0f2faf8d7a0d14c09","651d21f6376e523635797796","null","null","<p style=""font-size: 60px; font-family: BACS"">hYDmtAdYl</p>","","","","","","","","",""
"html-keyboard-response","73","431180","0.0-8.0-0.65","61143bd22a1649da3b52ae32","650c16f0f2faf8d7a0d14c09","651d21f6376e523635797796","null","null","<p style=""font-size: 60px; font-family: BACS"">lCbcmYDE</p>","","","","","","","","",""
"html-keyboard-response","74","432194","0.0-8.0-0.66","61143bd22a1649da3b52ae32","650c16f0f2faf8d7a0d14c09","651d21f6376e523635797796","null","null","<p style=""font-size: 60px; font-family: BACS"">DhMtdBC</p>","","","","","","","","",""
"html-keyboard-response","75","433209","0.0-8.0-0.67","61143bd22a1649da3b52ae32","650c16f0f2faf8d7a0d14c09","651d21f6376e523635797796","null","null","<p style=""font-size: 60px; font-family: BACS"">Udbduda</p>","","","","","","","","",""
"html-keyboard-response","76","434214","0.0-8.0-0.68","61143bd22a1649da3b52ae32","650c16f0f2faf8d7a0d14c09","651d21f6376e523635797796","null","null","<p style=""font-size: 60px; font-family: BACS"">QbkAcrAm</p>","","","","","","","","",""
"html-keyboard-response","77","435218","0.0-8.0-0.69","61143bd22a1649da3b52ae32","650c16f0f2faf8d7a0d14c09","651d21f6376e523635797796","null","null","<p style=""font-size: 60px; font-family: BACS"">NaAQdrGl</p>","","","","","","","","",""
"html-keyboard-response","78","436220","0.0-8.0-0.70","61143bd22a1649da3b52ae32","650c16f0f2faf8d7a0d14c09","651d21f6376e523635797796","null","null","<p style=""font-size: 60px; font-family: BACS"">adYrcuda</p>","","","","","","","","",""
"html-keyboard-response","79","437230","0.0-8.0-0.71","61143bd22a1649da3b52ae32","650c16f0f2faf8d7a0d14c09","651d21f6376e523635797796","null","null","<p style=""font-size: 60px; font-family: BACS"">lBKtYDE</p>","","","","","","","","",""
"html-keyboard-response","80","438243","0.0-8.0-0.72","61143bd22a1649da3b52ae32","650c16f0f2faf8d7a0d14c09","651d21f6376e523635797796","null","null","<p style=""font-size: 60px; font-family: BACS"">DdckAdYl</p>","","","","","","","","",""
"html-keyboard-response","81","439256","0.0-8.0-0.73","61143bd22a1649da3b52ae32","650c16f0f2faf8d7a0d14c09","651d21f6376e523635797796","null","null","<p style=""font-size: 60px; font-family: BACS"">NaAQduda</p>","","","","","","","","",""
"html-keyboard-response","82","440270","0.0-8.0-0.74","61143bd22a1649da3b52ae32","650c16f0f2faf8d7a0d14c09","651d21f6376e523635797796","null","null","<p style=""font-size: 60px; font-family: BACS"">lCbcmdBC</p>","","","","","","","","",""
"html-keyboard-response","83","441274","0.0-8.0-0.75","61143bd22a1649da3b52ae32","650c16f0f2faf8d7a0d14c09","651d21f6376e523635797796","null","null","<p style=""font-size: 60px; font-family: BACS"">DhMthRKm</p>","","","","","","","","",""
"html-keyboard-response","84","442280","0.0-8.0-0.76","61143bd22a1649da3b52ae32","650c16f0f2faf8d7a0d14c09","651d21f6376e523635797796","null","null","<p style=""font-size: 60px; font-family: BACS"">OMlTAdYl</p>","","","","","","","","",""
"html-keyboard-response","85","443289","0.0-8.0-0.77","61143bd22a1649da3b52ae32","650c16f0f2faf8d7a0d14c09","651d21f6376e523635797796","null","null","<p style=""font-size: 60px; font-family: BACS"">DBklYDE</p>","","","","","","","","",""
"html-keyboard-response","86","444296","0.0-8.0-0.78","61143bd22a1649da3b52ae32","650c16f0f2faf8d7a0d14c09","651d21f6376e523635797796","null","null","<p style=""font-size: 60px; font-family: BACS"">alJYuda</p>","","","","","","","","",""
"html-keyboard-response","87","445309","0.0-8.0-0.79","61143bd22a1649da3b52ae32","650c16f0f2faf8d7a0d14c09","651d21f6376e523635797796","null","null","<p style=""font-size: 60px; font-family: BACS"">BlmcldBC</p>","","","","","","","","",""
"html-keyboard-response","88","451791","0.0-9.0","61143bd22a1649da3b52ae32","650c16f0f2faf8d7a0d14c09","651d21f6376e523635797796","6482"," ","<p>Great, you've seen the first block of words. You may now take a short break.</p>
      <p>Press the spacebar when you're ready to continue.</p>","","","","","","","","",""
"html-keyboard-response","89","452795","0.0-10.0-0.0","61143bd22a1649da3b52ae32","650c16f0f2faf8d7a0d14c09","651d21f6376e523635797796","null","null","<p style=""font-size: 60px; font-family: BACS"">BlmcldBC</p>","","","","","","","","",""
"html-keyboard-response","90","453807","0.0-10.0-0.1","61143bd22a1649da3b52ae32","650c16f0f2faf8d7a0d14c09","651d21f6376e523635797796","null","null","<p style=""font-size: 60px; font-family: BACS"">DcPTcAdYl</p>","","","","","","","","",""
"html-keyboard-response","91","454811","0.0-10.0-0.2","61143bd22a1649da3b52ae32","650c16f0f2faf8d7a0d14c09","651d21f6376e523635797796","null","null","<p style=""font-size: 60px; font-family: BACS"">adYrcrGl</p>","","","","","","","","",""
"html-keyboard-response","92","455827","0.0-10.0-0.3","61143bd22a1649da3b52ae32","650c16f0f2faf8d7a0d14c09","651d21f6376e523635797796","null","null","<p style=""font-size: 60px; font-family: BACS"">BlmclhRKm</p>","","","","","","","","",""
"html-keyboard-response","93","456830","0.0-10.0-0.4","61143bd22a1649da3b52ae32","650c16f0f2faf8d7a0d14c09","651d21f6376e523635797796","null","null","<p style=""font-size: 60px; font-family: BACS"">lCbcmdBC</p>","","","","","","","","",""
"html-keyboard-response","94","457846","0.0-10.0-0.5","61143bd22a1649da3b52ae32","650c16f0f2faf8d7a0d14c09","651d21f6376e523635797796","null","null","<p style=""font-size: 60px; font-family: BACS"">OMlTEcR</p>","","","","","","","","",""
"html-keyboard-response","95","458862","0.0-10.0-0.6","61143bd22a1649da3b52ae32","650c16f0f2faf8d7a0d14c09","651d21f6376e523635797796","null","null","<p style=""font-size: 60px; font-family: BACS"">DcPTchRKm</p>","","","","","","","","",""
"html-keyboard-response","96","459874","0.0-10.0-0.7","61143bd22a1649da3b52ae32","650c16f0f2faf8d7a0d14c09","651d21f6376e523635797796","null","null","<p style=""font-size: 60px; font-family: BACS"">NaAQdrGl</p>","","","","","","","","",""
"html-keyboard-response","97","460876","0.0-10.0-0.8","61143bd22a1649da3b52ae32","650c16f0f2faf8d7a0d14c09","651d21f6376e523635797796","null","null","<p style=""font-size: 60px; font-family: BACS"">DdckdBC</p>","","","","","","","","",""
"html-keyboard-response","98","461880","0.0-10.0-0.9","61143bd22a1649da3b52ae32","650c16f0f2faf8d7a0d14c09","651d21f6376e523635797796","null","null","<p style=""font-size: 60px; font-family: BACS"">BlmclAdYl</p>","","","","","","","","",""
"html-keyboard-response","99","462888","0.0-10.0-0.10","61143bd22a1649da3b52ae32","650c16f0f2faf8d7a0d14c09","651d21f6376e523635797796","null","null","<p style=""font-size: 60px; font-family: BACS"">QbkAcrGl</p>","","","","","","","","",""
"html-keyboard-response","100","463890","0.0-10.0-0.11","61143bd22a1649da3b52ae32","650c16f0f2faf8d7a0d14c09","651d21f6376e523635797796","null","null","<p style=""font-size: 60px; font-family: BACS"">tRPDAdYl</p>","","","","","","","","",""
"html-keyboard-response","101","464891","0.0-10.0-0.12","61143bd22a1649da3b52ae32","650c16f0f2faf8d7a0d14c09","651d21f6376e523635797796","null","null","<p style=""font-size: 60px; font-family: BACS"">NaAQduda</p>","","","","","","","","",""
"html-keyboard-response","102","465905","0.0-10.0-0.13","61143bd22a1649da3b52ae32","650c16f0f2faf8d7a0d14c09","651d21f6376e523635797796","null","null","<p style=""font-size: 60px; font-family: BACS"">DhMtEcR</p>","","","","","","","","",""
"html-keyboard-response","103","466907","0.0-10.0-0.14","61143bd22a1649da3b52ae32","650c16f0f2faf8d7a0d14c09","651d21f6376e523635797796","null","null","<p style=""font-size: 60px; font-family: BACS"">tRPDhRKm</p>","","","","","","","","",""
"html-keyboard-response","104","467912","0.0-10.0-0.15","61143bd22a1649da3b52ae32","650c16f0f2faf8d7a0d14c09","651d21f6376e523635797796","null","null","<p style=""font-size: 60px; font-family: BACS"">udkmrAm</p>","","","","","","","","",""
"html-keyboard-response","105","468923","0.0-10.0-0.16","61143bd22a1649da3b52ae32","650c16f0f2faf8d7a0d14c09","651d21f6376e523635797796","null","null","<p style=""font-size: 60px; font-family: BACS"">YdudNac</p>","","","","","","","","",""
"html-keyboard-response","106","469929","0.0-10.0-0.17","61143bd22a1649da3b52ae32","650c16f0f2faf8d7a0d14c09","651d21f6376e523635797796","null","null","<p style=""font-size: 60px; font-family: BACS"">OMlThRKm</p>","","","","","","","","",""
"html-keyboard-response","107","470941","0.0-10.0-0.18","61143bd22a1649da3b52ae32","650c16f0f2faf8d7a0d14c09","651d21f6376e523635797796","null","null","<p style=""font-size: 60px; font-family: BACS"">alJYAvdk</p>","","","","","","","","",""
"html-keyboard-response","108","471954","0.0-10.0-0.19","61143bd22a1649da3b52ae32","650c16f0f2faf8d7a0d14c09","651d21f6376e523635797796","null","null","<p style=""font-size: 60px; font-family: BACS"">kZUbrAm</p>","","","","","","","","",""
"html-keyboard-response","109","472964","0.0-10.0-0.20","61143bd22a1649da3b52ae32","650c16f0f2faf8d7a0d14c09","651d21f6376e523635797796","null","null","<p style=""font-size: 60px; font-family: BACS"">NaAQdAvdk</p>","","","","","","","","",""
"html-keyboard-response","110","473977","0.0-10.0-0.21","61143bd22a1649da3b52ae32","650c16f0f2faf8d7a0d14c09","651d21f6376e523635797796","null","null","<p style=""font-size: 60px; font-family: BACS"">lBKtEcR</p>","","","","","","","","",""
"html-keyboard-response","111","474980","0.0-10.0-0.22","61143bd22a1649da3b52ae32","650c16f0f2faf8d7a0d14c09","651d21f6376e523635797796","null","null","<p style=""font-size: 60px; font-family: BACS"">bYuQrGl</p>","","","","","","","","",""
"html-keyboard-response","112","475994","0.0-10.0-0.23","61143bd22a1649da3b52ae32","650c16f0f2faf8d7a0d14c09","651d21f6376e523635797796","null","null","<p style=""font-size: 60px; font-family: BACS"">DBklEcR</p>","","","","","","","","",""
"html-keyboard-response","113","477005","0.0-10.0-0.24","61143bd22a1649da3b52ae32","650c16f0f2faf8d7a0d14c09","651d21f6376e523635797796","null","null","<p style=""font-size: 60px; font-family: BACS"">UdbdNac</p>","","","","","","","","",""
"html-keyboard-response","114","478008","0.0-10.0-0.25","61143bd22a1649da3b52ae32","650c16f0f2faf8d7a0d14c09","651d21f6376e523635797796","null","null","<p style=""font-size: 60px; font-family: BACS"">DdckEcR</p>","","","","","","","","",""
"html-keyboard-response","115","479014","0.0-10.0-0.26","61143bd22a1649da3b52ae32","650c16f0f2faf8d7a0d14c09","651d21f6376e523635797796","null","null","<p style=""font-size: 60px; font-family: BACS"">lCbcmYDE</p>","","","","","","","","",""
"html-keyboard-response","116","480023","0.0-10.0-0.27","61143bd22a1649da3b52ae32","650c16f0f2faf8d7a0d14c09","651d21f6376e523635797796","null","null","<p style=""font-size: 60px; font-family: BACS"">kZUbrGl</p>","","","","","","","","",""
"html-keyboard-response","117","481038","0.0-10.0-0.28","61143bd22a1649da3b52ae32","650c16f0f2faf8d7a0d14c09","651d21f6376e523635797796","null","null","<p style=""font-size: 60px; font-family: BACS"">adYrcNac</p>","","","","","","","","",""
"html-keyboard-response","118","482041","0.0-10.0-0.29","61143bd22a1649da3b52ae32","650c16f0f2faf8d7a0d14c09","651d21f6376e523635797796","null","null","<p style=""font-size: 60px; font-family: BACS"">udkmAvdk</p>","","","","","","","","",""
"html-keyboard-response","119","483054","0.0-10.0-0.30","61143bd22a1649da3b52ae32","650c16f0f2faf8d7a0d14c09","651d21f6376e523635797796","null","null","<p style=""font-size: 60px; font-family: BACS"">DcPTcdBC</p>","","","","","","","","",""
"html-keyboard-response","120","484061","0.0-10.0-0.31","61143bd22a1649da3b52ae32","650c16f0f2faf8d7a0d14c09","651d21f6376e523635797796","null","null","<p style=""font-size: 60px; font-family: BACS"">QbkAcNac</p>","","","","","","","","",""
"html-keyboard-response","121","485070","0.0-10.0-0.32","61143bd22a1649da3b52ae32","650c16f0f2faf8d7a0d14c09","651d21f6376e523635797796","null","null","<p style=""font-size: 60px; font-family: BACS"">YdudrAm</p>","","","","","","","","",""
"html-keyboard-response","122","486077","0.0-10.0-0.33","61143bd22a1649da3b52ae32","650c16f0f2faf8d7a0d14c09","651d21f6376e523635797796","null","null","<p style=""font-size: 60px; font-family: BACS"">hYDmtAdYl</p>","","","","","","","","",""
"html-keyboard-response","123","487085","0.0-10.0-0.34","61143bd22a1649da3b52ae32","650c16f0f2faf8d7a0d14c09","651d21f6376e523635797796","null","null","<p style=""font-size: 60px; font-family: BACS"">tRPDYDE</p>","","","","","","","","",""
"html-keyboard-response","124","488091","0.0-10.0-0.35","61143bd22a1649da3b52ae32","650c16f0f2faf8d7a0d14c09","651d21f6376e523635797796","null","null","<p style=""font-size: 60px; font-family: BACS"">hYDmtEcR</p>","","","","","","","","",""
"html-keyboard-response","125","489105","0.0-10.0-0.36","61143bd22a1649da3b52ae32","650c16f0f2faf8d7a0d14c09","651d21f6376e523635797796","null","null","<p style=""font-size: 60px; font-family: BACS"">lCbcmhRKm</p>","","","","","","","","",""
"html-keyboard-response","126","490108","0.0-10.0-0.37","61143bd22a1649da3b52ae32","650c16f0f2faf8d7a0d14c09","651d21f6376e523635797796","null","null","<p style=""font-size: 60px; font-family: BACS"">tRPDdBC</p>","","","","","","","","",""
"html-keyboard-response","127","491112","0.0-10.0-0.38","61143bd22a1649da3b52ae32","650c16f0f2faf8d7a0d14c09","651d21f6376e523635797796","null","null","<p style=""font-size: 60px; font-family: BACS"">kZUbNac</p>","","","","","","","","",""
"html-keyboard-response","128","492122","0.0-10.0-0.39","61143bd22a1649da3b52ae32","650c16f0f2faf8d7a0d14c09","651d21f6376e523635797796","null","null","<p style=""font-size: 60px; font-family: BACS"">DhMthRKm</p>","","","","","","","","",""
"html-keyboard-response","129","493130","0.0-10.0-0.40","61143bd22a1649da3b52ae32","650c16f0f2faf8d7a0d14c09","651d21f6376e523635797796","null","null","<p style=""font-size: 60px; font-family: BACS"">OMlTAdYl</p>","","","","","","","","",""
"html-keyboard-response","130","494146","0.0-10.0-0.41","61143bd22a1649da3b52ae32","650c16f0f2faf8d7a0d14c09","651d21f6376e523635797796","null","null","<p style=""font-size: 60px; font-family: BACS"">DhMtdBC</p>","","","","","","","","",""
"html-keyboard-response","131","495150","0.0-10.0-0.42","61143bd22a1649da3b52ae32","650c16f0f2faf8d7a0d14c09","651d21f6376e523635797796","null","null","<p style=""font-size: 60px; font-family: BACS"">QbkAcrAm</p>","","","","","","","","",""
"html-keyboard-response","132","496159","0.0-10.0-0.43","61143bd22a1649da3b52ae32","650c16f0f2faf8d7a0d14c09","651d21f6376e523635797796","null","null","<p style=""font-size: 60px; font-family: BACS"">DcPTcEcR</p>","","","","","","","","",""
"html-keyboard-response","133","497170","0.0-10.0-0.44","61143bd22a1649da3b52ae32","650c16f0f2faf8d7a0d14c09","651d21f6376e523635797796","null","null","<p style=""font-size: 60px; font-family: BACS"">lCbcmAdYl</p>","","","","","","","","",""
"html-keyboard-response","134","498171","0.0-10.0-0.45","61143bd22a1649da3b52ae32","650c16f0f2faf8d7a0d14c09","651d21f6376e523635797796","null","null","<p style=""font-size: 60px; font-family: BACS"">YcdOuda</p>","","","","","","","","",""
"html-keyboard-response","135","499173","0.0-10.0-0.46","61143bd22a1649da3b52ae32","650c16f0f2faf8d7a0d14c09","651d21f6376e523635797796","null","null","<p style=""font-size: 60px; font-family: BACS"">hYDmtYDE</p>","","","","","","","","",""
"html-keyboard-response","136","500179","0.0-10.0-0.47","61143bd22a1649da3b52ae32","650c16f0f2faf8d7a0d14c09","651d21f6376e523635797796","null","null","<p style=""font-size: 60px; font-family: BACS"">lBKtdBC</p>","","","","","","","","",""
"html-keyboard-response","137","501180","0.0-10.0-0.48","61143bd22a1649da3b52ae32","650c16f0f2faf8d7a0d14c09","651d21f6376e523635797796","null","null","<p style=""font-size: 60px; font-family: BACS"">YcdOAvdk</p>","","","","","","","","",""
"html-keyboard-response","138","502196","0.0-10.0-0.49","61143bd22a1649da3b52ae32","650c16f0f2faf8d7a0d14c09","651d21f6376e523635797796","null","null","<p style=""font-size: 60px; font-family: BACS"">kZUbuda</p>","","","","","","","","",""
"html-keyboard-response","139","503212","0.0-10.0-0.50","61143bd22a1649da3b52ae32","650c16f0f2faf8d7a0d14c09","651d21f6376e523635797796","null","null","<p style=""font-size: 60px; font-family: BACS"">udkmrGl</p>","","","","","","","","",""
"html-keyboard-response","140","504220","0.0-10.0-0.51","61143bd22a1649da3b52ae32","650c16f0f2faf8d7a0d14c09","651d21f6376e523635797796","null","null","<p style=""font-size: 60px; font-family: BACS"">OMlTYDE</p>","","","","","","","","",""
"html-keyboard-response","141","505223","0.0-10.0-0.52","61143bd22a1649da3b52ae32","650c16f0f2faf8d7a0d14c09","651d21f6376e523635797796","null","null","<p style=""font-size: 60px; font-family: BACS"">bYuQNac</p>","","","","","","","","",""
"html-keyboard-response","142","506225","0.0-10.0-0.53","61143bd22a1649da3b52ae32","650c16f0f2faf8d7a0d14c09","651d21f6376e523635797796","null","null","<p style=""font-size: 60px; font-family: BACS"">UdbdAvdk</p>","","","","","","","","",""
"html-keyboard-response","143","507230","0.0-10.0-0.54","61143bd22a1649da3b52ae32","650c16f0f2faf8d7a0d14c09","651d21f6376e523635797796","null","null","<p style=""font-size: 60px; font-family: BACS"">YcdOrAm</p>","","","","","","","","",""
"html-keyboard-response","144","508246","0.0-10.0-0.55","61143bd22a1649da3b52ae32","650c16f0f2faf8d7a0d14c09","651d21f6376e523635797796","null","null","<p style=""font-size: 60px; font-family: BACS"">BlmclEcR</p>","","","","","","","","",""
"html-keyboard-response","145","509262","0.0-10.0-0.56","61143bd22a1649da3b52ae32","650c16f0f2faf8d7a0d14c09","651d21f6376e523635797796","null","null","<p style=""font-size: 60px; font-family: BACS"">NaAQdNac</p>","","","","","","","","",""
"html-keyboard-response","146","510274","0.0-10.0-0.57","61143bd22a1649da3b52ae32","650c16f0f2faf8d7a0d14c09","651d21f6376e523635797796","null","null","<p style=""font-size: 60px; font-family: BACS"">alJYuda</p>","","","","","","","","",""
"html-keyboard-response","147","511291","0.0-10.0-0.58","61143bd22a1649da3b52ae32","650c16f0f2faf8d7a0d14c09","651d21f6376e523635797796","null","null","<p style=""font-size: 60px; font-family: BACS"">DdckAdYl</p>","","","","","","","","",""
"html-keyboard-response","148","512296","0.0-10.0-0.59","61143bd22a1649da3b52ae32","650c16f0f2faf8d7a0d14c09","651d21f6376e523635797796","null","null","<p style=""font-size: 60px; font-family: BACS"">DBklYDE</p>","","","","","","","","",""
"html-keyboard-response","149","513298","0.0-10.0-0.60","61143bd22a1649da3b52ae32","650c16f0f2faf8d7a0d14c09","651d21f6376e523635797796","null","null","<p style=""font-size: 60px; font-family: BACS"">bYuQrAm</p>","","","","","","","","",""
"html-keyboard-response","150","514307","0.0-10.0-0.61","61143bd22a1649da3b52ae32","650c16f0f2faf8d7a0d14c09","651d21f6376e523635797796","null","null","<p style=""font-size: 60px; font-family: BACS"">adYrcuda</p>","","","","","","","","",""
"html-keyboard-response","151","515316","0.0-10.0-0.62","61143bd22a1649da3b52ae32","650c16f0f2faf8d7a0d14c09","651d21f6376e523635797796","null","null","<p style=""font-size: 60px; font-family: BACS"">DBkldBC</p>","","","","","","","","",""
"html-keyboard-response","152","516328","0.0-10.0-0.63","61143bd22a1649da3b52ae32","650c16f0f2faf8d7a0d14c09","651d21f6376e523635797796","null","null","<p style=""font-size: 60px; font-family: BACS"">hYDmthRKm</p>","","","","","","","","",""
"html-keyboard-response","153","517345","0.0-10.0-0.64","61143bd22a1649da3b52ae32","650c16f0f2faf8d7a0d14c09","651d21f6376e523635797796","null","null","<p style=""font-size: 60px; font-family: BACS"">QbkAcAvdk</p>","","","","","","","","",""
"html-keyboard-response","154","518350","0.0-10.0-0.65","61143bd22a1649da3b52ae32","650c16f0f2faf8d7a0d14c09","651d21f6376e523635797796","null","null","<p style=""font-size: 60px; font-family: BACS"">lBKtYDE</p>","","","","","","","","",""
"html-keyboard-response","155","519354","0.0-10.0-0.66","61143bd22a1649da3b52ae32","650c16f0f2faf8d7a0d14c09","651d21f6376e523635797796","null","null","<p style=""font-size: 60px; font-family: BACS"">YcdOrGl</p>","","","","","","","","",""
"html-keyboard-response","156","520360","0.0-10.0-0.67","61143bd22a1649da3b52ae32","650c16f0f2faf8d7a0d14c09","651d21f6376e523635797796","null","null","<p style=""font-size: 60px; font-family: BACS"">alJYNac</p>","","","","","","","","",""
"html-keyboard-response","157","521374","0.0-10.0-0.68","61143bd22a1649da3b52ae32","650c16f0f2faf8d7a0d14c09","651d21f6376e523635797796","null","null","<p style=""font-size: 60px; font-family: BACS"">adYrcrAm</p>","","","","","","","","",""
"html-keyboard-response","158","522388","0.0-10.0-0.69","61143bd22a1649da3b52ae32","650c16f0f2faf8d7a0d14c09","651d21f6376e523635797796","null","null","<p style=""font-size: 60px; font-family: BACS"">DhMtYDE</p>","","","","","","","","",""
"html-keyboard-response","159","523395","0.0-10.0-0.70","61143bd22a1649da3b52ae32","650c16f0f2faf8d7a0d14c09","651d21f6376e523635797796","null","null","<p style=""font-size: 60px; font-family: BACS"">lBKtAdYl</p>","","","","","","","","",""
"html-keyboard-response","160","524400","0.0-10.0-0.71","61143bd22a1649da3b52ae32","650c16f0f2faf8d7a0d14c09","651d21f6376e523635797796","null","null","<p style=""font-size: 60px; font-family: BACS"">Ydududa</p>","","","","","","","","",""
"html-keyboard-response","161","525406","0.0-10.0-0.72","61143bd22a1649da3b52ae32","650c16f0f2faf8d7a0d14c09","651d21f6376e523635797796","null","null","<p style=""font-size: 60px; font-family: BACS"">alJYrGl</p>","","","","","","","","",""
"html-keyboard-response","162","526412","0.0-10.0-0.73","61143bd22a1649da3b52ae32","650c16f0f2faf8d7a0d14c09","651d21f6376e523635797796","null","null","<p style=""font-size: 60px; font-family: BACS"">DBklhRKm</p>","","","","","","","","",""
"html-keyboard-response","163","527420","0.0-10.0-0.74","61143bd22a1649da3b52ae32","650c16f0f2faf8d7a0d14c09","651d21f6376e523635797796","null","null","<p style=""font-size: 60px; font-family: BACS"">DdckYDE</p>","","","","","","","","",""
"html-keyboard-response","164","528435","0.0-10.0-0.75","61143bd22a1649da3b52ae32","650c16f0f2faf8d7a0d14c09","651d21f6376e523635797796","null","null","<p style=""font-size: 60px; font-family: BACS"">Udbduda</p>","","","","","","","","",""
"html-keyboard-response","165","529443","0.0-10.0-0.76","61143bd22a1649da3b52ae32","650c16f0f2faf8d7a0d14c09","651d21f6376e523635797796","null","null","<p style=""font-size: 60px; font-family: BACS"">YdudAvdk</p>","","","","","","","","",""
"html-keyboard-response","166","530455","0.0-10.0-0.77","61143bd22a1649da3b52ae32","650c16f0f2faf8d7a0d14c09","651d21f6376e523635797796","null","null","<p style=""font-size: 60px; font-family: BACS"">udkmuda</p>","","","","","","","","",""
"html-keyboard-response","167","531462","0.0-10.0-0.78","61143bd22a1649da3b52ae32","650c16f0f2faf8d7a0d14c09","651d21f6376e523635797796","null","null","<p style=""font-size: 60px; font-family: BACS"">bYuQAvdk</p>","","","","","","","","",""
"html-keyboard-response","168","532471","0.0-10.0-0.79","61143bd22a1649da3b52ae32","650c16f0f2faf8d7a0d14c09","651d21f6376e523635797796","null","null","<p style=""font-size: 60px; font-family: BACS"">UdbdrAm</p>","","","","","","","","",""
"html-keyboard-response","169","545390","0.0-11.0","61143bd22a1649da3b52ae32","650c16f0f2faf8d7a0d14c09","651d21f6376e523635797796","12918"," ","<p>Great, you've seen the second block of words. You may now take a short break.</p>
      <p>Press the spacebar when you're ready to continue.</p>","","","","","","","","",""
"html-keyboard-response","170","546392","0.0-12.0-0.0","61143bd22a1649da3b52ae32","650c16f0f2faf8d7a0d14c09","651d21f6376e523635797796","null","null","<p style=""font-size: 60px; font-family: BACS"">lBKtAdYl</p>","","","","","","","","",""
"html-keyboard-response","171","547408","0.0-12.0-0.1","61143bd22a1649da3b52ae32","650c16f0f2faf8d7a0d14c09","651d21f6376e523635797796","null","null","<p style=""font-size: 60px; font-family: BACS"">udkmrAm</p>","","","","","","","","",""
"html-keyboard-response","172","548422","0.0-12.0-0.2","61143bd22a1649da3b52ae32","650c16f0f2faf8d7a0d14c09","651d21f6376e523635797796","null","null","<p style=""font-size: 60px; font-family: BACS"">alJYAvdk</p>","","","","","","","","",""
"html-keyboard-response","173","549423","0.0-12.0-0.3","61143bd22a1649da3b52ae32","650c16f0f2faf8d7a0d14c09","651d21f6376e523635797796","null","null","<p style=""font-size: 60px; font-family: BACS"">adYrcrGl</p>","","","","","","","","",""
"html-keyboard-response","174","550430","0.0-12.0-0.4","61143bd22a1649da3b52ae32","650c16f0f2faf8d7a0d14c09","651d21f6376e523635797796","null","null","<p style=""font-size: 60px; font-family: BACS"">DcPTcAdYl</p>","","","","","","","","",""
"html-keyboard-response","175","551446","0.0-12.0-0.5","61143bd22a1649da3b52ae32","650c16f0f2faf8d7a0d14c09","651d21f6376e523635797796","null","null","<p style=""font-size: 60px; font-family: BACS"">QbkAcrAm</p>","","","","","","","","",""
"html-keyboard-response","176","552459","0.0-12.0-0.6","61143bd22a1649da3b52ae32","650c16f0f2faf8d7a0d14c09","651d21f6376e523635797796","null","null","<p style=""font-size: 60px; font-family: BACS"">DcPTcdBC</p>","","","","","","","","",""
"html-keyboard-response","177","553468","0.0-12.0-0.7","61143bd22a1649da3b52ae32","650c16f0f2faf8d7a0d14c09","651d21f6376e523635797796","null","null","<p style=""font-size: 60px; font-family: BACS"">lBKtYDE</p>","","","","","","","","",""
"html-keyboard-response","178","554477","0.0-12.0-0.8","61143bd22a1649da3b52ae32","650c16f0f2faf8d7a0d14c09","651d21f6376e523635797796","null","null","<p style=""font-size: 60px; font-family: BACS"">YdudNac</p>","","","","","","","","",""
"html-keyboard-response","179","555482","0.0-12.0-0.9","61143bd22a1649da3b52ae32","650c16f0f2faf8d7a0d14c09","651d21f6376e523635797796","null","null","<p style=""font-size: 60px; font-family: BACS"">OMlTYDE</p>","","","","","","","","",""
"html-keyboard-response","180","556489","0.0-12.0-0.10","61143bd22a1649da3b52ae32","650c16f0f2faf8d7a0d14c09","651d21f6376e523635797796","null","null","<p style=""font-size: 60px; font-family: BACS"">YcdOAvdk</p>","","","","","","","","",""
"html-keyboard-response","181","557496","0.0-12.0-0.11","61143bd22a1649da3b52ae32","650c16f0f2faf8d7a0d14c09","651d21f6376e523635797796","null","null","<p style=""font-size: 60px; font-family: BACS"">YdudrAm</p>","","","","","","","","",""
"html-keyboard-response","182","558512","0.0-12.0-0.12","61143bd22a1649da3b52ae32","650c16f0f2faf8d7a0d14c09","651d21f6376e523635797796","null","null","<p style=""font-size: 60px; font-family: BACS"">udkmuda</p>","","","","","","","","",""
"html-keyboard-response","183","559521","0.0-12.0-0.13","61143bd22a1649da3b52ae32","650c16f0f2faf8d7a0d14c09","651d21f6376e523635797796","null","null","<p style=""font-size: 60px; font-family: BACS"">lBKtEcR</p>","","","","","","","","",""
"html-keyboard-response","184","560528","0.0-12.0-0.14","61143bd22a1649da3b52ae32","650c16f0f2faf8d7a0d14c09","651d21f6376e523635797796","null","null","<p style=""font-size: 60px; font-family: BACS"">hYDmtYDE</p>","","","","","","","","",""
"html-keyboard-response","185","561538","0.0-12.0-0.15","61143bd22a1649da3b52ae32","650c16f0f2faf8d7a0d14c09","651d21f6376e523635797796","null","null","<p style=""font-size: 60px; font-family: BACS"">OMlTEcR</p>","","","","","","","","",""
"html-keyboard-response","186","562545","0.0-12.0-0.16","61143bd22a1649da3b52ae32","650c16f0f2faf8d7a0d14c09","651d21f6376e523635797796","null","null","<p style=""font-size: 60px; font-family: BACS"">udkmAvdk</p>","","","","","","","","",""
"html-keyboard-response","187","563562","0.0-12.0-0.17","61143bd22a1649da3b52ae32","650c16f0f2faf8d7a0d14c09","651d21f6376e523635797796","null","null","<p style=""font-size: 60px; font-family: BACS"">lCbcmhRKm</p>","","","","","","","","",""
"html-keyboard-response","188","564568","0.0-12.0-0.18","61143bd22a1649da3b52ae32","650c16f0f2faf8d7a0d14c09","651d21f6376e523635797796","null","null","<p style=""font-size: 60px; font-family: BACS"">DcPTcEcR</p>","","","","","","","","",""
"html-keyboard-response","189","565575","0.0-12.0-0.19","61143bd22a1649da3b52ae32","650c16f0f2faf8d7a0d14c09","651d21f6376e523635797796","null","null","<p style=""font-size: 60px; font-family: BACS"">Ydududa</p>","","","","","","","","",""
"html-keyboard-response","190","566576","0.0-12.0-0.20","61143bd22a1649da3b52ae32","650c16f0f2faf8d7a0d14c09","651d21f6376e523635797796","null","null","<p style=""font-size: 60px; font-family: BACS"">QbkAcNac</p>","","","","","","","","",""
"html-keyboard-response","191","567591","0.0-12.0-0.21","61143bd22a1649da3b52ae32","650c16f0f2faf8d7a0d14c09","651d21f6376e523635797796","null","null","<p style=""font-size: 60px; font-family: BACS"">kZUbuda</p>","","","","","","","","",""
"html-keyboard-response","192","568606","0.0-12.0-0.22","61143bd22a1649da3b52ae32","650c16f0f2faf8d7a0d14c09","651d21f6376e523635797796","null","null","<p style=""font-size: 60px; font-family: BACS"">DdckEcR</p>","","","","","","","","",""
"html-keyboard-response","193","569612","0.0-12.0-0.23","61143bd22a1649da3b52ae32","650c16f0f2faf8d7a0d14c09","651d21f6376e523635797796","null","null","<p style=""font-size: 60px; font-family: BACS"">alJYNac</p>","","","","","","","","",""
"html-keyboard-response","194","570619","0.0-12.0-0.24","61143bd22a1649da3b52ae32","650c16f0f2faf8d7a0d14c09","651d21f6376e523635797796","null","null","<p style=""font-size: 60px; font-family: BACS"">udkmrGl</p>","","","","","","","","",""
"html-keyboard-response","195","571627","0.0-12.0-0.25","61143bd22a1649da3b52ae32","650c16f0f2faf8d7a0d14c09","651d21f6376e523635797796","null","null","<p style=""font-size: 60px; font-family: BACS"">OMlTAdYl</p>","","","","","","","","",""
"html-keyboard-response","196","572641","0.0-12.0-0.26","61143bd22a1649da3b52ae32","650c16f0f2faf8d7a0d14c09","651d21f6376e523635797796","null","null","<p style=""font-size: 60px; font-family: BACS"">DBklEcR</p>","","","","","","","","",""
"html-keyboard-response","197","573643","0.0-12.0-0.27","61143bd22a1649da3b52ae32","650c16f0f2faf8d7a0d14c09","651d21f6376e523635797796","null","null","<p style=""font-size: 60px; font-family: BACS"">lCbcmYDE</p>","","","","","","","","",""
"html-keyboard-response","198","574646","0.0-12.0-0.28","61143bd22a1649da3b52ae32","650c16f0f2faf8d7a0d14c09","651d21f6376e523635797796","null","null","<p style=""font-size: 60px; font-family: BACS"">DhMtEcR</p>","","","","","","","","",""
"html-keyboard-response","199","575648","0.0-12.0-0.29","61143bd22a1649da3b52ae32","650c16f0f2faf8d7a0d14c09","651d21f6376e523635797796","null","null","<p style=""font-size: 60px; font-family: BACS"">hYDmtAdYl</p>","","","","","","","","",""
"html-keyboard-response","200","576657","0.0-12.0-0.30","61143bd22a1649da3b52ae32","650c16f0f2faf8d7a0d14c09","651d21f6376e523635797796","null","null","<p style=""font-size: 60px; font-family: BACS"">bYuQrGl</p>","","","","","","","","",""
"html-keyboard-response","201","577659","0.0-12.0-0.31","61143bd22a1649da3b52ae32","650c16f0f2faf8d7a0d14c09","651d21f6376e523635797796","null","null","<p style=""font-size: 60px; font-family: BACS"">QbkAcAvdk</p>","","","","","","","","",""
"html-keyboard-response","202","578665","0.0-12.0-0.32","61143bd22a1649da3b52ae32","650c16f0f2faf8d7a0d14c09","651d21f6376e523635797796","null","null","<p style=""font-size: 60px; font-family: BACS"">lCbcmdBC</p>","","","","","","","","",""
"html-keyboard-response","203","579679","0.0-12.0-0.33","61143bd22a1649da3b52ae32","650c16f0f2faf8d7a0d14c09","651d21f6376e523635797796","null","null","<p style=""font-size: 60px; font-family: BACS"">kZUbrGl</p>","","","","","","","","",""
"html-keyboard-response","204","580683","0.0-12.0-0.34","61143bd22a1649da3b52ae32","650c16f0f2faf8d7a0d14c09","651d21f6376e523635797796","null","null","<p style=""font-size: 60px; font-family: BACS"">hYDmthRKm</p>","","","","","","","","",""
"html-keyboard-response","205","581695","0.0-12.0-0.35","61143bd22a1649da3b52ae32","650c16f0f2faf8d7a0d14c09","651d21f6376e523635797796","null","null","<p style=""font-size: 60px; font-family: BACS"">YcdOuda</p>","","","","","","","","",""
"html-keyboard-response","206","582706","0.0-12.0-0.36","61143bd22a1649da3b52ae32","650c16f0f2faf8d7a0d14c09","651d21f6376e523635797796","null","null","<p style=""font-size: 60px; font-family: BACS"">lBKtdBC</p>","","","","","","","","",""
"html-keyboard-response","207","583723","0.0-12.0-0.37","61143bd22a1649da3b52ae32","650c16f0f2faf8d7a0d14c09","651d21f6376e523635797796","null","null","<p style=""font-size: 60px; font-family: BACS"">DcPTchRKm</p>","","","","","","","","",""
"html-keyboard-response","208","584725","0.0-12.0-0.38","61143bd22a1649da3b52ae32","650c16f0f2faf8d7a0d14c09","651d21f6376e523635797796","null","null","<p style=""font-size: 60px; font-family: BACS"">DBklYDE</p>","","","","","","","","",""
"html-keyboard-response","209","585735","0.0-12.0-0.39","61143bd22a1649da3b52ae32","650c16f0f2faf8d7a0d14c09","651d21f6376e523635797796","null","null","<p style=""font-size: 60px; font-family: BACS"">YdudAvdk</p>","","","","","","","","",""
"html-keyboard-response","210","586743","0.0-12.0-0.40","61143bd22a1649da3b52ae32","650c16f0f2faf8d7a0d14c09","651d21f6376e523635797796","null","null","<p style=""font-size: 60px; font-family: BACS"">bYuQrAm</p>","","","","","","","","",""
"html-keyboard-response","211","587748","0.0-12.0-0.41","61143bd22a1649da3b52ae32","650c16f0f2faf8d7a0d14c09","651d21f6376e523635797796","null","null","<p style=""font-size: 60px; font-family: BACS"">DBkldBC</p>","","","","","","","","",""
"html-keyboard-response","212","588763","0.0-12.0-0.42","61143bd22a1649da3b52ae32","650c16f0f2faf8d7a0d14c09","651d21f6376e523635797796","null","null","<p style=""font-size: 60px; font-family: BACS"">BlmclEcR</p>","","","","","","","","",""
"html-keyboard-response","213","589767","0.0-12.0-0.43","61143bd22a1649da3b52ae32","650c16f0f2faf8d7a0d14c09","651d21f6376e523635797796","null","null","<p style=""font-size: 60px; font-family: BACS"">Udbduda</p>","","","","","","","","",""
"html-keyboard-response","214","590778","0.0-12.0-0.44","61143bd22a1649da3b52ae32","650c16f0f2faf8d7a0d14c09","651d21f6376e523635797796","null","null","<p style=""font-size: 60px; font-family: BACS"">NaAQdNac</p>","","","","","","","","",""
"html-keyboard-response","215","591787","0.0-12.0-0.45","61143bd22a1649da3b52ae32","650c16f0f2faf8d7a0d14c09","651d21f6376e523635797796","null","null","<p style=""font-size: 60px; font-family: BACS"">BlmclhRKm</p>","","","","","","","","",""
"html-keyboard-response","216","592791","0.0-12.0-0.46","61143bd22a1649da3b52ae32","650c16f0f2faf8d7a0d14c09","651d21f6376e523635797796","null","null","<p style=""font-size: 60px; font-family: BACS"">DdckAdYl</p>","","","","","","","","",""
"html-keyboard-response","217","593805","0.0-12.0-0.47","61143bd22a1649da3b52ae32","650c16f0f2faf8d7a0d14c09","651d21f6376e523635797796","null","null","<p style=""font-size: 60px; font-family: BACS"">hYDmtEcR</p>","","","","","","","","",""
"html-keyboard-response","218","594820","0.0-12.0-0.48","61143bd22a1649da3b52ae32","650c16f0f2faf8d7a0d14c09","651d21f6376e523635797796","null","null","<p style=""font-size: 60px; font-family: BACS"">tRPDdBC</p>","","","","","","","","",""
"html-keyboard-response","219","595837","0.0-12.0-0.49","61143bd22a1649da3b52ae32","650c16f0f2faf8d7a0d14c09","651d21f6376e523635797796","null","null","<p style=""font-size: 60px; font-family: BACS"">kZUbrAm</p>","","","","","","","","",""
"html-keyboard-response","220","596844","0.0-12.0-0.50","61143bd22a1649da3b52ae32","650c16f0f2faf8d7a0d14c09","651d21f6376e523635797796","null","null","<p style=""font-size: 60px; font-family: BACS"">BlmclAdYl</p>","","","","","","","","",""
"html-keyboard-response","221","597859","0.0-12.0-0.51","61143bd22a1649da3b52ae32","650c16f0f2faf8d7a0d14c09","651d21f6376e523635797796","null","null","<p style=""font-size: 60px; font-family: BACS"">tRPDYDE</p>","","","","","","","","",""
"html-keyboard-response","222","598868","0.0-12.0-0.52","61143bd22a1649da3b52ae32","650c16f0f2faf8d7a0d14c09","651d21f6376e523635797796","null","null","<p style=""font-size: 60px; font-family: BACS"">NaAQduda</p>","","","","","","","","",""
"html-keyboard-response","223","599875","0.0-12.0-0.53","61143bd22a1649da3b52ae32","650c16f0f2faf8d7a0d14c09","651d21f6376e523635797796","null","null","<p style=""font-size: 60px; font-family: BACS"">UdbdAvdk</p>","","","","","","","","",""
"html-keyboard-response","224","600876","0.0-12.0-0.54","61143bd22a1649da3b52ae32","650c16f0f2faf8d7a0d14c09","651d21f6376e523635797796","null","null","<p style=""font-size: 60px; font-family: BACS"">adYrcNac</p>","","","","","","","","",""
"html-keyboard-response","225","601891","0.0-12.0-0.55","61143bd22a1649da3b52ae32","650c16f0f2faf8d7a0d14c09","651d21f6376e523635797796","null","null","<p style=""font-size: 60px; font-family: BACS"">DhMtdBC</p>","","","","","","","","",""
"html-keyboard-response","226","602907","0.0-12.0-0.56","61143bd22a1649da3b52ae32","650c16f0f2faf8d7a0d14c09","651d21f6376e523635797796","null","null","<p style=""font-size: 60px; font-family: BACS"">kZUbNac</p>","","","","","","","","",""
"html-keyboard-response","227","603919","0.0-12.0-0.57","61143bd22a1649da3b52ae32","650c16f0f2faf8d7a0d14c09","651d21f6376e523635797796","null","null","<p style=""font-size: 60px; font-family: BACS"">YcdOrAm</p>","","","","","","","","",""
"html-keyboard-response","228","604933","0.0-12.0-0.58","61143bd22a1649da3b52ae32","650c16f0f2faf8d7a0d14c09","651d21f6376e523635797796","null","null","<p style=""font-size: 60px; font-family: BACS"">NaAQdAvdk</p>","","","","","","","","",""
"html-keyboard-response","229","605943","0.0-12.0-0.59","61143bd22a1649da3b52ae32","650c16f0f2faf8d7a0d14c09","651d21f6376e523635797796","null","null","<p style=""font-size: 60px; font-family: BACS"">YcdOrGl</p>","","","","","","","","",""
"html-keyboard-response","230","606959","0.0-12.0-0.60","61143bd22a1649da3b52ae32","650c16f0f2faf8d7a0d14c09","651d21f6376e523635797796","null","null","<p style=""font-size: 60px; font-family: BACS"">DdckdBC</p>","","","","","","","","",""
"html-keyboard-response","231","607964","0.0-12.0-0.61","61143bd22a1649da3b52ae32","650c16f0f2faf8d7a0d14c09","651d21f6376e523635797796","null","null","<p style=""font-size: 60px; font-family: BACS"">DhMthRKm</p>","","","","","","","","",""
"html-keyboard-response","232","608972","0.0-12.0-0.62","61143bd22a1649da3b52ae32","650c16f0f2faf8d7a0d14c09","651d21f6376e523635797796","null","null","<p style=""font-size: 60px; font-family: BACS"">UdbdrAm</p>","","","","","","","","",""
"html-keyboard-response","233","609987","0.0-12.0-0.63","61143bd22a1649da3b52ae32","650c16f0f2faf8d7a0d14c09","651d21f6376e523635797796","null","null","<p style=""font-size: 60px; font-family: BACS"">NaAQdrGl</p>","","","","","","","","",""
"html-keyboard-response","234","610990","0.0-12.0-0.64","61143bd22a1649da3b52ae32","650c16f0f2faf8d7a0d14c09","651d21f6376e523635797796","null","null","<p style=""font-size: 60px; font-family: BACS"">DhMtYDE</p>","","","","","","","","",""
"html-keyboard-response","235","611998","0.0-12.0-0.65","61143bd22a1649da3b52ae32","650c16f0f2faf8d7a0d14c09","651d21f6376e523635797796","null","null","<p style=""font-size: 60px; font-family: BACS"">tRPDAdYl</p>","","","","","","","","",""
"html-keyboard-response","236","613006","0.0-12.0-0.66","61143bd22a1649da3b52ae32","650c16f0f2faf8d7a0d14c09","651d21f6376e523635797796","null","null","<p style=""font-size: 60px; font-family: BACS"">adYrcuda</p>","","","","","","","","",""
"html-keyboard-response","237","614009","0.0-12.0-0.67","61143bd22a1649da3b52ae32","650c16f0f2faf8d7a0d14c09","651d21f6376e523635797796","null","null","<p style=""font-size: 60px; font-family: BACS"">DBklhRKm</p>","","","","","","","","",""
"html-keyboard-response","238","615012","0.0-12.0-0.68","61143bd22a1649da3b52ae32","650c16f0f2faf8d7a0d14c09","651d21f6376e523635797796","null","null","<p style=""font-size: 60px; font-family: BACS"">lCbcmAdYl</p>","","","","","","","","",""
"html-keyboard-response","239","616026","0.0-12.0-0.69","61143bd22a1649da3b52ae32","650c16f0f2faf8d7a0d14c09","651d21f6376e523635797796","null","null","<p style=""font-size: 60px; font-family: BACS"">UdbdNac</p>","","","","","","","","",""
"html-keyboard-response","240","617033","0.0-12.0-0.70","61143bd22a1649da3b52ae32","650c16f0f2faf8d7a0d14c09","651d21f6376e523635797796","null","null","<p style=""font-size: 60px; font-family: BACS"">DdckYDE</p>","","","","","","","","",""
"html-keyboard-response","241","618039","0.0-12.0-0.71","61143bd22a1649da3b52ae32","650c16f0f2faf8d7a0d14c09","651d21f6376e523635797796","null","null","<p style=""font-size: 60px; font-family: BACS"">tRPDhRKm</p>","","","","","","","","",""
"html-keyboard-response","242","619054","0.0-12.0-0.72","61143bd22a1649da3b52ae32","650c16f0f2faf8d7a0d14c09","651d21f6376e523635797796","null","null","<p style=""font-size: 60px; font-family: BACS"">alJYuda</p>","","","","","","","","",""
"html-keyboard-response","243","620071","0.0-12.0-0.73","61143bd22a1649da3b52ae32","650c16f0f2faf8d7a0d14c09","651d21f6376e523635797796","null","null","<p style=""font-size: 60px; font-family: BACS"">adYrcrAm</p>","","","","","","","","",""
"html-keyboard-response","244","621080","0.0-12.0-0.74","61143bd22a1649da3b52ae32","650c16f0f2faf8d7a0d14c09","651d21f6376e523635797796","null","null","<p style=""font-size: 60px; font-family: BACS"">bYuQAvdk</p>","","","","","","","","",""
"html-keyboard-response","245","622082","0.0-12.0-0.75","61143bd22a1649da3b52ae32","650c16f0f2faf8d7a0d14c09","651d21f6376e523635797796","null","null","<p style=""font-size: 60px; font-family: BACS"">alJYrGl</p>","","","","","","","","",""
"html-keyboard-response","246","623094","0.0-12.0-0.76","61143bd22a1649da3b52ae32","650c16f0f2faf8d7a0d14c09","651d21f6376e523635797796","null","null","<p style=""font-size: 60px; font-family: BACS"">BlmcldBC</p>","","","","","","","","",""
"html-keyboard-response","247","624109","0.0-12.0-0.77","61143bd22a1649da3b52ae32","650c16f0f2faf8d7a0d14c09","651d21f6376e523635797796","null","null","<p style=""font-size: 60px; font-family: BACS"">bYuQNac</p>","","","","","","","","",""
"html-keyboard-response","248","625119","0.0-12.0-0.78","61143bd22a1649da3b52ae32","650c16f0f2faf8d7a0d14c09","651d21f6376e523635797796","null","null","<p style=""font-size: 60px; font-family: BACS"">QbkAcrGl</p>","","","","","","","","",""
"html-keyboard-response","249","626125","0.0-12.0-0.79","61143bd22a1649da3b52ae32","650c16f0f2faf8d7a0d14c09","651d21f6376e523635797796","null","null","<p style=""font-size: 60px; font-family: BACS"">OMlThRKm</p>","","","","","","","","",""
"html-keyboard-response","250","630438","0.0-13.0","61143bd22a1649da3b52ae32","650c16f0f2faf8d7a0d14c09","651d21f6376e523635797796","4312"," ","<p>Great, you've seen the third block of words. You may now take a short break.</p>
      <p>Press the spacebar when you're ready to continue.</p>","","","","","","","","",""
"html-keyboard-response","251","631445","0.0-14.0-0.0","61143bd22a1649da3b52ae32","650c16f0f2faf8d7a0d14c09","651d21f6376e523635797796","null","null","<p style=""font-size: 60px; font-family: BACS"">alJYrGl</p>","","","","","","","","",""
"html-keyboard-response","252","632457","0.0-14.0-0.1","61143bd22a1649da3b52ae32","650c16f0f2faf8d7a0d14c09","651d21f6376e523635797796","null","null","<p style=""font-size: 60px; font-family: BACS"">lCbcmdBC</p>","","","","","","","","",""
"html-keyboard-response","253","633467","0.0-14.0-0.2","61143bd22a1649da3b52ae32","650c16f0f2faf8d7a0d14c09","651d21f6376e523635797796","null","null","<p style=""font-size: 60px; font-family: BACS"">YcdOrAm</p>","","","","","","","","",""
"html-keyboard-response","254","634473","0.0-14.0-0.3","61143bd22a1649da3b52ae32","650c16f0f2faf8d7a0d14c09","651d21f6376e523635797796","null","null","<p style=""font-size: 60px; font-family: BACS"">OMlTAdYl</p>","","","","","","","","",""
"html-keyboard-response","255","635482","0.0-14.0-0.4","61143bd22a1649da3b52ae32","650c16f0f2faf8d7a0d14c09","651d21f6376e523635797796","null","null","<p style=""font-size: 60px; font-family: BACS"">udkmAvdk</p>","","","","","","","","",""
"html-keyboard-response","256","636492","0.0-14.0-0.5","61143bd22a1649da3b52ae32","650c16f0f2faf8d7a0d14c09","651d21f6376e523635797796","null","null","<p style=""font-size: 60px; font-family: BACS"">hYDmtEcR</p>","","","","","","","","",""
"html-keyboard-response","257","637506","0.0-14.0-0.6","61143bd22a1649da3b52ae32","650c16f0f2faf8d7a0d14c09","651d21f6376e523635797796","null","null","<p style=""font-size: 60px; font-family: BACS"">NaAQduda</p>","","","","","","","","",""
"html-keyboard-response","258","638508","0.0-14.0-0.7","61143bd22a1649da3b52ae32","650c16f0f2faf8d7a0d14c09","651d21f6376e523635797796","null","null","<p style=""font-size: 60px; font-family: BACS"">lBKtdBC</p>","","","","","","","","",""
"html-keyboard-response","259","639510","0.0-14.0-0.8","61143bd22a1649da3b52ae32","650c16f0f2faf8d7a0d14c09","651d21f6376e523635797796","null","null","<p style=""font-size: 60px; font-family: BACS"">DhMtEcR</p>","","","","","","","","",""
"html-keyboard-response","260","640519","0.0-14.0-0.9","61143bd22a1649da3b52ae32","650c16f0f2faf8d7a0d14c09","651d21f6376e523635797796","null","null","<p style=""font-size: 60px; font-family: BACS"">tRPDAdYl</p>","","","","","","","","",""
"html-keyboard-response","261","641524","0.0-14.0-0.10","61143bd22a1649da3b52ae32","650c16f0f2faf8d7a0d14c09","651d21f6376e523635797796","null","null","<p style=""font-size: 60px; font-family: BACS"">kZUbNac</p>","","","","","","","","",""
"html-keyboard-response","262","642527","0.0-14.0-0.11","61143bd22a1649da3b52ae32","650c16f0f2faf8d7a0d14c09","651d21f6376e523635797796","null","null","<p style=""font-size: 60px; font-family: BACS"">lCbcmhRKm</p>","","","","","","","","",""
"html-keyboard-response","263","643533","0.0-14.0-0.12","61143bd22a1649da3b52ae32","650c16f0f2faf8d7a0d14c09","651d21f6376e523635797796","null","null","<p style=""font-size: 60px; font-family: BACS"">UdbdNac</p>","","","","","","","","",""
"html-keyboard-response","264","644540","0.0-14.0-0.13","61143bd22a1649da3b52ae32","650c16f0f2faf8d7a0d14c09","651d21f6376e523635797796","null","null","<p style=""font-size: 60px; font-family: BACS"">udkmrAm</p>","","","","","","","","",""
"html-keyboard-response","265","645556","0.0-14.0-0.14","61143bd22a1649da3b52ae32","650c16f0f2faf8d7a0d14c09","651d21f6376e523635797796","null","null","<p style=""font-size: 60px; font-family: BACS"">alJYAvdk</p>","","","","","","","","",""
"html-keyboard-response","266","646561","0.0-14.0-0.15","61143bd22a1649da3b52ae32","650c16f0f2faf8d7a0d14c09","651d21f6376e523635797796","null","null","<p style=""font-size: 60px; font-family: BACS"">OMlThRKm</p>","","","","","","","","",""
"html-keyboard-response","267","647572","0.0-14.0-0.16","61143bd22a1649da3b52ae32","650c16f0f2faf8d7a0d14c09","651d21f6376e523635797796","null","null","<p style=""font-size: 60px; font-family: BACS"">QbkAcAvdk</p>","","","","","","","","",""
"html-keyboard-response","268","648579","0.0-14.0-0.17","61143bd22a1649da3b52ae32","650c16f0f2faf8d7a0d14c09","651d21f6376e523635797796","null","null","<p style=""font-size: 60px; font-family: BACS"">hYDmtYDE</p>","","","","","","","","",""
"html-keyboard-response","269","649589","0.0-14.0-0.18","61143bd22a1649da3b52ae32","650c16f0f2faf8d7a0d14c09","651d21f6376e523635797796","null","null","<p style=""font-size: 60px; font-family: BACS"">adYrcrGl</p>","","","","","","","","",""
"html-keyboard-response","270","650593","0.0-14.0-0.19","61143bd22a1649da3b52ae32","650c16f0f2faf8d7a0d14c09","651d21f6376e523635797796","null","null","<p style=""font-size: 60px; font-family: BACS"">DcPTcAdYl</p>","","","","","","","","",""
"html-keyboard-response","271","651596","0.0-14.0-0.20","61143bd22a1649da3b52ae32","650c16f0f2faf8d7a0d14c09","651d21f6376e523635797796","null","null","<p style=""font-size: 60px; font-family: BACS"">DdckYDE</p>","","","","","","","","",""
"html-keyboard-response","272","652601","0.0-14.0-0.21","61143bd22a1649da3b52ae32","650c16f0f2faf8d7a0d14c09","651d21f6376e523635797796","null","null","<p style=""font-size: 60px; font-family: BACS"">tRPDdBC</p>","","","","","","","","",""
"html-keyboard-response","273","653608","0.0-14.0-0.22","61143bd22a1649da3b52ae32","650c16f0f2faf8d7a0d14c09","651d21f6376e523635797796","null","null","<p style=""font-size: 60px; font-family: BACS"">DhMthRKm</p>","","","","","","","","",""
"html-keyboard-response","274","654616","0.0-14.0-0.23","61143bd22a1649da3b52ae32","650c16f0f2faf8d7a0d14c09","651d21f6376e523635797796","null","null","<p style=""font-size: 60px; font-family: BACS"">DBklYDE</p>","","","","","","","","",""
"html-keyboard-response","275","655632","0.0-14.0-0.24","61143bd22a1649da3b52ae32","650c16f0f2faf8d7a0d14c09","651d21f6376e523635797796","null","null","<p style=""font-size: 60px; font-family: BACS"">BlmcldBC</p>","","","","","","","","",""
"html-keyboard-response","276","656641","0.0-14.0-0.25","61143bd22a1649da3b52ae32","650c16f0f2faf8d7a0d14c09","651d21f6376e523635797796","null","null","<p style=""font-size: 60px; font-family: BACS"">DcPTchRKm</p>","","","","","","","","",""
"html-keyboard-response","277","657657","0.0-14.0-0.26","61143bd22a1649da3b52ae32","650c16f0f2faf8d7a0d14c09","651d21f6376e523635797796","null","null","<p style=""font-size: 60px; font-family: BACS"">adYrcNac</p>","","","","","","","","",""
"html-keyboard-response","278","658662","0.0-14.0-0.27","61143bd22a1649da3b52ae32","650c16f0f2faf8d7a0d14c09","651d21f6376e523635797796","null","null","<p style=""font-size: 60px; font-family: BACS"">BlmclEcR</p>","","","","","","","","",""
"html-keyboard-response","279","659671","0.0-14.0-0.28","61143bd22a1649da3b52ae32","650c16f0f2faf8d7a0d14c09","651d21f6376e523635797796","null","null","<p style=""font-size: 60px; font-family: BACS"">UdbdAvdk</p>","","","","","","","","",""
"html-keyboard-response","280","660679","0.0-14.0-0.29","61143bd22a1649da3b52ae32","650c16f0f2faf8d7a0d14c09","651d21f6376e523635797796","null","null","<p style=""font-size: 60px; font-family: BACS"">DBkldBC</p>","","","","","","","","",""
"html-keyboard-response","281","661690","0.0-14.0-0.30","61143bd22a1649da3b52ae32","650c16f0f2faf8d7a0d14c09","651d21f6376e523635797796","null","null","<p style=""font-size: 60px; font-family: BACS"">udkmuda</p>","","","","","","","","",""
"html-keyboard-response","282","662706","0.0-14.0-0.31","61143bd22a1649da3b52ae32","650c16f0f2faf8d7a0d14c09","651d21f6376e523635797796","null","null","<p style=""font-size: 60px; font-family: BACS"">alJYNac</p>","","","","","","","","",""
"html-keyboard-response","283","663722","0.0-14.0-0.32","61143bd22a1649da3b52ae32","650c16f0f2faf8d7a0d14c09","651d21f6376e523635797796","null","null","<p style=""font-size: 60px; font-family: BACS"">YdudAvdk</p>","","","","","","","","",""
"html-keyboard-response","284","664724","0.0-14.0-0.33","61143bd22a1649da3b52ae32","650c16f0f2faf8d7a0d14c09","651d21f6376e523635797796","null","null","<p style=""font-size: 60px; font-family: BACS"">hYDmthRKm</p>","","","","","","","","",""
"html-keyboard-response","285","665729","0.0-14.0-0.34","61143bd22a1649da3b52ae32","650c16f0f2faf8d7a0d14c09","651d21f6376e523635797796","null","null","<p style=""font-size: 60px; font-family: BACS"">QbkAcrGl</p>","","","","","","","","",""
"html-keyboard-response","286","666743","0.0-14.0-0.35","61143bd22a1649da3b52ae32","650c16f0f2faf8d7a0d14c09","651d21f6376e523635797796","null","null","<p style=""font-size: 60px; font-family: BACS"">BlmclAdYl</p>","","","","","","","","",""
"html-keyboard-response","287","667746","0.0-14.0-0.36","61143bd22a1649da3b52ae32","650c16f0f2faf8d7a0d14c09","651d21f6376e523635797796","null","null","<p style=""font-size: 60px; font-family: BACS"">DBklhRKm</p>","","","","","","","","",""
"html-keyboard-response","288","668761","0.0-14.0-0.37","61143bd22a1649da3b52ae32","650c16f0f2faf8d7a0d14c09","651d21f6376e523635797796","null","null","<p style=""font-size: 60px; font-family: BACS"">alJYuda</p>","","","","","","","","",""
"html-keyboard-response","289","669771","0.0-14.0-0.38","61143bd22a1649da3b52ae32","650c16f0f2faf8d7a0d14c09","651d21f6376e523635797796","null","null","<p style=""font-size: 60px; font-family: BACS"">DdckdBC</p>","","","","","","","","",""
"html-keyboard-response","290","670787","0.0-14.0-0.39","61143bd22a1649da3b52ae32","650c16f0f2faf8d7a0d14c09","651d21f6376e523635797796","null","null","<p style=""font-size: 60px; font-family: BACS"">bYuQAvdk</p>","","","","","","","","",""
"html-keyboard-response","291","671793","0.0-14.0-0.40","61143bd22a1649da3b52ae32","650c16f0f2faf8d7a0d14c09","651d21f6376e523635797796","null","null","<p style=""font-size: 60px; font-family: BACS"">DcPTcEcR</p>","","","","","","","","",""
"html-keyboard-response","292","672796","0.0-14.0-0.41","61143bd22a1649da3b52ae32","650c16f0f2faf8d7a0d14c09","651d21f6376e523635797796","null","null","<p style=""font-size: 60px; font-family: BACS"">kZUbrAm</p>","","","","","","","","",""
"html-keyboard-response","293","673803","0.0-14.0-0.42","61143bd22a1649da3b52ae32","650c16f0f2faf8d7a0d14c09","651d21f6376e523635797796","null","null","<p style=""font-size: 60px; font-family: BACS"">DhMtYDE</p>","","","","","","","","",""
"html-keyboard-response","294","674811","0.0-14.0-0.43","61143bd22a1649da3b52ae32","650c16f0f2faf8d7a0d14c09","651d21f6376e523635797796","null","null","<p style=""font-size: 60px; font-family: BACS"">lBKtEcR</p>","","","","","","","","",""
"html-keyboard-response","295","675828","0.0-14.0-0.44","61143bd22a1649da3b52ae32","650c16f0f2faf8d7a0d14c09","651d21f6376e523635797796","null","null","<p style=""font-size: 60px; font-family: BACS"">BlmclhRKm</p>","","","","","","","","",""
"html-keyboard-response","296","676843","0.0-14.0-0.45","61143bd22a1649da3b52ae32","650c16f0f2faf8d7a0d14c09","651d21f6376e523635797796","null","null","<p style=""font-size: 60px; font-family: BACS"">kZUbuda</p>","","","","","","","","",""
"html-keyboard-response","297","677845","0.0-14.0-0.46","61143bd22a1649da3b52ae32","650c16f0f2faf8d7a0d14c09","651d21f6376e523635797796","null","null","<p style=""font-size: 60px; font-family: BACS"">DdckEcR</p>","","","","","","","","",""
"html-keyboard-response","298","678850","0.0-14.0-0.47","61143bd22a1649da3b52ae32","650c16f0f2faf8d7a0d14c09","651d21f6376e523635797796","null","null","<p style=""font-size: 60px; font-family: BACS"">lBKtAdYl</p>","","","","","","","","",""
"html-keyboard-response","299","679857","0.0-14.0-0.48","61143bd22a1649da3b52ae32","650c16f0f2faf8d7a0d14c09","651d21f6376e523635797796","null","null","<p style=""font-size: 60px; font-family: BACS"">DcPTcdBC</p>","","","","","","","","",""
"html-keyboard-response","300","680859","0.0-14.0-0.49","61143bd22a1649da3b52ae32","650c16f0f2faf8d7a0d14c09","651d21f6376e523635797796","null","null","<p style=""font-size: 60px; font-family: BACS"">lBKtYDE</p>","","","","","","","","",""
"html-keyboard-response","301","681868","0.0-14.0-0.50","61143bd22a1649da3b52ae32","650c16f0f2faf8d7a0d14c09","651d21f6376e523635797796","null","null","<p style=""font-size: 60px; font-family: BACS"">Udbduda</p>","","","","","","","","",""
"html-keyboard-response","302","682881","0.0-14.0-0.51","61143bd22a1649da3b52ae32","650c16f0f2faf8d7a0d14c09","651d21f6376e523635797796","null","null","<p style=""font-size: 60px; font-family: BACS"">adYrcrAm</p>","","","","","","","","",""
"html-keyboard-response","303","683894","0.0-14.0-0.52","61143bd22a1649da3b52ae32","650c16f0f2faf8d7a0d14c09","651d21f6376e523635797796","null","null","<p style=""font-size: 60px; font-family: BACS"">lCbcmAdYl</p>","","","","","","","","",""
"html-keyboard-response","304","684909","0.0-14.0-0.53","61143bd22a1649da3b52ae32","650c16f0f2faf8d7a0d14c09","651d21f6376e523635797796","null","null","<p style=""font-size: 60px; font-family: BACS"">bYuQrAm</p>","","","","","","","","",""
"html-keyboard-response","305","685920","0.0-14.0-0.54","61143bd22a1649da3b52ae32","650c16f0f2faf8d7a0d14c09","651d21f6376e523635797796","null","null","<p style=""font-size: 60px; font-family: BACS"">YcdOrGl</p>","","","","","","","","",""
"html-keyboard-response","306","686927","0.0-14.0-0.55","61143bd22a1649da3b52ae32","650c16f0f2faf8d7a0d14c09","651d21f6376e523635797796","null","null","<p style=""font-size: 60px; font-family: BACS"">Ydududa</p>","","","","","","","","",""
"html-keyboard-response","307","687937","0.0-14.0-0.56","61143bd22a1649da3b52ae32","650c16f0f2faf8d7a0d14c09","651d21f6376e523635797796","null","null","<p style=""font-size: 60px; font-family: BACS"">hYDmtAdYl</p>","","","","","","","","",""
"html-keyboard-response","308","688940","0.0-14.0-0.57","61143bd22a1649da3b52ae32","650c16f0f2faf8d7a0d14c09","651d21f6376e523635797796","null","null","<p style=""font-size: 60px; font-family: BACS"">NaAQdrGl</p>","","","","","","","","",""
"html-keyboard-response","309","689956","0.0-14.0-0.58","61143bd22a1649da3b52ae32","650c16f0f2faf8d7a0d14c09","651d21f6376e523635797796","null","null","<p style=""font-size: 60px; font-family: BACS"">QbkAcrAm</p>","","","","","","","","",""
"html-keyboard-response","310","690962","0.0-14.0-0.59","61143bd22a1649da3b52ae32","650c16f0f2faf8d7a0d14c09","651d21f6376e523635797796","null","null","<p style=""font-size: 60px; font-family: BACS"">udkmrGl</p>","","","","","","","","",""
"html-keyboard-response","311","691974","0.0-14.0-0.60","61143bd22a1649da3b52ae32","650c16f0f2faf8d7a0d14c09","651d21f6376e523635797796","null","null","<p style=""font-size: 60px; font-family: BACS"">YcdOAvdk</p>","","","","","","","","",""
"html-keyboard-response","312","692980","0.0-14.0-0.61","61143bd22a1649da3b52ae32","650c16f0f2faf8d7a0d14c09","651d21f6376e523635797796","null","null","<p style=""font-size: 60px; font-family: BACS"">tRPDYDE</p>","","","","","","","","",""
"html-keyboard-response","313","693993","0.0-14.0-0.62","61143bd22a1649da3b52ae32","650c16f0f2faf8d7a0d14c09","651d21f6376e523635797796","null","null","<p style=""font-size: 60px; font-family: BACS"">QbkAcNac</p>","","","","","","","","",""
"html-keyboard-response","314","695008","0.0-14.0-0.63","61143bd22a1649da3b52ae32","650c16f0f2faf8d7a0d14c09","651d21f6376e523635797796","null","null","<p style=""font-size: 60px; font-family: BACS"">UdbdrAm</p>","","","","","","","","",""
"html-keyboard-response","315","696011","0.0-14.0-0.64","61143bd22a1649da3b52ae32","650c16f0f2faf8d7a0d14c09","651d21f6376e523635797796","null","null","<p style=""font-size: 60px; font-family: BACS"">NaAQdAvdk</p>","","","","","","","","",""
"html-keyboard-response","316","697026","0.0-14.0-0.65","61143bd22a1649da3b52ae32","650c16f0f2faf8d7a0d14c09","651d21f6376e523635797796","null","null","<p style=""font-size: 60px; font-family: BACS"">kZUbrGl</p>","","","","","","","","",""
"html-keyboard-response","317","698030","0.0-14.0-0.66","61143bd22a1649da3b52ae32","650c16f0f2faf8d7a0d14c09","651d21f6376e523635797796","null","null","<p style=""font-size: 60px; font-family: BACS"">NaAQdNac</p>","","","","","","","","",""
"html-keyboard-response","318","699043","0.0-14.0-0.67","61143bd22a1649da3b52ae32","650c16f0f2faf8d7a0d14c09","651d21f6376e523635797796","null","null","<p style=""font-size: 60px; font-family: BACS"">DhMtdBC</p>","","","","","","","","",""
"html-keyboard-response","319","700046","0.0-14.0-0.68","61143bd22a1649da3b52ae32","650c16f0f2faf8d7a0d14c09","651d21f6376e523635797796","null","null","<p style=""font-size: 60px; font-family: BACS"">YdudNac</p>","","","","","","","","",""
"html-keyboard-response","320","701061","0.0-14.0-0.69","61143bd22a1649da3b52ae32","650c16f0f2faf8d7a0d14c09","651d21f6376e523635797796","null","null","<p style=""font-size: 60px; font-family: BACS"">adYrcuda</p>","","","","","","","","",""
"html-keyboard-response","321","702067","0.0-14.0-0.70","61143bd22a1649da3b52ae32","650c16f0f2faf8d7a0d14c09","651d21f6376e523635797796","null","null","<p style=""font-size: 60px; font-family: BACS"">tRPDhRKm</p>","","","","","","","","",""
"html-keyboard-response","322","703084","0.0-14.0-0.71","61143bd22a1649da3b52ae32","650c16f0f2faf8d7a0d14c09","651d21f6376e523635797796","null","null","<p style=""font-size: 60px; font-family: BACS"">bYuQrGl</p>","","","","","","","","",""
"html-keyboard-response","323","704095","0.0-14.0-0.72","61143bd22a1649da3b52ae32","650c16f0f2faf8d7a0d14c09","651d21f6376e523635797796","null","null","<p style=""font-size: 60px; font-family: BACS"">DBklEcR</p>","","","","","","","","",""
"html-keyboard-response","324","705107","0.0-14.0-0.73","61143bd22a1649da3b52ae32","650c16f0f2faf8d7a0d14c09","651d21f6376e523635797796","null","null","<p style=""font-size: 60px; font-family: BACS"">lCbcmYDE</p>","","","","","","","","",""
"html-keyboard-response","325","706109","0.0-14.0-0.74","61143bd22a1649da3b52ae32","650c16f0f2faf8d7a0d14c09","651d21f6376e523635797796","null","null","<p style=""font-size: 60px; font-family: BACS"">DdckAdYl</p>","","","","","","","","",""
"html-keyboard-response","326","707123","0.0-14.0-0.75","61143bd22a1649da3b52ae32","650c16f0f2faf8d7a0d14c09","651d21f6376e523635797796","null","null","<p style=""font-size: 60px; font-family: BACS"">OMlTEcR</p>","","","","","","","","",""
"html-keyboard-response","327","708126","0.0-14.0-0.76","61143bd22a1649da3b52ae32","650c16f0f2faf8d7a0d14c09","651d21f6376e523635797796","null","null","<p style=""font-size: 60px; font-family: BACS"">bYuQNac</p>","","","","","","","","",""
"html-keyboard-response","328","709131","0.0-14.0-0.77","61143bd22a1649da3b52ae32","650c16f0f2faf8d7a0d14c09","651d21f6376e523635797796","null","null","<p style=""font-size: 60px; font-family: BACS"">OMlTYDE</p>","","","","","","","","",""
"html-keyboard-response","329","710132","0.0-14.0-0.78","61143bd22a1649da3b52ae32","650c16f0f2faf8d7a0d14c09","651d21f6376e523635797796","null","null","<p style=""font-size: 60px; font-family: BACS"">YdudrAm</p>","","","","","","","","",""
"html-keyboard-response","330","711146","0.0-14.0-0.79","61143bd22a1649da3b52ae32","650c16f0f2faf8d7a0d14c09","651d21f6376e523635797796","null","null","<p style=""font-size: 60px; font-family: BACS"">YcdOuda</p>","","","","","","","","",""
"html-keyboard-response","331","719651","0.0-15.0","61143bd22a1649da3b52ae32","650c16f0f2faf8d7a0d14c09","651d21f6376e523635797796","8504"," ","<p>Great, you've seen the fourth block of words. You may now take a short break.</p>
      <p>Press the spacebar when you're ready to continue.</p>","","","","","","","","",""
"html-keyboard-response","332","720658","0.0-16.0-0.0","61143bd22a1649da3b52ae32","650c16f0f2faf8d7a0d14c09","651d21f6376e523635797796","null","null","<p style=""font-size: 60px; font-family: BACS"">BlmcldBC</p>","","","","","","","","",""
"html-keyboard-response","333","721667","0.0-16.0-0.1","61143bd22a1649da3b52ae32","650c16f0f2faf8d7a0d14c09","651d21f6376e523635797796","null","null","<p style=""font-size: 60px; font-family: BACS"">BlmcldBC</p>","","","","","","","","",""
"html-keyboard-response","334","722672","0.0-16.0-0.2","61143bd22a1649da3b52ae32","650c16f0f2faf8d7a0d14c09","651d21f6376e523635797796","null","null","<p style=""font-size: 60px; font-family: BACS"">BlmcldBC</p>","","","","","","","","",""
"html-keyboard-response","335","723684","0.0-16.0-0.3","61143bd22a1649da3b52ae32","650c16f0f2faf8d7a0d14c09","651d21f6376e523635797796","null","null","<p style=""font-size: 60px; font-family: BACS"">BlmcldBC</p>","","","","","","","","",""
"html-keyboard-response","336","724691","0.0-16.0-0.4","61143bd22a1649da3b52ae32","650c16f0f2faf8d7a0d14c09","651d21f6376e523635797796","null","null","<p style=""font-size: 60px; font-family: BACS"">BlmcldBC</p>","","","","","","","","",""
"html-keyboard-response","337","725707","0.0-16.0-0.5","61143bd22a1649da3b52ae32","650c16f0f2faf8d7a0d14c09","651d21f6376e523635797796","null","null","<p style=""font-size: 60px; font-family: BACS"">BlmcldBC</p>","","","","","","","","",""
"html-keyboard-response","338","726715","0.0-16.0-0.6","61143bd22a1649da3b52ae32","650c16f0f2faf8d7a0d14c09","651d21f6376e523635797796","null","null","<p style=""font-size: 60px; font-family: BACS"">BlmcldBC</p>","","","","","","","","",""
"html-keyboard-response","339","727718","0.0-16.0-0.7","61143bd22a1649da3b52ae32","650c16f0f2faf8d7a0d14c09","651d21f6376e523635797796","null","null","<p style=""font-size: 60px; font-family: BACS"">BlmcldBC</p>","","","","","","","","",""
"html-keyboard-response","340","728726","0.0-16.0-0.8","61143bd22a1649da3b52ae32","650c16f0f2faf8d7a0d14c09","651d21f6376e523635797796","null","null","<p style=""font-size: 60px; font-family: BACS"">BlmcldBC</p>","","","","","","","","",""
"html-keyboard-response","341","729730","0.0-16.0-0.9","61143bd22a1649da3b52ae32","650c16f0f2faf8d7a0d14c09","651d21f6376e523635797796","null","null","<p style=""font-size: 60px; font-family: BACS"">BlmcldBC</p>","","","","","","","","",""
"html-keyboard-response","342","730742","0.0-16.0-0.10","61143bd22a1649da3b52ae32","650c16f0f2faf8d7a0d14c09","651d21f6376e523635797796","null","null","<p style=""font-size: 60px; font-family: BACS"">BlmcldBC</p>","","","","","","","","",""
"html-keyboard-response","343","731758","0.0-16.0-0.11","61143bd22a1649da3b52ae32","650c16f0f2faf8d7a0d14c09","651d21f6376e523635797796","null","null","<p style=""font-size: 60px; font-family: BACS"">BlmcldBC</p>","","","","","","","","",""
"html-keyboard-response","344","732772","0.0-16.0-0.12","61143bd22a1649da3b52ae32","650c16f0f2faf8d7a0d14c09","651d21f6376e523635797796","null","null","<p style=""font-size: 60px; font-family: BACS"">BlmcldBC</p>","","","","","","","","",""
"html-keyboard-response","345","733777","0.0-16.0-0.13","61143bd22a1649da3b52ae32","650c16f0f2faf8d7a0d14c09","651d21f6376e523635797796","null","null","<p style=""font-size: 60px; font-family: BACS"">BlmcldBC</p>","","","","","","","","",""
"html-keyboard-response","346","734782","0.0-16.0-0.14","61143bd22a1649da3b52ae32","650c16f0f2faf8d7a0d14c09","651d21f6376e523635797796","null","null","<p style=""font-size: 60px; font-family: BACS"">BlmcldBC</p>","","","","","","","","",""
"html-keyboard-response","347","735787","0.0-16.0-0.15","61143bd22a1649da3b52ae32","650c16f0f2faf8d7a0d14c09","651d21f6376e523635797796","null","null","<p style=""font-size: 60px; font-family: BACS"">BlmcldBC</p>","","","","","","","","",""
"html-keyboard-response","348","736796","0.0-16.0-0.16","61143bd22a1649da3b52ae32","650c16f0f2faf8d7a0d14c09","651d21f6376e523635797796","null","null","<p style=""font-size: 60px; font-family: BACS"">BlmcldBC</p>","","","","","","","","",""
"html-keyboard-response","349","737810","0.0-16.0-0.17","61143bd22a1649da3b52ae32","650c16f0f2faf8d7a0d14c09","651d21f6376e523635797796","null","null","<p style=""font-size: 60px; font-family: BACS"">BlmcldBC</p>","","","","","","","","",""
"html-keyboard-response","350","738825","0.0-16.0-0.18","61143bd22a1649da3b52ae32","650c16f0f2faf8d7a0d14c09","651d21f6376e523635797796","null","null","<p style=""font-size: 60px; font-family: BACS"">BlmcldBC</p>","","","","","","","","",""
"html-keyboard-response","351","739829","0.0-16.0-0.19","61143bd22a1649da3b52ae32","650c16f0f2faf8d7a0d14c09","651d21f6376e523635797796","null","null","<p style=""font-size: 60px; font-family: BACS"">BlmcldBC</p>","","","","","","","","",""
"html-keyboard-response","352","740835","0.0-16.0-0.20","61143bd22a1649da3b52ae32","650c16f0f2faf8d7a0d14c09","651d21f6376e523635797796","null","null","<p style=""font-size: 60px; font-family: BACS"">BlmcldBC</p>","","","","","","","","",""
"html-keyboard-response","353","741843","0.0-16.0-0.21","61143bd22a1649da3b52ae32","650c16f0f2faf8d7a0d14c09","651d21f6376e523635797796","null","null","<p style=""font-size: 60px; font-family: BACS"">BlmcldBC</p>","","","","","","","","",""
"html-keyboard-response","354","742844","0.0-16.0-0.22","61143bd22a1649da3b52ae32","650c16f0f2faf8d7a0d14c09","651d21f6376e523635797796","null","null","<p style=""font-size: 60px; font-family: BACS"">BlmcldBC</p>","","","","","","","","",""
"html-keyboard-response","355","743858","0.0-16.0-0.23","61143bd22a1649da3b52ae32","650c16f0f2faf8d7a0d14c09","651d21f6376e523635797796","null","null","<p style=""font-size: 60px; font-family: BACS"">BlmcldBC</p>","","","","","","","","",""
"html-keyboard-response","356","744874","0.0-16.0-0.24","61143bd22a1649da3b52ae32","650c16f0f2faf8d7a0d14c09","651d21f6376e523635797796","null","null","<p style=""font-size: 60px; font-family: BACS"">BlmcldBC</p>","","","","","","","","",""
"html-keyboard-response","357","745875","0.0-16.0-0.25","61143bd22a1649da3b52ae32","650c16f0f2faf8d7a0d14c09","651d21f6376e523635797796","null","null","<p style=""font-size: 60px; font-family: BACS"">BlmcldBC</p>","","","","","","","","",""
"html-keyboard-response","358","746882","0.0-16.0-0.26","61143bd22a1649da3b52ae32","650c16f0f2faf8d7a0d14c09","651d21f6376e523635797796","null","null","<p style=""font-size: 60px; font-family: BACS"">BlmcldBC</p>","","","","","","","","",""
"html-keyboard-response","359","747892","0.0-16.0-0.27","61143bd22a1649da3b52ae32","650c16f0f2faf8d7a0d14c09","651d21f6376e523635797796","null","null","<p style=""font-size: 60px; font-family: BACS"">BlmcldBC</p>","","","","","","","","",""
"html-keyboard-response","360","748906","0.0-16.0-0.28","61143bd22a1649da3b52ae32","650c16f0f2faf8d7a0d14c09","651d21f6376e523635797796","null","null","<p style=""font-size: 60px; font-family: BACS"">BlmcldBC</p>","","","","","","","","",""
"html-keyboard-response","361","749912","0.0-16.0-0.29","61143bd22a1649da3b52ae32","650c16f0f2faf8d7a0d14c09","651d21f6376e523635797796","null","null","<p style=""font-size: 60px; font-family: BACS"">BlmcldBC</p>","","","","","","","","",""
"html-keyboard-response","362","750923","0.0-16.0-0.30","61143bd22a1649da3b52ae32","650c16f0f2faf8d7a0d14c09","651d21f6376e523635797796","null","null","<p style=""font-size: 60px; font-family: BACS"">BlmcldBC</p>","","","","","","","","",""
"html-keyboard-response","363","751934","0.0-16.0-0.31","61143bd22a1649da3b52ae32","650c16f0f2faf8d7a0d14c09","651d21f6376e523635797796","null","null","<p style=""font-size: 60px; font-family: BACS"">BlmcldBC</p>","","","","","","","","",""
"html-keyboard-response","364","752945","0.0-16.0-0.32","61143bd22a1649da3b52ae32","650c16f0f2faf8d7a0d14c09","651d21f6376e523635797796","null","null","<p style=""font-size: 60px; font-family: BACS"">BlmcldBC</p>","","","","","","","","",""
"html-keyboard-response","365","753961","0.0-16.0-0.33","61143bd22a1649da3b52ae32","650c16f0f2faf8d7a0d14c09","651d21f6376e523635797796","null","null","<p style=""font-size: 60px; font-family: BACS"">BlmcldBC</p>","","","","","","","","",""
"html-keyboard-response","366","754972","0.0-16.0-0.34","61143bd22a1649da3b52ae32","650c16f0f2faf8d7a0d14c09","651d21f6376e523635797796","null","null","<p style=""font-size: 60px; font-family: BACS"">BlmcldBC</p>","","","","","","","","",""
"html-keyboard-response","367","755979","0.0-16.0-0.35","61143bd22a1649da3b52ae32","650c16f0f2faf8d7a0d14c09","651d21f6376e523635797796","null","null","<p style=""font-size: 60px; font-family: BACS"">BlmcldBC</p>","","","","","","","","",""
"html-keyboard-response","368","756989","0.0-16.0-0.36","61143bd22a1649da3b52ae32","650c16f0f2faf8d7a0d14c09","651d21f6376e523635797796","null","null","<p style=""font-size: 60px; font-family: BACS"">BlmcldBC</p>","","","","","","","","",""
"html-keyboard-response","369","757995","0.0-16.0-0.37","61143bd22a1649da3b52ae32","650c16f0f2faf8d7a0d14c09","651d21f6376e523635797796","null","null","<p style=""font-size: 60px; font-family: BACS"">BlmcldBC</p>","","","","","","","","",""
"html-keyboard-response","370","758999","0.0-16.0-0.38","61143bd22a1649da3b52ae32","650c16f0f2faf8d7a0d14c09","651d21f6376e523635797796","null","null","<p style=""font-size: 60px; font-family: BACS"">BlmcldBC</p>","","","","","","","","",""
"html-keyboard-response","371","760009","0.0-16.0-0.39","61143bd22a1649da3b52ae32","650c16f0f2faf8d7a0d14c09","651d21f6376e523635797796","null","null","<p style=""font-size: 60px; font-family: BACS"">BlmcldBC</p>","","","","","","","","",""
"html-keyboard-response","372","761025","0.0-16.0-0.40","61143bd22a1649da3b52ae32","650c16f0f2faf8d7a0d14c09","651d21f6376e523635797796","null","null","<p style=""font-size: 60px; font-family: BACS"">BlmcldBC</p>","","","","","","","","",""
"html-keyboard-response","373","762029","0.0-16.0-0.41","61143bd22a1649da3b52ae32","650c16f0f2faf8d7a0d14c09","651d21f6376e523635797796","null","null","<p style=""font-size: 60px; font-family: BACS"">BlmcldBC</p>","","","","","","","","",""
"html-keyboard-response","374","763044","0.0-16.0-0.42","61143bd22a1649da3b52ae32","650c16f0f2faf8d7a0d14c09","651d21f6376e523635797796","null","null","<p style=""font-size: 60px; font-family: BACS"">BlmcldBC</p>","","","","","","","","",""
"html-keyboard-response","375","764057","0.0-16.0-0.43","61143bd22a1649da3b52ae32","650c16f0f2faf8d7a0d14c09","651d21f6376e523635797796","null","null","<p style=""font-size: 60px; font-family: BACS"">BlmcldBC</p>","","","","","","","","",""
"html-keyboard-response","376","765073","0.0-16.0-0.44","61143bd22a1649da3b52ae32","650c16f0f2faf8d7a0d14c09","651d21f6376e523635797796","null","null","<p style=""font-size: 60px; font-family: BACS"">BlmcldBC</p>","","","","","","","","",""
"html-keyboard-response","377","766089","0.0-16.0-0.45","61143bd22a1649da3b52ae32","650c16f0f2faf8d7a0d14c09","651d21f6376e523635797796","null","null","<p style=""font-size: 60px; font-family: BACS"">BlmcldBC</p>","","","","","","","","",""
"html-keyboard-response","378","767092","0.0-16.0-0.46","61143bd22a1649da3b52ae32","650c16f0f2faf8d7a0d14c09","651d21f6376e523635797796","null","null","<p style=""font-size: 60px; font-family: BACS"">BlmcldBC</p>","","","","","","","","",""
"html-keyboard-response","379","768108","0.0-16.0-0.47","61143bd22a1649da3b52ae32","650c16f0f2faf8d7a0d14c09","651d21f6376e523635797796","null","null","<p style=""font-size: 60px; font-family: BACS"">BlmcldBC</p>","","","","","","","","",""
"html-keyboard-response","380","769110","0.0-16.0-0.48","61143bd22a1649da3b52ae32","650c16f0f2faf8d7a0d14c09","651d21f6376e523635797796","null","null","<p style=""font-size: 60px; font-family: BACS"">BlmcldBC</p>","","","","","","","","",""
"html-keyboard-response","381","770121","0.0-16.0-0.49","61143bd22a1649da3b52ae32","650c16f0f2faf8d7a0d14c09","651d21f6376e523635797796","null","null","<p style=""font-size: 60px; font-family: BACS"">BlmcldBC</p>","","","","","","","","",""
"html-keyboard-response","382","771125","0.0-16.0-0.50","61143bd22a1649da3b52ae32","650c16f0f2faf8d7a0d14c09","651d21f6376e523635797796","null","null","<p style=""font-size: 60px; font-family: BACS"">BlmcldBC</p>","","","","","","","","",""
"html-keyboard-response","383","772127","0.0-16.0-0.51","61143bd22a1649da3b52ae32","650c16f0f2faf8d7a0d14c09","651d21f6376e523635797796","null","null","<p style=""font-size: 60px; font-family: BACS"">BlmcldBC</p>","","","","","","","","",""
"html-keyboard-response","384","773139","0.0-16.0-0.52","61143bd22a1649da3b52ae32","650c16f0f2faf8d7a0d14c09","651d21f6376e523635797796","null","null","<p style=""font-size: 60px; font-family: BACS"">BlmcldBC</p>","","","","","","","","",""
"html-keyboard-response","385","774142","0.0-16.0-0.53","61143bd22a1649da3b52ae32","650c16f0f2faf8d7a0d14c09","651d21f6376e523635797796","null","null","<p style=""font-size: 60px; font-family: BACS"">BlmcldBC</p>","","","","","","","","",""
"html-keyboard-response","386","775153","0.0-16.0-0.54","61143bd22a1649da3b52ae32","650c16f0f2faf8d7a0d14c09","651d21f6376e523635797796","null","null","<p style=""font-size: 60px; font-family: BACS"">BlmcldBC</p>","","","","","","","","",""
"html-keyboard-response","387","776159","0.0-16.0-0.55","61143bd22a1649da3b52ae32","650c16f0f2faf8d7a0d14c09","651d21f6376e523635797796","null","null","<p style=""font-size: 60px; font-family: BACS"">BlmcldBC</p>","","","","","","","","",""
"html-keyboard-response","388","777161","0.0-16.0-0.56","61143bd22a1649da3b52ae32","650c16f0f2faf8d7a0d14c09","651d21f6376e523635797796","null","null","<p style=""font-size: 60px; font-family: BACS"">BlmcldBC</p>","","","","","","","","",""
"html-keyboard-response","389","778176","0.0-16.0-0.57","61143bd22a1649da3b52ae32","650c16f0f2faf8d7a0d14c09","651d21f6376e523635797796","null","null","<p style=""font-size: 60px; font-family: BACS"">BlmcldBC</p>","","","","","","","","",""
"html-keyboard-response","390","779187","0.0-16.0-0.58","61143bd22a1649da3b52ae32","650c16f0f2faf8d7a0d14c09","651d21f6376e523635797796","null","null","<p style=""font-size: 60px; font-family: BACS"">BlmcldBC</p>","","","","","","","","",""
"html-keyboard-response","391","780192","0.0-16.0-0.59","61143bd22a1649da3b52ae32","650c16f0f2faf8d7a0d14c09","651d21f6376e523635797796","null","null","<p style=""font-size: 60px; font-family: BACS"">BlmcldBC</p>","","","","","","","","",""
"html-keyboard-response","392","781194","0.0-16.0-0.60","61143bd22a1649da3b52ae32","650c16f0f2faf8d7a0d14c09","651d21f6376e523635797796","null","null","<p style=""font-size: 60px; font-family: BACS"">BlmcldBC</p>","","","","","","","","",""
"html-keyboard-response","393","782197","0.0-16.0-0.61","61143bd22a1649da3b52ae32","650c16f0f2faf8d7a0d14c09","651d21f6376e523635797796","null","null","<p style=""font-size: 60px; font-family: BACS"">BlmcldBC</p>","","","","","","","","",""
"html-keyboard-response","394","783217","0.0-16.0-0.62","61143bd22a1649da3b52ae32","650c16f0f2faf8d7a0d14c09","651d21f6376e523635797796","null","null","<p style=""font-size: 60px; font-family: BACS"">BlmcldBC</p>","","","","","","","","",""
"html-keyboard-response","395","784222","0.0-16.0-0.63","61143bd22a1649da3b52ae32","650c16f0f2faf8d7a0d14c09","651d21f6376e523635797796","null","null","<p style=""font-size: 60px; font-family: BACS"">BlmcldBC</p>","","","","","","","","",""
"html-keyboard-response","396","785236","0.0-16.0-0.64","61143bd22a1649da3b52ae32","650c16f0f2faf8d7a0d14c09","651d21f6376e523635797796","null","null","<p style=""font-size: 60px; font-family: BACS"">BlmcldBC</p>","","","","","","","","",""
"html-keyboard-response","397","786238","0.0-16.0-0.65","61143bd22a1649da3b52ae32","650c16f0f2faf8d7a0d14c09","651d21f6376e523635797796","null","null","<p style=""font-size: 60px; font-family: BACS"">BlmcldBC</p>","","","","","","","","",""
"html-keyboard-response","398","787257","0.0-16.0-0.66","61143bd22a1649da3b52ae32","650c16f0f2faf8d7a0d14c09","651d21f6376e523635797796","null","null","<p style=""font-size: 60px; font-family: BACS"">BlmcldBC</p>","","","","","","","","",""
