"trial_type","trial_index","time_elapsed","internal_node_id","subject_id","study_id","session_id","rt","response","stimulus","success","item","task","correct_response","correct","target","confound","name"
"pavlovia","0","3542","0.0-0.0","60c9c6e1728092717b93abde","64afc2c9a8732ea92db0087d","64afd7f3917cda449a4d48bb","","","","","","","","","","",""
"survey-html-form","1","12094","0.0-1.0","60c9c6e1728092717b93abde","64afc2c9a8732ea92db0087d","64afd7f3917cda449a4d48bb","8551","{""ID"":""60c9c6e1728092717b93abde""}","","","","","","","","",""
"html-keyboard-response","2","434725","0.0-2.0","60c9c6e1728092717b93abde","64afc2c9a8732ea92db0087d","64afd7f3917cda449a4d48bb","422630"," ","<p style=""font-size: 15px;"">Prima di cominciare, le chiediamo di leggere il modulo di consenso informato e confermare la sua volontà di partecipare all'esperimento.</p>
      <p style=""font-size: 15px;""> La preghiamo di ricordare che questo è un progetto di ricerca e che la sua partecipazione è completamente volontaria. Lei si potra' ritirare in qualunque momento, senza necessariamente dover dare alcuna spiegazione. Lo studio al quale Le si chiede di partecipare ha lo scopo di esaminare come i lettori elaborano le parole scritte. La somministrazione delle prove è individuale. Lei sarà impegnato in una sessione di lavoro della durata media di 10 minuti, e un questionario di 10 minuti. L’ordine delle prove ed il loro svolgimento sono stabiliti in modo tale da evitare un eventuale affaticamento. Tutte le prove saranno precedute da un breve addestramento in modo tale che abbia la possibilità di familiarizzare con il compito. Sono previste alcune pause nel corso dello svolgimento dell’esperimento. Una ricompensa di £4 (£8 per ora) Le verrà consegnata al termine della sessione di testing. Nonostante il testing preveda delle prove cognitive, il presente esperimento non costituisce una prova clinica che permetta la diagnosi di eventuali patologie.</p>
      <p style=""font-size: 15px;"">Tutti i dati raccolti grazie alla partecipazione Sua e di altre persone volontarie saranno custoditi in server sicuri e protetti da password, e non sarà consentito ad alcuna persona non autorizzata di accedervi. Le Sue informazioni personali saranno conservate separatamente dai risultati della presente ricerca, cui saranno associati soltanto attraverso un ID arbitrario. Grazie a questo processo di anonimizzazione dei dati, a nessun ricercatore sarà possibile analizzare i risultati sapendo da quale specifico partecipante essi provengono. Inoltre, questa procedura renderà impossibile la Sua identificazione anche nel momento in cui i risultati della ricerca fossero pubblicati su riviste scientifiche, o presentati a congressi o in qualsiasi altro pubblico consesso. Più in generale, i dati raccolti saranno trattati in accordo con le leggi sulla privacy e in conformità al Decreto Legislativo 30 giugno 2003 n. 196 “Codice in materia di protezione dei dati personali” e al Regolamento Europeo 2016/679 (General Data Protection Regulation - GDPR). Il Responsabile della protezione dei dati (RPD) è l’Avv. Valentina Carollo che può essere contattato ai seguenti indirizzi email: <a href=""mailto:dpo@sissa.it"">dpo@sissa.it</a> oppure <a href=""mailto:rpd@sissa.it"">rpd@sissa.it</a> - PEC: <a href=""mailto:protocollo@pec.sissa.it"">protocollo@pec.sissa.it</a>.</p>
      <p style=""font-size: 15px;""> Prima di esprimere il suo consenso alla partecipazione, Le ricordiamo ancora che in caso Lei abbia bisogno di delucidazioni su qualunque aspetto della procedura sperimentale, il ricercatore è a Sua completa disposizione (<a href=""mailto:aliebelt@sissa.it"">aliebelt@sissa.it</a>, <a href=""mailto:davide.crepaldi@sissa.it"">davide.crepaldi@sissa.it</a>).</p>
      <p style=""font-size: 15px;"">Se vuole scaricare il modulo di consenso informato, clicca qui: <a href=""BASL_modulo_consenso.pdf"" download>modulo di consenso</a>.</p>
      <p style=""font-size: 15px;""> Le chiediamo di premere la barra per continuare al consenso.</p>","","","","","","","",""
"survey-html-form","3","444297","0.0-3.0","60c9c6e1728092717b93abde","64afc2c9a8732ea92db0087d","64afd7f3917cda449a4d48bb","9570","{""consent1"":""YES"",""consent2"":""YES"",""consent3"":""YES"",""consent4"":""YES"",""consent5"":""YES"",""consent6"":""YES""}","","","","","","","","",""
"fullscreen","4","451674","0.0-4.0","60c9c6e1728092717b93abde","64afc2c9a8732ea92db0087d","64afd7f3917cda449a4d48bb","","","","true","","","","","","",""
"html-keyboard-response","5","487278","0.0-5.0","60c9c6e1728092717b93abde","64afc2c9a8732ea92db0087d","64afd7f3917cda449a4d48bb","35602"," ","<p>Benvenuta/o, e grazie mille del tuo tempo!</p>
      <p>In questo esperimento sarai un esperto/un'esperta di linguaggio cui è stato chiesto di dare un'occhiata ad alcuni messaggi che la Terra ha ricevuto dallo spazio. Il tuo compito, in questa prima parte dell'esperimento, sarà di fare molta attenzione alle parole che ti verranno mostrate; più tardi, i leader del mondo ti chiederanno qualche informazione su quello che hai visto. Le parole si susseguiranno abbastanza velocemente; sembra che questi alieni abbiano una certa fretta :-) </p>
      <p>Per favore, chiama lo sperimentatore se ha qualche domanda.</p><p>Premi la barra per continuare.</p>","","","","","","","",""
"html-keyboard-response","6","491442","0.0-6.0","60c9c6e1728092717b93abde","64afc2c9a8732ea92db0087d","64afd7f3917cda449a4d48bb","4163"," ","<p>Ecco un esempio delle parole che vedrai:</p>
      <img src='esempio.png' height='400px'>
      <p>Quando sei pronti per iniziare, premi la barra.</p></div>","","","","","","","",""
"html-keyboard-response","7","492450","0.0-7.0-0.0","60c9c6e1728092717b93abde","64afc2c9a8732ea92db0087d","64afd7f3917cda449a4d48bb","null","null","<p style=""font-size: 60px; font-family: BACS"">OLJblZckv</p>","","","","","","","",""
"html-keyboard-response","8","493458","0.0-7.0-0.1","60c9c6e1728092717b93abde","64afc2c9a8732ea92db0087d","64afd7f3917cda449a4d48bb","null","null","<p style=""font-size: 60px; font-family: BACS"">vmuLlJcL</p>","","","","","","","",""
"html-keyboard-response","9","494466","0.0-7.0-0.2","60c9c6e1728092717b93abde","64afc2c9a8732ea92db0087d","64afd7f3917cda449a4d48bb","null","null","<p style=""font-size: 60px; font-family: BACS"">TklDPEdK</p>","","","","","","","",""
"html-keyboard-response","10","495474","0.0-7.0-0.3","60c9c6e1728092717b93abde","64afc2c9a8732ea92db0087d","64afd7f3917cda449a4d48bb","null","null","<p style=""font-size: 60px; font-family: BACS"">BPAldCKc</p>","","","","","","","",""
"html-keyboard-response","11","496482","0.0-7.0-0.4","60c9c6e1728092717b93abde","64afc2c9a8732ea92db0087d","64afd7f3917cda449a4d48bb","null","null","<p style=""font-size: 60px; font-family: BACS"">adYrcdmkv</p>","","","","","","","",""
"html-keyboard-response","12","497490","0.0-7.0-0.5","60c9c6e1728092717b93abde","64afc2c9a8732ea92db0087d","64afd7f3917cda449a4d48bb","null","null","<p style=""font-size: 60px; font-family: BACS"">PCPDhCPMl</p>","","","","","","","",""
"html-keyboard-response","13","498498","0.0-7.0-0.6","60c9c6e1728092717b93abde","64afc2c9a8732ea92db0087d","64afd7f3917cda449a4d48bb","null","null","<p style=""font-size: 60px; font-family: BACS"">LvuOGLkNc</p>","","","","","","","",""
"html-keyboard-response","14","499506","0.0-7.0-0.7","60c9c6e1728092717b93abde","64afc2c9a8732ea92db0087d","64afd7f3917cda449a4d48bb","null","null","<p style=""font-size: 60px; font-family: BACS"">JuamlJcL</p>","","","","","","","",""
"html-keyboard-response","15","500514","0.0-7.0-0.8","60c9c6e1728092717b93abde","64afc2c9a8732ea92db0087d","64afd7f3917cda449a4d48bb","null","null","<p style=""font-size: 60px; font-family: BACS"">thbOMTPOM</p>","","","","","","","",""
"html-keyboard-response","16","501522","0.0-7.0-0.9","60c9c6e1728092717b93abde","64afc2c9a8732ea92db0087d","64afd7f3917cda449a4d48bb","null","null","<p style=""font-size: 60px; font-family: BACS"">mdkKCPMl</p>","","","","","","","",""
"html-keyboard-response","17","502531","0.0-7.0-0.10","60c9c6e1728092717b93abde","64afc2c9a8732ea92db0087d","64afd7f3917cda449a4d48bb","null","null","<p style=""font-size: 60px; font-family: BACS"">RCcEkKE</p>","","","","","","","",""
"html-keyboard-response","18","503538","0.0-7.0-0.11","60c9c6e1728092717b93abde","64afc2c9a8732ea92db0087d","64afd7f3917cda449a4d48bb","null","null","<p style=""font-size: 60px; font-family: BACS"">adYrcZckv</p>","","","","","","","",""
"html-keyboard-response","19","504546","0.0-7.0-0.12","60c9c6e1728092717b93abde","64afc2c9a8732ea92db0087d","64afd7f3917cda449a4d48bb","null","null","<p style=""font-size: 60px; font-family: BACS"">rvOvULkNc</p>","","","","","","","",""
"html-keyboard-response","20","505554","0.0-7.0-0.13","60c9c6e1728092717b93abde","64afc2c9a8732ea92db0087d","64afd7f3917cda449a4d48bb","null","null","<p style=""font-size: 60px; font-family: BACS"">BPAlPEdK</p>","","","","","","","",""
"html-keyboard-response","21","506562","0.0-7.0-0.14","60c9c6e1728092717b93abde","64afc2c9a8732ea92db0087d","64afd7f3917cda449a4d48bb","null","null","<p style=""font-size: 60px; font-family: BACS"">kPkRATPOM</p>","","","","","","","",""
"html-keyboard-response","22","507570","0.0-7.0-0.15","60c9c6e1728092717b93abde","64afc2c9a8732ea92db0087d","64afd7f3917cda449a4d48bb","null","null","<p style=""font-size: 60px; font-family: BACS"">RCcEdCKc</p>","","","","","","","",""
"html-keyboard-response","23","508577","0.0-7.0-0.16","60c9c6e1728092717b93abde","64afc2c9a8732ea92db0087d","64afd7f3917cda449a4d48bb","null","null","<p style=""font-size: 60px; font-family: BACS"">PCPDhPEdK</p>","","","","","","","",""
"html-keyboard-response","24","509585","0.0-7.0-0.17","60c9c6e1728092717b93abde","64afc2c9a8732ea92db0087d","64afd7f3917cda449a4d48bb","null","null","<p style=""font-size: 60px; font-family: BACS"">rvOvUdmkv</p>","","","","","","","",""
"html-keyboard-response","25","510594","0.0-7.0-0.18","60c9c6e1728092717b93abde","64afc2c9a8732ea92db0087d","64afd7f3917cda449a4d48bb","null","null","<p style=""font-size: 60px; font-family: BACS"">thbOMCPMl</p>","","","","","","","",""
"html-keyboard-response","26","511602","0.0-7.0-0.19","60c9c6e1728092717b93abde","64afc2c9a8732ea92db0087d","64afd7f3917cda449a4d48bb","null","null","<p style=""font-size: 60px; font-family: BACS"">PEtEdCKc</p>","","","","","","","",""
"html-keyboard-response","27","512609","0.0-7.0-0.20","60c9c6e1728092717b93abde","64afc2c9a8732ea92db0087d","64afd7f3917cda449a4d48bb","null","null","<p style=""font-size: 60px; font-family: BACS"">KMDYtTPOM</p>","","","","","","","",""
"html-keyboard-response","28","513618","0.0-7.0-0.21","60c9c6e1728092717b93abde","64afc2c9a8732ea92db0087d","64afd7f3917cda449a4d48bb","null","null","<p style=""font-size: 60px; font-family: BACS"">YQbcJcL</p>","","","","","","","",""
"html-keyboard-response","29","514626","0.0-7.0-0.22","60c9c6e1728092717b93abde","64afc2c9a8732ea92db0087d","64afd7f3917cda449a4d48bb","null","null","<p style=""font-size: 60px; font-family: BACS"">mdkKkKE</p>","","","","","","","",""
"html-keyboard-response","30","515634","0.0-7.0-0.23","60c9c6e1728092717b93abde","64afc2c9a8732ea92db0087d","64afd7f3917cda449a4d48bb","null","null","<p style=""font-size: 60px; font-family: BACS"">YQbcZckv</p>","","","","","","","",""
"html-keyboard-response","31","516642","0.0-7.0-0.24","60c9c6e1728092717b93abde","64afc2c9a8732ea92db0087d","64afd7f3917cda449a4d48bb","null","null","<p style=""font-size: 60px; font-family: BACS"">OLJblkmU</p>","","","","","","","",""
"html-keyboard-response","32","517651","0.0-7.0-0.25","60c9c6e1728092717b93abde","64afc2c9a8732ea92db0087d","64afd7f3917cda449a4d48bb","null","null","<p style=""font-size: 60px; font-family: BACS"">LvuOGJcL</p>","","","","","","","",""
"html-keyboard-response","33","518658","0.0-7.0-0.26","60c9c6e1728092717b93abde","64afc2c9a8732ea92db0087d","64afd7f3917cda449a4d48bb","null","null","<p style=""font-size: 60px; font-family: BACS"">lrZGZckv</p>","","","","","","","",""
"html-keyboard-response","34","519666","0.0-7.0-0.27","60c9c6e1728092717b93abde","64afc2c9a8732ea92db0087d","64afd7f3917cda449a4d48bb","null","null","<p style=""font-size: 60px; font-family: BACS"">PEtEkKE</p>","","","","","","","",""
"html-keyboard-response","35","520674","0.0-7.0-0.28","60c9c6e1728092717b93abde","64afc2c9a8732ea92db0087d","64afd7f3917cda449a4d48bb","null","null","<p style=""font-size: 60px; font-family: BACS"">thbOMdCKc</p>","","","","","","","",""
"html-keyboard-response","36","521682","0.0-7.0-0.29","60c9c6e1728092717b93abde","64afc2c9a8732ea92db0087d","64afd7f3917cda449a4d48bb","null","null","<p style=""font-size: 60px; font-family: BACS"">lrZGdmkv</p>","","","","","","","",""
"html-keyboard-response","37","522690","0.0-7.0-0.30","60c9c6e1728092717b93abde","64afc2c9a8732ea92db0087d","64afd7f3917cda449a4d48bb","null","null","<p style=""font-size: 60px; font-family: BACS"">BPAlTPOM</p>","","","","","","","",""
"html-keyboard-response","38","523698","0.0-7.0-0.31","60c9c6e1728092717b93abde","64afc2c9a8732ea92db0087d","64afd7f3917cda449a4d48bb","null","null","<p style=""font-size: 60px; font-family: BACS"">thbOMPEdK</p>","","","","","","","",""
"html-keyboard-response","39","524706","0.0-7.0-0.32","60c9c6e1728092717b93abde","64afc2c9a8732ea92db0087d","64afd7f3917cda449a4d48bb","null","null","<p style=""font-size: 60px; font-family: BACS"">RCcETPOM</p>","","","","","","","",""
"html-keyboard-response","40","525714","0.0-7.0-0.33","60c9c6e1728092717b93abde","64afc2c9a8732ea92db0087d","64afd7f3917cda449a4d48bb","null","null","<p style=""font-size: 60px; font-family: BACS"">TklDkKE</p>","","","","","","","",""
"html-keyboard-response","41","526722","0.0-7.0-0.34","60c9c6e1728092717b93abde","64afc2c9a8732ea92db0087d","64afd7f3917cda449a4d48bb","null","null","<p style=""font-size: 60px; font-family: BACS"">PCPDhTPOM</p>","","","","","","","",""
"html-keyboard-response","42","527731","0.0-7.0-0.35","60c9c6e1728092717b93abde","64afc2c9a8732ea92db0087d","64afd7f3917cda449a4d48bb","null","null","<p style=""font-size: 60px; font-family: BACS"">vmuLldmkv</p>","","","","","","","",""
"html-keyboard-response","43","528738","0.0-7.0-0.36","60c9c6e1728092717b93abde","64afc2c9a8732ea92db0087d","64afd7f3917cda449a4d48bb","null","null","<p style=""font-size: 60px; font-family: BACS"">kPkRACPMl</p>","","","","","","","",""
"html-keyboard-response","44","529746","0.0-7.0-0.37","60c9c6e1728092717b93abde","64afc2c9a8732ea92db0087d","64afd7f3917cda449a4d48bb","null","null","<p style=""font-size: 60px; font-family: BACS"">adYrcLkNc</p>","","","","","","","",""
"html-keyboard-response","45","530754","0.0-7.0-0.38","60c9c6e1728092717b93abde","64afc2c9a8732ea92db0087d","64afd7f3917cda449a4d48bb","null","null","<p style=""font-size: 60px; font-family: BACS"">bdUNuJcL</p>","","","","","","","",""
"html-keyboard-response","46","531762","0.0-7.0-0.39","60c9c6e1728092717b93abde","64afc2c9a8732ea92db0087d","64afd7f3917cda449a4d48bb","null","null","<p style=""font-size: 60px; font-family: BACS"">PCPDhkKE</p>","","","","","","","",""
"html-keyboard-response","47","532770","0.0-7.0-0.40","60c9c6e1728092717b93abde","64afc2c9a8732ea92db0087d","64afd7f3917cda449a4d48bb","null","null","<p style=""font-size: 60px; font-family: BACS"">ukcYdmkv</p>","","","","","","","",""
"html-keyboard-response","48","533779","0.0-7.0-0.41","60c9c6e1728092717b93abde","64afc2c9a8732ea92db0087d","64afd7f3917cda449a4d48bb","null","null","<p style=""font-size: 60px; font-family: BACS"">kPkRAdCKc</p>","","","","","","","",""
"html-keyboard-response","49","534786","0.0-7.0-0.42","60c9c6e1728092717b93abde","64afc2c9a8732ea92db0087d","64afd7f3917cda449a4d48bb","null","null","<p style=""font-size: 60px; font-family: BACS"">adYrckmU</p>","","","","","","","",""
"html-keyboard-response","50","535794","0.0-7.0-0.43","60c9c6e1728092717b93abde","64afc2c9a8732ea92db0087d","64afd7f3917cda449a4d48bb","null","null","<p style=""font-size: 60px; font-family: BACS"">KMDYtCPMl</p>","","","","","","","",""
"html-keyboard-response","51","536802","0.0-7.0-0.44","60c9c6e1728092717b93abde","64afc2c9a8732ea92db0087d","64afd7f3917cda449a4d48bb","null","null","<p style=""font-size: 60px; font-family: BACS"">ukcYkmU</p>","","","","","","","",""
"html-keyboard-response","52","537810","0.0-7.0-0.45","60c9c6e1728092717b93abde","64afc2c9a8732ea92db0087d","64afd7f3917cda449a4d48bb","null","null","<p style=""font-size: 60px; font-family: BACS"">bdUNuLkNc</p>","","","","","","","",""
"html-keyboard-response","53","538817","0.0-7.0-0.46","60c9c6e1728092717b93abde","64afc2c9a8732ea92db0087d","64afd7f3917cda449a4d48bb","null","null","<p style=""font-size: 60px; font-family: BACS"">YQbckmU</p>","","","","","","","",""
"html-keyboard-response","54","539826","0.0-7.0-0.47","60c9c6e1728092717b93abde","64afc2c9a8732ea92db0087d","64afd7f3917cda449a4d48bb","null","null","<p style=""font-size: 60px; font-family: BACS"">KMDYtkKE</p>","","","","","","","",""
"html-keyboard-response","55","540834","0.0-7.0-0.48","60c9c6e1728092717b93abde","64afc2c9a8732ea92db0087d","64afd7f3917cda449a4d48bb","null","null","<p style=""font-size: 60px; font-family: BACS"">kPkRAPEdK</p>","","","","","","","",""
"html-keyboard-response","56","541842","0.0-7.0-0.49","60c9c6e1728092717b93abde","64afc2c9a8732ea92db0087d","64afd7f3917cda449a4d48bb","null","null","<p style=""font-size: 60px; font-family: BACS"">BPAlkKE</p>","","","","","","","",""
"html-keyboard-response","57","542850","0.0-7.0-0.50","60c9c6e1728092717b93abde","64afc2c9a8732ea92db0087d","64afd7f3917cda449a4d48bb","null","null","<p style=""font-size: 60px; font-family: BACS"">LvuOGdmkv</p>","","","","","","","",""
"html-keyboard-response","58","543858","0.0-7.0-0.51","60c9c6e1728092717b93abde","64afc2c9a8732ea92db0087d","64afd7f3917cda449a4d48bb","null","null","<p style=""font-size: 60px; font-family: BACS"">mBmlAdCKc</p>","","","","","","","",""
"html-keyboard-response","59","544866","0.0-7.0-0.52","60c9c6e1728092717b93abde","64afc2c9a8732ea92db0087d","64afd7f3917cda449a4d48bb","null","null","<p style=""font-size: 60px; font-family: BACS"">OLJblLkNc</p>","","","","","","","",""
"html-keyboard-response","60","545874","0.0-7.0-0.53","60c9c6e1728092717b93abde","64afc2c9a8732ea92db0087d","64afd7f3917cda449a4d48bb","null","null","<p style=""font-size: 60px; font-family: BACS"">TklDCPMl</p>","","","","","","","",""
"html-keyboard-response","61","546882","0.0-7.0-0.54","60c9c6e1728092717b93abde","64afc2c9a8732ea92db0087d","64afd7f3917cda449a4d48bb","null","null","<p style=""font-size: 60px; font-family: BACS"">Juamldmkv</p>","","","","","","","",""
"html-keyboard-response","62","547890","0.0-7.0-0.55","60c9c6e1728092717b93abde","64afc2c9a8732ea92db0087d","64afd7f3917cda449a4d48bb","null","null","<p style=""font-size: 60px; font-family: BACS"">RCcEPEdK</p>","","","","","","","",""
"html-keyboard-response","63","548897","0.0-7.0-0.56","60c9c6e1728092717b93abde","64afc2c9a8732ea92db0087d","64afd7f3917cda449a4d48bb","null","null","<p style=""font-size: 60px; font-family: BACS"">mBmlAkKE</p>","","","","","","","",""
"html-keyboard-response","64","549906","0.0-7.0-0.57","60c9c6e1728092717b93abde","64afc2c9a8732ea92db0087d","64afd7f3917cda449a4d48bb","null","null","<p style=""font-size: 60px; font-family: BACS"">ukcYJcL</p>","","","","","","","",""
"html-keyboard-response","65","550914","0.0-7.0-0.58","60c9c6e1728092717b93abde","64afc2c9a8732ea92db0087d","64afd7f3917cda449a4d48bb","null","null","<p style=""font-size: 60px; font-family: BACS"">mdkKPEdK</p>","","","","","","","",""
"html-keyboard-response","66","551921","0.0-7.0-0.59","60c9c6e1728092717b93abde","64afc2c9a8732ea92db0087d","64afd7f3917cda449a4d48bb","null","null","<p style=""font-size: 60px; font-family: BACS"">JuamlZckv</p>","","","","","","","",""
"html-keyboard-response","67","552930","0.0-7.0-0.60","60c9c6e1728092717b93abde","64afc2c9a8732ea92db0087d","64afd7f3917cda449a4d48bb","null","null","<p style=""font-size: 60px; font-family: BACS"">rvOvUkmU</p>","","","","","","","",""
"html-keyboard-response","68","553938","0.0-7.0-0.61","60c9c6e1728092717b93abde","64afc2c9a8732ea92db0087d","64afd7f3917cda449a4d48bb","null","null","<p style=""font-size: 60px; font-family: BACS"">bdUNuZckv</p>","","","","","","","",""
"html-keyboard-response","69","554946","0.0-7.0-0.62","60c9c6e1728092717b93abde","64afc2c9a8732ea92db0087d","64afd7f3917cda449a4d48bb","null","null","<p style=""font-size: 60px; font-family: BACS"">mBmlACPMl</p>","","","","","","","",""
"html-keyboard-response","70","555954","0.0-7.0-0.63","60c9c6e1728092717b93abde","64afc2c9a8732ea92db0087d","64afd7f3917cda449a4d48bb","null","null","<p style=""font-size: 60px; font-family: BACS"">KMDYtPEdK</p>","","","","","","","",""
"html-keyboard-response","71","556961","0.0-7.0-0.64","60c9c6e1728092717b93abde","64afc2c9a8732ea92db0087d","64afd7f3917cda449a4d48bb","null","null","<p style=""font-size: 60px; font-family: BACS"">LvuOGkmU</p>","","","","","","","",""
"html-keyboard-response","72","557970","0.0-7.0-0.65","60c9c6e1728092717b93abde","64afc2c9a8732ea92db0087d","64afd7f3917cda449a4d48bb","null","null","<p style=""font-size: 60px; font-family: BACS"">TklDdCKc</p>","","","","","","","",""
"html-keyboard-response","73","558978","0.0-7.0-0.66","60c9c6e1728092717b93abde","64afc2c9a8732ea92db0087d","64afd7f3917cda449a4d48bb","null","null","<p style=""font-size: 60px; font-family: BACS"">OLJbldmkv</p>","","","","","","","",""
"html-keyboard-response","74","559986","0.0-7.0-0.67","60c9c6e1728092717b93abde","64afc2c9a8732ea92db0087d","64afd7f3917cda449a4d48bb","null","null","<p style=""font-size: 60px; font-family: BACS"">lrZGJcL</p>","","","","","","","",""
"html-keyboard-response","75","560993","0.0-7.0-0.68","60c9c6e1728092717b93abde","64afc2c9a8732ea92db0087d","64afd7f3917cda449a4d48bb","null","null","<p style=""font-size: 60px; font-family: BACS"">YQbcLkNc</p>","","","","","","","",""
"html-keyboard-response","76","562002","0.0-7.0-0.69","60c9c6e1728092717b93abde","64afc2c9a8732ea92db0087d","64afd7f3917cda449a4d48bb","null","null","<p style=""font-size: 60px; font-family: BACS"">lrZGkmU</p>","","","","","","","",""
"html-keyboard-response","77","563010","0.0-7.0-0.70","60c9c6e1728092717b93abde","64afc2c9a8732ea92db0087d","64afd7f3917cda449a4d48bb","null","null","<p style=""font-size: 60px; font-family: BACS"">rvOvUJcL</p>","","","","","","","",""
"html-keyboard-response","78","564018","0.0-7.0-0.71","60c9c6e1728092717b93abde","64afc2c9a8732ea92db0087d","64afd7f3917cda449a4d48bb","null","null","<p style=""font-size: 60px; font-family: BACS"">JuamlLkNc</p>","","","","","","","",""
"html-keyboard-response","79","565026","0.0-7.0-0.72","60c9c6e1728092717b93abde","64afc2c9a8732ea92db0087d","64afd7f3917cda449a4d48bb","null","null","<p style=""font-size: 60px; font-family: BACS"">bdUNukmU</p>","","","","","","","",""
"html-keyboard-response","80","566034","0.0-7.0-0.73","60c9c6e1728092717b93abde","64afc2c9a8732ea92db0087d","64afd7f3917cda449a4d48bb","null","null","<p style=""font-size: 60px; font-family: BACS"">ukcYZckv</p>","","","","","","","",""
"html-keyboard-response","81","567041","0.0-7.0-0.74","60c9c6e1728092717b93abde","64afc2c9a8732ea92db0087d","64afd7f3917cda449a4d48bb","null","null","<p style=""font-size: 60px; font-family: BACS"">PEtECPMl</p>","","","","","","","",""
"html-keyboard-response","82","568050","0.0-7.0-0.75","60c9c6e1728092717b93abde","64afc2c9a8732ea92db0087d","64afd7f3917cda449a4d48bb","null","null","<p style=""font-size: 60px; font-family: BACS"">mdkKdCKc</p>","","","","","","","",""
"html-keyboard-response","83","569058","0.0-7.0-0.76","60c9c6e1728092717b93abde","64afc2c9a8732ea92db0087d","64afd7f3917cda449a4d48bb","null","null","<p style=""font-size: 60px; font-family: BACS"">mBmlATPOM</p>","","","","","","","",""
"html-keyboard-response","84","570067","0.0-7.0-0.77","60c9c6e1728092717b93abde","64afc2c9a8732ea92db0087d","64afd7f3917cda449a4d48bb","null","null","<p style=""font-size: 60px; font-family: BACS"">vmuLlZckv</p>","","","","","","","",""
"html-keyboard-response","85","571074","0.0-7.0-0.78","60c9c6e1728092717b93abde","64afc2c9a8732ea92db0087d","64afd7f3917cda449a4d48bb","null","null","<p style=""font-size: 60px; font-family: BACS"">PEtETPOM</p>","","","","","","","",""
"html-keyboard-response","86","572082","0.0-7.0-0.79","60c9c6e1728092717b93abde","64afc2c9a8732ea92db0087d","64afd7f3917cda449a4d48bb","null","null","<p style=""font-size: 60px; font-family: BACS"">vmuLlLkNc</p>","","","","","","","",""
"html-keyboard-response","87","574523","0.0-8.0","60c9c6e1728092717b93abde","64afc2c9a8732ea92db0087d","64afd7f3917cda449a4d48bb","2440"," ","<p>Ottimo, hai visto il primo blocco di parole. Ora puoi prenderti una piccola pausa.</p>
      <p>Premi la barra quando sei pronta/o per riprendere.</p>","","","","","","","",""
"html-keyboard-response","88","575530","0.0-9.0-0.0","60c9c6e1728092717b93abde","64afc2c9a8732ea92db0087d","64afd7f3917cda449a4d48bb","null","null","<p style=""font-size: 60px; font-family: BACS"">BPAlkKE</p>","","","","","","","",""
"html-keyboard-response","89","576538","0.0-9.0-0.1","60c9c6e1728092717b93abde","64afc2c9a8732ea92db0087d","64afd7f3917cda449a4d48bb","null","null","<p style=""font-size: 60px; font-family: BACS"">adYrckmU</p>","","","","","","","",""
"html-keyboard-response","90","577546","0.0-9.0-0.2","60c9c6e1728092717b93abde","64afc2c9a8732ea92db0087d","64afd7f3917cda449a4d48bb","null","null","<p style=""font-size: 60px; font-family: BACS"">mBmlATPOM</p>","","","","","","","",""
"html-keyboard-response","91","578554","0.0-9.0-0.3","60c9c6e1728092717b93abde","64afc2c9a8732ea92db0087d","64afd7f3917cda449a4d48bb","null","null","<p style=""font-size: 60px; font-family: BACS"">ukcYZckv</p>","","","","","","","",""
"html-keyboard-response","92","579561","0.0-9.0-0.4","60c9c6e1728092717b93abde","64afc2c9a8732ea92db0087d","64afd7f3917cda449a4d48bb","null","null","<p style=""font-size: 60px; font-family: BACS"">OLJblkmU</p>","","","","","","","",""
"html-keyboard-response","93","580570","0.0-9.0-0.5","60c9c6e1728092717b93abde","64afc2c9a8732ea92db0087d","64afd7f3917cda449a4d48bb","null","null","<p style=""font-size: 60px; font-family: BACS"">rvOvUdmkv</p>","","","","","","","",""
"html-keyboard-response","94","581578","0.0-9.0-0.6","60c9c6e1728092717b93abde","64afc2c9a8732ea92db0087d","64afd7f3917cda449a4d48bb","null","null","<p style=""font-size: 60px; font-family: BACS"">RCcEkKE</p>","","","","","","","",""
"html-keyboard-response","95","582586","0.0-9.0-0.7","60c9c6e1728092717b93abde","64afc2c9a8732ea92db0087d","64afd7f3917cda449a4d48bb","null","null","<p style=""font-size: 60px; font-family: BACS"">lrZGdmkv</p>","","","","","","","",""
"html-keyboard-response","96","583593","0.0-9.0-0.8","60c9c6e1728092717b93abde","64afc2c9a8732ea92db0087d","64afd7f3917cda449a4d48bb","null","null","<p style=""font-size: 60px; font-family: BACS"">mBmlACPMl</p>","","","","","","","",""
"html-keyboard-response","97","584602","0.0-9.0-0.9","60c9c6e1728092717b93abde","64afc2c9a8732ea92db0087d","64afd7f3917cda449a4d48bb","null","null","<p style=""font-size: 60px; font-family: BACS"">adYrcdmkv</p>","","","","","","","",""
"html-keyboard-response","98","585610","0.0-9.0-0.10","60c9c6e1728092717b93abde","64afc2c9a8732ea92db0087d","64afd7f3917cda449a4d48bb","null","null","<p style=""font-size: 60px; font-family: BACS"">mdkKdCKc</p>","","","","","","","",""
"html-keyboard-response","99","586618","0.0-9.0-0.11","60c9c6e1728092717b93abde","64afc2c9a8732ea92db0087d","64afd7f3917cda449a4d48bb","null","null","<p style=""font-size: 60px; font-family: BACS"">YQbcLkNc</p>","","","","","","","",""
"html-keyboard-response","100","587626","0.0-9.0-0.12","60c9c6e1728092717b93abde","64afc2c9a8732ea92db0087d","64afd7f3917cda449a4d48bb","null","null","<p style=""font-size: 60px; font-family: BACS"">Juamldmkv</p>","","","","","","","",""
"html-keyboard-response","101","588633","0.0-9.0-0.13","60c9c6e1728092717b93abde","64afc2c9a8732ea92db0087d","64afd7f3917cda449a4d48bb","null","null","<p style=""font-size: 60px; font-family: BACS"">mBmlAkKE</p>","","","","","","","",""
"html-keyboard-response","102","589642","0.0-9.0-0.14","60c9c6e1728092717b93abde","64afc2c9a8732ea92db0087d","64afd7f3917cda449a4d48bb","null","null","<p style=""font-size: 60px; font-family: BACS"">kPkRACPMl</p>","","","","","","","",""
"html-keyboard-response","103","590650","0.0-9.0-0.15","60c9c6e1728092717b93abde","64afc2c9a8732ea92db0087d","64afd7f3917cda449a4d48bb","null","null","<p style=""font-size: 60px; font-family: BACS"">rvOvULkNc</p>","","","","","","","",""
"html-keyboard-response","104","591658","0.0-9.0-0.16","60c9c6e1728092717b93abde","64afc2c9a8732ea92db0087d","64afd7f3917cda449a4d48bb","null","null","<p style=""font-size: 60px; font-family: BACS"">lrZGZckv</p>","","","","","","","",""
"html-keyboard-response","105","592666","0.0-9.0-0.17","60c9c6e1728092717b93abde","64afc2c9a8732ea92db0087d","64afd7f3917cda449a4d48bb","null","null","<p style=""font-size: 60px; font-family: BACS"">RCcEdCKc</p>","","","","","","","",""
"html-keyboard-response","106","593674","0.0-9.0-0.18","60c9c6e1728092717b93abde","64afc2c9a8732ea92db0087d","64afd7f3917cda449a4d48bb","null","null","<p style=""font-size: 60px; font-family: BACS"">ukcYkmU</p>","","","","","","","",""
"html-keyboard-response","107","594681","0.0-9.0-0.19","60c9c6e1728092717b93abde","64afc2c9a8732ea92db0087d","64afd7f3917cda449a4d48bb","null","null","<p style=""font-size: 60px; font-family: BACS"">bdUNuLkNc</p>","","","","","","","",""
"html-keyboard-response","108","595690","0.0-9.0-0.20","60c9c6e1728092717b93abde","64afc2c9a8732ea92db0087d","64afd7f3917cda449a4d48bb","null","null","<p style=""font-size: 60px; font-family: BACS"">TklDkKE</p>","","","","","","","",""
"html-keyboard-response","109","596699","0.0-9.0-0.21","60c9c6e1728092717b93abde","64afc2c9a8732ea92db0087d","64afd7f3917cda449a4d48bb","null","null","<p style=""font-size: 60px; font-family: BACS"">lrZGkmU</p>","","","","","","","",""
"html-keyboard-response","110","597706","0.0-9.0-0.22","60c9c6e1728092717b93abde","64afc2c9a8732ea92db0087d","64afd7f3917cda449a4d48bb","null","null","<p style=""font-size: 60px; font-family: BACS"">vmuLldmkv</p>","","","","","","","",""
"html-keyboard-response","111","598715","0.0-9.0-0.23","60c9c6e1728092717b93abde","64afc2c9a8732ea92db0087d","64afd7f3917cda449a4d48bb","null","null","<p style=""font-size: 60px; font-family: BACS"">BPAlPEdK</p>","","","","","","","",""
"html-keyboard-response","112","599722","0.0-9.0-0.24","60c9c6e1728092717b93abde","64afc2c9a8732ea92db0087d","64afd7f3917cda449a4d48bb","null","null","<p style=""font-size: 60px; font-family: BACS"">YQbcZckv</p>","","","","","","","",""
"html-keyboard-response","113","600730","0.0-9.0-0.25","60c9c6e1728092717b93abde","64afc2c9a8732ea92db0087d","64afd7f3917cda449a4d48bb","null","null","<p style=""font-size: 60px; font-family: BACS"">BPAldCKc</p>","","","","","","","",""
"html-keyboard-response","114","601738","0.0-9.0-0.26","60c9c6e1728092717b93abde","64afc2c9a8732ea92db0087d","64afd7f3917cda449a4d48bb","null","null","<p style=""font-size: 60px; font-family: BACS"">OLJblLkNc</p>","","","","","","","",""
"html-keyboard-response","115","602748","0.0-9.0-0.27","60c9c6e1728092717b93abde","64afc2c9a8732ea92db0087d","64afd7f3917cda449a4d48bb","null","null","<p style=""font-size: 60px; font-family: BACS"">PEtEdCKc</p>","","","","","","","",""
"html-keyboard-response","116","603754","0.0-9.0-0.28","60c9c6e1728092717b93abde","64afc2c9a8732ea92db0087d","64afd7f3917cda449a4d48bb","null","null","<p style=""font-size: 60px; font-family: BACS"">KMDYtkKE</p>","","","","","","","",""
"html-keyboard-response","117","604761","0.0-9.0-0.29","60c9c6e1728092717b93abde","64afc2c9a8732ea92db0087d","64afd7f3917cda449a4d48bb","null","null","<p style=""font-size: 60px; font-family: BACS"">vmuLlZckv</p>","","","","","","","",""
"html-keyboard-response","118","605770","0.0-9.0-0.30","60c9c6e1728092717b93abde","64afc2c9a8732ea92db0087d","64afd7f3917cda449a4d48bb","null","null","<p style=""font-size: 60px; font-family: BACS"">PCPDhPEdK</p>","","","","","","","",""
"html-keyboard-response","119","606778","0.0-9.0-0.31","60c9c6e1728092717b93abde","64afc2c9a8732ea92db0087d","64afd7f3917cda449a4d48bb","null","null","<p style=""font-size: 60px; font-family: BACS"">LvuOGJcL</p>","","","","","","","",""
"html-keyboard-response","120","607786","0.0-9.0-0.32","60c9c6e1728092717b93abde","64afc2c9a8732ea92db0087d","64afd7f3917cda449a4d48bb","null","null","<p style=""font-size: 60px; font-family: BACS"">PEtECPMl</p>","","","","","","","",""
"html-keyboard-response","121","608793","0.0-9.0-0.33","60c9c6e1728092717b93abde","64afc2c9a8732ea92db0087d","64afd7f3917cda449a4d48bb","null","null","<p style=""font-size: 60px; font-family: BACS"">PCPDhTPOM</p>","","","","","","","",""
"html-keyboard-response","122","609801","0.0-9.0-0.34","60c9c6e1728092717b93abde","64afc2c9a8732ea92db0087d","64afd7f3917cda449a4d48bb","null","null","<p style=""font-size: 60px; font-family: BACS"">lrZGJcL</p>","","","","","","","",""
"html-keyboard-response","123","610810","0.0-9.0-0.35","60c9c6e1728092717b93abde","64afc2c9a8732ea92db0087d","64afd7f3917cda449a4d48bb","null","null","<p style=""font-size: 60px; font-family: BACS"">mdkKPEdK</p>","","","","","","","",""
"html-keyboard-response","124","611818","0.0-9.0-0.36","60c9c6e1728092717b93abde","64afc2c9a8732ea92db0087d","64afd7f3917cda449a4d48bb","null","null","<p style=""font-size: 60px; font-family: BACS"">adYrcZckv</p>","","","","","","","",""
"html-keyboard-response","125","612827","0.0-9.0-0.37","60c9c6e1728092717b93abde","64afc2c9a8732ea92db0087d","64afd7f3917cda449a4d48bb","null","null","<p style=""font-size: 60px; font-family: BACS"">PCPDhCPMl</p>","","","","","","","",""
"html-keyboard-response","126","613833","0.0-9.0-0.38","60c9c6e1728092717b93abde","64afc2c9a8732ea92db0087d","64afd7f3917cda449a4d48bb","null","null","<p style=""font-size: 60px; font-family: BACS"">bdUNuJcL</p>","","","","","","","",""
"html-keyboard-response","127","614841","0.0-9.0-0.39","60c9c6e1728092717b93abde","64afc2c9a8732ea92db0087d","64afd7f3917cda449a4d48bb","null","null","<p style=""font-size: 60px; font-family: BACS"">PCPDhkKE</p>","","","","","","","",""
"html-keyboard-response","128","615850","0.0-9.0-0.40","60c9c6e1728092717b93abde","64afc2c9a8732ea92db0087d","64afd7f3917cda449a4d48bb","null","null","<p style=""font-size: 60px; font-family: BACS"">thbOMdCKc</p>","","","","","","","",""
"html-keyboard-response","129","616857","0.0-9.0-0.41","60c9c6e1728092717b93abde","64afc2c9a8732ea92db0087d","64afd7f3917cda449a4d48bb","null","null","<p style=""font-size: 60px; font-family: BACS"">LvuOGLkNc</p>","","","","","","","",""
"html-keyboard-response","130","617866","0.0-9.0-0.42","60c9c6e1728092717b93abde","64afc2c9a8732ea92db0087d","64afd7f3917cda449a4d48bb","null","null","<p style=""font-size: 60px; font-family: BACS"">BPAlTPOM</p>","","","","","","","",""
"html-keyboard-response","131","618874","0.0-9.0-0.43","60c9c6e1728092717b93abde","64afc2c9a8732ea92db0087d","64afd7f3917cda449a4d48bb","null","null","<p style=""font-size: 60px; font-family: BACS"">ukcYdmkv</p>","","","","","","","",""
"html-keyboard-response","132","619882","0.0-9.0-0.44","60c9c6e1728092717b93abde","64afc2c9a8732ea92db0087d","64afd7f3917cda449a4d48bb","null","null","<p style=""font-size: 60px; font-family: BACS"">TklDCPMl</p>","","","","","","","",""
"html-keyboard-response","133","620890","0.0-9.0-0.45","60c9c6e1728092717b93abde","64afc2c9a8732ea92db0087d","64afd7f3917cda449a4d48bb","null","null","<p style=""font-size: 60px; font-family: BACS"">bdUNuZckv</p>","","","","","","","",""
"html-keyboard-response","134","621897","0.0-9.0-0.46","60c9c6e1728092717b93abde","64afc2c9a8732ea92db0087d","64afd7f3917cda449a4d48bb","null","null","<p style=""font-size: 60px; font-family: BACS"">ukcYJcL</p>","","","","","","","",""
"html-keyboard-response","135","622907","0.0-9.0-0.47","60c9c6e1728092717b93abde","64afc2c9a8732ea92db0087d","64afd7f3917cda449a4d48bb","null","null","<p style=""font-size: 60px; font-family: BACS"">mdkKkKE</p>","","","","","","","",""
"html-keyboard-response","136","623915","0.0-9.0-0.48","60c9c6e1728092717b93abde","64afc2c9a8732ea92db0087d","64afd7f3917cda449a4d48bb","null","null","<p style=""font-size: 60px; font-family: BACS"">TklDPEdK</p>","","","","","","","",""
"html-keyboard-response","137","624922","0.0-9.0-0.49","60c9c6e1728092717b93abde","64afc2c9a8732ea92db0087d","64afd7f3917cda449a4d48bb","null","null","<p style=""font-size: 60px; font-family: BACS"">adYrcLkNc</p>","","","","","","","",""
"html-keyboard-response","138","625930","0.0-9.0-0.50","60c9c6e1728092717b93abde","64afc2c9a8732ea92db0087d","64afd7f3917cda449a4d48bb","null","null","<p style=""font-size: 60px; font-family: BACS"">rvOvUkmU</p>","","","","","","","",""
"html-keyboard-response","139","626938","0.0-9.0-0.51","60c9c6e1728092717b93abde","64afc2c9a8732ea92db0087d","64afd7f3917cda449a4d48bb","null","null","<p style=""font-size: 60px; font-family: BACS"">KMDYtTPOM</p>","","","","","","","",""
"html-keyboard-response","140","627947","0.0-9.0-0.52","60c9c6e1728092717b93abde","64afc2c9a8732ea92db0087d","64afd7f3917cda449a4d48bb","null","null","<p style=""font-size: 60px; font-family: BACS"">OLJblZckv</p>","","","","","","","",""
"html-keyboard-response","141","628954","0.0-9.0-0.53","60c9c6e1728092717b93abde","64afc2c9a8732ea92db0087d","64afd7f3917cda449a4d48bb","null","null","<p style=""font-size: 60px; font-family: BACS"">thbOMCPMl</p>","","","","","","","",""
"html-keyboard-response","142","629962","0.0-9.0-0.54","60c9c6e1728092717b93abde","64afc2c9a8732ea92db0087d","64afd7f3917cda449a4d48bb","null","null","<p style=""font-size: 60px; font-family: BACS"">RCcEPEdK</p>","","","","","","","",""
"html-keyboard-response","143","630970","0.0-9.0-0.55","60c9c6e1728092717b93abde","64afc2c9a8732ea92db0087d","64afd7f3917cda449a4d48bb","null","null","<p style=""font-size: 60px; font-family: BACS"">vmuLlJcL</p>","","","","","","","",""
"html-keyboard-response","144","631978","0.0-9.0-0.56","60c9c6e1728092717b93abde","64afc2c9a8732ea92db0087d","64afd7f3917cda449a4d48bb","null","null","<p style=""font-size: 60px; font-family: BACS"">JuamlZckv</p>","","","","","","","",""
"html-keyboard-response","145","632986","0.0-9.0-0.57","60c9c6e1728092717b93abde","64afc2c9a8732ea92db0087d","64afd7f3917cda449a4d48bb","null","null","<p style=""font-size: 60px; font-family: BACS"">YQbckmU</p>","","","","","","","",""
"html-keyboard-response","146","633994","0.0-9.0-0.58","60c9c6e1728092717b93abde","64afc2c9a8732ea92db0087d","64afd7f3917cda449a4d48bb","null","null","<p style=""font-size: 60px; font-family: BACS"">JuamlJcL</p>","","","","","","","",""
"html-keyboard-response","147","635002","0.0-9.0-0.59","60c9c6e1728092717b93abde","64afc2c9a8732ea92db0087d","64afd7f3917cda449a4d48bb","null","null","<p style=""font-size: 60px; font-family: BACS"">PEtEkKE</p>","","","","","","","",""
"html-keyboard-response","148","636010","0.0-9.0-0.60","60c9c6e1728092717b93abde","64afc2c9a8732ea92db0087d","64afd7f3917cda449a4d48bb","null","null","<p style=""font-size: 60px; font-family: BACS"">LvuOGdmkv</p>","","","","","","","",""
"html-keyboard-response","149","637018","0.0-9.0-0.61","60c9c6e1728092717b93abde","64afc2c9a8732ea92db0087d","64afd7f3917cda449a4d48bb","null","null","<p style=""font-size: 60px; font-family: BACS"">mdkKCPMl</p>","","","","","","","",""
"html-keyboard-response","150","638026","0.0-9.0-0.62","60c9c6e1728092717b93abde","64afc2c9a8732ea92db0087d","64afd7f3917cda449a4d48bb","null","null","<p style=""font-size: 60px; font-family: BACS"">kPkRAdCKc</p>","","","","","","","",""
"html-keyboard-response","151","639035","0.0-9.0-0.63","60c9c6e1728092717b93abde","64afc2c9a8732ea92db0087d","64afd7f3917cda449a4d48bb","null","null","<p style=""font-size: 60px; font-family: BACS"">KMDYtCPMl</p>","","","","","","","",""
"html-keyboard-response","152","640041","0.0-9.0-0.64","60c9c6e1728092717b93abde","64afc2c9a8732ea92db0087d","64afd7f3917cda449a4d48bb","null","null","<p style=""font-size: 60px; font-family: BACS"">mBmlAdCKc</p>","","","","","","","",""
"html-keyboard-response","153","641051","0.0-9.0-0.65","60c9c6e1728092717b93abde","64afc2c9a8732ea92db0087d","64afd7f3917cda449a4d48bb","null","null","<p style=""font-size: 60px; font-family: BACS"">thbOMTPOM</p>","","","","","","","",""
"html-keyboard-response","154","642058","0.0-9.0-0.66","60c9c6e1728092717b93abde","64afc2c9a8732ea92db0087d","64afd7f3917cda449a4d48bb","null","null","<p style=""font-size: 60px; font-family: BACS"">KMDYtPEdK</p>","","","","","","","",""
"html-keyboard-response","155","643066","0.0-9.0-0.67","60c9c6e1728092717b93abde","64afc2c9a8732ea92db0087d","64afd7f3917cda449a4d48bb","null","null","<p style=""font-size: 60px; font-family: BACS"">RCcETPOM</p>","","","","","","","",""
"html-keyboard-response","156","644074","0.0-9.0-0.68","60c9c6e1728092717b93abde","64afc2c9a8732ea92db0087d","64afd7f3917cda449a4d48bb","null","null","<p style=""font-size: 60px; font-family: BACS"">YQbcJcL</p>","","","","","","","",""
"html-keyboard-response","157","645082","0.0-9.0-0.69","60c9c6e1728092717b93abde","64afc2c9a8732ea92db0087d","64afd7f3917cda449a4d48bb","null","null","<p style=""font-size: 60px; font-family: BACS"">thbOMPEdK</p>","","","","","","","",""
"html-keyboard-response","158","646090","0.0-9.0-0.70","60c9c6e1728092717b93abde","64afc2c9a8732ea92db0087d","64afd7f3917cda449a4d48bb","null","null","<p style=""font-size: 60px; font-family: BACS"">kPkRATPOM</p>","","","","","","","",""
"html-keyboard-response","159","647098","0.0-9.0-0.71","60c9c6e1728092717b93abde","64afc2c9a8732ea92db0087d","64afd7f3917cda449a4d48bb","null","null","<p style=""font-size: 60px; font-family: BACS"">LvuOGkmU</p>","","","","","","","",""
"html-keyboard-response","160","648106","0.0-9.0-0.72","60c9c6e1728092717b93abde","64afc2c9a8732ea92db0087d","64afd7f3917cda449a4d48bb","null","null","<p style=""font-size: 60px; font-family: BACS"">vmuLlLkNc</p>","","","","","","","",""
"html-keyboard-response","161","649113","0.0-9.0-0.73","60c9c6e1728092717b93abde","64afc2c9a8732ea92db0087d","64afd7f3917cda449a4d48bb","null","null","<p style=""font-size: 60px; font-family: BACS"">kPkRAPEdK</p>","","","","","","","",""
"html-keyboard-response","162","650122","0.0-9.0-0.74","60c9c6e1728092717b93abde","64afc2c9a8732ea92db0087d","64afd7f3917cda449a4d48bb","null","null","<p style=""font-size: 60px; font-family: BACS"">rvOvUJcL</p>","","","","","","","",""
"html-keyboard-response","163","651129","0.0-9.0-0.75","60c9c6e1728092717b93abde","64afc2c9a8732ea92db0087d","64afd7f3917cda449a4d48bb","null","null","<p style=""font-size: 60px; font-family: BACS"">bdUNukmU</p>","","","","","","","",""
"html-keyboard-response","164","652138","0.0-9.0-0.76","60c9c6e1728092717b93abde","64afc2c9a8732ea92db0087d","64afd7f3917cda449a4d48bb","null","null","<p style=""font-size: 60px; font-family: BACS"">JuamlLkNc</p>","","","","","","","",""
"html-keyboard-response","165","653146","0.0-9.0-0.77","60c9c6e1728092717b93abde","64afc2c9a8732ea92db0087d","64afd7f3917cda449a4d48bb","null","null","<p style=""font-size: 60px; font-family: BACS"">PEtETPOM</p>","","","","","","","",""
"html-keyboard-response","166","654154","0.0-9.0-0.78","60c9c6e1728092717b93abde","64afc2c9a8732ea92db0087d","64afd7f3917cda449a4d48bb","null","null","<p style=""font-size: 60px; font-family: BACS"">TklDdCKc</p>","","","","","","","",""
"html-keyboard-response","167","655162","0.0-9.0-0.79","60c9c6e1728092717b93abde","64afc2c9a8732ea92db0087d","64afd7f3917cda449a4d48bb","null","null","<p style=""font-size: 60px; font-family: BACS"">OLJbldmkv</p>","","","","","","","",""
"html-keyboard-response","168","656550","0.0-10.0","60c9c6e1728092717b93abde","64afc2c9a8732ea92db0087d","64afd7f3917cda449a4d48bb","1387"," ","<p>Ottimo, hai visto il secondo blocco di parole. Ora puoi prenderti una piccola pausa.</p>
      <p>Premi la barra quando sei pronta/o per riprendere.</p>","","","","","","","",""
"html-keyboard-response","169","657554","0.0-11.0-0.0","60c9c6e1728092717b93abde","64afc2c9a8732ea92db0087d","64afd7f3917cda449a4d48bb","null","null","<p style=""font-size: 60px; font-family: BACS"">OLJblkmU</p>","","","","","","","",""
"html-keyboard-response","170","658562","0.0-11.0-0.1","60c9c6e1728092717b93abde","64afc2c9a8732ea92db0087d","64afd7f3917cda449a4d48bb","null","null","<p style=""font-size: 60px; font-family: BACS"">lrZGdmkv</p>","","","","","","","",""
"html-keyboard-response","171","659571","0.0-11.0-0.2","60c9c6e1728092717b93abde","64afc2c9a8732ea92db0087d","64afd7f3917cda449a4d48bb","null","null","<p style=""font-size: 60px; font-family: BACS"">rvOvULkNc</p>","","","","","","","",""
"html-keyboard-response","172","660578","0.0-11.0-0.3","60c9c6e1728092717b93abde","64afc2c9a8732ea92db0087d","64afd7f3917cda449a4d48bb","null","null","<p style=""font-size: 60px; font-family: BACS"">lrZGZckv</p>","","","","","","","",""
"html-keyboard-response","173","661586","0.0-11.0-0.4","60c9c6e1728092717b93abde","64afc2c9a8732ea92db0087d","64afd7f3917cda449a4d48bb","null","null","<p style=""font-size: 60px; font-family: BACS"">bdUNuJcL</p>","","","","","","","",""
"html-keyboard-response","174","662593","0.0-11.0-0.5","60c9c6e1728092717b93abde","64afc2c9a8732ea92db0087d","64afd7f3917cda449a4d48bb","null","null","<p style=""font-size: 60px; font-family: BACS"">RCcEdCKc</p>","","","","","","","",""
"html-keyboard-response","175","663602","0.0-11.0-0.6","60c9c6e1728092717b93abde","64afc2c9a8732ea92db0087d","64afd7f3917cda449a4d48bb","null","null","<p style=""font-size: 60px; font-family: BACS"">YQbcLkNc</p>","","","","","","","",""
"html-keyboard-response","176","664610","0.0-11.0-0.7","60c9c6e1728092717b93abde","64afc2c9a8732ea92db0087d","64afd7f3917cda449a4d48bb","null","null","<p style=""font-size: 60px; font-family: BACS"">RCcEkKE</p>","","","","","","","",""
"html-keyboard-response","177","665618","0.0-11.0-0.8","60c9c6e1728092717b93abde","64afc2c9a8732ea92db0087d","64afd7f3917cda449a4d48bb","null","null","<p style=""font-size: 60px; font-family: BACS"">PEtETPOM</p>","","","","","","","",""
"html-keyboard-response","178","666627","0.0-11.0-0.9","60c9c6e1728092717b93abde","64afc2c9a8732ea92db0087d","64afd7f3917cda449a4d48bb","null","null","<p style=""font-size: 60px; font-family: BACS"">RCcEPEdK</p>","","","","","","","",""
"html-keyboard-response","179","667634","0.0-11.0-0.10","60c9c6e1728092717b93abde","64afc2c9a8732ea92db0087d","64afd7f3917cda449a4d48bb","null","null","<p style=""font-size: 60px; font-family: BACS"">mBmlAkKE</p>","","","","","","","",""
"html-keyboard-response","180","668642","0.0-11.0-0.11","60c9c6e1728092717b93abde","64afc2c9a8732ea92db0087d","64afd7f3917cda449a4d48bb","null","null","<p style=""font-size: 60px; font-family: BACS"">TklDPEdK</p>","","","","","","","",""
"html-keyboard-response","181","669650","0.0-11.0-0.12","60c9c6e1728092717b93abde","64afc2c9a8732ea92db0087d","64afd7f3917cda449a4d48bb","null","null","<p style=""font-size: 60px; font-family: BACS"">LvuOGLkNc</p>","","","","","","","",""
"html-keyboard-response","182","670658","0.0-11.0-0.13","60c9c6e1728092717b93abde","64afc2c9a8732ea92db0087d","64afd7f3917cda449a4d48bb","null","null","<p style=""font-size: 60px; font-family: BACS"">adYrcZckv</p>","","","","","","","",""
"html-keyboard-response","183","671666","0.0-11.0-0.14","60c9c6e1728092717b93abde","64afc2c9a8732ea92db0087d","64afd7f3917cda449a4d48bb","null","null","<p style=""font-size: 60px; font-family: BACS"">mBmlACPMl</p>","","","","","","","",""
"html-keyboard-response","184","672674","0.0-11.0-0.15","60c9c6e1728092717b93abde","64afc2c9a8732ea92db0087d","64afd7f3917cda449a4d48bb","null","null","<p style=""font-size: 60px; font-family: BACS"">PEtEkKE</p>","","","","","","","",""
"html-keyboard-response","185","673682","0.0-11.0-0.16","60c9c6e1728092717b93abde","64afc2c9a8732ea92db0087d","64afd7f3917cda449a4d48bb","null","null","<p style=""font-size: 60px; font-family: BACS"">vmuLlLkNc</p>","","","","","","","",""
"html-keyboard-response","186","674690","0.0-11.0-0.17","60c9c6e1728092717b93abde","64afc2c9a8732ea92db0087d","64afd7f3917cda449a4d48bb","null","null","<p style=""font-size: 60px; font-family: BACS"">JuamlZckv</p>","","","","","","","",""
"html-keyboard-response","187","675698","0.0-11.0-0.18","60c9c6e1728092717b93abde","64afc2c9a8732ea92db0087d","64afd7f3917cda449a4d48bb","null","null","<p style=""font-size: 60px; font-family: BACS"">mdkKCPMl</p>","","","","","","","",""
"html-keyboard-response","188","676706","0.0-11.0-0.19","60c9c6e1728092717b93abde","64afc2c9a8732ea92db0087d","64afd7f3917cda449a4d48bb","null","null","<p style=""font-size: 60px; font-family: BACS"">PCPDhkKE</p>","","","","","","","",""
"html-keyboard-response","189","677714","0.0-11.0-0.20","60c9c6e1728092717b93abde","64afc2c9a8732ea92db0087d","64afd7f3917cda449a4d48bb","null","null","<p style=""font-size: 60px; font-family: BACS"">ukcYdmkv</p>","","","","","","","",""
"html-keyboard-response","190","678722","0.0-11.0-0.21","60c9c6e1728092717b93abde","64afc2c9a8732ea92db0087d","64afd7f3917cda449a4d48bb","null","null","<p style=""font-size: 60px; font-family: BACS"">mdkKdCKc</p>","","","","","","","",""
"html-keyboard-response","191","679730","0.0-11.0-0.22","60c9c6e1728092717b93abde","64afc2c9a8732ea92db0087d","64afd7f3917cda449a4d48bb","null","null","<p style=""font-size: 60px; font-family: BACS"">KMDYtPEdK</p>","","","","","","","",""
"html-keyboard-response","192","680738","0.0-11.0-0.23","60c9c6e1728092717b93abde","64afc2c9a8732ea92db0087d","64afd7f3917cda449a4d48bb","null","null","<p style=""font-size: 60px; font-family: BACS"">rvOvUdmkv</p>","","","","","","","",""
"html-keyboard-response","193","681746","0.0-11.0-0.24","60c9c6e1728092717b93abde","64afc2c9a8732ea92db0087d","64afd7f3917cda449a4d48bb","null","null","<p style=""font-size: 60px; font-family: BACS"">LvuOGJcL</p>","","","","","","","",""
"html-keyboard-response","194","682754","0.0-11.0-0.25","60c9c6e1728092717b93abde","64afc2c9a8732ea92db0087d","64afd7f3917cda449a4d48bb","null","null","<p style=""font-size: 60px; font-family: BACS"">BPAlPEdK</p>","","","","","","","",""
"html-keyboard-response","195","683763","0.0-11.0-0.26","60c9c6e1728092717b93abde","64afc2c9a8732ea92db0087d","64afd7f3917cda449a4d48bb","null","null","<p style=""font-size: 60px; font-family: BACS"">OLJblLkNc</p>","","","","","","","",""
"html-keyboard-response","196","684770","0.0-11.0-0.27","60c9c6e1728092717b93abde","64afc2c9a8732ea92db0087d","64afd7f3917cda449a4d48bb","null","null","<p style=""font-size: 60px; font-family: BACS"">thbOMdCKc</p>","","","","","","","",""
"html-keyboard-response","197","685778","0.0-11.0-0.28","60c9c6e1728092717b93abde","64afc2c9a8732ea92db0087d","64afd7f3917cda449a4d48bb","null","null","<p style=""font-size: 60px; font-family: BACS"">JuamlLkNc</p>","","","","","","","",""
"html-keyboard-response","198","686785","0.0-11.0-0.29","60c9c6e1728092717b93abde","64afc2c9a8732ea92db0087d","64afd7f3917cda449a4d48bb","null","null","<p style=""font-size: 60px; font-family: BACS"">BPAlkKE</p>","","","","","","","",""
"html-keyboard-response","199","687794","0.0-11.0-0.30","60c9c6e1728092717b93abde","64afc2c9a8732ea92db0087d","64afd7f3917cda449a4d48bb","null","null","<p style=""font-size: 60px; font-family: BACS"">PCPDhPEdK</p>","","","","","","","",""
"html-keyboard-response","200","688802","0.0-11.0-0.31","60c9c6e1728092717b93abde","64afc2c9a8732ea92db0087d","64afd7f3917cda449a4d48bb","null","null","<p style=""font-size: 60px; font-family: BACS"">KMDYtkKE</p>","","","","","","","",""
"html-keyboard-response","201","689810","0.0-11.0-0.32","60c9c6e1728092717b93abde","64afc2c9a8732ea92db0087d","64afd7f3917cda449a4d48bb","null","null","<p style=""font-size: 60px; font-family: BACS"">mBmlATPOM</p>","","","","","","","",""
"html-keyboard-response","202","690818","0.0-11.0-0.33","60c9c6e1728092717b93abde","64afc2c9a8732ea92db0087d","64afd7f3917cda449a4d48bb","null","null","<p style=""font-size: 60px; font-family: BACS"">ukcYZckv</p>","","","","","","","",""
"html-keyboard-response","203","691826","0.0-11.0-0.34","60c9c6e1728092717b93abde","64afc2c9a8732ea92db0087d","64afd7f3917cda449a4d48bb","null","null","<p style=""font-size: 60px; font-family: BACS"">adYrckmU</p>","","","","","","","",""
"html-keyboard-response","204","692834","0.0-11.0-0.35","60c9c6e1728092717b93abde","64afc2c9a8732ea92db0087d","64afd7f3917cda449a4d48bb","null","null","<p style=""font-size: 60px; font-family: BACS"">bdUNuZckv</p>","","","","","","","",""
"html-keyboard-response","205","693842","0.0-11.0-0.36","60c9c6e1728092717b93abde","64afc2c9a8732ea92db0087d","64afd7f3917cda449a4d48bb","null","null","<p style=""font-size: 60px; font-family: BACS"">mdkKkKE</p>","","","","","","","",""
"html-keyboard-response","206","694850","0.0-11.0-0.37","60c9c6e1728092717b93abde","64afc2c9a8732ea92db0087d","64afd7f3917cda449a4d48bb","null","null","<p style=""font-size: 60px; font-family: BACS"">BPAldCKc</p>","","","","","","","",""
"html-keyboard-response","207","695858","0.0-11.0-0.38","60c9c6e1728092717b93abde","64afc2c9a8732ea92db0087d","64afd7f3917cda449a4d48bb","null","null","<p style=""font-size: 60px; font-family: BACS"">TklDCPMl</p>","","","","","","","",""
"html-keyboard-response","208","696866","0.0-11.0-0.39","60c9c6e1728092717b93abde","64afc2c9a8732ea92db0087d","64afd7f3917cda449a4d48bb","null","null","<p style=""font-size: 60px; font-family: BACS"">PCPDhTPOM</p>","","","","","","","",""
"html-keyboard-response","209","697874","0.0-11.0-0.40","60c9c6e1728092717b93abde","64afc2c9a8732ea92db0087d","64afd7f3917cda449a4d48bb","null","null","<p style=""font-size: 60px; font-family: BACS"">ukcYkmU</p>","","","","","","","",""
"html-keyboard-response","210","698882","0.0-11.0-0.41","60c9c6e1728092717b93abde","64afc2c9a8732ea92db0087d","64afd7f3917cda449a4d48bb","null","null","<p style=""font-size: 60px; font-family: BACS"">rvOvUJcL</p>","","","","","","","",""
"html-keyboard-response","211","699890","0.0-11.0-0.42","60c9c6e1728092717b93abde","64afc2c9a8732ea92db0087d","64afd7f3917cda449a4d48bb","null","null","<p style=""font-size: 60px; font-family: BACS"">TklDkKE</p>","","","","","","","",""
"html-keyboard-response","212","700898","0.0-11.0-0.43","60c9c6e1728092717b93abde","64afc2c9a8732ea92db0087d","64afd7f3917cda449a4d48bb","null","null","<p style=""font-size: 60px; font-family: BACS"">vmuLlZckv</p>","","","","","","","",""
"html-keyboard-response","213","701906","0.0-11.0-0.44","60c9c6e1728092717b93abde","64afc2c9a8732ea92db0087d","64afd7f3917cda449a4d48bb","null","null","<p style=""font-size: 60px; font-family: BACS"">mBmlAdCKc</p>","","","","","","","",""
"html-keyboard-response","214","702915","0.0-11.0-0.45","60c9c6e1728092717b93abde","64afc2c9a8732ea92db0087d","64afd7f3917cda449a4d48bb","null","null","<p style=""font-size: 60px; font-family: BACS"">bdUNukmU</p>","","","","","","","",""
"html-keyboard-response","215","703922","0.0-11.0-0.46","60c9c6e1728092717b93abde","64afc2c9a8732ea92db0087d","64afd7f3917cda449a4d48bb","null","null","<p style=""font-size: 60px; font-family: BACS"">kPkRAPEdK</p>","","","","","","","",""
"html-keyboard-response","216","704930","0.0-11.0-0.47","60c9c6e1728092717b93abde","64afc2c9a8732ea92db0087d","64afd7f3917cda449a4d48bb","null","null","<p style=""font-size: 60px; font-family: BACS"">BPAlTPOM</p>","","","","","","","",""
"html-keyboard-response","217","705938","0.0-11.0-0.48","60c9c6e1728092717b93abde","64afc2c9a8732ea92db0087d","64afd7f3917cda449a4d48bb","null","null","<p style=""font-size: 60px; font-family: BACS"">TklDdCKc</p>","","","","","","","",""
"html-keyboard-response","218","706946","0.0-11.0-0.49","60c9c6e1728092717b93abde","64afc2c9a8732ea92db0087d","64afd7f3917cda449a4d48bb","null","null","<p style=""font-size: 60px; font-family: BACS"">OLJbldmkv</p>","","","","","","","",""
"html-keyboard-response","219","707954","0.0-11.0-0.50","60c9c6e1728092717b93abde","64afc2c9a8732ea92db0087d","64afd7f3917cda449a4d48bb","null","null","<p style=""font-size: 60px; font-family: BACS"">kPkRATPOM</p>","","","","","","","",""
"html-keyboard-response","220","708962","0.0-11.0-0.51","60c9c6e1728092717b93abde","64afc2c9a8732ea92db0087d","64afd7f3917cda449a4d48bb","null","null","<p style=""font-size: 60px; font-family: BACS"">YQbcZckv</p>","","","","","","","",""
"html-keyboard-response","221","709970","0.0-11.0-0.52","60c9c6e1728092717b93abde","64afc2c9a8732ea92db0087d","64afd7f3917cda449a4d48bb","null","null","<p style=""font-size: 60px; font-family: BACS"">rvOvUkmU</p>","","","","","","","",""
"html-keyboard-response","222","710978","0.0-11.0-0.53","60c9c6e1728092717b93abde","64afc2c9a8732ea92db0087d","64afd7f3917cda449a4d48bb","null","null","<p style=""font-size: 60px; font-family: BACS"">OLJblZckv</p>","","","","","","","",""
"html-keyboard-response","223","711986","0.0-11.0-0.54","60c9c6e1728092717b93abde","64afc2c9a8732ea92db0087d","64afd7f3917cda449a4d48bb","null","null","<p style=""font-size: 60px; font-family: BACS"">lrZGJcL</p>","","","","","","","",""
"html-keyboard-response","224","712994","0.0-11.0-0.55","60c9c6e1728092717b93abde","64afc2c9a8732ea92db0087d","64afd7f3917cda449a4d48bb","null","null","<p style=""font-size: 60px; font-family: BACS"">LvuOGdmkv</p>","","","","","","","",""
"html-keyboard-response","225","714002","0.0-11.0-0.56","60c9c6e1728092717b93abde","64afc2c9a8732ea92db0087d","64afd7f3917cda449a4d48bb","null","null","<p style=""font-size: 60px; font-family: BACS"">KMDYtCPMl</p>","","","","","","","",""
"html-keyboard-response","226","715009","0.0-11.0-0.57","60c9c6e1728092717b93abde","64afc2c9a8732ea92db0087d","64afd7f3917cda449a4d48bb","null","null","<p style=""font-size: 60px; font-family: BACS"">lrZGkmU</p>","","","","","","","",""
"html-keyboard-response","227","716019","0.0-11.0-0.58","60c9c6e1728092717b93abde","64afc2c9a8732ea92db0087d","64afd7f3917cda449a4d48bb","null","null","<p style=""font-size: 60px; font-family: BACS"">thbOMTPOM</p>","","","","","","","",""
"html-keyboard-response","228","717025","0.0-11.0-0.59","60c9c6e1728092717b93abde","64afc2c9a8732ea92db0087d","64afd7f3917cda449a4d48bb","null","null","<p style=""font-size: 60px; font-family: BACS"">PEtECPMl</p>","","","","","","","",""
"html-keyboard-response","229","718034","0.0-11.0-0.60","60c9c6e1728092717b93abde","64afc2c9a8732ea92db0087d","64afd7f3917cda449a4d48bb","null","null","<p style=""font-size: 60px; font-family: BACS"">JuamlJcL</p>","","","","","","","",""
"html-keyboard-response","230","719042","0.0-11.0-0.61","60c9c6e1728092717b93abde","64afc2c9a8732ea92db0087d","64afd7f3917cda449a4d48bb","null","null","<p style=""font-size: 60px; font-family: BACS"">kPkRAdCKc</p>","","","","","","","",""
"html-keyboard-response","231","720050","0.0-11.0-0.62","60c9c6e1728092717b93abde","64afc2c9a8732ea92db0087d","64afd7f3917cda449a4d48bb","null","null","<p style=""font-size: 60px; font-family: BACS"">PCPDhCPMl</p>","","","","","","","",""
"html-keyboard-response","232","721058","0.0-11.0-0.63","60c9c6e1728092717b93abde","64afc2c9a8732ea92db0087d","64afd7f3917cda449a4d48bb","null","null","<p style=""font-size: 60px; font-family: BACS"">adYrcdmkv</p>","","","","","","","",""
"html-keyboard-response","233","722067","0.0-11.0-0.64","60c9c6e1728092717b93abde","64afc2c9a8732ea92db0087d","64afd7f3917cda449a4d48bb","null","null","<p style=""font-size: 60px; font-family: BACS"">PEtEdCKc</p>","","","","","","","",""
"html-keyboard-response","234","723074","0.0-11.0-0.65","60c9c6e1728092717b93abde","64afc2c9a8732ea92db0087d","64afd7f3917cda449a4d48bb","null","null","<p style=""font-size: 60px; font-family: BACS"">adYrcLkNc</p>","","","","","","","",""
"html-keyboard-response","235","724083","0.0-11.0-0.66","60c9c6e1728092717b93abde","64afc2c9a8732ea92db0087d","64afd7f3917cda449a4d48bb","null","null","<p style=""font-size: 60px; font-family: BACS"">KMDYtTPOM</p>","","","","","","","",""
"html-keyboard-response","236","725090","0.0-11.0-0.67","60c9c6e1728092717b93abde","64afc2c9a8732ea92db0087d","64afd7f3917cda449a4d48bb","null","null","<p style=""font-size: 60px; font-family: BACS"">vmuLldmkv</p>","","","","","","","",""
"html-keyboard-response","237","726098","0.0-11.0-0.68","60c9c6e1728092717b93abde","64afc2c9a8732ea92db0087d","64afd7f3917cda449a4d48bb","null","null","<p style=""font-size: 60px; font-family: BACS"">bdUNuLkNc</p>","","","","","","","",""
"html-keyboard-response","238","727107","0.0-11.0-0.69","60c9c6e1728092717b93abde","64afc2c9a8732ea92db0087d","64afd7f3917cda449a4d48bb","null","null","<p style=""font-size: 60px; font-family: BACS"">YQbcJcL</p>","","","","","","","",""
"html-keyboard-response","239","728114","0.0-11.0-0.70","60c9c6e1728092717b93abde","64afc2c9a8732ea92db0087d","64afd7f3917cda449a4d48bb","null","null","<p style=""font-size: 60px; font-family: BACS"">Juamldmkv</p>","","","","","","","",""
"html-keyboard-response","240","729121","0.0-11.0-0.71","60c9c6e1728092717b93abde","64afc2c9a8732ea92db0087d","64afd7f3917cda449a4d48bb","null","null","<p style=""font-size: 60px; font-family: BACS"">RCcETPOM</p>","","","","","","","",""
"html-keyboard-response","241","730130","0.0-11.0-0.72","60c9c6e1728092717b93abde","64afc2c9a8732ea92db0087d","64afd7f3917cda449a4d48bb","null","null","<p style=""font-size: 60px; font-family: BACS"">vmuLlJcL</p>","","","","","","","",""
"html-keyboard-response","242","731138","0.0-11.0-0.73","60c9c6e1728092717b93abde","64afc2c9a8732ea92db0087d","64afd7f3917cda449a4d48bb","null","null","<p style=""font-size: 60px; font-family: BACS"">thbOMCPMl</p>","","","","","","","",""
"html-keyboard-response","243","732145","0.0-11.0-0.74","60c9c6e1728092717b93abde","64afc2c9a8732ea92db0087d","64afd7f3917cda449a4d48bb","null","null","<p style=""font-size: 60px; font-family: BACS"">LvuOGkmU</p>","","","","","","","",""
"html-keyboard-response","244","733154","0.0-11.0-0.75","60c9c6e1728092717b93abde","64afc2c9a8732ea92db0087d","64afd7f3917cda449a4d48bb","null","null","<p style=""font-size: 60px; font-family: BACS"">thbOMPEdK</p>","","","","","","","",""
"html-keyboard-response","245","734162","0.0-11.0-0.76","60c9c6e1728092717b93abde","64afc2c9a8732ea92db0087d","64afd7f3917cda449a4d48bb","null","null","<p style=""font-size: 60px; font-family: BACS"">ukcYJcL</p>","","","","","","","",""
"html-keyboard-response","246","735170","0.0-11.0-0.77","60c9c6e1728092717b93abde","64afc2c9a8732ea92db0087d","64afd7f3917cda449a4d48bb","null","null","<p style=""font-size: 60px; font-family: BACS"">kPkRACPMl</p>","","","","","","","",""
"html-keyboard-response","247","736178","0.0-11.0-0.78","60c9c6e1728092717b93abde","64afc2c9a8732ea92db0087d","64afd7f3917cda449a4d48bb","null","null","<p style=""font-size: 60px; font-family: BACS"">mdkKPEdK</p>","","","","","","","",""
"html-keyboard-response","248","737187","0.0-11.0-0.79","60c9c6e1728092717b93abde","64afc2c9a8732ea92db0087d","64afd7f3917cda449a4d48bb","null","null","<p style=""font-size: 60px; font-family: BACS"">YQbckmU</p>","","","","","","","",""
"html-keyboard-response","249","739346","0.0-12.0","60c9c6e1728092717b93abde","64afc2c9a8732ea92db0087d","64afd7f3917cda449a4d48bb","2158"," ","<p>Ottimo, hai visto il terzo blocco di parole. Ora puoi prenderti una piccola pausa.</p>
      <p>Premi la barra quando sei pronta/o per riprendere.</p>","","","","","","","",""
"html-keyboard-response","250","740357","0.0-13.0-0.0","60c9c6e1728092717b93abde","64afc2c9a8732ea92db0087d","64afd7f3917cda449a4d48bb","null","null","<p style=""font-size: 60px; font-family: BACS"">ukcYZckv</p>","","","","","","","",""
"html-keyboard-response","251","741362","0.0-13.0-0.1","60c9c6e1728092717b93abde","64afc2c9a8732ea92db0087d","64afd7f3917cda449a4d48bb","null","null","<p style=""font-size: 60px; font-family: BACS"">YQbckmU</p>","","","","","","","",""
"html-keyboard-response","252","742370","0.0-13.0-0.2","60c9c6e1728092717b93abde","64afc2c9a8732ea92db0087d","64afd7f3917cda449a4d48bb","null","null","<p style=""font-size: 60px; font-family: BACS"">mBmlATPOM</p>","","","","","","","",""
"html-keyboard-response","253","743377","0.0-13.0-0.3","60c9c6e1728092717b93abde","64afc2c9a8732ea92db0087d","64afd7f3917cda449a4d48bb","null","null","<p style=""font-size: 60px; font-family: BACS"">mdkKPEdK</p>","","","","","","","",""
"html-keyboard-response","254","744387","0.0-13.0-0.4","60c9c6e1728092717b93abde","64afc2c9a8732ea92db0087d","64afd7f3917cda449a4d48bb","null","null","<p style=""font-size: 60px; font-family: BACS"">rvOvUkmU</p>","","","","","","","",""
"html-keyboard-response","255","745394","0.0-13.0-0.5","60c9c6e1728092717b93abde","64afc2c9a8732ea92db0087d","64afd7f3917cda449a4d48bb","null","null","<p style=""font-size: 60px; font-family: BACS"">kPkRATPOM</p>","","","","","","","",""
"html-keyboard-response","256","746402","0.0-13.0-0.6","60c9c6e1728092717b93abde","64afc2c9a8732ea92db0087d","64afd7f3917cda449a4d48bb","null","null","<p style=""font-size: 60px; font-family: BACS"">KMDYtkKE</p>","","","","","","","",""
"html-keyboard-response","257","747410","0.0-13.0-0.7","60c9c6e1728092717b93abde","64afc2c9a8732ea92db0087d","64afd7f3917cda449a4d48bb","null","null","<p style=""font-size: 60px; font-family: BACS"">PCPDhCPMl</p>","","","","","","","",""
"html-keyboard-response","258","748419","0.0-13.0-0.8","60c9c6e1728092717b93abde","64afc2c9a8732ea92db0087d","64afd7f3917cda449a4d48bb","null","null","<p style=""font-size: 60px; font-family: BACS"">ukcYkmU</p>","","","","","","","",""
"html-keyboard-response","259","749426","0.0-13.0-0.9","60c9c6e1728092717b93abde","64afc2c9a8732ea92db0087d","64afd7f3917cda449a4d48bb","null","null","<p style=""font-size: 60px; font-family: BACS"">YQbcLkNc</p>","","","","","","","",""
"html-keyboard-response","260","750434","0.0-13.0-0.10","60c9c6e1728092717b93abde","64afc2c9a8732ea92db0087d","64afd7f3917cda449a4d48bb","null","null","<p style=""font-size: 60px; font-family: BACS"">mBmlACPMl</p>","","","","","","","",""
"html-keyboard-response","261","751441","0.0-13.0-0.11","60c9c6e1728092717b93abde","64afc2c9a8732ea92db0087d","64afd7f3917cda449a4d48bb","null","null","<p style=""font-size: 60px; font-family: BACS"">OLJbldmkv</p>","","","","","","","",""
"html-keyboard-response","262","752450","0.0-13.0-0.12","60c9c6e1728092717b93abde","64afc2c9a8732ea92db0087d","64afd7f3917cda449a4d48bb","null","null","<p style=""font-size: 60px; font-family: BACS"">LvuOGLkNc</p>","","","","","","","",""
"html-keyboard-response","263","753458","0.0-13.0-0.13","60c9c6e1728092717b93abde","64afc2c9a8732ea92db0087d","64afd7f3917cda449a4d48bb","null","null","<p style=""font-size: 60px; font-family: BACS"">bdUNuZckv</p>","","","","","","","",""
"html-keyboard-response","264","754467","0.0-13.0-0.14","60c9c6e1728092717b93abde","64afc2c9a8732ea92db0087d","64afd7f3917cda449a4d48bb","null","null","<p style=""font-size: 60px; font-family: BACS"">lrZGJcL</p>","","","","","","","",""
"html-keyboard-response","265","755473","0.0-13.0-0.15","60c9c6e1728092717b93abde","64afc2c9a8732ea92db0087d","64afd7f3917cda449a4d48bb","null","null","<p style=""font-size: 60px; font-family: BACS"">kPkRAdCKc</p>","","","","","","","",""
"html-keyboard-response","266","756483","0.0-13.0-0.16","60c9c6e1728092717b93abde","64afc2c9a8732ea92db0087d","64afd7f3917cda449a4d48bb","null","null","<p style=""font-size: 60px; font-family: BACS"">PEtEkKE</p>","","","","","","","",""
"html-keyboard-response","267","757490","0.0-13.0-0.17","60c9c6e1728092717b93abde","64afc2c9a8732ea92db0087d","64afd7f3917cda449a4d48bb","null","null","<p style=""font-size: 60px; font-family: BACS"">bdUNuLkNc</p>","","","","","","","",""
"html-keyboard-response","268","758498","0.0-13.0-0.18","60c9c6e1728092717b93abde","64afc2c9a8732ea92db0087d","64afd7f3917cda449a4d48bb","null","null","<p style=""font-size: 60px; font-family: BACS"">mdkKdCKc</p>","","","","","","","",""
"html-keyboard-response","269","759507","0.0-13.0-0.19","60c9c6e1728092717b93abde","64afc2c9a8732ea92db0087d","64afd7f3917cda449a4d48bb","null","null","<p style=""font-size: 60px; font-family: BACS"">vmuLlJcL</p>","","","","","","","",""
"html-keyboard-response","270","760514","0.0-13.0-0.20","60c9c6e1728092717b93abde","64afc2c9a8732ea92db0087d","64afd7f3917cda449a4d48bb","null","null","<p style=""font-size: 60px; font-family: BACS"">lrZGkmU</p>","","","","","","","",""
"html-keyboard-response","271","761523","0.0-13.0-0.21","60c9c6e1728092717b93abde","64afc2c9a8732ea92db0087d","64afd7f3917cda449a4d48bb","null","null","<p style=""font-size: 60px; font-family: BACS"">adYrcZckv</p>","","","","","","","",""
"html-keyboard-response","272","762530","0.0-13.0-0.22","60c9c6e1728092717b93abde","64afc2c9a8732ea92db0087d","64afd7f3917cda449a4d48bb","null","null","<p style=""font-size: 60px; font-family: BACS"">PCPDhkKE</p>","","","","","","","",""
"html-keyboard-response","273","763538","0.0-13.0-0.23","60c9c6e1728092717b93abde","64afc2c9a8732ea92db0087d","64afd7f3917cda449a4d48bb","null","null","<p style=""font-size: 60px; font-family: BACS"">vmuLlLkNc</p>","","","","","","","",""
"html-keyboard-response","274","764546","0.0-13.0-0.24","60c9c6e1728092717b93abde","64afc2c9a8732ea92db0087d","64afd7f3917cda449a4d48bb","null","null","<p style=""font-size: 60px; font-family: BACS"">rvOvUJcL</p>","","","","","","","",""
"html-keyboard-response","275","765554","0.0-13.0-0.25","60c9c6e1728092717b93abde","64afc2c9a8732ea92db0087d","64afd7f3917cda449a4d48bb","null","null","<p style=""font-size: 60px; font-family: BACS"">TklDkKE</p>","","","","","","","",""
"html-keyboard-response","276","766562","0.0-13.0-0.26","60c9c6e1728092717b93abde","64afc2c9a8732ea92db0087d","64afd7f3917cda449a4d48bb","null","null","<p style=""font-size: 60px; font-family: BACS"">RCcEdCKc</p>","","","","","","","",""
"html-keyboard-response","277","767570","0.0-13.0-0.27","60c9c6e1728092717b93abde","64afc2c9a8732ea92db0087d","64afd7f3917cda449a4d48bb","null","null","<p style=""font-size: 60px; font-family: BACS"">BPAlTPOM</p>","","","","","","","",""
"html-keyboard-response","278","768578","0.0-13.0-0.28","60c9c6e1728092717b93abde","64afc2c9a8732ea92db0087d","64afd7f3917cda449a4d48bb","null","null","<p style=""font-size: 60px; font-family: BACS"">mBmlAkKE</p>","","","","","","","",""
"html-keyboard-response","279","769586","0.0-13.0-0.29","60c9c6e1728092717b93abde","64afc2c9a8732ea92db0087d","64afd7f3917cda449a4d48bb","null","null","<p style=""font-size: 60px; font-family: BACS"">bdUNuJcL</p>","","","","","","","",""
"html-keyboard-response","280","770596","0.0-13.0-0.30","60c9c6e1728092717b93abde","64afc2c9a8732ea92db0087d","64afd7f3917cda449a4d48bb","null","null","<p style=""font-size: 60px; font-family: BACS"">JuamlLkNc</p>","","","","","","","",""
"html-keyboard-response","281","771601","0.0-13.0-0.31","60c9c6e1728092717b93abde","64afc2c9a8732ea92db0087d","64afd7f3917cda449a4d48bb","null","null","<p style=""font-size: 60px; font-family: BACS"">bdUNukmU</p>","","","","","","","",""
"html-keyboard-response","282","772610","0.0-13.0-0.32","60c9c6e1728092717b93abde","64afc2c9a8732ea92db0087d","64afd7f3917cda449a4d48bb","null","null","<p style=""font-size: 60px; font-family: BACS"">thbOMCPMl</p>","","","","","","","",""
"html-keyboard-response","283","773619","0.0-13.0-0.33","60c9c6e1728092717b93abde","64afc2c9a8732ea92db0087d","64afd7f3917cda449a4d48bb","null","null","<p style=""font-size: 60px; font-family: BACS"">lrZGdmkv</p>","","","","","","","",""
"html-keyboard-response","284","774632","0.0-13.0-0.34","60c9c6e1728092717b93abde","64afc2c9a8732ea92db0087d","64afd7f3917cda449a4d48bb","null","null","<p style=""font-size: 60px; font-family: BACS"">ukcYJcL</p>","","","","","","","",""
"html-keyboard-response","285","775643","0.0-13.0-0.35","60c9c6e1728092717b93abde","64afc2c9a8732ea92db0087d","64afd7f3917cda449a4d48bb","null","null","<p style=""font-size: 60px; font-family: BACS"">LvuOGkmU</p>","","","","","","","",""
"html-keyboard-response","286","776650","0.0-13.0-0.36","60c9c6e1728092717b93abde","64afc2c9a8732ea92db0087d","64afd7f3917cda449a4d48bb","null","null","<p style=""font-size: 60px; font-family: BACS"">OLJblLkNc</p>","","","","","","","",""
"html-keyboard-response","287","777658","0.0-13.0-0.37","60c9c6e1728092717b93abde","64afc2c9a8732ea92db0087d","64afd7f3917cda449a4d48bb","null","null","<p style=""font-size: 60px; font-family: BACS"">thbOMPEdK</p>","","","","","","","",""
"html-keyboard-response","288","778666","0.0-13.0-0.38","60c9c6e1728092717b93abde","64afc2c9a8732ea92db0087d","64afd7f3917cda449a4d48bb","null","null","<p style=""font-size: 60px; font-family: BACS"">LvuOGdmkv</p>","","","","","","","",""
"html-keyboard-response","289","779674","0.0-13.0-0.39","60c9c6e1728092717b93abde","64afc2c9a8732ea92db0087d","64afd7f3917cda449a4d48bb","null","null","<p style=""font-size: 60px; font-family: BACS"">PCPDhPEdK</p>","","","","","","","",""
"html-keyboard-response","290","780682","0.0-13.0-0.40","60c9c6e1728092717b93abde","64afc2c9a8732ea92db0087d","64afd7f3917cda449a4d48bb","null","null","<p style=""font-size: 60px; font-family: BACS"">LvuOGJcL</p>","","","","","","","",""
"html-keyboard-response","291","781690","0.0-13.0-0.41","60c9c6e1728092717b93abde","64afc2c9a8732ea92db0087d","64afd7f3917cda449a4d48bb","null","null","<p style=""font-size: 60px; font-family: BACS"">TklDCPMl</p>","","","","","","","",""
"html-keyboard-response","292","782698","0.0-13.0-0.42","60c9c6e1728092717b93abde","64afc2c9a8732ea92db0087d","64afd7f3917cda449a4d48bb","null","null","<p style=""font-size: 60px; font-family: BACS"">lrZGZckv</p>","","","","","","","",""
"html-keyboard-response","293","783705","0.0-13.0-0.43","60c9c6e1728092717b93abde","64afc2c9a8732ea92db0087d","64afd7f3917cda449a4d48bb","null","null","<p style=""font-size: 60px; font-family: BACS"">JuamlJcL</p>","","","","","","","",""
"html-keyboard-response","294","784715","0.0-13.0-0.44","60c9c6e1728092717b93abde","64afc2c9a8732ea92db0087d","64afd7f3917cda449a4d48bb","null","null","<p style=""font-size: 60px; font-family: BACS"">ukcYdmkv</p>","","","","","","","",""
"html-keyboard-response","295","785722","0.0-13.0-0.45","60c9c6e1728092717b93abde","64afc2c9a8732ea92db0087d","64afd7f3917cda449a4d48bb","null","null","<p style=""font-size: 60px; font-family: BACS"">BPAlkKE</p>","","","","","","","",""
"html-keyboard-response","296","786730","0.0-13.0-0.46","60c9c6e1728092717b93abde","64afc2c9a8732ea92db0087d","64afd7f3917cda449a4d48bb","null","null","<p style=""font-size: 60px; font-family: BACS"">TklDdCKc</p>","","","","","","","",""
"html-keyboard-response","297","787738","0.0-13.0-0.47","60c9c6e1728092717b93abde","64afc2c9a8732ea92db0087d","64afd7f3917cda449a4d48bb","null","null","<p style=""font-size: 60px; font-family: BACS"">adYrcLkNc</p>","","","","","","","",""
"html-keyboard-response","298","788746","0.0-13.0-0.48","60c9c6e1728092717b93abde","64afc2c9a8732ea92db0087d","64afd7f3917cda449a4d48bb","null","null","<p style=""font-size: 60px; font-family: BACS"">rvOvUdmkv</p>","","","","","","","",""
"html-keyboard-response","299","789754","0.0-13.0-0.49","60c9c6e1728092717b93abde","64afc2c9a8732ea92db0087d","64afd7f3917cda449a4d48bb","null","null","<p style=""font-size: 60px; font-family: BACS"">mBmlAdCKc</p>","","","","","","","",""
"html-keyboard-response","300","790762","0.0-13.0-0.50","60c9c6e1728092717b93abde","64afc2c9a8732ea92db0087d","64afd7f3917cda449a4d48bb","null","null","<p style=""font-size: 60px; font-family: BACS"">YQbcZckv</p>","","","","","","","",""
"html-keyboard-response","301","791770","0.0-13.0-0.51","60c9c6e1728092717b93abde","64afc2c9a8732ea92db0087d","64afd7f3917cda449a4d48bb","null","null","<p style=""font-size: 60px; font-family: BACS"">KMDYtTPOM</p>","","","","","","","",""
"html-keyboard-response","302","792779","0.0-13.0-0.52","60c9c6e1728092717b93abde","64afc2c9a8732ea92db0087d","64afd7f3917cda449a4d48bb","null","null","<p style=""font-size: 60px; font-family: BACS"">kPkRACPMl</p>","","","","","","","",""
"html-keyboard-response","303","793786","0.0-13.0-0.53","60c9c6e1728092717b93abde","64afc2c9a8732ea92db0087d","64afd7f3917cda449a4d48bb","null","null","<p style=""font-size: 60px; font-family: BACS"">vmuLlZckv</p>","","","","","","","",""
"html-keyboard-response","304","794793","0.0-13.0-0.54","60c9c6e1728092717b93abde","64afc2c9a8732ea92db0087d","64afd7f3917cda449a4d48bb","null","null","<p style=""font-size: 60px; font-family: BACS"">BPAldCKc</p>","","","","","","","",""
"html-keyboard-response","305","795802","0.0-13.0-0.55","60c9c6e1728092717b93abde","64afc2c9a8732ea92db0087d","64afd7f3917cda449a4d48bb","null","null","<p style=""font-size: 60px; font-family: BACS"">PEtECPMl</p>","","","","","","","",""
"html-keyboard-response","306","796810","0.0-13.0-0.56","60c9c6e1728092717b93abde","64afc2c9a8732ea92db0087d","64afd7f3917cda449a4d48bb","null","null","<p style=""font-size: 60px; font-family: BACS"">RCcETPOM</p>","","","","","","","",""
"html-keyboard-response","307","797818","0.0-13.0-0.57","60c9c6e1728092717b93abde","64afc2c9a8732ea92db0087d","64afd7f3917cda449a4d48bb","null","null","<p style=""font-size: 60px; font-family: BACS"">adYrcdmkv</p>","","","","","","","",""
"html-keyboard-response","308","798826","0.0-13.0-0.58","60c9c6e1728092717b93abde","64afc2c9a8732ea92db0087d","64afd7f3917cda449a4d48bb","null","null","<p style=""font-size: 60px; font-family: BACS"">rvOvULkNc</p>","","","","","","","",""
"html-keyboard-response","309","799834","0.0-13.0-0.59","60c9c6e1728092717b93abde","64afc2c9a8732ea92db0087d","64afd7f3917cda449a4d48bb","null","null","<p style=""font-size: 60px; font-family: BACS"">mdkKCPMl</p>","","","","","","","",""
"html-keyboard-response","310","800843","0.0-13.0-0.60","60c9c6e1728092717b93abde","64afc2c9a8732ea92db0087d","64afd7f3917cda449a4d48bb","null","null","<p style=""font-size: 60px; font-family: BACS"">BPAlPEdK</p>","","","","","","","",""
"html-keyboard-response","311","801849","0.0-13.0-0.61","60c9c6e1728092717b93abde","64afc2c9a8732ea92db0087d","64afd7f3917cda449a4d48bb","null","null","<p style=""font-size: 60px; font-family: BACS"">thbOMdCKc</p>","","","","","","","",""
"html-keyboard-response","312","802857","0.0-13.0-0.62","60c9c6e1728092717b93abde","64afc2c9a8732ea92db0087d","64afd7f3917cda449a4d48bb","null","null","<p style=""font-size: 60px; font-family: BACS"">PCPDhTPOM</p>","","","","","","","",""
"html-keyboard-response","313","803867","0.0-13.0-0.63","60c9c6e1728092717b93abde","64afc2c9a8732ea92db0087d","64afd7f3917cda449a4d48bb","null","null","<p style=""font-size: 60px; font-family: BACS"">OLJblZckv</p>","","","","","","","",""
"html-keyboard-response","314","804874","0.0-13.0-0.64","60c9c6e1728092717b93abde","64afc2c9a8732ea92db0087d","64afd7f3917cda449a4d48bb","null","null","<p style=""font-size: 60px; font-family: BACS"">YQbcJcL</p>","","","","","","","",""
"html-keyboard-response","315","805882","0.0-13.0-0.65","60c9c6e1728092717b93abde","64afc2c9a8732ea92db0087d","64afd7f3917cda449a4d48bb","null","null","<p style=""font-size: 60px; font-family: BACS"">OLJblkmU</p>","","","","","","","",""
"html-keyboard-response","316","806890","0.0-13.0-0.66","60c9c6e1728092717b93abde","64afc2c9a8732ea92db0087d","64afd7f3917cda449a4d48bb","null","null","<p style=""font-size: 60px; font-family: BACS"">RCcEkKE</p>","","","","","","","",""
"html-keyboard-response","317","807898","0.0-13.0-0.67","60c9c6e1728092717b93abde","64afc2c9a8732ea92db0087d","64afd7f3917cda449a4d48bb","null","null","<p style=""font-size: 60px; font-family: BACS"">TklDPEdK</p>","","","","","","","",""
"html-keyboard-response","318","808906","0.0-13.0-0.68","60c9c6e1728092717b93abde","64afc2c9a8732ea92db0087d","64afd7f3917cda449a4d48bb","null","null","<p style=""font-size: 60px; font-family: BACS"">PEtETPOM</p>","","","","","","","",""
"html-keyboard-response","319","809913","0.0-13.0-0.69","60c9c6e1728092717b93abde","64afc2c9a8732ea92db0087d","64afd7f3917cda449a4d48bb","null","null","<p style=""font-size: 60px; font-family: BACS"">JuamlZckv</p>","","","","","","","",""
"html-keyboard-response","320","810922","0.0-13.0-0.70","60c9c6e1728092717b93abde","64afc2c9a8732ea92db0087d","64afd7f3917cda449a4d48bb","null","null","<p style=""font-size: 60px; font-family: BACS"">mdkKkKE</p>","","","","","","","",""
"html-keyboard-response","321","811930","0.0-13.0-0.71","60c9c6e1728092717b93abde","64afc2c9a8732ea92db0087d","64afd7f3917cda449a4d48bb","null","null","<p style=""font-size: 60px; font-family: BACS"">KMDYtCPMl</p>","","","","","","","",""
"html-keyboard-response","322","812938","0.0-13.0-0.72","60c9c6e1728092717b93abde","64afc2c9a8732ea92db0087d","64afd7f3917cda449a4d48bb","null","null","<p style=""font-size: 60px; font-family: BACS"">thbOMTPOM</p>","","","","","","","",""
"html-keyboard-response","323","813946","0.0-13.0-0.73","60c9c6e1728092717b93abde","64afc2c9a8732ea92db0087d","64afd7f3917cda449a4d48bb","null","null","<p style=""font-size: 60px; font-family: BACS"">PEtEdCKc</p>","","","","","","","",""
"html-keyboard-response","324","814954","0.0-13.0-0.74","60c9c6e1728092717b93abde","64afc2c9a8732ea92db0087d","64afd7f3917cda449a4d48bb","null","null","<p style=""font-size: 60px; font-family: BACS"">RCcEPEdK</p>","","","","","","","",""
"html-keyboard-response","325","815963","0.0-13.0-0.75","60c9c6e1728092717b93abde","64afc2c9a8732ea92db0087d","64afd7f3917cda449a4d48bb","null","null","<p style=""font-size: 60px; font-family: BACS"">vmuLldmkv</p>","","","","","","","",""
"html-keyboard-response","326","816969","0.0-13.0-0.76","60c9c6e1728092717b93abde","64afc2c9a8732ea92db0087d","64afd7f3917cda449a4d48bb","null","null","<p style=""font-size: 60px; font-family: BACS"">kPkRAPEdK</p>","","","","","","","",""
"html-keyboard-response","327","817978","0.0-13.0-0.77","60c9c6e1728092717b93abde","64afc2c9a8732ea92db0087d","64afd7f3917cda449a4d48bb","null","null","<p style=""font-size: 60px; font-family: BACS"">Juamldmkv</p>","","","","","","","",""
"html-keyboard-response","328","818986","0.0-13.0-0.78","60c9c6e1728092717b93abde","64afc2c9a8732ea92db0087d","64afd7f3917cda449a4d48bb","null","null","<p style=""font-size: 60px; font-family: BACS"">adYrckmU</p>","","","","","","","",""
"html-keyboard-response","329","819994","0.0-13.0-0.79","60c9c6e1728092717b93abde","64afc2c9a8732ea92db0087d","64afd7f3917cda449a4d48bb","null","null","<p style=""font-size: 60px; font-family: BACS"">KMDYtPEdK</p>","","","","","","","",""
"html-keyboard-response","330","831436","0.0-14.0","60c9c6e1728092717b93abde","64afc2c9a8732ea92db0087d","64afd7f3917cda449a4d48bb","11440"," ","<p>Ottimo! Hai visto tutte le parole che abbiamo ricevuto dallo spazio.</p>
      <p>Premi la barra quando sei pronta/o per continuare.</p>","","","","","","","",""
"html-keyboard-response","331","860760","0.0-15.0","60c9c6e1728092717b93abde","64afc2c9a8732ea92db0087d","64afd7f3917cda449a4d48bb","29322"," ","<p>In questa seconda parte, vedrai delle nuove parole che abbiamo ricevuto dallo stesso gruppo di alieni, e altre che invece provengono da un'altra comunicazione, con un altro gruppo di alieni. Purtroppo le due comunicazioni non arrivano a noi separatamente, per cui le parole sono mescolate tra loro. Il tuo compito sarà quello di individuare le parole che provengono dal gruppo che hai studiato nella prima parte dell'esperimento.</p>
      <p>Questo compito non è per nulla facile; le due comunicazioni infatti usano gli stessi caratteri. Il tuo meeting con i leader mondiali inizia tra poco, per cui non avrai molto tempo per prendere la tua decisione; dovrai essere veloce. Cerca di fare del tuo meglio usando la tua intuizione; non hai tempo di stare a pensare a lungo su ogni singola parola.</p>
      <p>Premi <strong>k</strong> quando pensi che la parola che stai vedendo sia degli stessi alieni che hai studiato prima, e <strong>d</strong> quando invece pensi che la parola che stai vedendo venga dall'altra comunicazione, con il nuovo gruppo di alieni.</p><p>Premi la barra quando sei pronta/o per iniziare.</p>","","","","","","","",""
"html-keyboard-response","332","861504","0.0-16.0-0.0","60c9c6e1728092717b93abde","64afc2c9a8732ea92db0087d","64afd7f3917cda449a4d48bb","743","k","<p style=""font-size: 30px;"">La parola viene del gruppo di alieni che hai studiato prima?</p><br><p style=""font-size: 60px; font-family: BACS"">vmuLlTPOM<p style=""font-size: 15px"">Premi <strong>k</strong> per sì, <strong>d</strong> per no.</p>","","vmuLlTPOM","testing","d","false","","",""
"html-keyboard-response","333","861980","0.0-16.0-0.1","60c9c6e1728092717b93abde","64afc2c9a8732ea92db0087d","64afd7f3917cda449a4d48bb","472","d","<p style=""font-size: 30px;"">La parola viene del gruppo di alieni che hai studiato prima?</p><br><p style=""font-size: 60px; font-family: BACS"">mBmlAPEdK<p style=""font-size: 15px"">Premi <strong>k</strong> per sì, <strong>d</strong> per no.</p>","","mBmlAPEdK","testing","k","false","","",""
"html-keyboard-response","334","862239","0.0-16.0-0.2","60c9c6e1728092717b93abde","64afc2c9a8732ea92db0087d","64afd7f3917cda449a4d48bb","257","k","<p style=""font-size: 30px;"">La parola viene del gruppo di alieni che hai studiato prima?</p><br><p style=""font-size: 60px; font-family: BACS"">bdUNudmkv<p style=""font-size: 15px"">Premi <strong>k</strong> per sì, <strong>d</strong> per no.</p>","","bdUNudmkv","testing","k","true","","",""
"html-keyboard-response","335","862378","0.0-16.0-0.3","60c9c6e1728092717b93abde","64afc2c9a8732ea92db0087d","64afd7f3917cda449a4d48bb","137","d","<p style=""font-size: 30px"">&emsp;</p><br><p style=""font-size: 60px; font-family: BACS"">ukcYdCKc<p style=""font-size: 15px"">Premi <strong>k</strong> per sì, <strong>d</strong> per no.</p>","","ukcYdCKc","testing","d","true","","",""
"html-keyboard-response","336","862511","0.0-16.0-0.4","60c9c6e1728092717b93abde","64afc2c9a8732ea92db0087d","64afd7f3917cda449a4d48bb","131","k","<p style=""font-size: 30px"">&emsp;</p><br><p style=""font-size: 60px; font-family: BACS"">RCcEdmkv<p style=""font-size: 15px"">Premi <strong>k</strong> per sì, <strong>d</strong> per no.</p>","","RCcEdmkv","testing","d","false","","",""
"html-keyboard-response","337","862782","0.0-16.0-0.5","60c9c6e1728092717b93abde","64afc2c9a8732ea92db0087d","64afd7f3917cda449a4d48bb","270","d","<p style=""font-size: 30px"">&emsp;</p><br><p style=""font-size: 60px; font-family: BACS"">KMDYtLkNc<p style=""font-size: 15px"">Premi <strong>k</strong> per sì, <strong>d</strong> per no.</p>","","KMDYtLkNc","testing","d","true","","",""
"html-keyboard-response","338","862920","0.0-16.0-0.6","60c9c6e1728092717b93abde","64afc2c9a8732ea92db0087d","64afd7f3917cda449a4d48bb","136","d","<p style=""font-size: 30px"">&emsp;</p><br><p style=""font-size: 60px; font-family: BACS"">adYrckKE<p style=""font-size: 15px"">Premi <strong>k</strong> per sì, <strong>d</strong> per no.</p>","","adYrckKE","testing","d","true","","",""
"html-keyboard-response","339","863062","0.0-16.0-0.7","60c9c6e1728092717b93abde","64afc2c9a8732ea92db0087d","64afd7f3917cda449a4d48bb","140","k","<p style=""font-size: 30px"">&emsp;</p><br><p style=""font-size: 60px; font-family: BACS"">YQbcdmkv<p style=""font-size: 15px"">Premi <strong>k</strong> per sì, <strong>d</strong> per no.</p>","","YQbcdmkv","testing","k","true","","",""
"html-keyboard-response","340","863306","0.0-16.0-0.8","60c9c6e1728092717b93abde","64afc2c9a8732ea92db0087d","64afd7f3917cda449a4d48bb","242","k","<p style=""font-size: 30px"">&emsp;</p><br><p style=""font-size: 60px; font-family: BACS"">thbOMJcL<p style=""font-size: 15px"">Premi <strong>k</strong> per sì, <strong>d</strong> per no.</p>","","thbOMJcL","testing","d","false","","",""
"html-keyboard-response","341","863482","0.0-16.0-0.9","60c9c6e1728092717b93abde","64afc2c9a8732ea92db0087d","64afd7f3917cda449a4d48bb","174","d","<p style=""font-size: 30px"">&emsp;</p><br><p style=""font-size: 60px; font-family: BACS"">TklDTPOM<p style=""font-size: 15px"">Premi <strong>k</strong> per sì, <strong>d</strong> per no.</p>","","TklDTPOM","testing","k","false","","",""
"html-keyboard-response","342","863686","0.0-16.0-0.10","60c9c6e1728092717b93abde","64afc2c9a8732ea92db0087d","64afd7f3917cda449a4d48bb","203","d","<p style=""font-size: 30px"">&emsp;</p><br><p style=""font-size: 60px; font-family: BACS"">JuamlkmU<p style=""font-size: 15px"">Premi <strong>k</strong> per sì, <strong>d</strong> per no.</p>","","JuamlkmU","testing","k","false","","",""
"html-keyboard-response","343","863835","0.0-16.0-0.11","60c9c6e1728092717b93abde","64afc2c9a8732ea92db0087d","64afd7f3917cda449a4d48bb","148","d","<p style=""font-size: 30px"">&emsp;</p><br><p style=""font-size: 60px; font-family: BACS"">kPkRAJcL<p style=""font-size: 15px"">Premi <strong>k</strong> per sì, <strong>d</strong> per no.</p>","","kPkRAJcL","testing","d","true","","",""
"html-keyboard-response","344","863956","0.0-16.0-0.12","60c9c6e1728092717b93abde","64afc2c9a8732ea92db0087d","64afd7f3917cda449a4d48bb","120","k","<p style=""font-size: 30px"">&emsp;</p><br><p style=""font-size: 60px; font-family: BACS"">JuamlTPOM<p style=""font-size: 15px"">Premi <strong>k</strong> per sì, <strong>d</strong> per no.</p>","","JuamlTPOM","testing","d","false","","",""
"html-keyboard-response","345","864103","0.0-16.0-0.13","60c9c6e1728092717b93abde","64afc2c9a8732ea92db0087d","64afd7f3917cda449a4d48bb","145","k","<p style=""font-size: 30px"">&emsp;</p><br><p style=""font-size: 60px; font-family: BACS"">lrZGLkNc<p style=""font-size: 15px"">Premi <strong>k</strong> per sì, <strong>d</strong> per no.</p>","","lrZGLkNc","testing","k","true","","",""
"html-keyboard-response","346","864417","0.0-16.0-0.14","60c9c6e1728092717b93abde","64afc2c9a8732ea92db0087d","64afd7f3917cda449a4d48bb","313","k","<p style=""font-size: 30px"">&emsp;</p><br><p style=""font-size: 60px; font-family: BACS"">rvOvUPEdK<p style=""font-size: 15px"">Premi <strong>k</strong> per sì, <strong>d</strong> per no.</p>","","rvOvUPEdK","testing","d","false","","",""
"html-keyboard-response","347","864641","0.0-16.0-0.15","60c9c6e1728092717b93abde","64afc2c9a8732ea92db0087d","64afd7f3917cda449a4d48bb","222","d","<p style=""font-size: 30px"">&emsp;</p><br><p style=""font-size: 60px; font-family: BACS"">mdkKTPOM<p style=""font-size: 15px"">Premi <strong>k</strong> per sì, <strong>d</strong> per no.</p>","","mdkKTPOM","testing","k","false","","",""
"html-keyboard-response","348","864767","0.0-16.0-0.16","60c9c6e1728092717b93abde","64afc2c9a8732ea92db0087d","64afd7f3917cda449a4d48bb","125","k","<p style=""font-size: 30px"">&emsp;</p><br><p style=""font-size: 60px; font-family: BACS"">TklDkmU<p style=""font-size: 15px"">Premi <strong>k</strong> per sì, <strong>d</strong> per no.</p>","","TklDkmU","testing","d","false","","",""
"html-keyboard-response","349","864849","0.0-16.0-0.17","60c9c6e1728092717b93abde","64afc2c9a8732ea92db0087d","64afd7f3917cda449a4d48bb","80","d","<p style=""font-size: 30px"">&emsp;</p><br><p style=""font-size: 60px; font-family: BACS"">bdUNuCPMl<p style=""font-size: 15px"">Premi <strong>k</strong> per sì, <strong>d</strong> per no.</p>","","bdUNuCPMl","testing","d","true","","",""
"html-keyboard-response","350","864975","0.0-16.0-0.18","60c9c6e1728092717b93abde","64afc2c9a8732ea92db0087d","64afd7f3917cda449a4d48bb","124","k","<p style=""font-size: 30px"">&emsp;</p><br><p style=""font-size: 60px; font-family: BACS"">PCPDhLkNc<p style=""font-size: 15px"">Premi <strong>k</strong> per sì, <strong>d</strong> per no.</p>","","PCPDhLkNc","testing","d","false","","",""
"html-keyboard-response","351","865060","0.0-16.0-0.19","60c9c6e1728092717b93abde","64afc2c9a8732ea92db0087d","64afd7f3917cda449a4d48bb","84","d","<p style=""font-size: 30px"">&emsp;</p><br><p style=""font-size: 60px; font-family: BACS"">PEtEPEdK<p style=""font-size: 15px"">Premi <strong>k</strong> per sì, <strong>d</strong> per no.</p>","","PEtEPEdK","testing","k","false","","",""
"html-keyboard-response","352","865162","0.0-16.0-0.20","60c9c6e1728092717b93abde","64afc2c9a8732ea92db0087d","64afd7f3917cda449a4d48bb","100","k","<p style=""font-size: 30px"">&emsp;</p><br><p style=""font-size: 60px; font-family: BACS"">ukcYLkNc<p style=""font-size: 15px"">Premi <strong>k</strong> per sì, <strong>d</strong> per no.</p>","","ukcYLkNc","testing","k","true","","",""
"html-keyboard-response","353","865241","0.0-16.0-0.21","60c9c6e1728092717b93abde","64afc2c9a8732ea92db0087d","64afd7f3917cda449a4d48bb","78","d","<p style=""font-size: 30px"">&emsp;</p><br><p style=""font-size: 60px; font-family: BACS"">kPkRAkKE<p style=""font-size: 15px"">Premi <strong>k</strong> per sì, <strong>d</strong> per no.</p>","","kPkRAkKE","testing","k","false","","",""
"html-keyboard-response","354","865369","0.0-16.0-0.22","60c9c6e1728092717b93abde","64afc2c9a8732ea92db0087d","64afd7f3917cda449a4d48bb","126","k","<p style=""font-size: 30px"">&emsp;</p><br><p style=""font-size: 60px; font-family: BACS"">BPAlCPMl<p style=""font-size: 15px"">Premi <strong>k</strong> per sì, <strong>d</strong> per no.</p>","","BPAlCPMl","testing","k","true","","",""
"html-keyboard-response","355","865441","0.0-16.0-0.23","60c9c6e1728092717b93abde","64afc2c9a8732ea92db0087d","64afd7f3917cda449a4d48bb","71","d","<p style=""font-size: 30px"">&emsp;</p><br><p style=""font-size: 60px; font-family: BACS"">OLJblkKE<p style=""font-size: 15px"">Premi <strong>k</strong> per sì, <strong>d</strong> per no.</p>","","OLJblkKE","testing","d","true","","",""
"html-keyboard-response","356","865707","0.0-16.0-0.24","60c9c6e1728092717b93abde","64afc2c9a8732ea92db0087d","64afd7f3917cda449a4d48bb","265","d","<p style=""font-size: 30px"">&emsp;</p><br><p style=""font-size: 60px; font-family: BACS"">PCPDhdCKc<p style=""font-size: 15px"">Premi <strong>k</strong> per sì, <strong>d</strong> per no.</p>","","PCPDhdCKc","testing","k","false","","",""
"html-keyboard-response","357","865939","0.0-16.0-0.25","60c9c6e1728092717b93abde","64afc2c9a8732ea92db0087d","64afd7f3917cda449a4d48bb","230","k","<p style=""font-size: 30px"">&emsp;</p><br><p style=""font-size: 60px; font-family: BACS"">YQbcCPMl<p style=""font-size: 15px"">Premi <strong>k</strong> per sì, <strong>d</strong> per no.</p>","","YQbcCPMl","testing","d","false","","",""
"html-keyboard-response","358","866155","0.0-16.0-0.26","60c9c6e1728092717b93abde","64afc2c9a8732ea92db0087d","64afd7f3917cda449a4d48bb","214","k","<p style=""font-size: 30px"">&emsp;</p><br><p style=""font-size: 60px; font-family: BACS"">adYrcJcL<p style=""font-size: 15px"">Premi <strong>k</strong> per sì, <strong>d</strong> per no.</p>","","adYrcJcL","testing","k","true","","",""
"html-keyboard-response","359","866363","0.0-16.0-0.27","60c9c6e1728092717b93abde","64afc2c9a8732ea92db0087d","64afd7f3917cda449a4d48bb","207","k","<p style=""font-size: 30px"">&emsp;</p><br><p style=""font-size: 60px; font-family: BACS"">RCcECPMl<p style=""font-size: 15px"">Premi <strong>k</strong> per sì, <strong>d</strong> per no.</p>","","RCcECPMl","testing","k","true","","",""
"html-keyboard-response","360","866426","0.0-16.0-0.28","60c9c6e1728092717b93abde","64afc2c9a8732ea92db0087d","64afd7f3917cda449a4d48bb","61","d","<p style=""font-size: 30px"">&emsp;</p><br><p style=""font-size: 60px; font-family: BACS"">PEtEZckv<p style=""font-size: 15px"">Premi <strong>k</strong> per sì, <strong>d</strong> per no.</p>","","PEtEZckv","testing","d","true","","",""
"html-keyboard-response","361","866629","0.0-16.0-0.29","60c9c6e1728092717b93abde","64afc2c9a8732ea92db0087d","64afd7f3917cda449a4d48bb","202","d","<p style=""font-size: 30px"">&emsp;</p><br><p style=""font-size: 60px; font-family: BACS"">vmuLlkmU<p style=""font-size: 15px"">Premi <strong>k</strong> per sì, <strong>d</strong> per no.</p>","","vmuLlkmU","testing","k","false","","",""
"html-keyboard-response","362","866886","0.0-16.0-0.30","60c9c6e1728092717b93abde","64afc2c9a8732ea92db0087d","64afd7f3917cda449a4d48bb","256","k","<p style=""font-size: 30px"">&emsp;</p><br><p style=""font-size: 60px; font-family: BACS"">LvuOGPEdK<p style=""font-size: 15px"">Premi <strong>k</strong> per sì, <strong>d</strong> per no.</p>","","LvuOGPEdK","testing","d","false","","",""
"html-keyboard-response","363","867056","0.0-16.0-0.31","60c9c6e1728092717b93abde","64afc2c9a8732ea92db0087d","64afd7f3917cda449a4d48bb","168","k","<p style=""font-size: 30px"">&emsp;</p><br><p style=""font-size: 60px; font-family: BACS"">OLJblJcL<p style=""font-size: 15px"">Premi <strong>k</strong> per sì, <strong>d</strong> per no.</p>","","OLJblJcL","testing","k","true","","",""
"html-keyboard-response","364","867101","0.0-16.0-0.32","60c9c6e1728092717b93abde","64afc2c9a8732ea92db0087d","64afd7f3917cda449a4d48bb","44","d","<p style=""font-size: 30px"">&emsp;</p><br><p style=""font-size: 60px; font-family: BACS"">rvOvUZckv<p style=""font-size: 15px"">Premi <strong>k</strong> per sì, <strong>d</strong> per no.</p>","","rvOvUZckv","testing","k","false","","",""
"html-keyboard-response","365","867356","0.0-16.0-0.33","60c9c6e1728092717b93abde","64afc2c9a8732ea92db0087d","64afd7f3917cda449a4d48bb","254","d","<p style=""font-size: 30px"">&emsp;</p><br><p style=""font-size: 60px; font-family: BACS"">thbOMkKE<p style=""font-size: 15px"">Premi <strong>k</strong> per sì, <strong>d</strong> per no.</p>","","thbOMkKE","testing","k","false","","",""
"html-keyboard-response","366","867527","0.0-16.0-0.34","60c9c6e1728092717b93abde","64afc2c9a8732ea92db0087d","64afd7f3917cda449a4d48bb","169","d","<p style=""font-size: 30px"">&emsp;</p><br><p style=""font-size: 60px; font-family: BACS"">KMDYtdCKc<p style=""font-size: 15px"">Premi <strong>k</strong> per sì, <strong>d</strong> per no.</p>","","KMDYtdCKc","testing","k","false","","",""
"html-keyboard-response","367","867709","0.0-16.0-0.35","60c9c6e1728092717b93abde","64afc2c9a8732ea92db0087d","64afd7f3917cda449a4d48bb","181","k","<p style=""font-size: 30px"">&emsp;</p><br><p style=""font-size: 60px; font-family: BACS"">mBmlAZckv<p style=""font-size: 15px"">Premi <strong>k</strong> per sì, <strong>d</strong> per no.</p>","","mBmlAZckv","testing","d","false","","",""
"html-keyboard-response","368","867932","0.0-16.0-0.36","60c9c6e1728092717b93abde","64afc2c9a8732ea92db0087d","64afd7f3917cda449a4d48bb","221","k","<p style=""font-size: 30px"">&emsp;</p><br><p style=""font-size: 60px; font-family: BACS"">lrZGdCKc<p style=""font-size: 15px"">Premi <strong>k</strong> per sì, <strong>d</strong> per no.</p>","","lrZGdCKc","testing","d","false","","",""
"html-keyboard-response","369","868111","0.0-16.0-0.37","60c9c6e1728092717b93abde","64afc2c9a8732ea92db0087d","64afd7f3917cda449a4d48bb","177","d","<p style=""font-size: 30px"">&emsp;</p><br><p style=""font-size: 60px; font-family: BACS"">BPAldmkv<p style=""font-size: 15px"">Premi <strong>k</strong> per sì, <strong>d</strong> per no.</p>","","BPAldmkv","testing","d","true","","",""
"html-keyboard-response","370","868352","0.0-16.0-0.38","60c9c6e1728092717b93abde","64afc2c9a8732ea92db0087d","64afd7f3917cda449a4d48bb","240","d","<p style=""font-size: 30px"">&emsp;</p><br><p style=""font-size: 60px; font-family: BACS"">mdkKkmU<p style=""font-size: 15px"">Premi <strong>k</strong> per sì, <strong>d</strong> per no.</p>","","mdkKkmU","testing","d","true","","",""
