"trial_type","trial_index","time_elapsed","internal_node_id","subject_id","study_id","session_id","rt","response","stimulus","success","item","task","correct_response","testing_condition","correct","target","confound","name"
"pavlovia","0","608","0.0-0.0","5eef3de3fb4e031bf546d887","650c16f0f2faf8d7a0d14c09","651c1b64b74017c2d6261b3a","","","","","","","","","","","",""
"survey-html-form","1","4440","0.0-1.0","5eef3de3fb4e031bf546d887","650c16f0f2faf8d7a0d14c09","651c1b64b74017c2d6261b3a","3830","{""ID"":""5eef3de3fb4e031bf546d887""}","","","","","","","","","",""
"html-keyboard-response","2","4986","0.0-2.0","5eef3de3fb4e031bf546d887","650c16f0f2faf8d7a0d14c09","651c1b64b74017c2d6261b3a","545"," ","<p style=""font-size: 15px;"">Before beginning, we ask that you read the consent information and confirm your agreement to participate in the experiment.</p>
      <p style=""font-size: 15px;""> We ask that you remember that this is a research project and that your participation is entirely voluntary. You can stop your participation at any time, without needing to provide any explanation. The study we're asking you to participate in aims at examining how readers process written words. You will be engaged in a session of apprximately 20 minutes, followed by a brief questionnaire. You will have the opportunity to take a few breaks during the experiment. You will be paid £4 for your participation, corresponding to a rate of £8/hour. While this experiment looks at cognitive faculties, this experiment doesn't constitute clinical proof of eventual pathologies.</p>
      <p style=""font-size: 15px;"">All of the information collected thanks to yours and others' participation will be held in a secure password-protected server, and will not be shared with anyone not authorised to view it. Your personal information will be kept with an arbitrary participant ID. Thanks to this data anonymity process, any researcher analysing the data won't be able to track the information back to a specific participant. Therefore, this process will make identifying you impossibile, even when results from the study will be published in scientific reviews, presented at congresses, or at any other public forum. More generally, the collected data will be treated in accordance with the laws on privacy and conformity to the Legislative Degree n. 196 ""Code regarding the protection of personal data"" of the 30th of June 2003 and to the European Regulation 2016/670 (General Data Protection Regulation - GDPR). The Data Protection Officer is Avv. Valentina Carollo, who can be contacted at the following email addresses: <a href=""mailto:dpo@sissa.it"">dpo@sissa.it</a> or <a href=""mailto:rpd@sissa.it"">rpd@sissa.it</a> - PEC: <a href=""mailto:protocollo@pec.sissa.it"">protocollo@pec.sissa.it</a>.</p>
      <p style=""font-size: 15px;""> Before expressing your consent to participate, we would like to remind you again that in case you need explanations on any aspect of the experimental procedure, the researcher is at your disposition (<a href=""mailto:aliebelt@sissa.it"">aliebelt@sissa.it</a>, <a href=""mailto:davide.crepaldi@sissa.it"">davide.crepaldi@sissa.it</a>).</p>
      <p style=""font-size: 15px;"">If you would like to download the informed consent form, you can do so here: <a href=""BASL-Informed_Consent.pdf"" download>informed consent form</a>.</p>
      <p style=""font-size: 15px;"">We ask that you press the spacebar to proceed to the consent section.</p>","","","","","","","","",""
"survey-html-form","3","21381","0.0-3.0","5eef3de3fb4e031bf546d887","650c16f0f2faf8d7a0d14c09","651c1b64b74017c2d6261b3a","16394","{""consent1"":""YES"",""consent2"":""YES"",""consent3"":""YES"",""consent4"":""YES"",""consent5"":""YES"",""consent6"":""YES""}","","","","","","","","","",""
"fullscreen","4","52090","0.0-4.0","5eef3de3fb4e031bf546d887","650c16f0f2faf8d7a0d14c09","651c1b64b74017c2d6261b3a","","","","true","","","","","","","",""
"html-keyboard-response","5","88994","0.0-5.0","5eef3de3fb4e031bf546d887","650c16f0f2faf8d7a0d14c09","651c1b64b74017c2d6261b3a","36903"," ","<p>Welcome, and thank you very much for your time!</p>
      <p>In this experiment, you'll be a language expert who's been asked to take a look at words that Earth has received in its first communication with aliens. Your task, in this first part of the experiment, is to pay close attention to the words you'll be shown; later, world leaders will ask you questions on what you saw. The words will be shown to you quite quickly; it seems that the aliens were in a hurry :-)</p>
      <p>Press the spacebar to continue.<p>","","","","","","","","",""
"html-keyboard-response","6","89059","0.0-6.0","5eef3de3fb4e031bf546d887","650c16f0f2faf8d7a0d14c09","651c1b64b74017c2d6261b3a","null","null","<p style=""font-size: 120px; font-family: BACS""> </p>","","","","","","","","",""
"html-keyboard-response","7","97602","0.0-7.0","5eef3de3fb4e031bf546d887","650c16f0f2faf8d7a0d14c09","651c1b64b74017c2d6261b3a","8542"," ","<p>Here is an example of the words you'll see:</p>
      <img src='esempio.png' height='400px'>
      <p>When you're ready to begin, press the spacebar.</p></div>","","","","","","","","",""
"html-keyboard-response","8","98609","0.0-8.0-0.0","5eef3de3fb4e031bf546d887","650c16f0f2faf8d7a0d14c09","651c1b64b74017c2d6261b3a","null","null","<p style=""font-size: 60px; font-family: BACS"">kKEdMABb</p>","","","","","","","","",""
"html-keyboard-response","9","99619","0.0-8.0-0.1","5eef3de3fb4e031bf546d887","650c16f0f2faf8d7a0d14c09","651c1b64b74017c2d6261b3a","null","null","<p style=""font-size: 60px; font-family: BACS"">bmbNOcZJ</p>","","","","","","","","",""
"html-keyboard-response","10","100632","0.0-8.0-0.2","5eef3de3fb4e031bf546d887","650c16f0f2faf8d7a0d14c09","651c1b64b74017c2d6261b3a","null","null","<p style=""font-size: 60px; font-family: BACS"">RdPtDRCdc</p>","","","","","","","","",""
"html-keyboard-response","11","101650","0.0-8.0-0.3","5eef3de3fb4e031bf546d887","650c16f0f2faf8d7a0d14c09","651c1b64b74017c2d6261b3a","null","null","<p style=""font-size: 60px; font-family: BACS"">DmAMEABb</p>","","","","","","","","",""
"html-keyboard-response","12","102655","0.0-8.0-0.4","5eef3de3fb4e031bf546d887","650c16f0f2faf8d7a0d14c09","651c1b64b74017c2d6261b3a","null","null","<p style=""font-size: 60px; font-family: BACS"">ArQuQONk</p>","","","","","","","","",""
"html-keyboard-response","13","103664","0.0-8.0-0.5","5eef3de3fb4e031bf546d887","650c16f0f2faf8d7a0d14c09","651c1b64b74017c2d6261b3a","null","null","<p style=""font-size: 60px; font-family: BACS"">lRCBABb</p>","","","","","","","","",""
"html-keyboard-response","14","104675","0.0-8.0-0.6","5eef3de3fb4e031bf546d887","650c16f0f2faf8d7a0d14c09","651c1b64b74017c2d6261b3a","null","null","<p style=""font-size: 60px; font-family: BACS"">hmKPMRCdc</p>","","","","","","","","",""
"html-keyboard-response","15","105680","0.0-8.0-0.7","5eef3de3fb4e031bf546d887","650c16f0f2faf8d7a0d14c09","651c1b64b74017c2d6261b3a","null","null","<p style=""font-size: 60px; font-family: BACS"">RKYkmtKP</p>","","","","","","","","",""
"html-keyboard-response","16","106683","0.0-8.0-0.8","5eef3de3fb4e031bf546d887","650c16f0f2faf8d7a0d14c09","651c1b64b74017c2d6261b3a","null","null","<p style=""font-size: 60px; font-family: BACS"">kNualLG</p>","","","","","","","","",""
"html-keyboard-response","17","107689","0.0-8.0-0.9","5eef3de3fb4e031bf546d887","650c16f0f2faf8d7a0d14c09","651c1b64b74017c2d6261b3a","null","null","<p style=""font-size: 60px; font-family: BACS"">tmtEMAPT</p>","","","","","","","","",""
"html-keyboard-response","18","108691","0.0-8.0-0.10","5eef3de3fb4e031bf546d887","650c16f0f2faf8d7a0d14c09","651c1b64b74017c2d6261b3a","null","null","<p style=""font-size: 60px; font-family: BACS"">RdPtDmtKP</p>","","","","","","","","",""
"html-keyboard-response","19","109698","0.0-8.0-0.11","5eef3de3fb4e031bf546d887","650c16f0f2faf8d7a0d14c09","651c1b64b74017c2d6261b3a","null","null","<p style=""font-size: 60px; font-family: BACS"">JdOAYQONk</p>","","","","","","","","",""
"html-keyboard-response","20","110726","0.0-8.0-0.12","5eef3de3fb4e031bf546d887","650c16f0f2faf8d7a0d14c09","651c1b64b74017c2d6261b3a","null","null","<p style=""font-size: 60px; font-family: BACS"">RdPtDABb</p>","","","","","","","","",""
"html-keyboard-response","21","111738","0.0-8.0-0.13","5eef3de3fb4e031bf546d887","650c16f0f2faf8d7a0d14c09","651c1b64b74017c2d6261b3a","null","null","<p style=""font-size: 60px; font-family: BACS"">QbkAcLUOk</p>","","","","","","","","",""
"html-keyboard-response","22","112741","0.0-8.0-0.14","5eef3de3fb4e031bf546d887","650c16f0f2faf8d7a0d14c09","651c1b64b74017c2d6261b3a","null","null","<p style=""font-size: 60px; font-family: BACS"">kKEdMmtKP</p>","","","","","","","","",""
"html-keyboard-response","23","113743","0.0-8.0-0.15","5eef3de3fb4e031bf546d887","650c16f0f2faf8d7a0d14c09","651c1b64b74017c2d6261b3a","null","null","<p style=""font-size: 60px; font-family: BACS"">aUZALUOk</p>","","","","","","","","",""
"html-keyboard-response","24","114749","0.0-8.0-0.16","5eef3de3fb4e031bf546d887","650c16f0f2faf8d7a0d14c09","651c1b64b74017c2d6261b3a","null","null","<p style=""font-size: 60px; font-family: BACS"">RKYkABb</p>","","","","","","","","",""
"html-keyboard-response","25","115755","0.0-8.0-0.17","5eef3de3fb4e031bf546d887","650c16f0f2faf8d7a0d14c09","651c1b64b74017c2d6261b3a","null","null","<p style=""font-size: 60px; font-family: BACS"">bdUNuJQA</p>","","","","","","","","",""
"html-keyboard-response","26","116766","0.0-8.0-0.18","5eef3de3fb4e031bf546d887","650c16f0f2faf8d7a0d14c09","651c1b64b74017c2d6261b3a","null","null","<p style=""font-size: 60px; font-family: BACS"">DmAMEAPT</p>","","","","","","","","",""
"html-keyboard-response","27","117780","0.0-8.0-0.19","5eef3de3fb4e031bf546d887","650c16f0f2faf8d7a0d14c09","651c1b64b74017c2d6261b3a","null","null","<p style=""font-size: 60px; font-family: BACS"">bvkrLUOk</p>","","","","","","","","",""
"html-keyboard-response","28","118787","0.0-8.0-0.20","5eef3de3fb4e031bf546d887","650c16f0f2faf8d7a0d14c09","651c1b64b74017c2d6261b3a","null","null","<p style=""font-size: 60px; font-family: BACS"">hmKPMmAM</p>","","","","","","","","",""
"html-keyboard-response","29","119793","0.0-8.0-0.21","5eef3de3fb4e031bf546d887","650c16f0f2faf8d7a0d14c09","651c1b64b74017c2d6261b3a","null","null","<p style=""font-size: 60px; font-family: BACS"">ArQuOcZJ</p>","","","","","","","","",""
"html-keyboard-response","30","120796","0.0-8.0-0.22","5eef3de3fb4e031bf546d887","650c16f0f2faf8d7a0d14c09","651c1b64b74017c2d6261b3a","null","null","<p style=""font-size: 60px; font-family: BACS"">kNuaLUOk</p>","","","","","","","","",""
"html-keyboard-response","31","121797","0.0-8.0-0.23","5eef3de3fb4e031bf546d887","650c16f0f2faf8d7a0d14c09","651c1b64b74017c2d6261b3a","null","null","<p style=""font-size: 60px; font-family: BACS"">TObCORCdc</p>","","","","","","","","",""
"html-keyboard-response","32","122808","0.0-8.0-0.24","5eef3de3fb4e031bf546d887","650c16f0f2faf8d7a0d14c09","651c1b64b74017c2d6261b3a","null","null","<p style=""font-size: 60px; font-family: BACS"">kNuaJQA</p>","","","","","","","","",""
"html-keyboard-response","33","123821","0.0-8.0-0.25","5eef3de3fb4e031bf546d887","650c16f0f2faf8d7a0d14c09","651c1b64b74017c2d6261b3a","null","null","<p style=""font-size: 60px; font-family: BACS"">tmtEMmAM</p>","","","","","","","","",""
"html-keyboard-response","34","124828","0.0-8.0-0.26","5eef3de3fb4e031bf546d887","650c16f0f2faf8d7a0d14c09","651c1b64b74017c2d6261b3a","null","null","<p style=""font-size: 60px; font-family: BACS"">DmAMERCdc</p>","","","","","","","","",""
"html-keyboard-response","35","125845","0.0-8.0-0.27","5eef3de3fb4e031bf546d887","650c16f0f2faf8d7a0d14c09","651c1b64b74017c2d6261b3a","null","null","<p style=""font-size: 60px; font-family: BACS"">JdOAYOcZJ</p>","","","","","","","","",""
"html-keyboard-response","36","126849","0.0-8.0-0.28","5eef3de3fb4e031bf546d887","650c16f0f2faf8d7a0d14c09","651c1b64b74017c2d6261b3a","null","null","<p style=""font-size: 60px; font-family: BACS"">ktBdmAM</p>","","","","","","","","",""
"html-keyboard-response","37","127853","0.0-8.0-0.29","5eef3de3fb4e031bf546d887","650c16f0f2faf8d7a0d14c09","651c1b64b74017c2d6261b3a","null","null","<p style=""font-size: 60px; font-family: BACS"">aUZAQONk</p>","","","","","","","","",""
"html-keyboard-response","38","128858","0.0-8.0-0.30","5eef3de3fb4e031bf546d887","650c16f0f2faf8d7a0d14c09","651c1b64b74017c2d6261b3a","null","null","<p style=""font-size: 60px; font-family: BACS"">lRCBRCdc</p>","","","","","","","","",""
"html-keyboard-response","39","129860","0.0-8.0-0.31","5eef3de3fb4e031bf546d887","650c16f0f2faf8d7a0d14c09","651c1b64b74017c2d6261b3a","null","null","<p style=""font-size: 60px; font-family: BACS"">TObCOmtKP</p>","","","","","","","","",""
"html-keyboard-response","40","130868","0.0-8.0-0.32","5eef3de3fb4e031bf546d887","650c16f0f2faf8d7a0d14c09","651c1b64b74017c2d6261b3a","null","null","<p style=""font-size: 60px; font-family: BACS"">bdUNulLG</p>","","","","","","","","",""
"html-keyboard-response","41","131885","0.0-8.0-0.33","5eef3de3fb4e031bf546d887","650c16f0f2faf8d7a0d14c09","651c1b64b74017c2d6261b3a","null","null","<p style=""font-size: 60px; font-family: BACS"">OEPkAPT</p>","","","","","","","","",""
"html-keyboard-response","42","132891","0.0-8.0-0.34","5eef3de3fb4e031bf546d887","650c16f0f2faf8d7a0d14c09","651c1b64b74017c2d6261b3a","null","null","<p style=""font-size: 60px; font-family: BACS"">QbkAcJQA</p>","","","","","","","","",""
"html-keyboard-response","43","133894","0.0-8.0-0.35","5eef3de3fb4e031bf546d887","650c16f0f2faf8d7a0d14c09","651c1b64b74017c2d6261b3a","null","null","<p style=""font-size: 60px; font-family: BACS"">ArQuLUOk</p>","","","","","","","","",""
"html-keyboard-response","44","134900","0.0-8.0-0.36","5eef3de3fb4e031bf546d887","650c16f0f2faf8d7a0d14c09","651c1b64b74017c2d6261b3a","null","null","<p style=""font-size: 60px; font-family: BACS"">ktBdAPT</p>","","","","","","","","",""
"html-keyboard-response","45","135908","0.0-8.0-0.37","5eef3de3fb4e031bf546d887","650c16f0f2faf8d7a0d14c09","651c1b64b74017c2d6261b3a","null","null","<p style=""font-size: 60px; font-family: BACS"">vAarJQA</p>","","","","","","","","",""
"html-keyboard-response","46","136924","0.0-8.0-0.38","5eef3de3fb4e031bf546d887","650c16f0f2faf8d7a0d14c09","651c1b64b74017c2d6261b3a","null","null","<p style=""font-size: 60px; font-family: BACS"">JdOAYlLG</p>","","","","","","","","",""
"html-keyboard-response","47","137932","0.0-8.0-0.39","5eef3de3fb4e031bf546d887","650c16f0f2faf8d7a0d14c09","651c1b64b74017c2d6261b3a","null","null","<p style=""font-size: 60px; font-family: BACS"">ukYZQONk</p>","","","","","","","","",""
"html-keyboard-response","48","138941","0.0-8.0-0.40","5eef3de3fb4e031bf546d887","650c16f0f2faf8d7a0d14c09","651c1b64b74017c2d6261b3a","null","null","<p style=""font-size: 60px; font-family: BACS"">DmAMEmtKP</p>","","","","","","","","",""
"html-keyboard-response","49","139957","0.0-8.0-0.41","5eef3de3fb4e031bf546d887","650c16f0f2faf8d7a0d14c09","651c1b64b74017c2d6261b3a","null","null","<p style=""font-size: 60px; font-family: BACS"">aUZAJQA</p>","","","","","","","","",""
"html-keyboard-response","50","140965","0.0-8.0-0.42","5eef3de3fb4e031bf546d887","650c16f0f2faf8d7a0d14c09","651c1b64b74017c2d6261b3a","null","null","<p style=""font-size: 60px; font-family: BACS"">JdOAYLUOk</p>","","","","","","","","",""
"html-keyboard-response","51","141967","0.0-8.0-0.43","5eef3de3fb4e031bf546d887","650c16f0f2faf8d7a0d14c09","651c1b64b74017c2d6261b3a","null","null","<p style=""font-size: 60px; font-family: BACS"">RdPtDmAM</p>","","","","","","","","",""
"html-keyboard-response","52","142973","0.0-8.0-0.44","5eef3de3fb4e031bf546d887","650c16f0f2faf8d7a0d14c09","651c1b64b74017c2d6261b3a","null","null","<p style=""font-size: 60px; font-family: BACS"">bdUNuOcZJ</p>","","","","","","","","",""
"html-keyboard-response","53","143980","0.0-8.0-0.45","5eef3de3fb4e031bf546d887","650c16f0f2faf8d7a0d14c09","651c1b64b74017c2d6261b3a","null","null","<p style=""font-size: 60px; font-family: BACS"">OEPkABb</p>","","","","","","","","",""
"html-keyboard-response","54","144989","0.0-8.0-0.46","5eef3de3fb4e031bf546d887","650c16f0f2faf8d7a0d14c09","651c1b64b74017c2d6261b3a","null","null","<p style=""font-size: 60px; font-family: BACS"">hmKPMAPT</p>","","","","","","","","",""
"html-keyboard-response","55","145997","0.0-8.0-0.47","5eef3de3fb4e031bf546d887","650c16f0f2faf8d7a0d14c09","651c1b64b74017c2d6261b3a","null","null","<p style=""font-size: 60px; font-family: BACS"">kNuaOcZJ</p>","","","","","","","","",""
"html-keyboard-response","56","146999","0.0-8.0-0.48","5eef3de3fb4e031bf546d887","650c16f0f2faf8d7a0d14c09","651c1b64b74017c2d6261b3a","null","null","<p style=""font-size: 60px; font-family: BACS"">bvkrJQA</p>","","","","","","","","",""
"html-keyboard-response","57","148004","0.0-8.0-0.49","5eef3de3fb4e031bf546d887","650c16f0f2faf8d7a0d14c09","651c1b64b74017c2d6261b3a","null","null","<p style=""font-size: 60px; font-family: BACS"">QbkAcQONk</p>","","","","","","","","",""
"html-keyboard-response","58","149012","0.0-8.0-0.50","5eef3de3fb4e031bf546d887","650c16f0f2faf8d7a0d14c09","651c1b64b74017c2d6261b3a","null","null","<p style=""font-size: 60px; font-family: BACS"">ukYZOcZJ</p>","","","","","","","","",""
"html-keyboard-response","59","150023","0.0-8.0-0.51","5eef3de3fb4e031bf546d887","650c16f0f2faf8d7a0d14c09","651c1b64b74017c2d6261b3a","null","null","<p style=""font-size: 60px; font-family: BACS"">bmbNQONk</p>","","","","","","","","",""
"html-keyboard-response","60","151029","0.0-8.0-0.52","5eef3de3fb4e031bf546d887","650c16f0f2faf8d7a0d14c09","651c1b64b74017c2d6261b3a","null","null","<p style=""font-size: 60px; font-family: BACS"">bvkrOcZJ</p>","","","","","","","","",""
"html-keyboard-response","61","152037","0.0-8.0-0.53","5eef3de3fb4e031bf546d887","650c16f0f2faf8d7a0d14c09","651c1b64b74017c2d6261b3a","null","null","<p style=""font-size: 60px; font-family: BACS"">RKYkAPT</p>","","","","","","","","",""
"html-keyboard-response","62","153044","0.0-8.0-0.54","5eef3de3fb4e031bf546d887","650c16f0f2faf8d7a0d14c09","651c1b64b74017c2d6261b3a","null","null","<p style=""font-size: 60px; font-family: BACS"">vAarQONk</p>","","","","","","","","",""
"html-keyboard-response","63","154054","0.0-8.0-0.55","5eef3de3fb4e031bf546d887","650c16f0f2faf8d7a0d14c09","651c1b64b74017c2d6261b3a","null","null","<p style=""font-size: 60px; font-family: BACS"">lRCBmtKP</p>","","","","","","","","",""
"html-keyboard-response","64","155061","0.0-8.0-0.56","5eef3de3fb4e031bf546d887","650c16f0f2faf8d7a0d14c09","651c1b64b74017c2d6261b3a","null","null","<p style=""font-size: 60px; font-family: BACS"">TObCOmAM</p>","","","","","","","","",""
"html-keyboard-response","65","156063","0.0-8.0-0.57","5eef3de3fb4e031bf546d887","650c16f0f2faf8d7a0d14c09","651c1b64b74017c2d6261b3a","null","null","<p style=""font-size: 60px; font-family: BACS"">bdUNuLUOk</p>","","","","","","","","",""
"html-keyboard-response","66","157078","0.0-8.0-0.58","5eef3de3fb4e031bf546d887","650c16f0f2faf8d7a0d14c09","651c1b64b74017c2d6261b3a","null","null","<p style=""font-size: 60px; font-family: BACS"">ktBdABb</p>","","","","","","","","",""
"html-keyboard-response","67","158085","0.0-8.0-0.59","5eef3de3fb4e031bf546d887","650c16f0f2faf8d7a0d14c09","651c1b64b74017c2d6261b3a","null","null","<p style=""font-size: 60px; font-family: BACS"">kKEdMmAM</p>","","","","","","","","",""
"html-keyboard-response","68","159093","0.0-8.0-0.60","5eef3de3fb4e031bf546d887","650c16f0f2faf8d7a0d14c09","651c1b64b74017c2d6261b3a","null","null","<p style=""font-size: 60px; font-family: BACS"">ktBdmtKP</p>","","","","","","","","",""
"html-keyboard-response","69","160106","0.0-8.0-0.61","5eef3de3fb4e031bf546d887","650c16f0f2faf8d7a0d14c09","651c1b64b74017c2d6261b3a","null","null","<p style=""font-size: 60px; font-family: BACS"">OEPkmAM</p>","","","","","","","","",""
"html-keyboard-response","70","161119","0.0-8.0-0.62","5eef3de3fb4e031bf546d887","650c16f0f2faf8d7a0d14c09","651c1b64b74017c2d6261b3a","null","null","<p style=""font-size: 60px; font-family: BACS"">bvkrQONk</p>","","","","","","","","",""
"html-keyboard-response","71","162130","0.0-8.0-0.63","5eef3de3fb4e031bf546d887","650c16f0f2faf8d7a0d14c09","651c1b64b74017c2d6261b3a","null","null","<p style=""font-size: 60px; font-family: BACS"">lRCBmAM</p>","","","","","","","","",""
"html-keyboard-response","72","163134","0.0-8.0-0.64","5eef3de3fb4e031bf546d887","650c16f0f2faf8d7a0d14c09","651c1b64b74017c2d6261b3a","null","null","<p style=""font-size: 60px; font-family: BACS"">vAarlLG</p>","","","","","","","","",""
"html-keyboard-response","73","164150","0.0-8.0-0.65","5eef3de3fb4e031bf546d887","650c16f0f2faf8d7a0d14c09","651c1b64b74017c2d6261b3a","null","null","<p style=""font-size: 60px; font-family: BACS"">kKEdMAPT</p>","","","","","","","","",""
"html-keyboard-response","74","165158","0.0-8.0-0.66","5eef3de3fb4e031bf546d887","650c16f0f2faf8d7a0d14c09","651c1b64b74017c2d6261b3a","null","null","<p style=""font-size: 60px; font-family: BACS"">ArQulLG</p>","","","","","","","","",""
"html-keyboard-response","75","166160","0.0-8.0-0.67","5eef3de3fb4e031bf546d887","650c16f0f2faf8d7a0d14c09","651c1b64b74017c2d6261b3a","null","null","<p style=""font-size: 60px; font-family: BACS"">vAarOcZJ</p>","","","","","","","","",""
"html-keyboard-response","76","167168","0.0-8.0-0.68","5eef3de3fb4e031bf546d887","650c16f0f2faf8d7a0d14c09","651c1b64b74017c2d6261b3a","null","null","<p style=""font-size: 60px; font-family: BACS"">ukYZJQA</p>","","","","","","","","",""
"html-keyboard-response","77","168173","0.0-8.0-0.69","5eef3de3fb4e031bf546d887","650c16f0f2faf8d7a0d14c09","651c1b64b74017c2d6261b3a","null","null","<p style=""font-size: 60px; font-family: BACS"">TObCOAPT</p>","","","","","","","","",""
"html-keyboard-response","78","169181","0.0-8.0-0.70","5eef3de3fb4e031bf546d887","650c16f0f2faf8d7a0d14c09","651c1b64b74017c2d6261b3a","null","null","<p style=""font-size: 60px; font-family: BACS"">tmtEMRCdc</p>","","","","","","","","",""
"html-keyboard-response","79","170185","0.0-8.0-0.71","5eef3de3fb4e031bf546d887","650c16f0f2faf8d7a0d14c09","651c1b64b74017c2d6261b3a","null","null","<p style=""font-size: 60px; font-family: BACS"">aUZAlLG</p>","","","","","","","","",""
"html-keyboard-response","80","171199","0.0-8.0-0.72","5eef3de3fb4e031bf546d887","650c16f0f2faf8d7a0d14c09","651c1b64b74017c2d6261b3a","null","null","<p style=""font-size: 60px; font-family: BACS"">bmbNJQA</p>","","","","","","","","",""
"html-keyboard-response","81","172216","0.0-8.0-0.73","5eef3de3fb4e031bf546d887","650c16f0f2faf8d7a0d14c09","651c1b64b74017c2d6261b3a","null","null","<p style=""font-size: 60px; font-family: BACS"">tmtEMABb</p>","","","","","","","","",""
"html-keyboard-response","82","173234","0.0-8.0-0.74","5eef3de3fb4e031bf546d887","650c16f0f2faf8d7a0d14c09","651c1b64b74017c2d6261b3a","null","null","<p style=""font-size: 60px; font-family: BACS"">ukYZLUOk</p>","","","","","","","","",""
"html-keyboard-response","83","174236","0.0-8.0-0.75","5eef3de3fb4e031bf546d887","650c16f0f2faf8d7a0d14c09","651c1b64b74017c2d6261b3a","null","null","<p style=""font-size: 60px; font-family: BACS"">QbkAclLG</p>","","","","","","","","",""
"html-keyboard-response","84","175239","0.0-8.0-0.76","5eef3de3fb4e031bf546d887","650c16f0f2faf8d7a0d14c09","651c1b64b74017c2d6261b3a","null","null","<p style=""font-size: 60px; font-family: BACS"">OEPkRCdc</p>","","","","","","","","",""
"html-keyboard-response","85","176248","0.0-8.0-0.77","5eef3de3fb4e031bf546d887","650c16f0f2faf8d7a0d14c09","651c1b64b74017c2d6261b3a","null","null","<p style=""font-size: 60px; font-family: BACS"">bmbNlLG</p>","","","","","","","","",""
"html-keyboard-response","86","177257","0.0-8.0-0.78","5eef3de3fb4e031bf546d887","650c16f0f2faf8d7a0d14c09","651c1b64b74017c2d6261b3a","null","null","<p style=""font-size: 60px; font-family: BACS"">hmKPMmtKP</p>","","","","","","","","",""
"html-keyboard-response","87","178271","0.0-8.0-0.79","5eef3de3fb4e031bf546d887","650c16f0f2faf8d7a0d14c09","651c1b64b74017c2d6261b3a","null","null","<p style=""font-size: 60px; font-family: BACS"">RKYkRCdc</p>","","","","","","","","",""
"html-keyboard-response","88","188723","0.0-9.0","5eef3de3fb4e031bf546d887","650c16f0f2faf8d7a0d14c09","651c1b64b74017c2d6261b3a","10451"," ","<p>Great, you've seen the first block of words. You may now take a short break.</p>
      <p>Press the spacebar when you're ready to continue.</p>","","","","","","","","",""
"html-keyboard-response","89","189728","0.0-10.0-0.0","5eef3de3fb4e031bf546d887","650c16f0f2faf8d7a0d14c09","651c1b64b74017c2d6261b3a","null","null","<p style=""font-size: 60px; font-family: BACS"">JdOAYlLG</p>","","","","","","","","",""
"html-keyboard-response","90","190737","0.0-10.0-0.1","5eef3de3fb4e031bf546d887","650c16f0f2faf8d7a0d14c09","651c1b64b74017c2d6261b3a","null","null","<p style=""font-size: 60px; font-family: BACS"">TObCOmAM</p>","","","","","","","","",""
"html-keyboard-response","91","191744","0.0-10.0-0.2","5eef3de3fb4e031bf546d887","650c16f0f2faf8d7a0d14c09","651c1b64b74017c2d6261b3a","null","null","<p style=""font-size: 60px; font-family: BACS"">bmbNQONk</p>","","","","","","","","",""
"html-keyboard-response","92","192753","0.0-10.0-0.3","5eef3de3fb4e031bf546d887","650c16f0f2faf8d7a0d14c09","651c1b64b74017c2d6261b3a","null","null","<p style=""font-size: 60px; font-family: BACS"">OEPkmAM</p>","","","","","","","","",""
"html-keyboard-response","93","193762","0.0-10.0-0.4","5eef3de3fb4e031bf546d887","650c16f0f2faf8d7a0d14c09","651c1b64b74017c2d6261b3a","null","null","<p style=""font-size: 60px; font-family: BACS"">ktBdABb</p>","","","","","","","","",""
"html-keyboard-response","94","194763","0.0-10.0-0.5","5eef3de3fb4e031bf546d887","650c16f0f2faf8d7a0d14c09","651c1b64b74017c2d6261b3a","null","null","<p style=""font-size: 60px; font-family: BACS"">hmKPMAPT</p>","","","","","","","","",""
"html-keyboard-response","95","195771","0.0-10.0-0.6","5eef3de3fb4e031bf546d887","650c16f0f2faf8d7a0d14c09","651c1b64b74017c2d6261b3a","null","null","<p style=""font-size: 60px; font-family: BACS"">ArQuQONk</p>","","","","","","","","",""
"html-keyboard-response","96","196776","0.0-10.0-0.7","5eef3de3fb4e031bf546d887","650c16f0f2faf8d7a0d14c09","651c1b64b74017c2d6261b3a","null","null","<p style=""font-size: 60px; font-family: BACS"">DmAMEmtKP</p>","","","","","","","","",""
"html-keyboard-response","97","197781","0.0-10.0-0.8","5eef3de3fb4e031bf546d887","650c16f0f2faf8d7a0d14c09","651c1b64b74017c2d6261b3a","null","null","<p style=""font-size: 60px; font-family: BACS"">RKYkABb</p>","","","","","","","","",""
"html-keyboard-response","98","198784","0.0-10.0-0.9","5eef3de3fb4e031bf546d887","650c16f0f2faf8d7a0d14c09","651c1b64b74017c2d6261b3a","null","null","<p style=""font-size: 60px; font-family: BACS"">bmbNJQA</p>","","","","","","","","",""
"html-keyboard-response","99","199792","0.0-10.0-0.10","5eef3de3fb4e031bf546d887","650c16f0f2faf8d7a0d14c09","651c1b64b74017c2d6261b3a","null","null","<p style=""font-size: 60px; font-family: BACS"">RdPtDRCdc</p>","","","","","","","","",""
"html-keyboard-response","100","200795","0.0-10.0-0.11","5eef3de3fb4e031bf546d887","650c16f0f2faf8d7a0d14c09","651c1b64b74017c2d6261b3a","null","null","<p style=""font-size: 60px; font-family: BACS"">kNuaJQA</p>","","","","","","","","",""
"html-keyboard-response","101","201800","0.0-10.0-0.12","5eef3de3fb4e031bf546d887","650c16f0f2faf8d7a0d14c09","651c1b64b74017c2d6261b3a","null","null","<p style=""font-size: 60px; font-family: BACS"">QbkAcLUOk</p>","","","","","","","","",""
"html-keyboard-response","102","202809","0.0-10.0-0.13","5eef3de3fb4e031bf546d887","650c16f0f2faf8d7a0d14c09","651c1b64b74017c2d6261b3a","null","null","<p style=""font-size: 60px; font-family: BACS"">aUZAlLG</p>","","","","","","","","",""
"html-keyboard-response","103","203819","0.0-10.0-0.14","5eef3de3fb4e031bf546d887","650c16f0f2faf8d7a0d14c09","651c1b64b74017c2d6261b3a","null","null","<p style=""font-size: 60px; font-family: BACS"">ktBdAPT</p>","","","","","","","","",""
"html-keyboard-response","104","204825","0.0-10.0-0.15","5eef3de3fb4e031bf546d887","650c16f0f2faf8d7a0d14c09","651c1b64b74017c2d6261b3a","null","null","<p style=""font-size: 60px; font-family: BACS"">aUZAQONk</p>","","","","","","","","",""
"html-keyboard-response","105","205832","0.0-10.0-0.16","5eef3de3fb4e031bf546d887","650c16f0f2faf8d7a0d14c09","651c1b64b74017c2d6261b3a","null","null","<p style=""font-size: 60px; font-family: BACS"">QbkAclLG</p>","","","","","","","","",""
"html-keyboard-response","106","206841","0.0-10.0-0.17","5eef3de3fb4e031bf546d887","650c16f0f2faf8d7a0d14c09","651c1b64b74017c2d6261b3a","null","null","<p style=""font-size: 60px; font-family: BACS"">aUZALUOk</p>","","","","","","","","",""
"html-keyboard-response","107","207848","0.0-10.0-0.18","5eef3de3fb4e031bf546d887","650c16f0f2faf8d7a0d14c09","651c1b64b74017c2d6261b3a","null","null","<p style=""font-size: 60px; font-family: BACS"">bdUNulLG</p>","","","","","","","","",""
"html-keyboard-response","108","208859","0.0-10.0-0.19","5eef3de3fb4e031bf546d887","650c16f0f2faf8d7a0d14c09","651c1b64b74017c2d6261b3a","null","null","<p style=""font-size: 60px; font-family: BACS"">aUZAJQA</p>","","","","","","","","",""
"html-keyboard-response","109","209866","0.0-10.0-0.20","5eef3de3fb4e031bf546d887","650c16f0f2faf8d7a0d14c09","651c1b64b74017c2d6261b3a","null","null","<p style=""font-size: 60px; font-family: BACS"">hmKPMmAM</p>","","","","","","","","",""
"html-keyboard-response","110","210876","0.0-10.0-0.21","5eef3de3fb4e031bf546d887","650c16f0f2faf8d7a0d14c09","651c1b64b74017c2d6261b3a","null","null","<p style=""font-size: 60px; font-family: BACS"">JdOAYQONk</p>","","","","","","","","",""
"html-keyboard-response","111","211889","0.0-10.0-0.22","5eef3de3fb4e031bf546d887","650c16f0f2faf8d7a0d14c09","651c1b64b74017c2d6261b3a","null","null","<p style=""font-size: 60px; font-family: BACS"">RdPtDABb</p>","","","","","","","","",""
"html-keyboard-response","112","212902","0.0-10.0-0.23","5eef3de3fb4e031bf546d887","650c16f0f2faf8d7a0d14c09","651c1b64b74017c2d6261b3a","null","null","<p style=""font-size: 60px; font-family: BACS"">bvkrOcZJ</p>","","","","","","","","",""
"html-keyboard-response","113","213906","0.0-10.0-0.24","5eef3de3fb4e031bf546d887","650c16f0f2faf8d7a0d14c09","651c1b64b74017c2d6261b3a","null","null","<p style=""font-size: 60px; font-family: BACS"">TObCORCdc</p>","","","","","","","","",""
"html-keyboard-response","114","214923","0.0-10.0-0.25","5eef3de3fb4e031bf546d887","650c16f0f2faf8d7a0d14c09","651c1b64b74017c2d6261b3a","null","null","<p style=""font-size: 60px; font-family: BACS"">bdUNuJQA</p>","","","","","","","","",""
"html-keyboard-response","115","215928","0.0-10.0-0.26","5eef3de3fb4e031bf546d887","650c16f0f2faf8d7a0d14c09","651c1b64b74017c2d6261b3a","null","null","<p style=""font-size: 60px; font-family: BACS"">RdPtDmtKP</p>","","","","","","","","",""
"html-keyboard-response","116","216935","0.0-10.0-0.27","5eef3de3fb4e031bf546d887","650c16f0f2faf8d7a0d14c09","651c1b64b74017c2d6261b3a","null","null","<p style=""font-size: 60px; font-family: BACS"">RKYkAPT</p>","","","","","","","","",""
"html-keyboard-response","117","217946","0.0-10.0-0.28","5eef3de3fb4e031bf546d887","650c16f0f2faf8d7a0d14c09","651c1b64b74017c2d6261b3a","null","null","<p style=""font-size: 60px; font-family: BACS"">hmKPMmtKP</p>","","","","","","","","",""
"html-keyboard-response","118","218952","0.0-10.0-0.29","5eef3de3fb4e031bf546d887","650c16f0f2faf8d7a0d14c09","651c1b64b74017c2d6261b3a","null","null","<p style=""font-size: 60px; font-family: BACS"">vAarJQA</p>","","","","","","","","",""
"html-keyboard-response","119","219961","0.0-10.0-0.30","5eef3de3fb4e031bf546d887","650c16f0f2faf8d7a0d14c09","651c1b64b74017c2d6261b3a","null","null","<p style=""font-size: 60px; font-family: BACS"">ktBdmtKP</p>","","","","","","","","",""
"html-keyboard-response","120","220969","0.0-10.0-0.31","5eef3de3fb4e031bf546d887","650c16f0f2faf8d7a0d14c09","651c1b64b74017c2d6261b3a","null","null","<p style=""font-size: 60px; font-family: BACS"">tmtEMmAM</p>","","","","","","","","",""
"html-keyboard-response","121","221975","0.0-10.0-0.32","5eef3de3fb4e031bf546d887","650c16f0f2faf8d7a0d14c09","651c1b64b74017c2d6261b3a","null","null","<p style=""font-size: 60px; font-family: BACS"">QbkAcQONk</p>","","","","","","","","",""
"html-keyboard-response","122","222985","0.0-10.0-0.33","5eef3de3fb4e031bf546d887","650c16f0f2faf8d7a0d14c09","651c1b64b74017c2d6261b3a","null","null","<p style=""font-size: 60px; font-family: BACS"">tmtEMABb</p>","","","","","","","","",""
"html-keyboard-response","123","223995","0.0-10.0-0.34","5eef3de3fb4e031bf546d887","650c16f0f2faf8d7a0d14c09","651c1b64b74017c2d6261b3a","null","null","<p style=""font-size: 60px; font-family: BACS"">bdUNuOcZJ</p>","","","","","","","","",""
"html-keyboard-response","124","225004","0.0-10.0-0.35","5eef3de3fb4e031bf546d887","650c16f0f2faf8d7a0d14c09","651c1b64b74017c2d6261b3a","null","null","<p style=""font-size: 60px; font-family: BACS"">kKEdMABb</p>","","","","","","","","",""
"html-keyboard-response","125","226007","0.0-10.0-0.36","5eef3de3fb4e031bf546d887","650c16f0f2faf8d7a0d14c09","651c1b64b74017c2d6261b3a","null","null","<p style=""font-size: 60px; font-family: BACS"">DmAMEAPT</p>","","","","","","","","",""
"html-keyboard-response","126","227021","0.0-10.0-0.37","5eef3de3fb4e031bf546d887","650c16f0f2faf8d7a0d14c09","651c1b64b74017c2d6261b3a","null","null","<p style=""font-size: 60px; font-family: BACS"">ktBdmAM</p>","","","","","","","","",""
"html-keyboard-response","127","228035","0.0-10.0-0.38","5eef3de3fb4e031bf546d887","650c16f0f2faf8d7a0d14c09","651c1b64b74017c2d6261b3a","null","null","<p style=""font-size: 60px; font-family: BACS"">ukYZJQA</p>","","","","","","","","",""
"html-keyboard-response","128","229046","0.0-10.0-0.39","5eef3de3fb4e031bf546d887","650c16f0f2faf8d7a0d14c09","651c1b64b74017c2d6261b3a","null","null","<p style=""font-size: 60px; font-family: BACS"">kNuaLUOk</p>","","","","","","","","",""
"html-keyboard-response","129","230051","0.0-10.0-0.40","5eef3de3fb4e031bf546d887","650c16f0f2faf8d7a0d14c09","651c1b64b74017c2d6261b3a","null","null","<p style=""font-size: 60px; font-family: BACS"">tmtEMAPT</p>","","","","","","","","",""
"html-keyboard-response","130","231060","0.0-10.0-0.41","5eef3de3fb4e031bf546d887","650c16f0f2faf8d7a0d14c09","651c1b64b74017c2d6261b3a","null","null","<p style=""font-size: 60px; font-family: BACS"">OEPkRCdc</p>","","","","","","","","",""
"html-keyboard-response","131","232075","0.0-10.0-0.42","5eef3de3fb4e031bf546d887","650c16f0f2faf8d7a0d14c09","651c1b64b74017c2d6261b3a","null","null","<p style=""font-size: 60px; font-family: BACS"">lRCBmAM</p>","","","","","","","","",""
"html-keyboard-response","132","233081","0.0-10.0-0.43","5eef3de3fb4e031bf546d887","650c16f0f2faf8d7a0d14c09","651c1b64b74017c2d6261b3a","null","null","<p style=""font-size: 60px; font-family: BACS"">DmAMEABb</p>","","","","","","","","",""
"html-keyboard-response","133","234082","0.0-10.0-0.44","5eef3de3fb4e031bf546d887","650c16f0f2faf8d7a0d14c09","651c1b64b74017c2d6261b3a","null","null","<p style=""font-size: 60px; font-family: BACS"">JdOAYOcZJ</p>","","","","","","","","",""
"html-keyboard-response","134","235091","0.0-10.0-0.45","5eef3de3fb4e031bf546d887","650c16f0f2faf8d7a0d14c09","651c1b64b74017c2d6261b3a","null","null","<p style=""font-size: 60px; font-family: BACS"">RKYkmtKP</p>","","","","","","","","",""
"html-keyboard-response","135","236101","0.0-10.0-0.46","5eef3de3fb4e031bf546d887","650c16f0f2faf8d7a0d14c09","651c1b64b74017c2d6261b3a","null","null","<p style=""font-size: 60px; font-family: BACS"">lRCBABb</p>","","","","","","","","",""
"html-keyboard-response","136","237107","0.0-10.0-0.47","5eef3de3fb4e031bf546d887","650c16f0f2faf8d7a0d14c09","651c1b64b74017c2d6261b3a","null","null","<p style=""font-size: 60px; font-family: BACS"">tmtEMRCdc</p>","","","","","","","","",""
"html-keyboard-response","137","238120","0.0-10.0-0.48","5eef3de3fb4e031bf546d887","650c16f0f2faf8d7a0d14c09","651c1b64b74017c2d6261b3a","null","null","<p style=""font-size: 60px; font-family: BACS"">TObCOAPT</p>","","","","","","","","",""
"html-keyboard-response","138","239122","0.0-10.0-0.49","5eef3de3fb4e031bf546d887","650c16f0f2faf8d7a0d14c09","651c1b64b74017c2d6261b3a","null","null","<p style=""font-size: 60px; font-family: BACS"">lRCBRCdc</p>","","","","","","","","",""
"html-keyboard-response","139","240129","0.0-10.0-0.50","5eef3de3fb4e031bf546d887","650c16f0f2faf8d7a0d14c09","651c1b64b74017c2d6261b3a","null","null","<p style=""font-size: 60px; font-family: BACS"">kNuaOcZJ</p>","","","","","","","","",""
"html-keyboard-response","140","241131","0.0-10.0-0.51","5eef3de3fb4e031bf546d887","650c16f0f2faf8d7a0d14c09","651c1b64b74017c2d6261b3a","null","null","<p style=""font-size: 60px; font-family: BACS"">JdOAYLUOk</p>","","","","","","","","",""
"html-keyboard-response","141","242137","0.0-10.0-0.52","5eef3de3fb4e031bf546d887","650c16f0f2faf8d7a0d14c09","651c1b64b74017c2d6261b3a","null","null","<p style=""font-size: 60px; font-family: BACS"">OEPkAPT</p>","","","","","","","","",""
"html-keyboard-response","142","243149","0.0-10.0-0.53","5eef3de3fb4e031bf546d887","650c16f0f2faf8d7a0d14c09","651c1b64b74017c2d6261b3a","null","null","<p style=""font-size: 60px; font-family: BACS"">DmAMERCdc</p>","","","","","","","","",""
"html-keyboard-response","143","244164","0.0-10.0-0.54","5eef3de3fb4e031bf546d887","650c16f0f2faf8d7a0d14c09","651c1b64b74017c2d6261b3a","null","null","<p style=""font-size: 60px; font-family: BACS"">vAarQONk</p>","","","","","","","","",""
"html-keyboard-response","144","245170","0.0-10.0-0.55","5eef3de3fb4e031bf546d887","650c16f0f2faf8d7a0d14c09","651c1b64b74017c2d6261b3a","null","null","<p style=""font-size: 60px; font-family: BACS"">lRCBmtKP</p>","","","","","","","","",""
"html-keyboard-response","145","246183","0.0-10.0-0.56","5eef3de3fb4e031bf546d887","650c16f0f2faf8d7a0d14c09","651c1b64b74017c2d6261b3a","null","null","<p style=""font-size: 60px; font-family: BACS"">ArQuOcZJ</p>","","","","","","","","",""
"html-keyboard-response","146","247187","0.0-10.0-0.57","5eef3de3fb4e031bf546d887","650c16f0f2faf8d7a0d14c09","651c1b64b74017c2d6261b3a","null","null","<p style=""font-size: 60px; font-family: BACS"">TObCOmtKP</p>","","","","","","","","",""
"html-keyboard-response","147","248196","0.0-10.0-0.58","5eef3de3fb4e031bf546d887","650c16f0f2faf8d7a0d14c09","651c1b64b74017c2d6261b3a","null","null","<p style=""font-size: 60px; font-family: BACS"">vAarOcZJ</p>","","","","","","","","",""
"html-keyboard-response","148","249203","0.0-10.0-0.59","5eef3de3fb4e031bf546d887","650c16f0f2faf8d7a0d14c09","651c1b64b74017c2d6261b3a","null","null","<p style=""font-size: 60px; font-family: BACS"">bmbNlLG</p>","","","","","","","","",""
"html-keyboard-response","149","250210","0.0-10.0-0.60","5eef3de3fb4e031bf546d887","650c16f0f2faf8d7a0d14c09","651c1b64b74017c2d6261b3a","null","null","<p style=""font-size: 60px; font-family: BACS"">bvkrJQA</p>","","","","","","","","",""
"html-keyboard-response","150","251226","0.0-10.0-0.61","5eef3de3fb4e031bf546d887","650c16f0f2faf8d7a0d14c09","651c1b64b74017c2d6261b3a","null","null","<p style=""font-size: 60px; font-family: BACS"">kKEdMAPT</p>","","","","","","","","",""
"html-keyboard-response","151","252230","0.0-10.0-0.62","5eef3de3fb4e031bf546d887","650c16f0f2faf8d7a0d14c09","651c1b64b74017c2d6261b3a","null","null","<p style=""font-size: 60px; font-family: BACS"">ukYZQONk</p>","","","","","","","","",""
"html-keyboard-response","152","253234","0.0-10.0-0.63","5eef3de3fb4e031bf546d887","650c16f0f2faf8d7a0d14c09","651c1b64b74017c2d6261b3a","null","null","<p style=""font-size: 60px; font-family: BACS"">OEPkABb</p>","","","","","","","","",""
"html-keyboard-response","153","254243","0.0-10.0-0.64","5eef3de3fb4e031bf546d887","650c16f0f2faf8d7a0d14c09","651c1b64b74017c2d6261b3a","null","null","<p style=""font-size: 60px; font-family: BACS"">kNualLG</p>","","","","","","","","",""
"html-keyboard-response","154","255251","0.0-10.0-0.65","5eef3de3fb4e031bf546d887","650c16f0f2faf8d7a0d14c09","651c1b64b74017c2d6261b3a","null","null","<p style=""font-size: 60px; font-family: BACS"">kKEdMmtKP</p>","","","","","","","","",""
"html-keyboard-response","155","256259","0.0-10.0-0.66","5eef3de3fb4e031bf546d887","650c16f0f2faf8d7a0d14c09","651c1b64b74017c2d6261b3a","null","null","<p style=""font-size: 60px; font-family: BACS"">RdPtDmAM</p>","","","","","","","","",""
"html-keyboard-response","156","257268","0.0-10.0-0.67","5eef3de3fb4e031bf546d887","650c16f0f2faf8d7a0d14c09","651c1b64b74017c2d6261b3a","null","null","<p style=""font-size: 60px; font-family: BACS"">ukYZLUOk</p>","","","","","","","","",""
"html-keyboard-response","157","258276","0.0-10.0-0.68","5eef3de3fb4e031bf546d887","650c16f0f2faf8d7a0d14c09","651c1b64b74017c2d6261b3a","null","null","<p style=""font-size: 60px; font-family: BACS"">bmbNOcZJ</p>","","","","","","","","",""
"html-keyboard-response","158","259283","0.0-10.0-0.69","5eef3de3fb4e031bf546d887","650c16f0f2faf8d7a0d14c09","651c1b64b74017c2d6261b3a","null","null","<p style=""font-size: 60px; font-family: BACS"">kKEdMmAM</p>","","","","","","","","",""
"html-keyboard-response","159","260297","0.0-10.0-0.70","5eef3de3fb4e031bf546d887","650c16f0f2faf8d7a0d14c09","651c1b64b74017c2d6261b3a","null","null","<p style=""font-size: 60px; font-family: BACS"">ArQulLG</p>","","","","","","","","",""
"html-keyboard-response","160","261298","0.0-10.0-0.71","5eef3de3fb4e031bf546d887","650c16f0f2faf8d7a0d14c09","651c1b64b74017c2d6261b3a","null","null","<p style=""font-size: 60px; font-family: BACS"">bdUNuLUOk</p>","","","","","","","","",""
"html-keyboard-response","161","262300","0.0-10.0-0.72","5eef3de3fb4e031bf546d887","650c16f0f2faf8d7a0d14c09","651c1b64b74017c2d6261b3a","null","null","<p style=""font-size: 60px; font-family: BACS"">vAarlLG</p>","","","","","","","","",""
"html-keyboard-response","162","263308","0.0-10.0-0.73","5eef3de3fb4e031bf546d887","650c16f0f2faf8d7a0d14c09","651c1b64b74017c2d6261b3a","null","null","<p style=""font-size: 60px; font-family: BACS"">ArQuLUOk</p>","","","","","","","","",""
"html-keyboard-response","163","264309","0.0-10.0-0.74","5eef3de3fb4e031bf546d887","650c16f0f2faf8d7a0d14c09","651c1b64b74017c2d6261b3a","null","null","<p style=""font-size: 60px; font-family: BACS"">QbkAcJQA</p>","","","","","","","","",""
"html-keyboard-response","164","265315","0.0-10.0-0.75","5eef3de3fb4e031bf546d887","650c16f0f2faf8d7a0d14c09","651c1b64b74017c2d6261b3a","null","null","<p style=""font-size: 60px; font-family: BACS"">bvkrLUOk</p>","","","","","","","","",""
"html-keyboard-response","165","266332","0.0-10.0-0.76","5eef3de3fb4e031bf546d887","650c16f0f2faf8d7a0d14c09","651c1b64b74017c2d6261b3a","null","null","<p style=""font-size: 60px; font-family: BACS"">RKYkRCdc</p>","","","","","","","","",""
"html-keyboard-response","166","267343","0.0-10.0-0.77","5eef3de3fb4e031bf546d887","650c16f0f2faf8d7a0d14c09","651c1b64b74017c2d6261b3a","null","null","<p style=""font-size: 60px; font-family: BACS"">bvkrQONk</p>","","","","","","","","",""
"html-keyboard-response","167","268355","0.0-10.0-0.78","5eef3de3fb4e031bf546d887","650c16f0f2faf8d7a0d14c09","651c1b64b74017c2d6261b3a","null","null","<p style=""font-size: 60px; font-family: BACS"">hmKPMRCdc</p>","","","","","","","","",""
"html-keyboard-response","168","269370","0.0-10.0-0.79","5eef3de3fb4e031bf546d887","650c16f0f2faf8d7a0d14c09","651c1b64b74017c2d6261b3a","null","null","<p style=""font-size: 60px; font-family: BACS"">ukYZOcZJ</p>","","","","","","","","",""
"html-keyboard-response","169","301715","0.0-11.0","5eef3de3fb4e031bf546d887","650c16f0f2faf8d7a0d14c09","651c1b64b74017c2d6261b3a","32348"," ","<p>Great, you've seen the second block of words. You may now take a short break.</p>
      <p>Press the spacebar when you're ready to continue.</p>","","","","","","","","",""
"html-keyboard-response","170","302719","0.0-12.0-0.0","5eef3de3fb4e031bf546d887","650c16f0f2faf8d7a0d14c09","651c1b64b74017c2d6261b3a","null","null","<p style=""font-size: 60px; font-family: BACS"">QbkAcQONk</p>","","","","","","","","",""
"html-keyboard-response","171","303727","0.0-12.0-0.1","5eef3de3fb4e031bf546d887","650c16f0f2faf8d7a0d14c09","651c1b64b74017c2d6261b3a","null","null","<p style=""font-size: 60px; font-family: BACS"">hmKPMAPT</p>","","","","","","","","",""
"html-keyboard-response","172","304736","0.0-12.0-0.2","5eef3de3fb4e031bf546d887","650c16f0f2faf8d7a0d14c09","651c1b64b74017c2d6261b3a","null","null","<p style=""font-size: 60px; font-family: BACS"">JdOAYLUOk</p>","","","","","","","","",""
"html-keyboard-response","173","305742","0.0-12.0-0.3","5eef3de3fb4e031bf546d887","650c16f0f2faf8d7a0d14c09","651c1b64b74017c2d6261b3a","null","null","<p style=""font-size: 60px; font-family: BACS"">vAarJQA</p>","","","","","","","","",""
"html-keyboard-response","174","306751","0.0-12.0-0.4","5eef3de3fb4e031bf546d887","650c16f0f2faf8d7a0d14c09","651c1b64b74017c2d6261b3a","null","null","<p style=""font-size: 60px; font-family: BACS"">kKEdMABb</p>","","","","","","","","",""
"html-keyboard-response","175","307753","0.0-12.0-0.5","5eef3de3fb4e031bf546d887","650c16f0f2faf8d7a0d14c09","651c1b64b74017c2d6261b3a","null","null","<p style=""font-size: 60px; font-family: BACS"">hmKPMmAM</p>","","","","","","","","",""
"html-keyboard-response","176","308768","0.0-12.0-0.6","5eef3de3fb4e031bf546d887","650c16f0f2faf8d7a0d14c09","651c1b64b74017c2d6261b3a","null","null","<p style=""font-size: 60px; font-family: BACS"">tmtEMAPT</p>","","","","","","","","",""
"html-keyboard-response","177","309770","0.0-12.0-0.7","5eef3de3fb4e031bf546d887","650c16f0f2faf8d7a0d14c09","651c1b64b74017c2d6261b3a","null","null","<p style=""font-size: 60px; font-family: BACS"">ArQulLG</p>","","","","","","","","",""
"html-keyboard-response","178","310774","0.0-12.0-0.8","5eef3de3fb4e031bf546d887","650c16f0f2faf8d7a0d14c09","651c1b64b74017c2d6261b3a","null","null","<p style=""font-size: 60px; font-family: BACS"">RKYkRCdc</p>","","","","","","","","",""
"html-keyboard-response","179","311775","0.0-12.0-0.9","5eef3de3fb4e031bf546d887","650c16f0f2faf8d7a0d14c09","651c1b64b74017c2d6261b3a","null","null","<p style=""font-size: 60px; font-family: BACS"">aUZAJQA</p>","","","","","","","","",""
"html-keyboard-response","180","312784","0.0-12.0-0.10","5eef3de3fb4e031bf546d887","650c16f0f2faf8d7a0d14c09","651c1b64b74017c2d6261b3a","null","null","<p style=""font-size: 60px; font-family: BACS"">lRCBmtKP</p>","","","","","","","","",""
"html-keyboard-response","181","313792","0.0-12.0-0.11","5eef3de3fb4e031bf546d887","650c16f0f2faf8d7a0d14c09","651c1b64b74017c2d6261b3a","null","null","<p style=""font-size: 60px; font-family: BACS"">kNualLG</p>","","","","","","","","",""
"html-keyboard-response","182","314795","0.0-12.0-0.12","5eef3de3fb4e031bf546d887","650c16f0f2faf8d7a0d14c09","651c1b64b74017c2d6261b3a","null","null","<p style=""font-size: 60px; font-family: BACS"">TObCOAPT</p>","","","","","","","","",""
"html-keyboard-response","183","315799","0.0-12.0-0.13","5eef3de3fb4e031bf546d887","650c16f0f2faf8d7a0d14c09","651c1b64b74017c2d6261b3a","null","null","<p style=""font-size: 60px; font-family: BACS"">RKYkmtKP</p>","","","","","","","","",""
"html-keyboard-response","184","316808","0.0-12.0-0.14","5eef3de3fb4e031bf546d887","650c16f0f2faf8d7a0d14c09","651c1b64b74017c2d6261b3a","null","null","<p style=""font-size: 60px; font-family: BACS"">DmAMERCdc</p>","","","","","","","","",""
"html-keyboard-response","185","317815","0.0-12.0-0.15","5eef3de3fb4e031bf546d887","650c16f0f2faf8d7a0d14c09","651c1b64b74017c2d6261b3a","null","null","<p style=""font-size: 60px; font-family: BACS"">ArQuOcZJ</p>","","","","","","","","",""
"html-keyboard-response","186","318824","0.0-12.0-0.16","5eef3de3fb4e031bf546d887","650c16f0f2faf8d7a0d14c09","651c1b64b74017c2d6261b3a","null","null","<p style=""font-size: 60px; font-family: BACS"">RdPtDRCdc</p>","","","","","","","","",""
"html-keyboard-response","187","319832","0.0-12.0-0.17","5eef3de3fb4e031bf546d887","650c16f0f2faf8d7a0d14c09","651c1b64b74017c2d6261b3a","null","null","<p style=""font-size: 60px; font-family: BACS"">aUZAlLG</p>","","","","","","","","",""
"html-keyboard-response","188","320840","0.0-12.0-0.18","5eef3de3fb4e031bf546d887","650c16f0f2faf8d7a0d14c09","651c1b64b74017c2d6261b3a","null","null","<p style=""font-size: 60px; font-family: BACS"">tmtEMRCdc</p>","","","","","","","","",""
"html-keyboard-response","189","321842","0.0-12.0-0.19","5eef3de3fb4e031bf546d887","650c16f0f2faf8d7a0d14c09","651c1b64b74017c2d6261b3a","null","null","<p style=""font-size: 60px; font-family: BACS"">OEPkAPT</p>","","","","","","","","",""
"html-keyboard-response","190","322857","0.0-12.0-0.20","5eef3de3fb4e031bf546d887","650c16f0f2faf8d7a0d14c09","651c1b64b74017c2d6261b3a","null","null","<p style=""font-size: 60px; font-family: BACS"">bdUNuOcZJ</p>","","","","","","","","",""
"html-keyboard-response","191","323863","0.0-12.0-0.21","5eef3de3fb4e031bf546d887","650c16f0f2faf8d7a0d14c09","651c1b64b74017c2d6261b3a","null","null","<p style=""font-size: 60px; font-family: BACS"">DmAMEABb</p>","","","","","","","","",""
"html-keyboard-response","192","324872","0.0-12.0-0.22","5eef3de3fb4e031bf546d887","650c16f0f2faf8d7a0d14c09","651c1b64b74017c2d6261b3a","null","null","<p style=""font-size: 60px; font-family: BACS"">hmKPMmtKP</p>","","","","","","","","",""
"html-keyboard-response","193","325888","0.0-12.0-0.23","5eef3de3fb4e031bf546d887","650c16f0f2faf8d7a0d14c09","651c1b64b74017c2d6261b3a","null","null","<p style=""font-size: 60px; font-family: BACS"">DmAMEAPT</p>","","","","","","","","",""
"html-keyboard-response","194","326897","0.0-12.0-0.24","5eef3de3fb4e031bf546d887","650c16f0f2faf8d7a0d14c09","651c1b64b74017c2d6261b3a","null","null","<p style=""font-size: 60px; font-family: BACS"">hmKPMRCdc</p>","","","","","","","","",""
"html-keyboard-response","195","327903","0.0-12.0-0.25","5eef3de3fb4e031bf546d887","650c16f0f2faf8d7a0d14c09","651c1b64b74017c2d6261b3a","null","null","<p style=""font-size: 60px; font-family: BACS"">vAarOcZJ</p>","","","","","","","","",""
"html-keyboard-response","196","328904","0.0-12.0-0.26","5eef3de3fb4e031bf546d887","650c16f0f2faf8d7a0d14c09","651c1b64b74017c2d6261b3a","null","null","<p style=""font-size: 60px; font-family: BACS"">JdOAYQONk</p>","","","","","","","","",""
"html-keyboard-response","197","329921","0.0-12.0-0.27","5eef3de3fb4e031bf546d887","650c16f0f2faf8d7a0d14c09","651c1b64b74017c2d6261b3a","null","null","<p style=""font-size: 60px; font-family: BACS"">bdUNulLG</p>","","","","","","","","",""
"html-keyboard-response","198","330929","0.0-12.0-0.28","5eef3de3fb4e031bf546d887","650c16f0f2faf8d7a0d14c09","651c1b64b74017c2d6261b3a","null","null","<p style=""font-size: 60px; font-family: BACS"">bvkrOcZJ</p>","","","","","","","","",""
"html-keyboard-response","199","331936","0.0-12.0-0.29","5eef3de3fb4e031bf546d887","650c16f0f2faf8d7a0d14c09","651c1b64b74017c2d6261b3a","null","null","<p style=""font-size: 60px; font-family: BACS"">OEPkABb</p>","","","","","","","","",""
"html-keyboard-response","200","332946","0.0-12.0-0.30","5eef3de3fb4e031bf546d887","650c16f0f2faf8d7a0d14c09","651c1b64b74017c2d6261b3a","null","null","<p style=""font-size: 60px; font-family: BACS"">kNuaLUOk</p>","","","","","","","","",""
"html-keyboard-response","201","333953","0.0-12.0-0.31","5eef3de3fb4e031bf546d887","650c16f0f2faf8d7a0d14c09","651c1b64b74017c2d6261b3a","null","null","<p style=""font-size: 60px; font-family: BACS"">lRCBRCdc</p>","","","","","","","","",""
"html-keyboard-response","202","334970","0.0-12.0-0.32","5eef3de3fb4e031bf546d887","650c16f0f2faf8d7a0d14c09","651c1b64b74017c2d6261b3a","null","null","<p style=""font-size: 60px; font-family: BACS"">kKEdMAPT</p>","","","","","","","","",""
"html-keyboard-response","203","335987","0.0-12.0-0.33","5eef3de3fb4e031bf546d887","650c16f0f2faf8d7a0d14c09","651c1b64b74017c2d6261b3a","null","null","<p style=""font-size: 60px; font-family: BACS"">bmbNQONk</p>","","","","","","","","",""
"html-keyboard-response","204","336991","0.0-12.0-0.34","5eef3de3fb4e031bf546d887","650c16f0f2faf8d7a0d14c09","651c1b64b74017c2d6261b3a","null","null","<p style=""font-size: 60px; font-family: BACS"">bvkrLUOk</p>","","","","","","","","",""
"html-keyboard-response","205","338001","0.0-12.0-0.35","5eef3de3fb4e031bf546d887","650c16f0f2faf8d7a0d14c09","651c1b64b74017c2d6261b3a","null","null","<p style=""font-size: 60px; font-family: BACS"">vAarlLG</p>","","","","","","","","",""
"html-keyboard-response","206","339010","0.0-12.0-0.36","5eef3de3fb4e031bf546d887","650c16f0f2faf8d7a0d14c09","651c1b64b74017c2d6261b3a","null","null","<p style=""font-size: 60px; font-family: BACS"">bdUNuLUOk</p>","","","","","","","","",""
"html-keyboard-response","207","340016","0.0-12.0-0.37","5eef3de3fb4e031bf546d887","650c16f0f2faf8d7a0d14c09","651c1b64b74017c2d6261b3a","null","null","<p style=""font-size: 60px; font-family: BACS"">OEPkRCdc</p>","","","","","","","","",""
"html-keyboard-response","208","341031","0.0-12.0-0.38","5eef3de3fb4e031bf546d887","650c16f0f2faf8d7a0d14c09","651c1b64b74017c2d6261b3a","null","null","<p style=""font-size: 60px; font-family: BACS"">ukYZQONk</p>","","","","","","","","",""
"html-keyboard-response","209","342034","0.0-12.0-0.39","5eef3de3fb4e031bf546d887","650c16f0f2faf8d7a0d14c09","651c1b64b74017c2d6261b3a","null","null","<p style=""font-size: 60px; font-family: BACS"">DmAMEmtKP</p>","","","","","","","","",""
"html-keyboard-response","210","343037","0.0-12.0-0.40","5eef3de3fb4e031bf546d887","650c16f0f2faf8d7a0d14c09","651c1b64b74017c2d6261b3a","null","null","<p style=""font-size: 60px; font-family: BACS"">RdPtDmAM</p>","","","","","","","","",""
"html-keyboard-response","211","344043","0.0-12.0-0.41","5eef3de3fb4e031bf546d887","650c16f0f2faf8d7a0d14c09","651c1b64b74017c2d6261b3a","null","null","<p style=""font-size: 60px; font-family: BACS"">ukYZJQA</p>","","","","","","","","",""
"html-keyboard-response","212","345048","0.0-12.0-0.42","5eef3de3fb4e031bf546d887","650c16f0f2faf8d7a0d14c09","651c1b64b74017c2d6261b3a","null","null","<p style=""font-size: 60px; font-family: BACS"">ktBdAPT</p>","","","","","","","","",""
"html-keyboard-response","213","346052","0.0-12.0-0.43","5eef3de3fb4e031bf546d887","650c16f0f2faf8d7a0d14c09","651c1b64b74017c2d6261b3a","null","null","<p style=""font-size: 60px; font-family: BACS"">OEPkmAM</p>","","","","","","","","",""
"html-keyboard-response","214","347070","0.0-12.0-0.44","5eef3de3fb4e031bf546d887","650c16f0f2faf8d7a0d14c09","651c1b64b74017c2d6261b3a","null","null","<p style=""font-size: 60px; font-family: BACS"">ArQuQONk</p>","","","","","","","","",""
"html-keyboard-response","215","348073","0.0-12.0-0.45","5eef3de3fb4e031bf546d887","650c16f0f2faf8d7a0d14c09","651c1b64b74017c2d6261b3a","null","null","<p style=""font-size: 60px; font-family: BACS"">aUZALUOk</p>","","","","","","","","",""
"html-keyboard-response","216","349074","0.0-12.0-0.46","5eef3de3fb4e031bf546d887","650c16f0f2faf8d7a0d14c09","651c1b64b74017c2d6261b3a","null","null","<p style=""font-size: 60px; font-family: BACS"">bmbNJQA</p>","","","","","","","","",""
"html-keyboard-response","217","350081","0.0-12.0-0.47","5eef3de3fb4e031bf546d887","650c16f0f2faf8d7a0d14c09","651c1b64b74017c2d6261b3a","null","null","<p style=""font-size: 60px; font-family: BACS"">JdOAYOcZJ</p>","","","","","","","","",""
"html-keyboard-response","218","351082","0.0-12.0-0.48","5eef3de3fb4e031bf546d887","650c16f0f2faf8d7a0d14c09","651c1b64b74017c2d6261b3a","null","null","<p style=""font-size: 60px; font-family: BACS"">RKYkABb</p>","","","","","","","","",""
"html-keyboard-response","219","352089","0.0-12.0-0.49","5eef3de3fb4e031bf546d887","650c16f0f2faf8d7a0d14c09","651c1b64b74017c2d6261b3a","null","null","<p style=""font-size: 60px; font-family: BACS"">QbkAcJQA</p>","","","","","","","","",""
"html-keyboard-response","220","353100","0.0-12.0-0.50","5eef3de3fb4e031bf546d887","650c16f0f2faf8d7a0d14c09","651c1b64b74017c2d6261b3a","null","null","<p style=""font-size: 60px; font-family: BACS"">aUZAQONk</p>","","","","","","","","",""
"html-keyboard-response","221","354109","0.0-12.0-0.51","5eef3de3fb4e031bf546d887","650c16f0f2faf8d7a0d14c09","651c1b64b74017c2d6261b3a","null","null","<p style=""font-size: 60px; font-family: BACS"">JdOAYlLG</p>","","","","","","","","",""
"html-keyboard-response","222","355116","0.0-12.0-0.52","5eef3de3fb4e031bf546d887","650c16f0f2faf8d7a0d14c09","651c1b64b74017c2d6261b3a","null","null","<p style=""font-size: 60px; font-family: BACS"">bvkrQONk</p>","","","","","","","","",""
"html-keyboard-response","223","356126","0.0-12.0-0.53","5eef3de3fb4e031bf546d887","650c16f0f2faf8d7a0d14c09","651c1b64b74017c2d6261b3a","null","null","<p style=""font-size: 60px; font-family: BACS"">kKEdMmAM</p>","","","","","","","","",""
"html-keyboard-response","224","357127","0.0-12.0-0.54","5eef3de3fb4e031bf546d887","650c16f0f2faf8d7a0d14c09","651c1b64b74017c2d6261b3a","null","null","<p style=""font-size: 60px; font-family: BACS"">RKYkAPT</p>","","","","","","","","",""
"html-keyboard-response","225","358136","0.0-12.0-0.55","5eef3de3fb4e031bf546d887","650c16f0f2faf8d7a0d14c09","651c1b64b74017c2d6261b3a","null","null","<p style=""font-size: 60px; font-family: BACS"">QbkAcLUOk</p>","","","","","","","","",""
"html-keyboard-response","226","359153","0.0-12.0-0.56","5eef3de3fb4e031bf546d887","650c16f0f2faf8d7a0d14c09","651c1b64b74017c2d6261b3a","null","null","<p style=""font-size: 60px; font-family: BACS"">bmbNOcZJ</p>","","","","","","","","",""
"html-keyboard-response","227","360155","0.0-12.0-0.57","5eef3de3fb4e031bf546d887","650c16f0f2faf8d7a0d14c09","651c1b64b74017c2d6261b3a","null","null","<p style=""font-size: 60px; font-family: BACS"">tmtEMmAM</p>","","","","","","","","",""
"html-keyboard-response","228","361161","0.0-12.0-0.58","5eef3de3fb4e031bf546d887","650c16f0f2faf8d7a0d14c09","651c1b64b74017c2d6261b3a","null","null","<p style=""font-size: 60px; font-family: BACS"">vAarQONk</p>","","","","","","","","",""
"html-keyboard-response","229","362178","0.0-12.0-0.59","5eef3de3fb4e031bf546d887","650c16f0f2faf8d7a0d14c09","651c1b64b74017c2d6261b3a","null","null","<p style=""font-size: 60px; font-family: BACS"">TObCORCdc</p>","","","","","","","","",""
"html-keyboard-response","230","363191","0.0-12.0-0.60","5eef3de3fb4e031bf546d887","650c16f0f2faf8d7a0d14c09","651c1b64b74017c2d6261b3a","null","null","<p style=""font-size: 60px; font-family: BACS"">QbkAclLG</p>","","","","","","","","",""
"html-keyboard-response","231","364200","0.0-12.0-0.61","5eef3de3fb4e031bf546d887","650c16f0f2faf8d7a0d14c09","651c1b64b74017c2d6261b3a","null","null","<p style=""font-size: 60px; font-family: BACS"">tmtEMABb</p>","","","","","","","","",""
"html-keyboard-response","232","365205","0.0-12.0-0.62","5eef3de3fb4e031bf546d887","650c16f0f2faf8d7a0d14c09","651c1b64b74017c2d6261b3a","null","null","<p style=""font-size: 60px; font-family: BACS"">kNuaOcZJ</p>","","","","","","","","",""
"html-keyboard-response","233","366219","0.0-12.0-0.63","5eef3de3fb4e031bf546d887","650c16f0f2faf8d7a0d14c09","651c1b64b74017c2d6261b3a","null","null","<p style=""font-size: 60px; font-family: BACS"">ktBdmAM</p>","","","","","","","","",""
"html-keyboard-response","234","367223","0.0-12.0-0.64","5eef3de3fb4e031bf546d887","650c16f0f2faf8d7a0d14c09","651c1b64b74017c2d6261b3a","null","null","<p style=""font-size: 60px; font-family: BACS"">RdPtDABb</p>","","","","","","","","",""
"html-keyboard-response","235","368231","0.0-12.0-0.65","5eef3de3fb4e031bf546d887","650c16f0f2faf8d7a0d14c09","651c1b64b74017c2d6261b3a","null","null","<p style=""font-size: 60px; font-family: BACS"">bdUNuJQA</p>","","","","","","","","",""
"html-keyboard-response","236","369241","0.0-12.0-0.66","5eef3de3fb4e031bf546d887","650c16f0f2faf8d7a0d14c09","651c1b64b74017c2d6261b3a","null","null","<p style=""font-size: 60px; font-family: BACS"">bmbNlLG</p>","","","","","","","","",""
"html-keyboard-response","237","370245","0.0-12.0-0.67","5eef3de3fb4e031bf546d887","650c16f0f2faf8d7a0d14c09","651c1b64b74017c2d6261b3a","null","null","<p style=""font-size: 60px; font-family: BACS"">lRCBABb</p>","","","","","","","","",""
"html-keyboard-response","238","371247","0.0-12.0-0.68","5eef3de3fb4e031bf546d887","650c16f0f2faf8d7a0d14c09","651c1b64b74017c2d6261b3a","null","null","<p style=""font-size: 60px; font-family: BACS"">ArQuLUOk</p>","","","","","","","","",""
"html-keyboard-response","239","372256","0.0-12.0-0.69","5eef3de3fb4e031bf546d887","650c16f0f2faf8d7a0d14c09","651c1b64b74017c2d6261b3a","null","null","<p style=""font-size: 60px; font-family: BACS"">lRCBmAM</p>","","","","","","","","",""
"html-keyboard-response","240","373263","0.0-12.0-0.70","5eef3de3fb4e031bf546d887","650c16f0f2faf8d7a0d14c09","651c1b64b74017c2d6261b3a","null","null","<p style=""font-size: 60px; font-family: BACS"">TObCOmtKP</p>","","","","","","","","",""
"html-keyboard-response","241","374273","0.0-12.0-0.71","5eef3de3fb4e031bf546d887","650c16f0f2faf8d7a0d14c09","651c1b64b74017c2d6261b3a","null","null","<p style=""font-size: 60px; font-family: BACS"">ukYZLUOk</p>","","","","","","","","",""
"html-keyboard-response","242","375275","0.0-12.0-0.72","5eef3de3fb4e031bf546d887","650c16f0f2faf8d7a0d14c09","651c1b64b74017c2d6261b3a","null","null","<p style=""font-size: 60px; font-family: BACS"">ktBdABb</p>","","","","","","","","",""
"html-keyboard-response","243","376280","0.0-12.0-0.73","5eef3de3fb4e031bf546d887","650c16f0f2faf8d7a0d14c09","651c1b64b74017c2d6261b3a","null","null","<p style=""font-size: 60px; font-family: BACS"">kNuaJQA</p>","","","","","","","","",""
"html-keyboard-response","244","377289","0.0-12.0-0.74","5eef3de3fb4e031bf546d887","650c16f0f2faf8d7a0d14c09","651c1b64b74017c2d6261b3a","null","null","<p style=""font-size: 60px; font-family: BACS"">ktBdmtKP</p>","","","","","","","","",""
"html-keyboard-response","245","378296","0.0-12.0-0.75","5eef3de3fb4e031bf546d887","650c16f0f2faf8d7a0d14c09","651c1b64b74017c2d6261b3a","null","null","<p style=""font-size: 60px; font-family: BACS"">ukYZOcZJ</p>","","","","","","","","",""
"html-keyboard-response","246","379312","0.0-12.0-0.76","5eef3de3fb4e031bf546d887","650c16f0f2faf8d7a0d14c09","651c1b64b74017c2d6261b3a","null","null","<p style=""font-size: 60px; font-family: BACS"">bvkrJQA</p>","","","","","","","","",""
"html-keyboard-response","247","380321","0.0-12.0-0.77","5eef3de3fb4e031bf546d887","650c16f0f2faf8d7a0d14c09","651c1b64b74017c2d6261b3a","null","null","<p style=""font-size: 60px; font-family: BACS"">RdPtDmtKP</p>","","","","","","","","",""
"html-keyboard-response","248","381329","0.0-12.0-0.78","5eef3de3fb4e031bf546d887","650c16f0f2faf8d7a0d14c09","651c1b64b74017c2d6261b3a","null","null","<p style=""font-size: 60px; font-family: BACS"">TObCOmAM</p>","","","","","","","","",""
"html-keyboard-response","249","382335","0.0-12.0-0.79","5eef3de3fb4e031bf546d887","650c16f0f2faf8d7a0d14c09","651c1b64b74017c2d6261b3a","null","null","<p style=""font-size: 60px; font-family: BACS"">kKEdMmtKP</p>","","","","","","","","",""
"html-keyboard-response","250","388142","0.0-13.0","5eef3de3fb4e031bf546d887","650c16f0f2faf8d7a0d14c09","651c1b64b74017c2d6261b3a","5806"," ","<p>Great, you've seen the third block of words. You may now take a short break.</p>
      <p>Press the spacebar when you're ready to continue.</p>","","","","","","","","",""
"html-keyboard-response","251","389149","0.0-14.0-0.0","5eef3de3fb4e031bf546d887","650c16f0f2faf8d7a0d14c09","651c1b64b74017c2d6261b3a","null","null","<p style=""font-size: 60px; font-family: BACS"">kNuaOcZJ</p>","","","","","","","","",""
"html-keyboard-response","252","390151","0.0-14.0-0.1","5eef3de3fb4e031bf546d887","650c16f0f2faf8d7a0d14c09","651c1b64b74017c2d6261b3a","null","null","<p style=""font-size: 60px; font-family: BACS"">ktBdAPT</p>","","","","","","","","",""
"html-keyboard-response","253","391160","0.0-14.0-0.2","5eef3de3fb4e031bf546d887","650c16f0f2faf8d7a0d14c09","651c1b64b74017c2d6261b3a","null","null","<p style=""font-size: 60px; font-family: BACS"">RdPtDmtKP</p>","","","","","","","","",""
"html-keyboard-response","254","392167","0.0-14.0-0.3","5eef3de3fb4e031bf546d887","650c16f0f2faf8d7a0d14c09","651c1b64b74017c2d6261b3a","null","null","<p style=""font-size: 60px; font-family: BACS"">ukYZOcZJ</p>","","","","","","","","",""
"html-keyboard-response","255","393184","0.0-14.0-0.4","5eef3de3fb4e031bf546d887","650c16f0f2faf8d7a0d14c09","651c1b64b74017c2d6261b3a","null","null","<p style=""font-size: 60px; font-family: BACS"">bdUNuLUOk</p>","","","","","","","","",""
"html-keyboard-response","256","394185","0.0-14.0-0.5","5eef3de3fb4e031bf546d887","650c16f0f2faf8d7a0d14c09","651c1b64b74017c2d6261b3a","null","null","<p style=""font-size: 60px; font-family: BACS"">aUZAlLG</p>","","","","","","","","",""
"html-keyboard-response","257","395199","0.0-14.0-0.6","5eef3de3fb4e031bf546d887","650c16f0f2faf8d7a0d14c09","651c1b64b74017c2d6261b3a","null","null","<p style=""font-size: 60px; font-family: BACS"">vAarOcZJ</p>","","","","","","","","",""
"html-keyboard-response","258","396204","0.0-14.0-0.7","5eef3de3fb4e031bf546d887","650c16f0f2faf8d7a0d14c09","651c1b64b74017c2d6261b3a","null","null","<p style=""font-size: 60px; font-family: BACS"">QbkAcJQA</p>","","","","","","","","",""
"html-keyboard-response","259","397206","0.0-14.0-0.8","5eef3de3fb4e031bf546d887","650c16f0f2faf8d7a0d14c09","651c1b64b74017c2d6261b3a","null","null","<p style=""font-size: 60px; font-family: BACS"">lRCBmAM</p>","","","","","","","","",""
"html-keyboard-response","260","398218","0.0-14.0-0.9","5eef3de3fb4e031bf546d887","650c16f0f2faf8d7a0d14c09","651c1b64b74017c2d6261b3a","null","null","<p style=""font-size: 60px; font-family: BACS"">JdOAYQONk</p>","","","","","","","","",""
"html-keyboard-response","261","399224","0.0-14.0-0.10","5eef3de3fb4e031bf546d887","650c16f0f2faf8d7a0d14c09","651c1b64b74017c2d6261b3a","null","null","<p style=""font-size: 60px; font-family: BACS"">ArQuOcZJ</p>","","","","","","","","",""
"html-keyboard-response","262","400229","0.0-14.0-0.11","5eef3de3fb4e031bf546d887","650c16f0f2faf8d7a0d14c09","651c1b64b74017c2d6261b3a","null","null","<p style=""font-size: 60px; font-family: BACS"">bmbNJQA</p>","","","","","","","","",""
"html-keyboard-response","263","401240","0.0-14.0-0.12","5eef3de3fb4e031bf546d887","650c16f0f2faf8d7a0d14c09","651c1b64b74017c2d6261b3a","null","null","<p style=""font-size: 60px; font-family: BACS"">JdOAYlLG</p>","","","","","","","","",""
"html-keyboard-response","264","402256","0.0-14.0-0.13","5eef3de3fb4e031bf546d887","650c16f0f2faf8d7a0d14c09","651c1b64b74017c2d6261b3a","null","null","<p style=""font-size: 60px; font-family: BACS"">RKYkRCdc</p>","","","","","","","","",""
"html-keyboard-response","265","403263","0.0-14.0-0.14","5eef3de3fb4e031bf546d887","650c16f0f2faf8d7a0d14c09","651c1b64b74017c2d6261b3a","null","null","<p style=""font-size: 60px; font-family: BACS"">TObCOmtKP</p>","","","","","","","","",""
"html-keyboard-response","266","404274","0.0-14.0-0.15","5eef3de3fb4e031bf546d887","650c16f0f2faf8d7a0d14c09","651c1b64b74017c2d6261b3a","null","null","<p style=""font-size: 60px; font-family: BACS"">RdPtDmAM</p>","","","","","","","","",""
"html-keyboard-response","267","405281","0.0-14.0-0.16","5eef3de3fb4e031bf546d887","650c16f0f2faf8d7a0d14c09","651c1b64b74017c2d6261b3a","null","null","<p style=""font-size: 60px; font-family: BACS"">kKEdMAPT</p>","","","","","","","","",""
"html-keyboard-response","268","406289","0.0-14.0-0.17","5eef3de3fb4e031bf546d887","650c16f0f2faf8d7a0d14c09","651c1b64b74017c2d6261b3a","null","null","<p style=""font-size: 60px; font-family: BACS"">bdUNuOcZJ</p>","","","","","","","","",""
"html-keyboard-response","269","407297","0.0-14.0-0.18","5eef3de3fb4e031bf546d887","650c16f0f2faf8d7a0d14c09","651c1b64b74017c2d6261b3a","null","null","<p style=""font-size: 60px; font-family: BACS"">ArQuLUOk</p>","","","","","","","","",""
"html-keyboard-response","270","408300","0.0-14.0-0.19","5eef3de3fb4e031bf546d887","650c16f0f2faf8d7a0d14c09","651c1b64b74017c2d6261b3a","null","null","<p style=""font-size: 60px; font-family: BACS"">RdPtDRCdc</p>","","","","","","","","",""
"html-keyboard-response","271","409305","0.0-14.0-0.20","5eef3de3fb4e031bf546d887","650c16f0f2faf8d7a0d14c09","651c1b64b74017c2d6261b3a","null","null","<p style=""font-size: 60px; font-family: BACS"">DmAMEmtKP</p>","","","","","","","","",""
"html-keyboard-response","272","410321","0.0-14.0-0.21","5eef3de3fb4e031bf546d887","650c16f0f2faf8d7a0d14c09","651c1b64b74017c2d6261b3a","null","null","<p style=""font-size: 60px; font-family: BACS"">JdOAYOcZJ</p>","","","","","","","","",""
"html-keyboard-response","273","411339","0.0-14.0-0.22","5eef3de3fb4e031bf546d887","650c16f0f2faf8d7a0d14c09","651c1b64b74017c2d6261b3a","null","null","<p style=""font-size: 60px; font-family: BACS"">bdUNulLG</p>","","","","","","","","",""
"html-keyboard-response","274","412355","0.0-14.0-0.23","5eef3de3fb4e031bf546d887","650c16f0f2faf8d7a0d14c09","651c1b64b74017c2d6261b3a","null","null","<p style=""font-size: 60px; font-family: BACS"">hmKPMAPT</p>","","","","","","","","",""
"html-keyboard-response","275","413359","0.0-14.0-0.24","5eef3de3fb4e031bf546d887","650c16f0f2faf8d7a0d14c09","651c1b64b74017c2d6261b3a","null","null","<p style=""font-size: 60px; font-family: BACS"">vAarlLG</p>","","","","","","","","",""
"html-keyboard-response","276","414370","0.0-14.0-0.25","5eef3de3fb4e031bf546d887","650c16f0f2faf8d7a0d14c09","651c1b64b74017c2d6261b3a","null","null","<p style=""font-size: 60px; font-family: BACS"">DmAMEABb</p>","","","","","","","","",""
"html-keyboard-response","277","415378","0.0-14.0-0.26","5eef3de3fb4e031bf546d887","650c16f0f2faf8d7a0d14c09","651c1b64b74017c2d6261b3a","null","null","<p style=""font-size: 60px; font-family: BACS"">hmKPMmtKP</p>","","","","","","","","",""
"html-keyboard-response","278","416387","0.0-14.0-0.27","5eef3de3fb4e031bf546d887","650c16f0f2faf8d7a0d14c09","651c1b64b74017c2d6261b3a","null","null","<p style=""font-size: 60px; font-family: BACS"">bvkrJQA</p>","","","","","","","","",""
"html-keyboard-response","279","417395","0.0-14.0-0.28","5eef3de3fb4e031bf546d887","650c16f0f2faf8d7a0d14c09","651c1b64b74017c2d6261b3a","null","null","<p style=""font-size: 60px; font-family: BACS"">QbkAcQONk</p>","","","","","","","","",""
"html-keyboard-response","280","418410","0.0-14.0-0.29","5eef3de3fb4e031bf546d887","650c16f0f2faf8d7a0d14c09","651c1b64b74017c2d6261b3a","null","null","<p style=""font-size: 60px; font-family: BACS"">OEPkAPT</p>","","","","","","","","",""
"html-keyboard-response","281","419417","0.0-14.0-0.30","5eef3de3fb4e031bf546d887","650c16f0f2faf8d7a0d14c09","651c1b64b74017c2d6261b3a","null","null","<p style=""font-size: 60px; font-family: BACS"">kNuaJQA</p>","","","","","","","","",""
"html-keyboard-response","282","420427","0.0-14.0-0.31","5eef3de3fb4e031bf546d887","650c16f0f2faf8d7a0d14c09","651c1b64b74017c2d6261b3a","null","null","<p style=""font-size: 60px; font-family: BACS"">bvkrOcZJ</p>","","","","","","","","",""
"html-keyboard-response","283","421443","0.0-14.0-0.32","5eef3de3fb4e031bf546d887","650c16f0f2faf8d7a0d14c09","651c1b64b74017c2d6261b3a","null","null","<p style=""font-size: 60px; font-family: BACS"">QbkAclLG</p>","","","","","","","","",""
"html-keyboard-response","284","422452","0.0-14.0-0.33","5eef3de3fb4e031bf546d887","650c16f0f2faf8d7a0d14c09","651c1b64b74017c2d6261b3a","null","null","<p style=""font-size: 60px; font-family: BACS"">vAarQONk</p>","","","","","","","","",""
"html-keyboard-response","285","423460","0.0-14.0-0.34","5eef3de3fb4e031bf546d887","650c16f0f2faf8d7a0d14c09","651c1b64b74017c2d6261b3a","null","null","<p style=""font-size: 60px; font-family: BACS"">bmbNlLG</p>","","","","","","","","",""
"html-keyboard-response","286","424461","0.0-14.0-0.35","5eef3de3fb4e031bf546d887","650c16f0f2faf8d7a0d14c09","651c1b64b74017c2d6261b3a","null","null","<p style=""font-size: 60px; font-family: BACS"">OEPkmAM</p>","","","","","","","","",""
"html-keyboard-response","287","425466","0.0-14.0-0.36","5eef3de3fb4e031bf546d887","650c16f0f2faf8d7a0d14c09","651c1b64b74017c2d6261b3a","null","null","<p style=""font-size: 60px; font-family: BACS"">bvkrQONk</p>","","","","","","","","",""
"html-keyboard-response","288","426476","0.0-14.0-0.37","5eef3de3fb4e031bf546d887","650c16f0f2faf8d7a0d14c09","651c1b64b74017c2d6261b3a","null","null","<p style=""font-size: 60px; font-family: BACS"">lRCBRCdc</p>","","","","","","","","",""
"html-keyboard-response","289","427483","0.0-14.0-0.38","5eef3de3fb4e031bf546d887","650c16f0f2faf8d7a0d14c09","651c1b64b74017c2d6261b3a","null","null","<p style=""font-size: 60px; font-family: BACS"">aUZAQONk</p>","","","","","","","","",""
"html-keyboard-response","290","428487","0.0-14.0-0.39","5eef3de3fb4e031bf546d887","650c16f0f2faf8d7a0d14c09","651c1b64b74017c2d6261b3a","null","null","<p style=""font-size: 60px; font-family: BACS"">DmAMEAPT</p>","","","","","","","","",""
"html-keyboard-response","291","429499","0.0-14.0-0.40","5eef3de3fb4e031bf546d887","650c16f0f2faf8d7a0d14c09","651c1b64b74017c2d6261b3a","null","null","<p style=""font-size: 60px; font-family: BACS"">bdUNuJQA</p>","","","","","","","","",""
"html-keyboard-response","292","430500","0.0-14.0-0.41","5eef3de3fb4e031bf546d887","650c16f0f2faf8d7a0d14c09","651c1b64b74017c2d6261b3a","null","null","<p style=""font-size: 60px; font-family: BACS"">ktBdmtKP</p>","","","","","","","","",""
"html-keyboard-response","293","431506","0.0-14.0-0.42","5eef3de3fb4e031bf546d887","650c16f0f2faf8d7a0d14c09","651c1b64b74017c2d6261b3a","null","null","<p style=""font-size: 60px; font-family: BACS"">kKEdMmAM</p>","","","","","","","","",""
"html-keyboard-response","294","432525","0.0-14.0-0.43","5eef3de3fb4e031bf546d887","650c16f0f2faf8d7a0d14c09","651c1b64b74017c2d6261b3a","null","null","<p style=""font-size: 60px; font-family: BACS"">bmbNOcZJ</p>","","","","","","","","",""
"html-keyboard-response","295","433540","0.0-14.0-0.44","5eef3de3fb4e031bf546d887","650c16f0f2faf8d7a0d14c09","651c1b64b74017c2d6261b3a","null","null","<p style=""font-size: 60px; font-family: BACS"">lRCBmtKP</p>","","","","","","","","",""
"html-keyboard-response","296","434554","0.0-14.0-0.45","5eef3de3fb4e031bf546d887","650c16f0f2faf8d7a0d14c09","651c1b64b74017c2d6261b3a","null","null","<p style=""font-size: 60px; font-family: BACS"">ukYZQONk</p>","","","","","","","","",""
"html-keyboard-response","297","435556","0.0-14.0-0.46","5eef3de3fb4e031bf546d887","650c16f0f2faf8d7a0d14c09","651c1b64b74017c2d6261b3a","null","null","<p style=""font-size: 60px; font-family: BACS"">RKYkABb</p>","","","","","","","","",""
"html-keyboard-response","298","436565","0.0-14.0-0.47","5eef3de3fb4e031bf546d887","650c16f0f2faf8d7a0d14c09","651c1b64b74017c2d6261b3a","null","null","<p style=""font-size: 60px; font-family: BACS"">JdOAYLUOk</p>","","","","","","","","",""
"html-keyboard-response","299","437573","0.0-14.0-0.48","5eef3de3fb4e031bf546d887","650c16f0f2faf8d7a0d14c09","651c1b64b74017c2d6261b3a","null","null","<p style=""font-size: 60px; font-family: BACS"">RdPtDABb</p>","","","","","","","","",""
"html-keyboard-response","300","438590","0.0-14.0-0.49","5eef3de3fb4e031bf546d887","650c16f0f2faf8d7a0d14c09","651c1b64b74017c2d6261b3a","null","null","<p style=""font-size: 60px; font-family: BACS"">TObCOmAM</p>","","","","","","","","",""
"html-keyboard-response","301","439598","0.0-14.0-0.50","5eef3de3fb4e031bf546d887","650c16f0f2faf8d7a0d14c09","651c1b64b74017c2d6261b3a","null","null","<p style=""font-size: 60px; font-family: BACS"">bvkrLUOk</p>","","","","","","","","",""
"html-keyboard-response","302","440615","0.0-14.0-0.51","5eef3de3fb4e031bf546d887","650c16f0f2faf8d7a0d14c09","651c1b64b74017c2d6261b3a","null","null","<p style=""font-size: 60px; font-family: BACS"">kNualLG</p>","","","","","","","","",""
"html-keyboard-response","303","441622","0.0-14.0-0.52","5eef3de3fb4e031bf546d887","650c16f0f2faf8d7a0d14c09","651c1b64b74017c2d6261b3a","null","null","<p style=""font-size: 60px; font-family: BACS"">TObCOAPT</p>","","","","","","","","",""
"html-keyboard-response","304","442631","0.0-14.0-0.53","5eef3de3fb4e031bf546d887","650c16f0f2faf8d7a0d14c09","651c1b64b74017c2d6261b3a","null","null","<p style=""font-size: 60px; font-family: BACS"">lRCBABb</p>","","","","","","","","",""
"html-keyboard-response","305","443638","0.0-14.0-0.54","5eef3de3fb4e031bf546d887","650c16f0f2faf8d7a0d14c09","651c1b64b74017c2d6261b3a","null","null","<p style=""font-size: 60px; font-family: BACS"">ukYZJQA</p>","","","","","","","","",""
"html-keyboard-response","306","444646","0.0-14.0-0.55","5eef3de3fb4e031bf546d887","650c16f0f2faf8d7a0d14c09","651c1b64b74017c2d6261b3a","null","null","<p style=""font-size: 60px; font-family: BACS"">aUZALUOk</p>","","","","","","","","",""
"html-keyboard-response","307","445654","0.0-14.0-0.56","5eef3de3fb4e031bf546d887","650c16f0f2faf8d7a0d14c09","651c1b64b74017c2d6261b3a","null","null","<p style=""font-size: 60px; font-family: BACS"">OEPkABb</p>","","","","","","","","",""
"html-keyboard-response","308","446662","0.0-14.0-0.57","5eef3de3fb4e031bf546d887","650c16f0f2faf8d7a0d14c09","651c1b64b74017c2d6261b3a","null","null","<p style=""font-size: 60px; font-family: BACS"">QbkAcLUOk</p>","","","","","","","","",""
"html-keyboard-response","309","447664","0.0-14.0-0.58","5eef3de3fb4e031bf546d887","650c16f0f2faf8d7a0d14c09","651c1b64b74017c2d6261b3a","null","null","<p style=""font-size: 60px; font-family: BACS"">tmtEMAPT</p>","","","","","","","","",""
"html-keyboard-response","310","448673","0.0-14.0-0.59","5eef3de3fb4e031bf546d887","650c16f0f2faf8d7a0d14c09","651c1b64b74017c2d6261b3a","null","null","<p style=""font-size: 60px; font-family: BACS"">DmAMERCdc</p>","","","","","","","","",""
"html-keyboard-response","311","449678","0.0-14.0-0.60","5eef3de3fb4e031bf546d887","650c16f0f2faf8d7a0d14c09","651c1b64b74017c2d6261b3a","null","null","<p style=""font-size: 60px; font-family: BACS"">tmtEMmAM</p>","","","","","","","","",""
"html-keyboard-response","312","450681","0.0-14.0-0.61","5eef3de3fb4e031bf546d887","650c16f0f2faf8d7a0d14c09","651c1b64b74017c2d6261b3a","null","null","<p style=""font-size: 60px; font-family: BACS"">kKEdMmtKP</p>","","","","","","","","",""
"html-keyboard-response","313","451695","0.0-14.0-0.62","5eef3de3fb4e031bf546d887","650c16f0f2faf8d7a0d14c09","651c1b64b74017c2d6261b3a","null","null","<p style=""font-size: 60px; font-family: BACS"">tmtEMABb</p>","","","","","","","","",""
"html-keyboard-response","314","452710","0.0-14.0-0.63","5eef3de3fb4e031bf546d887","650c16f0f2faf8d7a0d14c09","651c1b64b74017c2d6261b3a","null","null","<p style=""font-size: 60px; font-family: BACS"">hmKPMRCdc</p>","","","","","","","","",""
"html-keyboard-response","315","453718","0.0-14.0-0.64","5eef3de3fb4e031bf546d887","650c16f0f2faf8d7a0d14c09","651c1b64b74017c2d6261b3a","null","null","<p style=""font-size: 60px; font-family: BACS"">ktBdABb</p>","","","","","","","","",""
"html-keyboard-response","316","454727","0.0-14.0-0.65","5eef3de3fb4e031bf546d887","650c16f0f2faf8d7a0d14c09","651c1b64b74017c2d6261b3a","null","null","<p style=""font-size: 60px; font-family: BACS"">tmtEMRCdc</p>","","","","","","","","",""
"html-keyboard-response","317","455734","0.0-14.0-0.66","5eef3de3fb4e031bf546d887","650c16f0f2faf8d7a0d14c09","651c1b64b74017c2d6261b3a","null","null","<p style=""font-size: 60px; font-family: BACS"">bmbNQONk</p>","","","","","","","","",""
"html-keyboard-response","318","456743","0.0-14.0-0.67","5eef3de3fb4e031bf546d887","650c16f0f2faf8d7a0d14c09","651c1b64b74017c2d6261b3a","null","null","<p style=""font-size: 60px; font-family: BACS"">TObCORCdc</p>","","","","","","","","",""
"html-keyboard-response","319","457751","0.0-14.0-0.68","5eef3de3fb4e031bf546d887","650c16f0f2faf8d7a0d14c09","651c1b64b74017c2d6261b3a","null","null","<p style=""font-size: 60px; font-family: BACS"">ktBdmAM</p>","","","","","","","","",""
"html-keyboard-response","320","458759","0.0-14.0-0.69","5eef3de3fb4e031bf546d887","650c16f0f2faf8d7a0d14c09","651c1b64b74017c2d6261b3a","null","null","<p style=""font-size: 60px; font-family: BACS"">RKYkmtKP</p>","","","","","","","","",""
"html-keyboard-response","321","459761","0.0-14.0-0.70","5eef3de3fb4e031bf546d887","650c16f0f2faf8d7a0d14c09","651c1b64b74017c2d6261b3a","null","null","<p style=""font-size: 60px; font-family: BACS"">vAarJQA</p>","","","","","","","","",""
"html-keyboard-response","322","460767","0.0-14.0-0.71","5eef3de3fb4e031bf546d887","650c16f0f2faf8d7a0d14c09","651c1b64b74017c2d6261b3a","null","null","<p style=""font-size: 60px; font-family: BACS"">ukYZLUOk</p>","","","","","","","","",""
"html-keyboard-response","323","461775","0.0-14.0-0.72","5eef3de3fb4e031bf546d887","650c16f0f2faf8d7a0d14c09","651c1b64b74017c2d6261b3a","null","null","<p style=""font-size: 60px; font-family: BACS"">aUZAJQA</p>","","","","","","","","",""
"html-keyboard-response","324","462783","0.0-14.0-0.73","5eef3de3fb4e031bf546d887","650c16f0f2faf8d7a0d14c09","651c1b64b74017c2d6261b3a","null","null","<p style=""font-size: 60px; font-family: BACS"">ArQuQONk</p>","","","","","","","","",""
"html-keyboard-response","325","463791","0.0-14.0-0.74","5eef3de3fb4e031bf546d887","650c16f0f2faf8d7a0d14c09","651c1b64b74017c2d6261b3a","null","null","<p style=""font-size: 60px; font-family: BACS"">RKYkAPT</p>","","","","","","","","",""
"html-keyboard-response","326","464799","0.0-14.0-0.75","5eef3de3fb4e031bf546d887","650c16f0f2faf8d7a0d14c09","651c1b64b74017c2d6261b3a","null","null","<p style=""font-size: 60px; font-family: BACS"">kNuaLUOk</p>","","","","","","","","",""
"html-keyboard-response","327","465807","0.0-14.0-0.76","5eef3de3fb4e031bf546d887","650c16f0f2faf8d7a0d14c09","651c1b64b74017c2d6261b3a","null","null","<p style=""font-size: 60px; font-family: BACS"">hmKPMmAM</p>","","","","","","","","",""
"html-keyboard-response","328","466810","0.0-14.0-0.77","5eef3de3fb4e031bf546d887","650c16f0f2faf8d7a0d14c09","651c1b64b74017c2d6261b3a","null","null","<p style=""font-size: 60px; font-family: BACS"">ArQulLG</p>","","","","","","","","",""
"html-keyboard-response","329","467813","0.0-14.0-0.78","5eef3de3fb4e031bf546d887","650c16f0f2faf8d7a0d14c09","651c1b64b74017c2d6261b3a","null","null","<p style=""font-size: 60px; font-family: BACS"">OEPkRCdc</p>","","","","","","","","",""
"html-keyboard-response","330","468822","0.0-14.0-0.79","5eef3de3fb4e031bf546d887","650c16f0f2faf8d7a0d14c09","651c1b64b74017c2d6261b3a","null","null","<p style=""font-size: 60px; font-family: BACS"">kKEdMABb</p>","","","","","","","","",""
"html-keyboard-response","331","472791","0.0-15.0","5eef3de3fb4e031bf546d887","650c16f0f2faf8d7a0d14c09","651c1b64b74017c2d6261b3a","3967"," ","<p>Great, you've seen the fourth block of words. You may now take a short break.</p>
      <p>Press the spacebar when you're ready to continue.</p>","","","","","","","","",""
"html-keyboard-response","332","473797","0.0-16.0-0.0","5eef3de3fb4e031bf546d887","650c16f0f2faf8d7a0d14c09","651c1b64b74017c2d6261b3a","null","null","<p style=""font-size: 60px; font-family: BACS"">RKYkRCdc</p>","","","","","","","","",""
"html-keyboard-response","333","474803","0.0-16.0-0.1","5eef3de3fb4e031bf546d887","650c16f0f2faf8d7a0d14c09","651c1b64b74017c2d6261b3a","null","null","<p style=""font-size: 60px; font-family: BACS"">RKYkRCdc</p>","","","","","","","","",""
"html-keyboard-response","334","475806","0.0-16.0-0.2","5eef3de3fb4e031bf546d887","650c16f0f2faf8d7a0d14c09","651c1b64b74017c2d6261b3a","null","null","<p style=""font-size: 60px; font-family: BACS"">RKYkRCdc</p>","","","","","","","","",""
"html-keyboard-response","335","476813","0.0-16.0-0.3","5eef3de3fb4e031bf546d887","650c16f0f2faf8d7a0d14c09","651c1b64b74017c2d6261b3a","null","null","<p style=""font-size: 60px; font-family: BACS"">RKYkRCdc</p>","","","","","","","","",""
"html-keyboard-response","336","477821","0.0-16.0-0.4","5eef3de3fb4e031bf546d887","650c16f0f2faf8d7a0d14c09","651c1b64b74017c2d6261b3a","null","null","<p style=""font-size: 60px; font-family: BACS"">RKYkRCdc</p>","","","","","","","","",""
"html-keyboard-response","337","478830","0.0-16.0-0.5","5eef3de3fb4e031bf546d887","650c16f0f2faf8d7a0d14c09","651c1b64b74017c2d6261b3a","null","null","<p style=""font-size: 60px; font-family: BACS"">RKYkRCdc</p>","","","","","","","","",""
"html-keyboard-response","338","479845","0.0-16.0-0.6","5eef3de3fb4e031bf546d887","650c16f0f2faf8d7a0d14c09","651c1b64b74017c2d6261b3a","null","null","<p style=""font-size: 60px; font-family: BACS"">RKYkRCdc</p>","","","","","","","","",""
"html-keyboard-response","339","480859","0.0-16.0-0.7","5eef3de3fb4e031bf546d887","650c16f0f2faf8d7a0d14c09","651c1b64b74017c2d6261b3a","null","null","<p style=""font-size: 60px; font-family: BACS"">RKYkRCdc</p>","","","","","","","","",""
"html-keyboard-response","340","481867","0.0-16.0-0.8","5eef3de3fb4e031bf546d887","650c16f0f2faf8d7a0d14c09","651c1b64b74017c2d6261b3a","null","null","<p style=""font-size: 60px; font-family: BACS"">RKYkRCdc</p>","","","","","","","","",""
"html-keyboard-response","341","482870","0.0-16.0-0.9","5eef3de3fb4e031bf546d887","650c16f0f2faf8d7a0d14c09","651c1b64b74017c2d6261b3a","null","null","<p style=""font-size: 60px; font-family: BACS"">RKYkRCdc</p>","","","","","","","","",""
"html-keyboard-response","342","483878","0.0-16.0-0.10","5eef3de3fb4e031bf546d887","650c16f0f2faf8d7a0d14c09","651c1b64b74017c2d6261b3a","null","null","<p style=""font-size: 60px; font-family: BACS"">RKYkRCdc</p>","","","","","","","","",""
"html-keyboard-response","343","484892","0.0-16.0-0.11","5eef3de3fb4e031bf546d887","650c16f0f2faf8d7a0d14c09","651c1b64b74017c2d6261b3a","null","null","<p style=""font-size: 60px; font-family: BACS"">RKYkRCdc</p>","","","","","","","","",""
"html-keyboard-response","344","485902","0.0-16.0-0.12","5eef3de3fb4e031bf546d887","650c16f0f2faf8d7a0d14c09","651c1b64b74017c2d6261b3a","null","null","<p style=""font-size: 60px; font-family: BACS"">RKYkRCdc</p>","","","","","","","","",""
"html-keyboard-response","345","486911","0.0-16.0-0.13","5eef3de3fb4e031bf546d887","650c16f0f2faf8d7a0d14c09","651c1b64b74017c2d6261b3a","null","null","<p style=""font-size: 60px; font-family: BACS"">RKYkRCdc</p>","","","","","","","","",""
"html-keyboard-response","346","487919","0.0-16.0-0.14","5eef3de3fb4e031bf546d887","650c16f0f2faf8d7a0d14c09","651c1b64b74017c2d6261b3a","null","null","<p style=""font-size: 60px; font-family: BACS"">RKYkRCdc</p>","","","","","","","","",""
"html-keyboard-response","347","488928","0.0-16.0-0.15","5eef3de3fb4e031bf546d887","650c16f0f2faf8d7a0d14c09","651c1b64b74017c2d6261b3a","null","null","<p style=""font-size: 60px; font-family: BACS"">RKYkRCdc</p>","","","","","","","","",""
"html-keyboard-response","348","489935","0.0-16.0-0.16","5eef3de3fb4e031bf546d887","650c16f0f2faf8d7a0d14c09","651c1b64b74017c2d6261b3a","null","null","<p style=""font-size: 60px; font-family: BACS"">RKYkRCdc</p>","","","","","","","","",""
"html-keyboard-response","349","490946","0.0-16.0-0.17","5eef3de3fb4e031bf546d887","650c16f0f2faf8d7a0d14c09","651c1b64b74017c2d6261b3a","null","null","<p style=""font-size: 60px; font-family: BACS"">RKYkRCdc</p>","","","","","","","","",""
"html-keyboard-response","350","491950","0.0-16.0-0.18","5eef3de3fb4e031bf546d887","650c16f0f2faf8d7a0d14c09","651c1b64b74017c2d6261b3a","null","null","<p style=""font-size: 60px; font-family: BACS"">RKYkRCdc</p>","","","","","","","","",""
"html-keyboard-response","351","492966","0.0-16.0-0.19","5eef3de3fb4e031bf546d887","650c16f0f2faf8d7a0d14c09","651c1b64b74017c2d6261b3a","null","null","<p style=""font-size: 60px; font-family: BACS"">RKYkRCdc</p>","","","","","","","","",""
"html-keyboard-response","352","493975","0.0-16.0-0.20","5eef3de3fb4e031bf546d887","650c16f0f2faf8d7a0d14c09","651c1b64b74017c2d6261b3a","null","null","<p style=""font-size: 60px; font-family: BACS"">RKYkRCdc</p>","","","","","","","","",""
"html-keyboard-response","353","494980","0.0-16.0-0.21","5eef3de3fb4e031bf546d887","650c16f0f2faf8d7a0d14c09","651c1b64b74017c2d6261b3a","null","null","<p style=""font-size: 60px; font-family: BACS"">RKYkRCdc</p>","","","","","","","","",""
"html-keyboard-response","354","495983","0.0-16.0-0.22","5eef3de3fb4e031bf546d887","650c16f0f2faf8d7a0d14c09","651c1b64b74017c2d6261b3a","null","null","<p style=""font-size: 60px; font-family: BACS"">RKYkRCdc</p>","","","","","","","","",""
"html-keyboard-response","355","496991","0.0-16.0-0.23","5eef3de3fb4e031bf546d887","650c16f0f2faf8d7a0d14c09","651c1b64b74017c2d6261b3a","null","null","<p style=""font-size: 60px; font-family: BACS"">RKYkRCdc</p>","","","","","","","","",""
"html-keyboard-response","356","497992","0.0-16.0-0.24","5eef3de3fb4e031bf546d887","650c16f0f2faf8d7a0d14c09","651c1b64b74017c2d6261b3a","null","null","<p style=""font-size: 60px; font-family: BACS"">RKYkRCdc</p>","","","","","","","","",""
"html-keyboard-response","357","498999","0.0-16.0-0.25","5eef3de3fb4e031bf546d887","650c16f0f2faf8d7a0d14c09","651c1b64b74017c2d6261b3a","null","null","<p style=""font-size: 60px; font-family: BACS"">RKYkRCdc</p>","","","","","","","","",""
"html-keyboard-response","358","500007","0.0-16.0-0.26","5eef3de3fb4e031bf546d887","650c16f0f2faf8d7a0d14c09","651c1b64b74017c2d6261b3a","null","null","<p style=""font-size: 60px; font-family: BACS"">RKYkRCdc</p>","","","","","","","","",""
"html-keyboard-response","359","501017","0.0-16.0-0.27","5eef3de3fb4e031bf546d887","650c16f0f2faf8d7a0d14c09","651c1b64b74017c2d6261b3a","null","null","<p style=""font-size: 60px; font-family: BACS"">RKYkRCdc</p>","","","","","","","","",""
"html-keyboard-response","360","502031","0.0-16.0-0.28","5eef3de3fb4e031bf546d887","650c16f0f2faf8d7a0d14c09","651c1b64b74017c2d6261b3a","null","null","<p style=""font-size: 60px; font-family: BACS"">RKYkRCdc</p>","","","","","","","","",""
"html-keyboard-response","361","503036","0.0-16.0-0.29","5eef3de3fb4e031bf546d887","650c16f0f2faf8d7a0d14c09","651c1b64b74017c2d6261b3a","null","null","<p style=""font-size: 60px; font-family: BACS"">RKYkRCdc</p>","","","","","","","","",""
"html-keyboard-response","362","504039","0.0-16.0-0.30","5eef3de3fb4e031bf546d887","650c16f0f2faf8d7a0d14c09","651c1b64b74017c2d6261b3a","null","null","<p style=""font-size: 60px; font-family: BACS"">RKYkRCdc</p>","","","","","","","","",""
"html-keyboard-response","363","505047","0.0-16.0-0.31","5eef3de3fb4e031bf546d887","650c16f0f2faf8d7a0d14c09","651c1b64b74017c2d6261b3a","null","null","<p style=""font-size: 60px; font-family: BACS"">RKYkRCdc</p>","","","","","","","","",""
"html-keyboard-response","364","506059","0.0-16.0-0.32","5eef3de3fb4e031bf546d887","650c16f0f2faf8d7a0d14c09","651c1b64b74017c2d6261b3a","null","null","<p style=""font-size: 60px; font-family: BACS"">RKYkRCdc</p>","","","","","","","","",""
"html-keyboard-response","365","507061","0.0-16.0-0.33","5eef3de3fb4e031bf546d887","650c16f0f2faf8d7a0d14c09","651c1b64b74017c2d6261b3a","null","null","<p style=""font-size: 60px; font-family: BACS"">RKYkRCdc</p>","","","","","","","","",""
"html-keyboard-response","366","508064","0.0-16.0-0.34","5eef3de3fb4e031bf546d887","650c16f0f2faf8d7a0d14c09","651c1b64b74017c2d6261b3a","null","null","<p style=""font-size: 60px; font-family: BACS"">RKYkRCdc</p>","","","","","","","","",""
"html-keyboard-response","367","509071","0.0-16.0-0.35","5eef3de3fb4e031bf546d887","650c16f0f2faf8d7a0d14c09","651c1b64b74017c2d6261b3a","null","null","<p style=""font-size: 60px; font-family: BACS"">RKYkRCdc</p>","","","","","","","","",""
"html-keyboard-response","368","510089","0.0-16.0-0.36","5eef3de3fb4e031bf546d887","650c16f0f2faf8d7a0d14c09","651c1b64b74017c2d6261b3a","null","null","<p style=""font-size: 60px; font-family: BACS"">RKYkRCdc</p>","","","","","","","","",""
"html-keyboard-response","369","511094","0.0-16.0-0.37","5eef3de3fb4e031bf546d887","650c16f0f2faf8d7a0d14c09","651c1b64b74017c2d6261b3a","null","null","<p style=""font-size: 60px; font-family: BACS"">RKYkRCdc</p>","","","","","","","","",""
"html-keyboard-response","370","512099","0.0-16.0-0.38","5eef3de3fb4e031bf546d887","650c16f0f2faf8d7a0d14c09","651c1b64b74017c2d6261b3a","null","null","<p style=""font-size: 60px; font-family: BACS"">RKYkRCdc</p>","","","","","","","","",""
"html-keyboard-response","371","513104","0.0-16.0-0.39","5eef3de3fb4e031bf546d887","650c16f0f2faf8d7a0d14c09","651c1b64b74017c2d6261b3a","null","null","<p style=""font-size: 60px; font-family: BACS"">RKYkRCdc</p>","","","","","","","","",""
"html-keyboard-response","372","514111","0.0-16.0-0.40","5eef3de3fb4e031bf546d887","650c16f0f2faf8d7a0d14c09","651c1b64b74017c2d6261b3a","null","null","<p style=""font-size: 60px; font-family: BACS"">RKYkRCdc</p>","","","","","","","","",""
"html-keyboard-response","373","515127","0.0-16.0-0.41","5eef3de3fb4e031bf546d887","650c16f0f2faf8d7a0d14c09","651c1b64b74017c2d6261b3a","null","null","<p style=""font-size: 60px; font-family: BACS"">RKYkRCdc</p>","","","","","","","","",""
"html-keyboard-response","374","516143","0.0-16.0-0.42","5eef3de3fb4e031bf546d887","650c16f0f2faf8d7a0d14c09","651c1b64b74017c2d6261b3a","null","null","<p style=""font-size: 60px; font-family: BACS"">RKYkRCdc</p>","","","","","","","","",""
"html-keyboard-response","375","517153","0.0-16.0-0.43","5eef3de3fb4e031bf546d887","650c16f0f2faf8d7a0d14c09","651c1b64b74017c2d6261b3a","null","null","<p style=""font-size: 60px; font-family: BACS"">RKYkRCdc</p>","","","","","","","","",""
"html-keyboard-response","376","518154","0.0-16.0-0.44","5eef3de3fb4e031bf546d887","650c16f0f2faf8d7a0d14c09","651c1b64b74017c2d6261b3a","null","null","<p style=""font-size: 60px; font-family: BACS"">RKYkRCdc</p>","","","","","","","","",""
"html-keyboard-response","377","519161","0.0-16.0-0.45","5eef3de3fb4e031bf546d887","650c16f0f2faf8d7a0d14c09","651c1b64b74017c2d6261b3a","null","null","<p style=""font-size: 60px; font-family: BACS"">RKYkRCdc</p>","","","","","","","","",""
"html-keyboard-response","378","520163","0.0-16.0-0.46","5eef3de3fb4e031bf546d887","650c16f0f2faf8d7a0d14c09","651c1b64b74017c2d6261b3a","null","null","<p style=""font-size: 60px; font-family: BACS"">RKYkRCdc</p>","","","","","","","","",""
"html-keyboard-response","379","521169","0.0-16.0-0.47","5eef3de3fb4e031bf546d887","650c16f0f2faf8d7a0d14c09","651c1b64b74017c2d6261b3a","null","null","<p style=""font-size: 60px; font-family: BACS"">RKYkRCdc</p>","","","","","","","","",""
"html-keyboard-response","380","522176","0.0-16.0-0.48","5eef3de3fb4e031bf546d887","650c16f0f2faf8d7a0d14c09","651c1b64b74017c2d6261b3a","null","null","<p style=""font-size: 60px; font-family: BACS"">RKYkRCdc</p>","","","","","","","","",""
"html-keyboard-response","381","523185","0.0-16.0-0.49","5eef3de3fb4e031bf546d887","650c16f0f2faf8d7a0d14c09","651c1b64b74017c2d6261b3a","null","null","<p style=""font-size: 60px; font-family: BACS"">RKYkRCdc</p>","","","","","","","","",""
"html-keyboard-response","382","524190","0.0-16.0-0.50","5eef3de3fb4e031bf546d887","650c16f0f2faf8d7a0d14c09","651c1b64b74017c2d6261b3a","null","null","<p style=""font-size: 60px; font-family: BACS"">RKYkRCdc</p>","","","","","","","","",""
"html-keyboard-response","383","525192","0.0-16.0-0.51","5eef3de3fb4e031bf546d887","650c16f0f2faf8d7a0d14c09","651c1b64b74017c2d6261b3a","null","null","<p style=""font-size: 60px; font-family: BACS"">RKYkRCdc</p>","","","","","","","","",""
"html-keyboard-response","384","526207","0.0-16.0-0.52","5eef3de3fb4e031bf546d887","650c16f0f2faf8d7a0d14c09","651c1b64b74017c2d6261b3a","null","null","<p style=""font-size: 60px; font-family: BACS"">RKYkRCdc</p>","","","","","","","","",""
"html-keyboard-response","385","527209","0.0-16.0-0.53","5eef3de3fb4e031bf546d887","650c16f0f2faf8d7a0d14c09","651c1b64b74017c2d6261b3a","null","null","<p style=""font-size: 60px; font-family: BACS"">RKYkRCdc</p>","","","","","","","","",""
"html-keyboard-response","386","528214","0.0-16.0-0.54","5eef3de3fb4e031bf546d887","650c16f0f2faf8d7a0d14c09","651c1b64b74017c2d6261b3a","null","null","<p style=""font-size: 60px; font-family: BACS"">RKYkRCdc</p>","","","","","","","","",""
"html-keyboard-response","387","529222","0.0-16.0-0.55","5eef3de3fb4e031bf546d887","650c16f0f2faf8d7a0d14c09","651c1b64b74017c2d6261b3a","null","null","<p style=""font-size: 60px; font-family: BACS"">RKYkRCdc</p>","","","","","","","","",""
"html-keyboard-response","388","530226","0.0-16.0-0.56","5eef3de3fb4e031bf546d887","650c16f0f2faf8d7a0d14c09","651c1b64b74017c2d6261b3a","null","null","<p style=""font-size: 60px; font-family: BACS"">RKYkRCdc</p>","","","","","","","","",""
"html-keyboard-response","389","531235","0.0-16.0-0.57","5eef3de3fb4e031bf546d887","650c16f0f2faf8d7a0d14c09","651c1b64b74017c2d6261b3a","null","null","<p style=""font-size: 60px; font-family: BACS"">RKYkRCdc</p>","","","","","","","","",""
"html-keyboard-response","390","532240","0.0-16.0-0.58","5eef3de3fb4e031bf546d887","650c16f0f2faf8d7a0d14c09","651c1b64b74017c2d6261b3a","null","null","<p style=""font-size: 60px; font-family: BACS"">RKYkRCdc</p>","","","","","","","","",""
"html-keyboard-response","391","533249","0.0-16.0-0.59","5eef3de3fb4e031bf546d887","650c16f0f2faf8d7a0d14c09","651c1b64b74017c2d6261b3a","null","null","<p style=""font-size: 60px; font-family: BACS"">RKYkRCdc</p>","","","","","","","","",""
"html-keyboard-response","392","534257","0.0-16.0-0.60","5eef3de3fb4e031bf546d887","650c16f0f2faf8d7a0d14c09","651c1b64b74017c2d6261b3a","null","null","<p style=""font-size: 60px; font-family: BACS"">RKYkRCdc</p>","","","","","","","","",""
"html-keyboard-response","393","535266","0.0-16.0-0.61","5eef3de3fb4e031bf546d887","650c16f0f2faf8d7a0d14c09","651c1b64b74017c2d6261b3a","null","null","<p style=""font-size: 60px; font-family: BACS"">RKYkRCdc</p>","","","","","","","","",""
"html-keyboard-response","394","536273","0.0-16.0-0.62","5eef3de3fb4e031bf546d887","650c16f0f2faf8d7a0d14c09","651c1b64b74017c2d6261b3a","null","null","<p style=""font-size: 60px; font-family: BACS"">RKYkRCdc</p>","","","","","","","","",""
"html-keyboard-response","395","537275","0.0-16.0-0.63","5eef3de3fb4e031bf546d887","650c16f0f2faf8d7a0d14c09","651c1b64b74017c2d6261b3a","null","null","<p style=""font-size: 60px; font-family: BACS"">RKYkRCdc</p>","","","","","","","","",""
"html-keyboard-response","396","538290","0.0-16.0-0.64","5eef3de3fb4e031bf546d887","650c16f0f2faf8d7a0d14c09","651c1b64b74017c2d6261b3a","null","null","<p style=""font-size: 60px; font-family: BACS"">RKYkRCdc</p>","","","","","","","","",""
"html-keyboard-response","397","539296","0.0-16.0-0.65","5eef3de3fb4e031bf546d887","650c16f0f2faf8d7a0d14c09","651c1b64b74017c2d6261b3a","null","null","<p style=""font-size: 60px; font-family: BACS"">RKYkRCdc</p>","","","","","","","","",""
"html-keyboard-response","398","540305","0.0-16.0-0.66","5eef3de3fb4e031bf546d887","650c16f0f2faf8d7a0d14c09","651c1b64b74017c2d6261b3a","null","null","<p style=""font-size: 60px; font-family: BACS"">RKYkRCdc</p>","","","","","","","","",""
