"trial_type","trial_index","time_elapsed","internal_node_id","subject_id","study_id","session_id","rt","response","stimulus","success","item","task","correct_response","testing_condition","correct","target","confound","name"
"pavlovia","0","633","0.0-0.0","5e577e79ce30ae13226e61ae","650c16f0f2faf8d7a0d14c09","651c1e1e698d5e803271ef9c","","","","","","","","","","","",""
"survey-html-form","1","47733","0.0-1.0","5e577e79ce30ae13226e61ae","650c16f0f2faf8d7a0d14c09","651c1e1e698d5e803271ef9c","47096","{""ID"":""5e577e79ce30ae13226e61ae""}","","","","","","","","","",""
"html-keyboard-response","2","60652","0.0-2.0","5e577e79ce30ae13226e61ae","650c16f0f2faf8d7a0d14c09","651c1e1e698d5e803271ef9c","12917"," ","<p style=""font-size: 15px;"">Before beginning, we ask that you read the consent information and confirm your agreement to participate in the experiment.</p>
      <p style=""font-size: 15px;""> We ask that you remember that this is a research project and that your participation is entirely voluntary. You can stop your participation at any time, without needing to provide any explanation. The study we're asking you to participate in aims at examining how readers process written words. You will be engaged in a session of apprximately 20 minutes, followed by a brief questionnaire. You will have the opportunity to take a few breaks during the experiment. You will be paid £4 for your participation, corresponding to a rate of £8/hour. While this experiment looks at cognitive faculties, this experiment doesn't constitute clinical proof of eventual pathologies.</p>
      <p style=""font-size: 15px;"">All of the information collected thanks to yours and others' participation will be held in a secure password-protected server, and will not be shared with anyone not authorised to view it. Your personal information will be kept with an arbitrary participant ID. Thanks to this data anonymity process, any researcher analysing the data won't be able to track the information back to a specific participant. Therefore, this process will make identifying you impossibile, even when results from the study will be published in scientific reviews, presented at congresses, or at any other public forum. More generally, the collected data will be treated in accordance with the laws on privacy and conformity to the Legislative Degree n. 196 ""Code regarding the protection of personal data"" of the 30th of June 2003 and to the European Regulation 2016/670 (General Data Protection Regulation - GDPR). The Data Protection Officer is Avv. Valentina Carollo, who can be contacted at the following email addresses: <a href=""mailto:dpo@sissa.it"">dpo@sissa.it</a> or <a href=""mailto:rpd@sissa.it"">rpd@sissa.it</a> - PEC: <a href=""mailto:protocollo@pec.sissa.it"">protocollo@pec.sissa.it</a>.</p>
      <p style=""font-size: 15px;""> Before expressing your consent to participate, we would like to remind you again that in case you need explanations on any aspect of the experimental procedure, the researcher is at your disposition (<a href=""mailto:aliebelt@sissa.it"">aliebelt@sissa.it</a>, <a href=""mailto:davide.crepaldi@sissa.it"">davide.crepaldi@sissa.it</a>).</p>
      <p style=""font-size: 15px;"">If you would like to download the informed consent form, you can do so here: <a href=""BASL-Informed_Consent.pdf"" download>informed consent form</a>.</p>
      <p style=""font-size: 15px;"">We ask that you press the spacebar to proceed to the consent section.</p>","","","","","","","","",""
"survey-html-form","3","86157","0.0-3.0","5e577e79ce30ae13226e61ae","650c16f0f2faf8d7a0d14c09","651c1e1e698d5e803271ef9c","25503","{""consent1"":""YES"",""consent2"":""YES"",""consent3"":""YES"",""consent4"":""YES"",""consent5"":""YES"",""consent6"":""YES""}","","","","","","","","","",""
"fullscreen","4","92000","0.0-4.0","5e577e79ce30ae13226e61ae","650c16f0f2faf8d7a0d14c09","651c1e1e698d5e803271ef9c","","","","true","","","","","","","",""
"html-keyboard-response","5","116822","0.0-5.0","5e577e79ce30ae13226e61ae","650c16f0f2faf8d7a0d14c09","651c1e1e698d5e803271ef9c","24820"," ","<p>Welcome, and thank you very much for your time!</p>
      <p>In this experiment, you'll be a language expert who's been asked to take a look at words that Earth has received in its first communication with aliens. Your task, in this first part of the experiment, is to pay close attention to the words you'll be shown; later, world leaders will ask you questions on what you saw. The words will be shown to you quite quickly; it seems that the aliens were in a hurry :-)</p>
      <p>Press the spacebar to continue.<p>","","","","","","","","",""
"html-keyboard-response","6","116880","0.0-6.0","5e577e79ce30ae13226e61ae","650c16f0f2faf8d7a0d14c09","651c1e1e698d5e803271ef9c","null","null","<p style=""font-size: 120px; font-family: BACS""> </p>","","","","","","","","",""
"html-keyboard-response","7","135089","0.0-7.0","5e577e79ce30ae13226e61ae","650c16f0f2faf8d7a0d14c09","651c1e1e698d5e803271ef9c","18208"," ","<p>Here is an example of the words you'll see:</p>
      <img src='esempio.png' height='400px'>
      <p>When you're ready to begin, press the spacebar.</p></div>","","","","","","","","",""
"html-keyboard-response","8","136101","0.0-8.0-0.0","5e577e79ce30ae13226e61ae","650c16f0f2faf8d7a0d14c09","651c1e1e698d5e803271ef9c","null","null","<p style=""font-size: 60px; font-family: BACS"">TObCOTmTm</p>","","","","","","","","",""
"html-keyboard-response","9","137117","0.0-8.0-0.1","5e577e79ce30ae13226e61ae","650c16f0f2faf8d7a0d14c09","651c1e1e698d5e803271ef9c","null","null","<p style=""font-size: 60px; font-family: BACS"">JAdLmdUr</p>","","","","","","","","",""
"html-keyboard-response","10","138132","0.0-8.0-0.2","5e577e79ce30ae13226e61ae","650c16f0f2faf8d7a0d14c09","651c1e1e698d5e803271ef9c","null","null","<p style=""font-size: 60px; font-family: BACS"">TObCOEKBO</p>","","","","","","","","",""
"html-keyboard-response","11","139149","0.0-8.0-0.3","5e577e79ce30ae13226e61ae","650c16f0f2faf8d7a0d14c09","651c1e1e698d5e803271ef9c","null","null","<p style=""font-size: 60px; font-family: BACS"">dNZAkuvb</p>","","","","","","","","",""
"html-keyboard-response","12","140164","0.0-8.0-0.4","5e577e79ce30ae13226e61ae","650c16f0f2faf8d7a0d14c09","651c1e1e698d5e803271ef9c","null","null","<p style=""font-size: 60px; font-family: BACS"">BATOcTmTm</p>","","","","","","","","",""
"html-keyboard-response","13","141179","0.0-8.0-0.5","5e577e79ce30ae13226e61ae","650c16f0f2faf8d7a0d14c09","651c1e1e698d5e803271ef9c","null","null","<p style=""font-size: 60px; font-family: BACS"">ldAarab</p>","","","","","","","","",""
"html-keyboard-response","14","142195","0.0-8.0-0.6","5e577e79ce30ae13226e61ae","650c16f0f2faf8d7a0d14c09","651c1e1e698d5e803271ef9c","null","null","<p style=""font-size: 60px; font-family: BACS"">mARMTmc</p>","","","","","","","","",""
"html-keyboard-response","15","143211","0.0-8.0-0.7","5e577e79ce30ae13226e61ae","650c16f0f2faf8d7a0d14c09","651c1e1e698d5e803271ef9c","null","null","<p style=""font-size: 60px; font-family: BACS"">dNZAGUOA</p>","","","","","","","","",""
"html-keyboard-response","16","144227","0.0-8.0-0.8","5e577e79ce30ae13226e61ae","650c16f0f2faf8d7a0d14c09","651c1e1e698d5e803271ef9c","null","null","<p style=""font-size: 60px; font-family: BACS"">AdDbTmTm</p>","","","","","","","","",""
"html-keyboard-response","17","145242","0.0-8.0-0.9","5e577e79ce30ae13226e61ae","650c16f0f2faf8d7a0d14c09","651c1e1e698d5e803271ef9c","null","null","<p style=""font-size: 60px; font-family: BACS"">bRABtEKBO</p>","","","","","","","","",""
"html-keyboard-response","18","146258","0.0-8.0-0.10","5e577e79ce30ae13226e61ae","650c16f0f2faf8d7a0d14c09","651c1e1e698d5e803271ef9c","null","null","<p style=""font-size: 60px; font-family: BACS"">rckOUdvY</p>","","","","","","","","",""
"html-keyboard-response","19","147274","0.0-8.0-0.11","5e577e79ce30ae13226e61ae","650c16f0f2faf8d7a0d14c09","651c1e1e698d5e803271ef9c","null","null","<p style=""font-size: 60px; font-family: BACS"">ckduArab</p>","","","","","","","","",""
"html-keyboard-response","20","148289","0.0-8.0-0.12","5e577e79ce30ae13226e61ae","650c16f0f2faf8d7a0d14c09","651c1e1e698d5e803271ef9c","null","null","<p style=""font-size: 60px; font-family: BACS"">rLaZdUr</p>","","","","","","","","",""
"html-keyboard-response","21","149304","0.0-8.0-0.13","5e577e79ce30ae13226e61ae","650c16f0f2faf8d7a0d14c09","651c1e1e698d5e803271ef9c","null","null","<p style=""font-size: 60px; font-family: BACS"">JAdLmkuvb</p>","","","","","","","","",""
"html-keyboard-response","22","150320","0.0-8.0-0.14","5e577e79ce30ae13226e61ae","650c16f0f2faf8d7a0d14c09","651c1e1e698d5e803271ef9c","null","null","<p style=""font-size: 60px; font-family: BACS"">TObCOTmc</p>","","","","","","","","",""
"html-keyboard-response","23","151335","0.0-8.0-0.15","5e577e79ce30ae13226e61ae","650c16f0f2faf8d7a0d14c09","651c1e1e698d5e803271ef9c","null","null","<p style=""font-size: 60px; font-family: BACS"">PCMPKEKBO</p>","","","","","","","","",""
"html-keyboard-response","24","152351","0.0-8.0-0.16","5e577e79ce30ae13226e61ae","650c16f0f2faf8d7a0d14c09","651c1e1e698d5e803271ef9c","null","null","<p style=""font-size: 60px; font-family: BACS"">udkmrab</p>","","","","","","","","",""
"html-keyboard-response","25","153366","0.0-8.0-0.17","5e577e79ce30ae13226e61ae","650c16f0f2faf8d7a0d14c09","651c1e1e698d5e803271ef9c","null","null","<p style=""font-size: 60px; font-family: BACS"">YlCPBTmc</p>","","","","","","","","",""
"html-keyboard-response","26","154382","0.0-8.0-0.18","5e577e79ce30ae13226e61ae","650c16f0f2faf8d7a0d14c09","651c1e1e698d5e803271ef9c","null","null","<p style=""font-size: 60px; font-family: BACS"">vuJZuUdvY</p>","","","","","","","","",""
"html-keyboard-response","27","155399","0.0-8.0-0.19","5e577e79ce30ae13226e61ae","650c16f0f2faf8d7a0d14c09","651c1e1e698d5e803271ef9c","null","null","<p style=""font-size: 60px; font-family: BACS"">bRABtYDE</p>","","","","","","","","",""
"html-keyboard-response","28","156415","0.0-8.0-0.20","5e577e79ce30ae13226e61ae","650c16f0f2faf8d7a0d14c09","651c1e1e698d5e803271ef9c","null","null","<p style=""font-size: 60px; font-family: BACS"">YlCPBTmTm</p>","","","","","","","","",""
"html-keyboard-response","29","157431","0.0-8.0-0.21","5e577e79ce30ae13226e61ae","650c16f0f2faf8d7a0d14c09","651c1e1e698d5e803271ef9c","null","null","<p style=""font-size: 60px; font-family: BACS"">NJZlkuvb</p>","","","","","","","","",""
"html-keyboard-response","30","158445","0.0-8.0-0.22","5e577e79ce30ae13226e61ae","650c16f0f2faf8d7a0d14c09","651c1e1e698d5e803271ef9c","null","null","<p style=""font-size: 60px; font-family: BACS"">vuJZudUr</p>","","","","","","","","",""
"html-keyboard-response","31","159461","0.0-8.0-0.23","5e577e79ce30ae13226e61ae","650c16f0f2faf8d7a0d14c09","651c1e1e698d5e803271ef9c","null","null","<p style=""font-size: 60px; font-family: BACS"">dNZArab</p>","","","","","","","","",""
"html-keyboard-response","32","160477","0.0-8.0-0.24","5e577e79ce30ae13226e61ae","650c16f0f2faf8d7a0d14c09","651c1e1e698d5e803271ef9c","null","null","<p style=""font-size: 60px; font-family: BACS"">rckOGUOA</p>","","","","","","","","",""
"html-keyboard-response","33","161493","0.0-8.0-0.25","5e577e79ce30ae13226e61ae","650c16f0f2faf8d7a0d14c09","651c1e1e698d5e803271ef9c","null","null","<p style=""font-size: 60px; font-family: BACS"">KABAEKBO</p>","","","","","","","","",""
"html-keyboard-response","34","162499","0.0-8.0-0.26","5e577e79ce30ae13226e61ae","650c16f0f2faf8d7a0d14c09","651c1e1e698d5e803271ef9c","null","null","<p style=""font-size: 60px; font-family: BACS"">ckduAdUr</p>","","","","","","","","",""
"html-keyboard-response","35","163514","0.0-8.0-0.27","5e577e79ce30ae13226e61ae","650c16f0f2faf8d7a0d14c09","651c1e1e698d5e803271ef9c","null","null","<p style=""font-size: 60px; font-family: BACS"">PCMPKEcR</p>","","","","","","","","",""
"html-keyboard-response","36","164517","0.0-8.0-0.28","5e577e79ce30ae13226e61ae","650c16f0f2faf8d7a0d14c09","651c1e1e698d5e803271ef9c","null","null","<p style=""font-size: 60px; font-family: BACS"">udkmGUOA</p>","","","","","","","","",""
"html-keyboard-response","37","165521","0.0-8.0-0.29","5e577e79ce30ae13226e61ae","650c16f0f2faf8d7a0d14c09","651c1e1e698d5e803271ef9c","null","null","<p style=""font-size: 60px; font-family: BACS"">hbmAYDE</p>","","","","","","","","",""
"html-keyboard-response","38","166530","0.0-8.0-0.30","5e577e79ce30ae13226e61ae","650c16f0f2faf8d7a0d14c09","651c1e1e698d5e803271ef9c","null","null","<p style=""font-size: 60px; font-family: BACS"">NJZldUr</p>","","","","","","","","",""
"html-keyboard-response","39","167546","0.0-8.0-0.31","5e577e79ce30ae13226e61ae","650c16f0f2faf8d7a0d14c09","651c1e1e698d5e803271ef9c","null","null","<p style=""font-size: 60px; font-family: BACS"">GJZmkuvb</p>","","","","","","","","",""
"html-keyboard-response","40","168559","0.0-8.0-0.32","5e577e79ce30ae13226e61ae","650c16f0f2faf8d7a0d14c09","651c1e1e698d5e803271ef9c","null","null","<p style=""font-size: 60px; font-family: BACS"">PCMPKTmc</p>","","","","","","","","",""
"html-keyboard-response","41","169576","0.0-8.0-0.33","5e577e79ce30ae13226e61ae","650c16f0f2faf8d7a0d14c09","651c1e1e698d5e803271ef9c","null","null","<p style=""font-size: 60px; font-family: BACS"">AdDbYDE</p>","","","","","","","","",""
"html-keyboard-response","42","170591","0.0-8.0-0.34","5e577e79ce30ae13226e61ae","650c16f0f2faf8d7a0d14c09","651c1e1e698d5e803271ef9c","null","null","<p style=""font-size: 60px; font-family: BACS"">lKdbcTmTm</p>","","","","","","","","",""
"html-keyboard-response","43","171606","0.0-8.0-0.35","5e577e79ce30ae13226e61ae","650c16f0f2faf8d7a0d14c09","651c1e1e698d5e803271ef9c","null","null","<p style=""font-size: 60px; font-family: BACS"">rckOrab</p>","","","","","","","","",""
"html-keyboard-response","44","172620","0.0-8.0-0.36","5e577e79ce30ae13226e61ae","650c16f0f2faf8d7a0d14c09","651c1e1e698d5e803271ef9c","null","null","<p style=""font-size: 60px; font-family: BACS"">lKdbcYDE</p>","","","","","","","","",""
"html-keyboard-response","45","173635","0.0-8.0-0.37","5e577e79ce30ae13226e61ae","650c16f0f2faf8d7a0d14c09","651c1e1e698d5e803271ef9c","null","null","<p style=""font-size: 60px; font-family: BACS"">udkmUdvY</p>","","","","","","","","",""
"html-keyboard-response","46","174650","0.0-8.0-0.38","5e577e79ce30ae13226e61ae","650c16f0f2faf8d7a0d14c09","651c1e1e698d5e803271ef9c","null","null","<p style=""font-size: 60px; font-family: BACS"">rLaZGUOA</p>","","","","","","","","",""
"html-keyboard-response","47","175665","0.0-8.0-0.39","5e577e79ce30ae13226e61ae","650c16f0f2faf8d7a0d14c09","651c1e1e698d5e803271ef9c","null","null","<p style=""font-size: 60px; font-family: BACS"">udkmdUr</p>","","","","","","","","",""
"html-keyboard-response","48","176681","0.0-8.0-0.40","5e577e79ce30ae13226e61ae","650c16f0f2faf8d7a0d14c09","651c1e1e698d5e803271ef9c","null","null","<p style=""font-size: 60px; font-family: BACS"">KABATmc</p>","","","","","","","","",""
"html-keyboard-response","49","177695","0.0-8.0-0.41","5e577e79ce30ae13226e61ae","650c16f0f2faf8d7a0d14c09","651c1e1e698d5e803271ef9c","null","null","<p style=""font-size: 60px; font-family: BACS"">ckduAUdvY</p>","","","","","","","","",""
"html-keyboard-response","50","178710","0.0-8.0-0.42","5e577e79ce30ae13226e61ae","650c16f0f2faf8d7a0d14c09","651c1e1e698d5e803271ef9c","null","null","<p style=""font-size: 60px; font-family: BACS"">NJZlrab</p>","","","","","","","","",""
"html-keyboard-response","51","179725","0.0-8.0-0.43","5e577e79ce30ae13226e61ae","650c16f0f2faf8d7a0d14c09","651c1e1e698d5e803271ef9c","null","null","<p style=""font-size: 60px; font-family: BACS"">YlCPBEcR</p>","","","","","","","","",""
"html-keyboard-response","52","180740","0.0-8.0-0.44","5e577e79ce30ae13226e61ae","650c16f0f2faf8d7a0d14c09","651c1e1e698d5e803271ef9c","null","null","<p style=""font-size: 60px; font-family: BACS"">JAdLmGUOA</p>","","","","","","","","",""
"html-keyboard-response","53","181755","0.0-8.0-0.45","5e577e79ce30ae13226e61ae","650c16f0f2faf8d7a0d14c09","651c1e1e698d5e803271ef9c","null","null","<p style=""font-size: 60px; font-family: BACS"">AdDbEKBO</p>","","","","","","","","",""
"html-keyboard-response","54","182757","0.0-8.0-0.46","5e577e79ce30ae13226e61ae","650c16f0f2faf8d7a0d14c09","651c1e1e698d5e803271ef9c","null","null","<p style=""font-size: 60px; font-family: BACS"">hbmATmTm</p>","","","","","","","","",""
"html-keyboard-response","55","183771","0.0-8.0-0.47","5e577e79ce30ae13226e61ae","650c16f0f2faf8d7a0d14c09","651c1e1e698d5e803271ef9c","null","null","<p style=""font-size: 60px; font-family: BACS"">vuJZukuvb</p>","","","","","","","","",""
"html-keyboard-response","56","184787","0.0-8.0-0.48","5e577e79ce30ae13226e61ae","650c16f0f2faf8d7a0d14c09","651c1e1e698d5e803271ef9c","null","null","<p style=""font-size: 60px; font-family: BACS"">NJZlGUOA</p>","","","","","","","","",""
"html-keyboard-response","57","185800","0.0-8.0-0.49","5e577e79ce30ae13226e61ae","650c16f0f2faf8d7a0d14c09","651c1e1e698d5e803271ef9c","null","null","<p style=""font-size: 60px; font-family: BACS"">lKdbcEKBO</p>","","","","","","","","",""
"html-keyboard-response","58","186816","0.0-8.0-0.50","5e577e79ce30ae13226e61ae","650c16f0f2faf8d7a0d14c09","651c1e1e698d5e803271ef9c","null","null","<p style=""font-size: 60px; font-family: BACS"">ckduAGUOA</p>","","","","","","","","",""
"html-keyboard-response","59","187832","0.0-8.0-0.51","5e577e79ce30ae13226e61ae","650c16f0f2faf8d7a0d14c09","651c1e1e698d5e803271ef9c","null","null","<p style=""font-size: 60px; font-family: BACS"">GJZmUdvY</p>","","","","","","","","",""
"html-keyboard-response","60","188849","0.0-8.0-0.52","5e577e79ce30ae13226e61ae","650c16f0f2faf8d7a0d14c09","651c1e1e698d5e803271ef9c","null","null","<p style=""font-size: 60px; font-family: BACS"">YlCPBYDE</p>","","","","","","","","",""
"html-keyboard-response","61","189863","0.0-8.0-0.53","5e577e79ce30ae13226e61ae","650c16f0f2faf8d7a0d14c09","651c1e1e698d5e803271ef9c","null","null","<p style=""font-size: 60px; font-family: BACS"">rLaZkuvb</p>","","","","","","","","",""
"html-keyboard-response","62","190880","0.0-8.0-0.54","5e577e79ce30ae13226e61ae","650c16f0f2faf8d7a0d14c09","651c1e1e698d5e803271ef9c","null","null","<p style=""font-size: 60px; font-family: BACS"">BATOcYDE</p>","","","","","","","","",""
"html-keyboard-response","63","191896","0.0-8.0-0.55","5e577e79ce30ae13226e61ae","650c16f0f2faf8d7a0d14c09","651c1e1e698d5e803271ef9c","null","null","<p style=""font-size: 60px; font-family: BACS"">mARMEcR</p>","","","","","","","","",""
"html-keyboard-response","64","192912","0.0-8.0-0.56","5e577e79ce30ae13226e61ae","650c16f0f2faf8d7a0d14c09","651c1e1e698d5e803271ef9c","null","null","<p style=""font-size: 60px; font-family: BACS"">hbmAEKBO</p>","","","","","","","","",""
"html-keyboard-response","65","193927","0.0-8.0-0.57","5e577e79ce30ae13226e61ae","650c16f0f2faf8d7a0d14c09","651c1e1e698d5e803271ef9c","null","null","<p style=""font-size: 60px; font-family: BACS"">KABAEcR</p>","","","","","","","","",""
"html-keyboard-response","66","194943","0.0-8.0-0.58","5e577e79ce30ae13226e61ae","650c16f0f2faf8d7a0d14c09","651c1e1e698d5e803271ef9c","null","null","<p style=""font-size: 60px; font-family: BACS"">hbmATmc</p>","","","","","","","","",""
"html-keyboard-response","67","195959","0.0-8.0-0.59","5e577e79ce30ae13226e61ae","650c16f0f2faf8d7a0d14c09","651c1e1e698d5e803271ef9c","null","null","<p style=""font-size: 60px; font-family: BACS"">rLaZrab</p>","","","","","","","","",""
"html-keyboard-response","68","196975","0.0-8.0-0.60","5e577e79ce30ae13226e61ae","650c16f0f2faf8d7a0d14c09","651c1e1e698d5e803271ef9c","null","null","<p style=""font-size: 60px; font-family: BACS"">GJZmdUr</p>","","","","","","","","",""
"html-keyboard-response","69","197990","0.0-8.0-0.61","5e577e79ce30ae13226e61ae","650c16f0f2faf8d7a0d14c09","651c1e1e698d5e803271ef9c","null","null","<p style=""font-size: 60px; font-family: BACS"">BATOcEcR</p>","","","","","","","","",""
"html-keyboard-response","70","199005","0.0-8.0-0.62","5e577e79ce30ae13226e61ae","650c16f0f2faf8d7a0d14c09","651c1e1e698d5e803271ef9c","null","null","<p style=""font-size: 60px; font-family: BACS"">vuJZuGUOA</p>","","","","","","","","",""
"html-keyboard-response","71","200021","0.0-8.0-0.63","5e577e79ce30ae13226e61ae","650c16f0f2faf8d7a0d14c09","651c1e1e698d5e803271ef9c","null","null","<p style=""font-size: 60px; font-family: BACS"">bRABtTmTm</p>","","","","","","","","",""
"html-keyboard-response","72","201038","0.0-8.0-0.64","5e577e79ce30ae13226e61ae","650c16f0f2faf8d7a0d14c09","651c1e1e698d5e803271ef9c","null","null","<p style=""font-size: 60px; font-family: BACS"">dNZAUdvY</p>","","","","","","","","",""
"html-keyboard-response","73","202052","0.0-8.0-0.65","5e577e79ce30ae13226e61ae","650c16f0f2faf8d7a0d14c09","651c1e1e698d5e803271ef9c","null","null","<p style=""font-size: 60px; font-family: BACS"">GJZmrab</p>","","","","","","","","",""
"html-keyboard-response","74","203067","0.0-8.0-0.66","5e577e79ce30ae13226e61ae","650c16f0f2faf8d7a0d14c09","651c1e1e698d5e803271ef9c","null","null","<p style=""font-size: 60px; font-family: BACS"">JAdLmUdvY</p>","","","","","","","","",""
"html-keyboard-response","75","204084","0.0-8.0-0.67","5e577e79ce30ae13226e61ae","650c16f0f2faf8d7a0d14c09","651c1e1e698d5e803271ef9c","null","null","<p style=""font-size: 60px; font-family: BACS"">lKdbcEcR</p>","","","","","","","","",""
"html-keyboard-response","76","205087","0.0-8.0-0.68","5e577e79ce30ae13226e61ae","650c16f0f2faf8d7a0d14c09","651c1e1e698d5e803271ef9c","null","null","<p style=""font-size: 60px; font-family: BACS"">mARMEKBO</p>","","","","","","","","",""
"html-keyboard-response","77","206098","0.0-8.0-0.69","5e577e79ce30ae13226e61ae","650c16f0f2faf8d7a0d14c09","651c1e1e698d5e803271ef9c","null","null","<p style=""font-size: 60px; font-family: BACS"">TObCOEcR</p>","","","","","","","","",""
"html-keyboard-response","78","207106","0.0-8.0-0.70","5e577e79ce30ae13226e61ae","650c16f0f2faf8d7a0d14c09","651c1e1e698d5e803271ef9c","null","null","<p style=""font-size: 60px; font-family: BACS"">rckOkuvb</p>","","","","","","","","",""
"html-keyboard-response","79","208107","0.0-8.0-0.71","5e577e79ce30ae13226e61ae","650c16f0f2faf8d7a0d14c09","651c1e1e698d5e803271ef9c","null","null","<p style=""font-size: 60px; font-family: BACS"">ldAaUdvY</p>","","","","","","","","",""
"html-keyboard-response","80","209117","0.0-8.0-0.72","5e577e79ce30ae13226e61ae","650c16f0f2faf8d7a0d14c09","651c1e1e698d5e803271ef9c","null","null","<p style=""font-size: 60px; font-family: BACS"">AdDbTmc</p>","","","","","","","","",""
"html-keyboard-response","81","210119","0.0-8.0-0.73","5e577e79ce30ae13226e61ae","650c16f0f2faf8d7a0d14c09","651c1e1e698d5e803271ef9c","null","null","<p style=""font-size: 60px; font-family: BACS"">ldAakuvb</p>","","","","","","","","",""
"html-keyboard-response","82","211120","0.0-8.0-0.74","5e577e79ce30ae13226e61ae","650c16f0f2faf8d7a0d14c09","651c1e1e698d5e803271ef9c","null","null","<p style=""font-size: 60px; font-family: BACS"">bRABtEcR</p>","","","","","","","","",""
"html-keyboard-response","83","212135","0.0-8.0-0.75","5e577e79ce30ae13226e61ae","650c16f0f2faf8d7a0d14c09","651c1e1e698d5e803271ef9c","null","null","<p style=""font-size: 60px; font-family: BACS"">PCMPKTmTm</p>","","","","","","","","",""
"html-keyboard-response","84","213142","0.0-8.0-0.76","5e577e79ce30ae13226e61ae","650c16f0f2faf8d7a0d14c09","651c1e1e698d5e803271ef9c","null","null","<p style=""font-size: 60px; font-family: BACS"">mARMYDE</p>","","","","","","","","",""
"html-keyboard-response","85","214158","0.0-8.0-0.77","5e577e79ce30ae13226e61ae","650c16f0f2faf8d7a0d14c09","651c1e1e698d5e803271ef9c","null","null","<p style=""font-size: 60px; font-family: BACS"">BATOcTmc</p>","","","","","","","","",""
"html-keyboard-response","86","215173","0.0-8.0-0.78","5e577e79ce30ae13226e61ae","650c16f0f2faf8d7a0d14c09","651c1e1e698d5e803271ef9c","null","null","<p style=""font-size: 60px; font-family: BACS"">ldAadUr</p>","","","","","","","","",""
"html-keyboard-response","87","216189","0.0-8.0-0.79","5e577e79ce30ae13226e61ae","650c16f0f2faf8d7a0d14c09","651c1e1e698d5e803271ef9c","null","null","<p style=""font-size: 60px; font-family: BACS"">KABAYDE</p>","","","","","","","","",""
"html-keyboard-response","88","278758","0.0-9.0","5e577e79ce30ae13226e61ae","650c16f0f2faf8d7a0d14c09","651c1e1e698d5e803271ef9c","62567"," ","<p>Great, you've seen the first block of words. You may now take a short break.</p>
      <p>Press the spacebar when you're ready to continue.</p>","","","","","","","","",""
"html-keyboard-response","89","279772","0.0-10.0-0.0","5e577e79ce30ae13226e61ae","650c16f0f2faf8d7a0d14c09","651c1e1e698d5e803271ef9c","null","null","<p style=""font-size: 60px; font-family: BACS"">YlCPBTmc</p>","","","","","","","","",""
"html-keyboard-response","90","280786","0.0-10.0-0.1","5e577e79ce30ae13226e61ae","650c16f0f2faf8d7a0d14c09","651c1e1e698d5e803271ef9c","null","null","<p style=""font-size: 60px; font-family: BACS"">AdDbEKBO</p>","","","","","","","","",""
"html-keyboard-response","91","281800","0.0-10.0-0.2","5e577e79ce30ae13226e61ae","650c16f0f2faf8d7a0d14c09","651c1e1e698d5e803271ef9c","null","null","<p style=""font-size: 60px; font-family: BACS"">lKdbcTmTm</p>","","","","","","","","",""
"html-keyboard-response","92","282813","0.0-10.0-0.3","5e577e79ce30ae13226e61ae","650c16f0f2faf8d7a0d14c09","651c1e1e698d5e803271ef9c","null","null","<p style=""font-size: 60px; font-family: BACS"">rLaZGUOA</p>","","","","","","","","",""
"html-keyboard-response","93","283828","0.0-10.0-0.4","5e577e79ce30ae13226e61ae","650c16f0f2faf8d7a0d14c09","651c1e1e698d5e803271ef9c","null","null","<p style=""font-size: 60px; font-family: BACS"">PCMPKTmTm</p>","","","","","","","","",""
"html-keyboard-response","94","284829","0.0-10.0-0.5","5e577e79ce30ae13226e61ae","650c16f0f2faf8d7a0d14c09","651c1e1e698d5e803271ef9c","null","null","<p style=""font-size: 60px; font-family: BACS"">lKdbcEcR</p>","","","","","","","","",""
"html-keyboard-response","95","285848","0.0-10.0-0.6","5e577e79ce30ae13226e61ae","650c16f0f2faf8d7a0d14c09","651c1e1e698d5e803271ef9c","null","null","<p style=""font-size: 60px; font-family: BACS"">BATOcTmTm</p>","","","","","","","","",""
"html-keyboard-response","96","286858","0.0-10.0-0.7","5e577e79ce30ae13226e61ae","650c16f0f2faf8d7a0d14c09","651c1e1e698d5e803271ef9c","null","null","<p style=""font-size: 60px; font-family: BACS"">ldAaUdvY</p>","","","","","","","","",""
"html-keyboard-response","97","287861","0.0-10.0-0.8","5e577e79ce30ae13226e61ae","650c16f0f2faf8d7a0d14c09","651c1e1e698d5e803271ef9c","null","null","<p style=""font-size: 60px; font-family: BACS"">KABAEcR</p>","","","","","","","","",""
"html-keyboard-response","98","288864","0.0-10.0-0.9","5e577e79ce30ae13226e61ae","650c16f0f2faf8d7a0d14c09","651c1e1e698d5e803271ef9c","null","null","<p style=""font-size: 60px; font-family: BACS"">ldAarab</p>","","","","","","","","",""
"html-keyboard-response","99","289881","0.0-10.0-0.10","5e577e79ce30ae13226e61ae","650c16f0f2faf8d7a0d14c09","651c1e1e698d5e803271ef9c","null","null","<p style=""font-size: 60px; font-family: BACS"">GJZmUdvY</p>","","","","","","","","",""
"html-keyboard-response","100","290897","0.0-10.0-0.11","5e577e79ce30ae13226e61ae","650c16f0f2faf8d7a0d14c09","651c1e1e698d5e803271ef9c","null","null","<p style=""font-size: 60px; font-family: BACS"">rLaZkuvb</p>","","","","","","","","",""
"html-keyboard-response","101","291913","0.0-10.0-0.12","5e577e79ce30ae13226e61ae","650c16f0f2faf8d7a0d14c09","651c1e1e698d5e803271ef9c","null","null","<p style=""font-size: 60px; font-family: BACS"">AdDbTmTm</p>","","","","","","","","",""
"html-keyboard-response","102","292919","0.0-10.0-0.13","5e577e79ce30ae13226e61ae","650c16f0f2faf8d7a0d14c09","651c1e1e698d5e803271ef9c","null","null","<p style=""font-size: 60px; font-family: BACS"">BATOcYDE</p>","","","","","","","","",""
"html-keyboard-response","103","293934","0.0-10.0-0.14","5e577e79ce30ae13226e61ae","650c16f0f2faf8d7a0d14c09","651c1e1e698d5e803271ef9c","null","null","<p style=""font-size: 60px; font-family: BACS"">KABATmc</p>","","","","","","","","",""
"html-keyboard-response","104","294946","0.0-10.0-0.15","5e577e79ce30ae13226e61ae","650c16f0f2faf8d7a0d14c09","651c1e1e698d5e803271ef9c","null","null","<p style=""font-size: 60px; font-family: BACS"">rckOGUOA</p>","","","","","","","","",""
"html-keyboard-response","105","295952","0.0-10.0-0.16","5e577e79ce30ae13226e61ae","650c16f0f2faf8d7a0d14c09","651c1e1e698d5e803271ef9c","null","null","<p style=""font-size: 60px; font-family: BACS"">hbmATmc</p>","","","","","","","","",""
"html-keyboard-response","106","296966","0.0-10.0-0.17","5e577e79ce30ae13226e61ae","650c16f0f2faf8d7a0d14c09","651c1e1e698d5e803271ef9c","null","null","<p style=""font-size: 60px; font-family: BACS"">JAdLmkuvb</p>","","","","","","","","",""
"html-keyboard-response","107","297975","0.0-10.0-0.18","5e577e79ce30ae13226e61ae","650c16f0f2faf8d7a0d14c09","651c1e1e698d5e803271ef9c","null","null","<p style=""font-size: 60px; font-family: BACS"">vuJZudUr</p>","","","","","","","","",""
"html-keyboard-response","108","298979","0.0-10.0-0.19","5e577e79ce30ae13226e61ae","650c16f0f2faf8d7a0d14c09","651c1e1e698d5e803271ef9c","null","null","<p style=""font-size: 60px; font-family: BACS"">ckduAGUOA</p>","","","","","","","","",""
"html-keyboard-response","109","299980","0.0-10.0-0.20","5e577e79ce30ae13226e61ae","650c16f0f2faf8d7a0d14c09","651c1e1e698d5e803271ef9c","null","null","<p style=""font-size: 60px; font-family: BACS"">ldAadUr</p>","","","","","","","","",""
"html-keyboard-response","110","300995","0.0-10.0-0.21","5e577e79ce30ae13226e61ae","650c16f0f2faf8d7a0d14c09","651c1e1e698d5e803271ef9c","null","null","<p style=""font-size: 60px; font-family: BACS"">vuJZuUdvY</p>","","","","","","","","",""
"html-keyboard-response","111","301998","0.0-10.0-0.22","5e577e79ce30ae13226e61ae","650c16f0f2faf8d7a0d14c09","651c1e1e698d5e803271ef9c","null","null","<p style=""font-size: 60px; font-family: BACS"">bRABtEKBO</p>","","","","","","","","",""
"html-keyboard-response","112","303013","0.0-10.0-0.23","5e577e79ce30ae13226e61ae","650c16f0f2faf8d7a0d14c09","651c1e1e698d5e803271ef9c","null","null","<p style=""font-size: 60px; font-family: BACS"">YlCPBYDE</p>","","","","","","","","",""
"html-keyboard-response","113","304027","0.0-10.0-0.24","5e577e79ce30ae13226e61ae","650c16f0f2faf8d7a0d14c09","651c1e1e698d5e803271ef9c","null","null","<p style=""font-size: 60px; font-family: BACS"">TObCOEKBO</p>","","","","","","","","",""
"html-keyboard-response","114","305034","0.0-10.0-0.25","5e577e79ce30ae13226e61ae","650c16f0f2faf8d7a0d14c09","651c1e1e698d5e803271ef9c","null","null","<p style=""font-size: 60px; font-family: BACS"">bRABtTmTm</p>","","","","","","","","",""
"html-keyboard-response","115","306052","0.0-10.0-0.26","5e577e79ce30ae13226e61ae","650c16f0f2faf8d7a0d14c09","651c1e1e698d5e803271ef9c","null","null","<p style=""font-size: 60px; font-family: BACS"">JAdLmUdvY</p>","","","","","","","","",""
"html-keyboard-response","116","307053","0.0-10.0-0.27","5e577e79ce30ae13226e61ae","650c16f0f2faf8d7a0d14c09","651c1e1e698d5e803271ef9c","null","null","<p style=""font-size: 60px; font-family: BACS"">dNZArab</p>","","","","","","","","",""
"html-keyboard-response","117","308065","0.0-10.0-0.28","5e577e79ce30ae13226e61ae","650c16f0f2faf8d7a0d14c09","651c1e1e698d5e803271ef9c","null","null","<p style=""font-size: 60px; font-family: BACS"">YlCPBEcR</p>","","","","","","","","",""
"html-keyboard-response","118","309079","0.0-10.0-0.29","5e577e79ce30ae13226e61ae","650c16f0f2faf8d7a0d14c09","651c1e1e698d5e803271ef9c","null","null","<p style=""font-size: 60px; font-family: BACS"">BATOcTmc</p>","","","","","","","","",""
"html-keyboard-response","119","310093","0.0-10.0-0.30","5e577e79ce30ae13226e61ae","650c16f0f2faf8d7a0d14c09","651c1e1e698d5e803271ef9c","null","null","<p style=""font-size: 60px; font-family: BACS"">GJZmkuvb</p>","","","","","","","","",""
"html-keyboard-response","120","311101","0.0-10.0-0.31","5e577e79ce30ae13226e61ae","650c16f0f2faf8d7a0d14c09","651c1e1e698d5e803271ef9c","null","null","<p style=""font-size: 60px; font-family: BACS"">ckduAUdvY</p>","","","","","","","","",""
"html-keyboard-response","121","312117","0.0-10.0-0.32","5e577e79ce30ae13226e61ae","650c16f0f2faf8d7a0d14c09","651c1e1e698d5e803271ef9c","null","null","<p style=""font-size: 60px; font-family: BACS"">rLaZrab</p>","","","","","","","","",""
"html-keyboard-response","122","313132","0.0-10.0-0.33","5e577e79ce30ae13226e61ae","650c16f0f2faf8d7a0d14c09","651c1e1e698d5e803271ef9c","null","null","<p style=""font-size: 60px; font-family: BACS"">ldAakuvb</p>","","","","","","","","",""
"html-keyboard-response","123","314147","0.0-10.0-0.34","5e577e79ce30ae13226e61ae","650c16f0f2faf8d7a0d14c09","651c1e1e698d5e803271ef9c","null","null","<p style=""font-size: 60px; font-family: BACS"">KABAYDE</p>","","","","","","","","",""
"html-keyboard-response","124","315161","0.0-10.0-0.35","5e577e79ce30ae13226e61ae","650c16f0f2faf8d7a0d14c09","651c1e1e698d5e803271ef9c","null","null","<p style=""font-size: 60px; font-family: BACS"">JAdLmdUr</p>","","","","","","","","",""
"html-keyboard-response","125","316163","0.0-10.0-0.36","5e577e79ce30ae13226e61ae","650c16f0f2faf8d7a0d14c09","651c1e1e698d5e803271ef9c","null","null","<p style=""font-size: 60px; font-family: BACS"">AdDbYDE</p>","","","","","","","","",""
"html-keyboard-response","126","317180","0.0-10.0-0.37","5e577e79ce30ae13226e61ae","650c16f0f2faf8d7a0d14c09","651c1e1e698d5e803271ef9c","null","null","<p style=""font-size: 60px; font-family: BACS"">rckOUdvY</p>","","","","","","","","",""
"html-keyboard-response","127","318183","0.0-10.0-0.38","5e577e79ce30ae13226e61ae","650c16f0f2faf8d7a0d14c09","651c1e1e698d5e803271ef9c","null","null","<p style=""font-size: 60px; font-family: BACS"">dNZAkuvb</p>","","","","","","","","",""
"html-keyboard-response","128","319200","0.0-10.0-0.39","5e577e79ce30ae13226e61ae","650c16f0f2faf8d7a0d14c09","651c1e1e698d5e803271ef9c","null","null","<p style=""font-size: 60px; font-family: BACS"">YlCPBTmTm</p>","","","","","","","","",""
"html-keyboard-response","129","320216","0.0-10.0-0.40","5e577e79ce30ae13226e61ae","650c16f0f2faf8d7a0d14c09","651c1e1e698d5e803271ef9c","null","null","<p style=""font-size: 60px; font-family: BACS"">rckOkuvb</p>","","","","","","","","",""
"html-keyboard-response","130","321230","0.0-10.0-0.41","5e577e79ce30ae13226e61ae","650c16f0f2faf8d7a0d14c09","651c1e1e698d5e803271ef9c","null","null","<p style=""font-size: 60px; font-family: BACS"">TObCOTmTm</p>","","","","","","","","",""
"html-keyboard-response","131","322244","0.0-10.0-0.42","5e577e79ce30ae13226e61ae","650c16f0f2faf8d7a0d14c09","651c1e1e698d5e803271ef9c","null","null","<p style=""font-size: 60px; font-family: BACS"">vuJZukuvb</p>","","","","","","","","",""
"html-keyboard-response","132","323249","0.0-10.0-0.43","5e577e79ce30ae13226e61ae","650c16f0f2faf8d7a0d14c09","651c1e1e698d5e803271ef9c","null","null","<p style=""font-size: 60px; font-family: BACS"">bRABtYDE</p>","","","","","","","","",""
"html-keyboard-response","133","324261","0.0-10.0-0.44","5e577e79ce30ae13226e61ae","650c16f0f2faf8d7a0d14c09","651c1e1e698d5e803271ef9c","null","null","<p style=""font-size: 60px; font-family: BACS"">udkmdUr</p>","","","","","","","","",""
"html-keyboard-response","134","325278","0.0-10.0-0.45","5e577e79ce30ae13226e61ae","650c16f0f2faf8d7a0d14c09","651c1e1e698d5e803271ef9c","null","null","<p style=""font-size: 60px; font-family: BACS"">JAdLmGUOA</p>","","","","","","","","",""
"html-keyboard-response","135","326291","0.0-10.0-0.46","5e577e79ce30ae13226e61ae","650c16f0f2faf8d7a0d14c09","651c1e1e698d5e803271ef9c","null","null","<p style=""font-size: 60px; font-family: BACS"">GJZmdUr</p>","","","","","","","","",""
"html-keyboard-response","136","327306","0.0-10.0-0.47","5e577e79ce30ae13226e61ae","650c16f0f2faf8d7a0d14c09","651c1e1e698d5e803271ef9c","null","null","<p style=""font-size: 60px; font-family: BACS"">NJZlGUOA</p>","","","","","","","","",""
"html-keyboard-response","137","328313","0.0-10.0-0.48","5e577e79ce30ae13226e61ae","650c16f0f2faf8d7a0d14c09","651c1e1e698d5e803271ef9c","null","null","<p style=""font-size: 60px; font-family: BACS"">PCMPKTmc</p>","","","","","","","","",""
"html-keyboard-response","138","329316","0.0-10.0-0.49","5e577e79ce30ae13226e61ae","650c16f0f2faf8d7a0d14c09","651c1e1e698d5e803271ef9c","null","null","<p style=""font-size: 60px; font-family: BACS"">udkmrab</p>","","","","","","","","",""
"html-keyboard-response","139","330334","0.0-10.0-0.50","5e577e79ce30ae13226e61ae","650c16f0f2faf8d7a0d14c09","651c1e1e698d5e803271ef9c","null","null","<p style=""font-size: 60px; font-family: BACS"">TObCOTmc</p>","","","","","","","","",""
"html-keyboard-response","140","331348","0.0-10.0-0.51","5e577e79ce30ae13226e61ae","650c16f0f2faf8d7a0d14c09","651c1e1e698d5e803271ef9c","null","null","<p style=""font-size: 60px; font-family: BACS"">lKdbcYDE</p>","","","","","","","","",""
"html-keyboard-response","141","332357","0.0-10.0-0.52","5e577e79ce30ae13226e61ae","650c16f0f2faf8d7a0d14c09","651c1e1e698d5e803271ef9c","null","null","<p style=""font-size: 60px; font-family: BACS"">ckduArab</p>","","","","","","","","",""
"html-keyboard-response","142","333367","0.0-10.0-0.53","5e577e79ce30ae13226e61ae","650c16f0f2faf8d7a0d14c09","651c1e1e698d5e803271ef9c","null","null","<p style=""font-size: 60px; font-family: BACS"">bRABtEcR</p>","","","","","","","","",""
"html-keyboard-response","143","334383","0.0-10.0-0.54","5e577e79ce30ae13226e61ae","650c16f0f2faf8d7a0d14c09","651c1e1e698d5e803271ef9c","null","null","<p style=""font-size: 60px; font-family: BACS"">PCMPKEKBO</p>","","","","","","","","",""
"html-keyboard-response","144","335397","0.0-10.0-0.55","5e577e79ce30ae13226e61ae","650c16f0f2faf8d7a0d14c09","651c1e1e698d5e803271ef9c","null","null","<p style=""font-size: 60px; font-family: BACS"">vuJZuGUOA</p>","","","","","","","","",""
"html-keyboard-response","145","336413","0.0-10.0-0.56","5e577e79ce30ae13226e61ae","650c16f0f2faf8d7a0d14c09","651c1e1e698d5e803271ef9c","null","null","<p style=""font-size: 60px; font-family: BACS"">lKdbcEKBO</p>","","","","","","","","",""
"html-keyboard-response","146","337425","0.0-10.0-0.57","5e577e79ce30ae13226e61ae","650c16f0f2faf8d7a0d14c09","651c1e1e698d5e803271ef9c","null","null","<p style=""font-size: 60px; font-family: BACS"">mARMEcR</p>","","","","","","","","",""
"html-keyboard-response","147","338441","0.0-10.0-0.58","5e577e79ce30ae13226e61ae","650c16f0f2faf8d7a0d14c09","651c1e1e698d5e803271ef9c","null","null","<p style=""font-size: 60px; font-family: BACS"">rLaZdUr</p>","","","","","","","","",""
"html-keyboard-response","148","339444","0.0-10.0-0.59","5e577e79ce30ae13226e61ae","650c16f0f2faf8d7a0d14c09","651c1e1e698d5e803271ef9c","null","null","<p style=""font-size: 60px; font-family: BACS"">AdDbTmc</p>","","","","","","","","",""
"html-keyboard-response","149","340457","0.0-10.0-0.60","5e577e79ce30ae13226e61ae","650c16f0f2faf8d7a0d14c09","651c1e1e698d5e803271ef9c","null","null","<p style=""font-size: 60px; font-family: BACS"">hbmAEKBO</p>","","","","","","","","",""
"html-keyboard-response","150","341458","0.0-10.0-0.61","5e577e79ce30ae13226e61ae","650c16f0f2faf8d7a0d14c09","651c1e1e698d5e803271ef9c","null","null","<p style=""font-size: 60px; font-family: BACS"">NJZlrab</p>","","","","","","","","",""
"html-keyboard-response","151","342471","0.0-10.0-0.62","5e577e79ce30ae13226e61ae","650c16f0f2faf8d7a0d14c09","651c1e1e698d5e803271ef9c","null","null","<p style=""font-size: 60px; font-family: BACS"">mARMEKBO</p>","","","","","","","","",""
"html-keyboard-response","152","343473","0.0-10.0-0.63","5e577e79ce30ae13226e61ae","650c16f0f2faf8d7a0d14c09","651c1e1e698d5e803271ef9c","null","null","<p style=""font-size: 60px; font-family: BACS"">ckduAdUr</p>","","","","","","","","",""
"html-keyboard-response","153","344488","0.0-10.0-0.64","5e577e79ce30ae13226e61ae","650c16f0f2faf8d7a0d14c09","651c1e1e698d5e803271ef9c","null","null","<p style=""font-size: 60px; font-family: BACS"">BATOcEcR</p>","","","","","","","","",""
"html-keyboard-response","154","345498","0.0-10.0-0.65","5e577e79ce30ae13226e61ae","650c16f0f2faf8d7a0d14c09","651c1e1e698d5e803271ef9c","null","null","<p style=""font-size: 60px; font-family: BACS"">KABAEKBO</p>","","","","","","","","",""
"html-keyboard-response","155","346502","0.0-10.0-0.66","5e577e79ce30ae13226e61ae","650c16f0f2faf8d7a0d14c09","651c1e1e698d5e803271ef9c","null","null","<p style=""font-size: 60px; font-family: BACS"">hbmAYDE</p>","","","","","","","","",""
"html-keyboard-response","156","347506","0.0-10.0-0.67","5e577e79ce30ae13226e61ae","650c16f0f2faf8d7a0d14c09","651c1e1e698d5e803271ef9c","null","null","<p style=""font-size: 60px; font-family: BACS"">udkmGUOA</p>","","","","","","","","",""
"html-keyboard-response","157","348507","0.0-10.0-0.68","5e577e79ce30ae13226e61ae","650c16f0f2faf8d7a0d14c09","651c1e1e698d5e803271ef9c","null","null","<p style=""font-size: 60px; font-family: BACS"">mARMTmc</p>","","","","","","","","",""
"html-keyboard-response","158","349508","0.0-10.0-0.69","5e577e79ce30ae13226e61ae","650c16f0f2faf8d7a0d14c09","651c1e1e698d5e803271ef9c","null","null","<p style=""font-size: 60px; font-family: BACS"">NJZldUr</p>","","","","","","","","",""
"html-keyboard-response","159","350522","0.0-10.0-0.70","5e577e79ce30ae13226e61ae","650c16f0f2faf8d7a0d14c09","651c1e1e698d5e803271ef9c","null","null","<p style=""font-size: 60px; font-family: BACS"">dNZAUdvY</p>","","","","","","","","",""
"html-keyboard-response","160","351526","0.0-10.0-0.71","5e577e79ce30ae13226e61ae","650c16f0f2faf8d7a0d14c09","651c1e1e698d5e803271ef9c","null","null","<p style=""font-size: 60px; font-family: BACS"">TObCOEcR</p>","","","","","","","","",""
"html-keyboard-response","161","352527","0.0-10.0-0.72","5e577e79ce30ae13226e61ae","650c16f0f2faf8d7a0d14c09","651c1e1e698d5e803271ef9c","null","null","<p style=""font-size: 60px; font-family: BACS"">NJZlkuvb</p>","","","","","","","","",""
"html-keyboard-response","162","353541","0.0-10.0-0.73","5e577e79ce30ae13226e61ae","650c16f0f2faf8d7a0d14c09","651c1e1e698d5e803271ef9c","null","null","<p style=""font-size: 60px; font-family: BACS"">PCMPKEcR</p>","","","","","","","","",""
"html-keyboard-response","163","354542","0.0-10.0-0.74","5e577e79ce30ae13226e61ae","650c16f0f2faf8d7a0d14c09","651c1e1e698d5e803271ef9c","null","null","<p style=""font-size: 60px; font-family: BACS"">dNZAGUOA</p>","","","","","","","","",""
"html-keyboard-response","164","355558","0.0-10.0-0.75","5e577e79ce30ae13226e61ae","650c16f0f2faf8d7a0d14c09","651c1e1e698d5e803271ef9c","null","null","<p style=""font-size: 60px; font-family: BACS"">rckOrab</p>","","","","","","","","",""
"html-keyboard-response","165","356568","0.0-10.0-0.76","5e577e79ce30ae13226e61ae","650c16f0f2faf8d7a0d14c09","651c1e1e698d5e803271ef9c","null","null","<p style=""font-size: 60px; font-family: BACS"">mARMYDE</p>","","","","","","","","",""
"html-keyboard-response","166","357579","0.0-10.0-0.77","5e577e79ce30ae13226e61ae","650c16f0f2faf8d7a0d14c09","651c1e1e698d5e803271ef9c","null","null","<p style=""font-size: 60px; font-family: BACS"">hbmATmTm</p>","","","","","","","","",""
"html-keyboard-response","167","358591","0.0-10.0-0.78","5e577e79ce30ae13226e61ae","650c16f0f2faf8d7a0d14c09","651c1e1e698d5e803271ef9c","null","null","<p style=""font-size: 60px; font-family: BACS"">udkmUdvY</p>","","","","","","","","",""
"html-keyboard-response","168","359603","0.0-10.0-0.79","5e577e79ce30ae13226e61ae","650c16f0f2faf8d7a0d14c09","651c1e1e698d5e803271ef9c","null","null","<p style=""font-size: 60px; font-family: BACS"">GJZmrab</p>","","","","","","","","",""
"html-keyboard-response","169","376538","0.0-11.0","5e577e79ce30ae13226e61ae","650c16f0f2faf8d7a0d14c09","651c1e1e698d5e803271ef9c","16934"," ","<p>Great, you've seen the second block of words. You may now take a short break.</p>
      <p>Press the spacebar when you're ready to continue.</p>","","","","","","","","",""
"html-keyboard-response","170","377541","0.0-12.0-0.0","5e577e79ce30ae13226e61ae","650c16f0f2faf8d7a0d14c09","651c1e1e698d5e803271ef9c","null","null","<p style=""font-size: 60px; font-family: BACS"">JAdLmUdvY</p>","","","","","","","","",""
"html-keyboard-response","171","378555","0.0-12.0-0.1","5e577e79ce30ae13226e61ae","650c16f0f2faf8d7a0d14c09","651c1e1e698d5e803271ef9c","null","null","<p style=""font-size: 60px; font-family: BACS"">mARMEcR</p>","","","","","","","","",""
"html-keyboard-response","172","379556","0.0-12.0-0.2","5e577e79ce30ae13226e61ae","650c16f0f2faf8d7a0d14c09","651c1e1e698d5e803271ef9c","null","null","<p style=""font-size: 60px; font-family: BACS"">GJZmUdvY</p>","","","","","","","","",""
"html-keyboard-response","173","380566","0.0-12.0-0.3","5e577e79ce30ae13226e61ae","650c16f0f2faf8d7a0d14c09","651c1e1e698d5e803271ef9c","null","null","<p style=""font-size: 60px; font-family: BACS"">bRABtYDE</p>","","","","","","","","",""
"html-keyboard-response","174","381581","0.0-12.0-0.4","5e577e79ce30ae13226e61ae","650c16f0f2faf8d7a0d14c09","651c1e1e698d5e803271ef9c","null","null","<p style=""font-size: 60px; font-family: BACS"">lKdbcEcR</p>","","","","","","","","",""
"html-keyboard-response","175","382595","0.0-12.0-0.5","5e577e79ce30ae13226e61ae","650c16f0f2faf8d7a0d14c09","651c1e1e698d5e803271ef9c","null","null","<p style=""font-size: 60px; font-family: BACS"">vuJZukuvb</p>","","","","","","","","",""
"html-keyboard-response","176","383606","0.0-12.0-0.6","5e577e79ce30ae13226e61ae","650c16f0f2faf8d7a0d14c09","651c1e1e698d5e803271ef9c","null","null","<p style=""font-size: 60px; font-family: BACS"">dNZArab</p>","","","","","","","","",""
"html-keyboard-response","177","384622","0.0-12.0-0.7","5e577e79ce30ae13226e61ae","650c16f0f2faf8d7a0d14c09","651c1e1e698d5e803271ef9c","null","null","<p style=""font-size: 60px; font-family: BACS"">NJZlkuvb</p>","","","","","","","","",""
"html-keyboard-response","178","385625","0.0-12.0-0.8","5e577e79ce30ae13226e61ae","650c16f0f2faf8d7a0d14c09","651c1e1e698d5e803271ef9c","null","null","<p style=""font-size: 60px; font-family: BACS"">rLaZGUOA</p>","","","","","","","","",""
"html-keyboard-response","179","386637","0.0-12.0-0.9","5e577e79ce30ae13226e61ae","650c16f0f2faf8d7a0d14c09","651c1e1e698d5e803271ef9c","null","null","<p style=""font-size: 60px; font-family: BACS"">ckduArab</p>","","","","","","","","",""
"html-keyboard-response","180","387638","0.0-12.0-0.10","5e577e79ce30ae13226e61ae","650c16f0f2faf8d7a0d14c09","651c1e1e698d5e803271ef9c","null","null","<p style=""font-size: 60px; font-family: BACS"">rLaZdUr</p>","","","","","","","","",""
"html-keyboard-response","181","388641","0.0-12.0-0.11","5e577e79ce30ae13226e61ae","650c16f0f2faf8d7a0d14c09","651c1e1e698d5e803271ef9c","null","null","<p style=""font-size: 60px; font-family: BACS"">rckOrab</p>","","","","","","","","",""
"html-keyboard-response","182","389643","0.0-12.0-0.12","5e577e79ce30ae13226e61ae","650c16f0f2faf8d7a0d14c09","651c1e1e698d5e803271ef9c","null","null","<p style=""font-size: 60px; font-family: BACS"">ckduAdUr</p>","","","","","","","","",""
"html-keyboard-response","183","390648","0.0-12.0-0.13","5e577e79ce30ae13226e61ae","650c16f0f2faf8d7a0d14c09","651c1e1e698d5e803271ef9c","null","null","<p style=""font-size: 60px; font-family: BACS"">PCMPKTmc</p>","","","","","","","","",""
"html-keyboard-response","184","391665","0.0-12.0-0.14","5e577e79ce30ae13226e61ae","650c16f0f2faf8d7a0d14c09","651c1e1e698d5e803271ef9c","null","null","<p style=""font-size: 60px; font-family: BACS"">hbmATmTm</p>","","","","","","","","",""
"html-keyboard-response","185","392681","0.0-12.0-0.15","5e577e79ce30ae13226e61ae","650c16f0f2faf8d7a0d14c09","651c1e1e698d5e803271ef9c","null","null","<p style=""font-size: 60px; font-family: BACS"">BATOcTmc</p>","","","","","","","","",""
"html-keyboard-response","186","393682","0.0-12.0-0.16","5e577e79ce30ae13226e61ae","650c16f0f2faf8d7a0d14c09","651c1e1e698d5e803271ef9c","null","null","<p style=""font-size: 60px; font-family: BACS"">rckOkuvb</p>","","","","","","","","",""
"html-keyboard-response","187","394686","0.0-12.0-0.17","5e577e79ce30ae13226e61ae","650c16f0f2faf8d7a0d14c09","651c1e1e698d5e803271ef9c","null","null","<p style=""font-size: 60px; font-family: BACS"">YlCPBEcR</p>","","","","","","","","",""
"html-keyboard-response","188","395702","0.0-12.0-0.18","5e577e79ce30ae13226e61ae","650c16f0f2faf8d7a0d14c09","651c1e1e698d5e803271ef9c","null","null","<p style=""font-size: 60px; font-family: BACS"">AdDbYDE</p>","","","","","","","","",""
"html-keyboard-response","189","396717","0.0-12.0-0.19","5e577e79ce30ae13226e61ae","650c16f0f2faf8d7a0d14c09","651c1e1e698d5e803271ef9c","null","null","<p style=""font-size: 60px; font-family: BACS"">vuJZuUdvY</p>","","","","","","","","",""
"html-keyboard-response","190","397725","0.0-12.0-0.20","5e577e79ce30ae13226e61ae","650c16f0f2faf8d7a0d14c09","651c1e1e698d5e803271ef9c","null","null","<p style=""font-size: 60px; font-family: BACS"">TObCOTmTm</p>","","","","","","","","",""
"html-keyboard-response","191","398739","0.0-12.0-0.21","5e577e79ce30ae13226e61ae","650c16f0f2faf8d7a0d14c09","651c1e1e698d5e803271ef9c","null","null","<p style=""font-size: 60px; font-family: BACS"">hbmAEKBO</p>","","","","","","","","",""
"html-keyboard-response","192","399753","0.0-12.0-0.22","5e577e79ce30ae13226e61ae","650c16f0f2faf8d7a0d14c09","651c1e1e698d5e803271ef9c","null","null","<p style=""font-size: 60px; font-family: BACS"">ldAarab</p>","","","","","","","","",""
"html-keyboard-response","193","400768","0.0-12.0-0.23","5e577e79ce30ae13226e61ae","650c16f0f2faf8d7a0d14c09","651c1e1e698d5e803271ef9c","null","null","<p style=""font-size: 60px; font-family: BACS"">AdDbTmc</p>","","","","","","","","",""
"html-keyboard-response","194","401770","0.0-12.0-0.24","5e577e79ce30ae13226e61ae","650c16f0f2faf8d7a0d14c09","651c1e1e698d5e803271ef9c","null","null","<p style=""font-size: 60px; font-family: BACS"">PCMPKEcR</p>","","","","","","","","",""
"html-keyboard-response","195","402785","0.0-12.0-0.25","5e577e79ce30ae13226e61ae","650c16f0f2faf8d7a0d14c09","651c1e1e698d5e803271ef9c","null","null","<p style=""font-size: 60px; font-family: BACS"">JAdLmdUr</p>","","","","","","","","",""
"html-keyboard-response","196","403800","0.0-12.0-0.26","5e577e79ce30ae13226e61ae","650c16f0f2faf8d7a0d14c09","651c1e1e698d5e803271ef9c","null","null","<p style=""font-size: 60px; font-family: BACS"">ckduAGUOA</p>","","","","","","","","",""
"html-keyboard-response","197","404813","0.0-12.0-0.27","5e577e79ce30ae13226e61ae","650c16f0f2faf8d7a0d14c09","651c1e1e698d5e803271ef9c","null","null","<p style=""font-size: 60px; font-family: BACS"">ldAakuvb</p>","","","","","","","","",""
"html-keyboard-response","198","405823","0.0-12.0-0.28","5e577e79ce30ae13226e61ae","650c16f0f2faf8d7a0d14c09","651c1e1e698d5e803271ef9c","null","null","<p style=""font-size: 60px; font-family: BACS"">udkmUdvY</p>","","","","","","","","",""
"html-keyboard-response","199","406826","0.0-12.0-0.29","5e577e79ce30ae13226e61ae","650c16f0f2faf8d7a0d14c09","651c1e1e698d5e803271ef9c","null","null","<p style=""font-size: 60px; font-family: BACS"">KABAEKBO</p>","","","","","","","","",""
"html-keyboard-response","200","407830","0.0-12.0-0.30","5e577e79ce30ae13226e61ae","650c16f0f2faf8d7a0d14c09","651c1e1e698d5e803271ef9c","null","null","<p style=""font-size: 60px; font-family: BACS"">BATOcEcR</p>","","","","","","","","",""
"html-keyboard-response","201","408834","0.0-12.0-0.31","5e577e79ce30ae13226e61ae","650c16f0f2faf8d7a0d14c09","651c1e1e698d5e803271ef9c","null","null","<p style=""font-size: 60px; font-family: BACS"">hbmATmc</p>","","","","","","","","",""
"html-keyboard-response","202","409836","0.0-12.0-0.32","5e577e79ce30ae13226e61ae","650c16f0f2faf8d7a0d14c09","651c1e1e698d5e803271ef9c","null","null","<p style=""font-size: 60px; font-family: BACS"">PCMPKEKBO</p>","","","","","","","","",""
"html-keyboard-response","203","410849","0.0-12.0-0.33","5e577e79ce30ae13226e61ae","650c16f0f2faf8d7a0d14c09","651c1e1e698d5e803271ef9c","null","null","<p style=""font-size: 60px; font-family: BACS"">lKdbcTmTm</p>","","","","","","","","",""
"html-keyboard-response","204","411867","0.0-12.0-0.34","5e577e79ce30ae13226e61ae","650c16f0f2faf8d7a0d14c09","651c1e1e698d5e803271ef9c","null","null","<p style=""font-size: 60px; font-family: BACS"">BATOcYDE</p>","","","","","","","","",""
"html-keyboard-response","205","412881","0.0-12.0-0.35","5e577e79ce30ae13226e61ae","650c16f0f2faf8d7a0d14c09","651c1e1e698d5e803271ef9c","null","null","<p style=""font-size: 60px; font-family: BACS"">udkmdUr</p>","","","","","","","","",""
"html-keyboard-response","206","413888","0.0-12.0-0.36","5e577e79ce30ae13226e61ae","650c16f0f2faf8d7a0d14c09","651c1e1e698d5e803271ef9c","null","null","<p style=""font-size: 60px; font-family: BACS"">bRABtEKBO</p>","","","","","","","","",""
"html-keyboard-response","207","414897","0.0-12.0-0.37","5e577e79ce30ae13226e61ae","650c16f0f2faf8d7a0d14c09","651c1e1e698d5e803271ef9c","null","null","<p style=""font-size: 60px; font-family: BACS"">KABAEcR</p>","","","","","","","","",""
"html-keyboard-response","208","415912","0.0-12.0-0.38","5e577e79ce30ae13226e61ae","650c16f0f2faf8d7a0d14c09","651c1e1e698d5e803271ef9c","null","null","<p style=""font-size: 60px; font-family: BACS"">dNZAGUOA</p>","","","","","","","","",""
"html-keyboard-response","209","416915","0.0-12.0-0.39","5e577e79ce30ae13226e61ae","650c16f0f2faf8d7a0d14c09","651c1e1e698d5e803271ef9c","null","null","<p style=""font-size: 60px; font-family: BACS"">TObCOEKBO</p>","","","","","","","","",""
"html-keyboard-response","210","417931","0.0-12.0-0.40","5e577e79ce30ae13226e61ae","650c16f0f2faf8d7a0d14c09","651c1e1e698d5e803271ef9c","null","null","<p style=""font-size: 60px; font-family: BACS"">dNZAUdvY</p>","","","","","","","","",""
"html-keyboard-response","211","418936","0.0-12.0-0.41","5e577e79ce30ae13226e61ae","650c16f0f2faf8d7a0d14c09","651c1e1e698d5e803271ef9c","null","null","<p style=""font-size: 60px; font-family: BACS"">AdDbEKBO</p>","","","","","","","","",""
"html-keyboard-response","212","419951","0.0-12.0-0.42","5e577e79ce30ae13226e61ae","650c16f0f2faf8d7a0d14c09","651c1e1e698d5e803271ef9c","null","null","<p style=""font-size: 60px; font-family: BACS"">TObCOEcR</p>","","","","","","","","",""
"html-keyboard-response","213","420953","0.0-12.0-0.43","5e577e79ce30ae13226e61ae","650c16f0f2faf8d7a0d14c09","651c1e1e698d5e803271ef9c","null","null","<p style=""font-size: 60px; font-family: BACS"">vuJZudUr</p>","","","","","","","","",""
"html-keyboard-response","214","421954","0.0-12.0-0.44","5e577e79ce30ae13226e61ae","650c16f0f2faf8d7a0d14c09","651c1e1e698d5e803271ef9c","null","null","<p style=""font-size: 60px; font-family: BACS"">bRABtEcR</p>","","","","","","","","",""
"html-keyboard-response","215","422958","0.0-12.0-0.45","5e577e79ce30ae13226e61ae","650c16f0f2faf8d7a0d14c09","651c1e1e698d5e803271ef9c","null","null","<p style=""font-size: 60px; font-family: BACS"">rckOUdvY</p>","","","","","","","","",""
"html-keyboard-response","216","423973","0.0-12.0-0.46","5e577e79ce30ae13226e61ae","650c16f0f2faf8d7a0d14c09","651c1e1e698d5e803271ef9c","null","null","<p style=""font-size: 60px; font-family: BACS"">rLaZrab</p>","","","","","","","","",""
"html-keyboard-response","217","424977","0.0-12.0-0.47","5e577e79ce30ae13226e61ae","650c16f0f2faf8d7a0d14c09","651c1e1e698d5e803271ef9c","null","null","<p style=""font-size: 60px; font-family: BACS"">udkmGUOA</p>","","","","","","","","",""
"html-keyboard-response","218","425993","0.0-12.0-0.48","5e577e79ce30ae13226e61ae","650c16f0f2faf8d7a0d14c09","651c1e1e698d5e803271ef9c","null","null","<p style=""font-size: 60px; font-family: BACS"">YlCPBTmc</p>","","","","","","","","",""
"html-keyboard-response","219","427004","0.0-12.0-0.49","5e577e79ce30ae13226e61ae","650c16f0f2faf8d7a0d14c09","651c1e1e698d5e803271ef9c","null","null","<p style=""font-size: 60px; font-family: BACS"">NJZlGUOA</p>","","","","","","","","",""
"html-keyboard-response","220","428018","0.0-12.0-0.50","5e577e79ce30ae13226e61ae","650c16f0f2faf8d7a0d14c09","651c1e1e698d5e803271ef9c","null","null","<p style=""font-size: 60px; font-family: BACS"">ldAaUdvY</p>","","","","","","","","",""
"html-keyboard-response","221","429033","0.0-12.0-0.51","5e577e79ce30ae13226e61ae","650c16f0f2faf8d7a0d14c09","651c1e1e698d5e803271ef9c","null","null","<p style=""font-size: 60px; font-family: BACS"">mARMYDE</p>","","","","","","","","",""
"html-keyboard-response","222","430045","0.0-12.0-0.52","5e577e79ce30ae13226e61ae","650c16f0f2faf8d7a0d14c09","651c1e1e698d5e803271ef9c","null","null","<p style=""font-size: 60px; font-family: BACS"">PCMPKTmTm</p>","","","","","","","","",""
"html-keyboard-response","223","431059","0.0-12.0-0.53","5e577e79ce30ae13226e61ae","650c16f0f2faf8d7a0d14c09","651c1e1e698d5e803271ef9c","null","null","<p style=""font-size: 60px; font-family: BACS"">udkmrab</p>","","","","","","","","",""
"html-keyboard-response","224","432068","0.0-12.0-0.54","5e577e79ce30ae13226e61ae","650c16f0f2faf8d7a0d14c09","651c1e1e698d5e803271ef9c","null","null","<p style=""font-size: 60px; font-family: BACS"">KABATmc</p>","","","","","","","","",""
"html-keyboard-response","225","433069","0.0-12.0-0.55","5e577e79ce30ae13226e61ae","650c16f0f2faf8d7a0d14c09","651c1e1e698d5e803271ef9c","null","null","<p style=""font-size: 60px; font-family: BACS"">JAdLmkuvb</p>","","","","","","","","",""
"html-keyboard-response","226","434080","0.0-12.0-0.56","5e577e79ce30ae13226e61ae","650c16f0f2faf8d7a0d14c09","651c1e1e698d5e803271ef9c","null","null","<p style=""font-size: 60px; font-family: BACS"">YlCPBYDE</p>","","","","","","","","",""
"html-keyboard-response","227","435082","0.0-12.0-0.57","5e577e79ce30ae13226e61ae","650c16f0f2faf8d7a0d14c09","651c1e1e698d5e803271ef9c","null","null","<p style=""font-size: 60px; font-family: BACS"">rLaZkuvb</p>","","","","","","","","",""
"html-keyboard-response","228","436095","0.0-12.0-0.58","5e577e79ce30ae13226e61ae","650c16f0f2faf8d7a0d14c09","651c1e1e698d5e803271ef9c","null","null","<p style=""font-size: 60px; font-family: BACS"">JAdLmGUOA</p>","","","","","","","","",""
"html-keyboard-response","229","437099","0.0-12.0-0.59","5e577e79ce30ae13226e61ae","650c16f0f2faf8d7a0d14c09","651c1e1e698d5e803271ef9c","null","null","<p style=""font-size: 60px; font-family: BACS"">ldAadUr</p>","","","","","","","","",""
"html-keyboard-response","230","438112","0.0-12.0-0.60","5e577e79ce30ae13226e61ae","650c16f0f2faf8d7a0d14c09","651c1e1e698d5e803271ef9c","null","null","<p style=""font-size: 60px; font-family: BACS"">mARMTmc</p>","","","","","","","","",""
"html-keyboard-response","231","439116","0.0-12.0-0.61","5e577e79ce30ae13226e61ae","650c16f0f2faf8d7a0d14c09","651c1e1e698d5e803271ef9c","null","null","<p style=""font-size: 60px; font-family: BACS"">ckduAUdvY</p>","","","","","","","","",""
"html-keyboard-response","232","440132","0.0-12.0-0.62","5e577e79ce30ae13226e61ae","650c16f0f2faf8d7a0d14c09","651c1e1e698d5e803271ef9c","null","null","<p style=""font-size: 60px; font-family: BACS"">dNZAkuvb</p>","","","","","","","","",""
"html-keyboard-response","233","441147","0.0-12.0-0.63","5e577e79ce30ae13226e61ae","650c16f0f2faf8d7a0d14c09","651c1e1e698d5e803271ef9c","null","null","<p style=""font-size: 60px; font-family: BACS"">AdDbTmTm</p>","","","","","","","","",""
"html-keyboard-response","234","442153","0.0-12.0-0.64","5e577e79ce30ae13226e61ae","650c16f0f2faf8d7a0d14c09","651c1e1e698d5e803271ef9c","null","null","<p style=""font-size: 60px; font-family: BACS"">GJZmdUr</p>","","","","","","","","",""
"html-keyboard-response","235","443157","0.0-12.0-0.65","5e577e79ce30ae13226e61ae","650c16f0f2faf8d7a0d14c09","651c1e1e698d5e803271ef9c","null","null","<p style=""font-size: 60px; font-family: BACS"">lKdbcEKBO</p>","","","","","","","","",""
"html-keyboard-response","236","444161","0.0-12.0-0.66","5e577e79ce30ae13226e61ae","650c16f0f2faf8d7a0d14c09","651c1e1e698d5e803271ef9c","null","null","<p style=""font-size: 60px; font-family: BACS"">NJZldUr</p>","","","","","","","","",""
"html-keyboard-response","237","445166","0.0-12.0-0.67","5e577e79ce30ae13226e61ae","650c16f0f2faf8d7a0d14c09","651c1e1e698d5e803271ef9c","null","null","<p style=""font-size: 60px; font-family: BACS"">vuJZuGUOA</p>","","","","","","","","",""
"html-keyboard-response","238","446174","0.0-12.0-0.68","5e577e79ce30ae13226e61ae","650c16f0f2faf8d7a0d14c09","651c1e1e698d5e803271ef9c","null","null","<p style=""font-size: 60px; font-family: BACS"">KABAYDE</p>","","","","","","","","",""
"html-keyboard-response","239","447180","0.0-12.0-0.69","5e577e79ce30ae13226e61ae","650c16f0f2faf8d7a0d14c09","651c1e1e698d5e803271ef9c","null","null","<p style=""font-size: 60px; font-family: BACS"">BATOcTmTm</p>","","","","","","","","",""
"html-keyboard-response","240","448196","0.0-12.0-0.70","5e577e79ce30ae13226e61ae","650c16f0f2faf8d7a0d14c09","651c1e1e698d5e803271ef9c","null","null","<p style=""font-size: 60px; font-family: BACS"">lKdbcYDE</p>","","","","","","","","",""
"html-keyboard-response","241","449208","0.0-12.0-0.71","5e577e79ce30ae13226e61ae","650c16f0f2faf8d7a0d14c09","651c1e1e698d5e803271ef9c","null","null","<p style=""font-size: 60px; font-family: BACS"">GJZmrab</p>","","","","","","","","",""
"html-keyboard-response","242","450211","0.0-12.0-0.72","5e577e79ce30ae13226e61ae","650c16f0f2faf8d7a0d14c09","651c1e1e698d5e803271ef9c","null","null","<p style=""font-size: 60px; font-family: BACS"">bRABtTmTm</p>","","","","","","","","",""
"html-keyboard-response","243","451214","0.0-12.0-0.73","5e577e79ce30ae13226e61ae","650c16f0f2faf8d7a0d14c09","651c1e1e698d5e803271ef9c","null","null","<p style=""font-size: 60px; font-family: BACS"">TObCOTmc</p>","","","","","","","","",""
"html-keyboard-response","244","452229","0.0-12.0-0.74","5e577e79ce30ae13226e61ae","650c16f0f2faf8d7a0d14c09","651c1e1e698d5e803271ef9c","null","null","<p style=""font-size: 60px; font-family: BACS"">YlCPBTmTm</p>","","","","","","","","",""
"html-keyboard-response","245","453240","0.0-12.0-0.75","5e577e79ce30ae13226e61ae","650c16f0f2faf8d7a0d14c09","651c1e1e698d5e803271ef9c","null","null","<p style=""font-size: 60px; font-family: BACS"">NJZlrab</p>","","","","","","","","",""
"html-keyboard-response","246","454243","0.0-12.0-0.76","5e577e79ce30ae13226e61ae","650c16f0f2faf8d7a0d14c09","651c1e1e698d5e803271ef9c","null","null","<p style=""font-size: 60px; font-family: BACS"">rckOGUOA</p>","","","","","","","","",""
"html-keyboard-response","247","455259","0.0-12.0-0.77","5e577e79ce30ae13226e61ae","650c16f0f2faf8d7a0d14c09","651c1e1e698d5e803271ef9c","null","null","<p style=""font-size: 60px; font-family: BACS"">mARMEKBO</p>","","","","","","","","",""
"html-keyboard-response","248","456275","0.0-12.0-0.78","5e577e79ce30ae13226e61ae","650c16f0f2faf8d7a0d14c09","651c1e1e698d5e803271ef9c","null","null","<p style=""font-size: 60px; font-family: BACS"">hbmAYDE</p>","","","","","","","","",""
"html-keyboard-response","249","457291","0.0-12.0-0.79","5e577e79ce30ae13226e61ae","650c16f0f2faf8d7a0d14c09","651c1e1e698d5e803271ef9c","null","null","<p style=""font-size: 60px; font-family: BACS"">GJZmkuvb</p>","","","","","","","","",""
"html-keyboard-response","250","468982","0.0-13.0","5e577e79ce30ae13226e61ae","650c16f0f2faf8d7a0d14c09","651c1e1e698d5e803271ef9c","11691"," ","<p>Great, you've seen the third block of words. You may now take a short break.</p>
      <p>Press the spacebar when you're ready to continue.</p>","","","","","","","","",""
"html-keyboard-response","251","469998","0.0-14.0-0.0","5e577e79ce30ae13226e61ae","650c16f0f2faf8d7a0d14c09","651c1e1e698d5e803271ef9c","null","null","<p style=""font-size: 60px; font-family: BACS"">BATOcTmTm</p>","","","","","","","","",""
"html-keyboard-response","252","471004","0.0-14.0-0.1","5e577e79ce30ae13226e61ae","650c16f0f2faf8d7a0d14c09","651c1e1e698d5e803271ef9c","null","null","<p style=""font-size: 60px; font-family: BACS"">ckduAdUr</p>","","","","","","","","",""
"html-keyboard-response","253","472017","0.0-14.0-0.2","5e577e79ce30ae13226e61ae","650c16f0f2faf8d7a0d14c09","651c1e1e698d5e803271ef9c","null","null","<p style=""font-size: 60px; font-family: BACS"">rckOUdvY</p>","","","","","","","","",""
"html-keyboard-response","254","473033","0.0-14.0-0.3","5e577e79ce30ae13226e61ae","650c16f0f2faf8d7a0d14c09","651c1e1e698d5e803271ef9c","null","null","<p style=""font-size: 60px; font-family: BACS"">mARMYDE</p>","","","","","","","","",""
"html-keyboard-response","255","474038","0.0-14.0-0.4","5e577e79ce30ae13226e61ae","650c16f0f2faf8d7a0d14c09","651c1e1e698d5e803271ef9c","null","null","<p style=""font-size: 60px; font-family: BACS"">AdDbEKBO</p>","","","","","","","","",""
"html-keyboard-response","256","475042","0.0-14.0-0.5","5e577e79ce30ae13226e61ae","650c16f0f2faf8d7a0d14c09","651c1e1e698d5e803271ef9c","null","null","<p style=""font-size: 60px; font-family: BACS"">GJZmdUr</p>","","","","","","","","",""
"html-keyboard-response","257","476059","0.0-14.0-0.6","5e577e79ce30ae13226e61ae","650c16f0f2faf8d7a0d14c09","651c1e1e698d5e803271ef9c","null","null","<p style=""font-size: 60px; font-family: BACS"">BATOcYDE</p>","","","","","","","","",""
"html-keyboard-response","258","477075","0.0-14.0-0.7","5e577e79ce30ae13226e61ae","650c16f0f2faf8d7a0d14c09","651c1e1e698d5e803271ef9c","null","null","<p style=""font-size: 60px; font-family: BACS"">rLaZkuvb</p>","","","","","","","","",""
"html-keyboard-response","259","478091","0.0-14.0-0.8","5e577e79ce30ae13226e61ae","650c16f0f2faf8d7a0d14c09","651c1e1e698d5e803271ef9c","null","null","<p style=""font-size: 60px; font-family: BACS"">mARMEcR</p>","","","","","","","","",""
"html-keyboard-response","260","479107","0.0-14.0-0.9","5e577e79ce30ae13226e61ae","650c16f0f2faf8d7a0d14c09","651c1e1e698d5e803271ef9c","null","null","<p style=""font-size: 60px; font-family: BACS"">ldAarab</p>","","","","","","","","",""
"html-keyboard-response","261","480121","0.0-14.0-0.10","5e577e79ce30ae13226e61ae","650c16f0f2faf8d7a0d14c09","651c1e1e698d5e803271ef9c","null","null","<p style=""font-size: 60px; font-family: BACS"">BATOcTmc</p>","","","","","","","","",""
"html-keyboard-response","262","481134","0.0-14.0-0.11","5e577e79ce30ae13226e61ae","650c16f0f2faf8d7a0d14c09","651c1e1e698d5e803271ef9c","null","null","<p style=""font-size: 60px; font-family: BACS"">PCMPKTmTm</p>","","","","","","","","",""
"html-keyboard-response","263","482151","0.0-14.0-0.12","5e577e79ce30ae13226e61ae","650c16f0f2faf8d7a0d14c09","651c1e1e698d5e803271ef9c","null","null","<p style=""font-size: 60px; font-family: BACS"">ldAakuvb</p>","","","","","","","","",""
"html-keyboard-response","264","483168","0.0-14.0-0.13","5e577e79ce30ae13226e61ae","650c16f0f2faf8d7a0d14c09","651c1e1e698d5e803271ef9c","null","null","<p style=""font-size: 60px; font-family: BACS"">udkmUdvY</p>","","","","","","","","",""
"html-keyboard-response","265","484184","0.0-14.0-0.14","5e577e79ce30ae13226e61ae","650c16f0f2faf8d7a0d14c09","651c1e1e698d5e803271ef9c","null","null","<p style=""font-size: 60px; font-family: BACS"">lKdbcYDE</p>","","","","","","","","",""
"html-keyboard-response","266","485199","0.0-14.0-0.15","5e577e79ce30ae13226e61ae","650c16f0f2faf8d7a0d14c09","651c1e1e698d5e803271ef9c","null","null","<p style=""font-size: 60px; font-family: BACS"">AdDbTmTm</p>","","","","","","","","",""
"html-keyboard-response","267","486212","0.0-14.0-0.16","5e577e79ce30ae13226e61ae","650c16f0f2faf8d7a0d14c09","651c1e1e698d5e803271ef9c","null","null","<p style=""font-size: 60px; font-family: BACS"">TObCOEKBO</p>","","","","","","","","",""
"html-keyboard-response","268","487227","0.0-14.0-0.17","5e577e79ce30ae13226e61ae","650c16f0f2faf8d7a0d14c09","651c1e1e698d5e803271ef9c","null","null","<p style=""font-size: 60px; font-family: BACS"">KABAEcR</p>","","","","","","","","",""
"html-keyboard-response","269","488231","0.0-14.0-0.18","5e577e79ce30ae13226e61ae","650c16f0f2faf8d7a0d14c09","651c1e1e698d5e803271ef9c","null","null","<p style=""font-size: 60px; font-family: BACS"">bRABtEKBO</p>","","","","","","","","",""
"html-keyboard-response","270","489241","0.0-14.0-0.19","5e577e79ce30ae13226e61ae","650c16f0f2faf8d7a0d14c09","651c1e1e698d5e803271ef9c","null","null","<p style=""font-size: 60px; font-family: BACS"">hbmATmc</p>","","","","","","","","",""
"html-keyboard-response","271","490257","0.0-14.0-0.20","5e577e79ce30ae13226e61ae","650c16f0f2faf8d7a0d14c09","651c1e1e698d5e803271ef9c","null","null","<p style=""font-size: 60px; font-family: BACS"">lKdbcTmTm</p>","","","","","","","","",""
"html-keyboard-response","272","491272","0.0-14.0-0.21","5e577e79ce30ae13226e61ae","650c16f0f2faf8d7a0d14c09","651c1e1e698d5e803271ef9c","null","null","<p style=""font-size: 60px; font-family: BACS"">PCMPKTmc</p>","","","","","","","","",""
"html-keyboard-response","273","492288","0.0-14.0-0.22","5e577e79ce30ae13226e61ae","650c16f0f2faf8d7a0d14c09","651c1e1e698d5e803271ef9c","null","null","<p style=""font-size: 60px; font-family: BACS"">dNZAGUOA</p>","","","","","","","","",""
"html-keyboard-response","274","493292","0.0-14.0-0.23","5e577e79ce30ae13226e61ae","650c16f0f2faf8d7a0d14c09","651c1e1e698d5e803271ef9c","null","null","<p style=""font-size: 60px; font-family: BACS"">bRABtEcR</p>","","","","","","","","",""
"html-keyboard-response","275","494307","0.0-14.0-0.24","5e577e79ce30ae13226e61ae","650c16f0f2faf8d7a0d14c09","651c1e1e698d5e803271ef9c","null","null","<p style=""font-size: 60px; font-family: BACS"">vuJZudUr</p>","","","","","","","","",""
"html-keyboard-response","276","495308","0.0-14.0-0.25","5e577e79ce30ae13226e61ae","650c16f0f2faf8d7a0d14c09","651c1e1e698d5e803271ef9c","null","null","<p style=""font-size: 60px; font-family: BACS"">mARMEKBO</p>","","","","","","","","",""
"html-keyboard-response","277","496325","0.0-14.0-0.26","5e577e79ce30ae13226e61ae","650c16f0f2faf8d7a0d14c09","651c1e1e698d5e803271ef9c","null","null","<p style=""font-size: 60px; font-family: BACS"">YlCPBTmTm</p>","","","","","","","","",""
"html-keyboard-response","278","497340","0.0-14.0-0.27","5e577e79ce30ae13226e61ae","650c16f0f2faf8d7a0d14c09","651c1e1e698d5e803271ef9c","null","null","<p style=""font-size: 60px; font-family: BACS"">AdDbTmc</p>","","","","","","","","",""
"html-keyboard-response","279","498343","0.0-14.0-0.28","5e577e79ce30ae13226e61ae","650c16f0f2faf8d7a0d14c09","651c1e1e698d5e803271ef9c","null","null","<p style=""font-size: 60px; font-family: BACS"">ckduAGUOA</p>","","","","","","","","",""
"html-keyboard-response","280","499347","0.0-14.0-0.29","5e577e79ce30ae13226e61ae","650c16f0f2faf8d7a0d14c09","651c1e1e698d5e803271ef9c","null","null","<p style=""font-size: 60px; font-family: BACS"">ldAaUdvY</p>","","","","","","","","",""
"html-keyboard-response","281","500352","0.0-14.0-0.30","5e577e79ce30ae13226e61ae","650c16f0f2faf8d7a0d14c09","651c1e1e698d5e803271ef9c","null","null","<p style=""font-size: 60px; font-family: BACS"">NJZlGUOA</p>","","","","","","","","",""
"html-keyboard-response","282","501354","0.0-14.0-0.31","5e577e79ce30ae13226e61ae","650c16f0f2faf8d7a0d14c09","651c1e1e698d5e803271ef9c","null","null","<p style=""font-size: 60px; font-family: BACS"">hbmATmTm</p>","","","","","","","","",""
"html-keyboard-response","283","502357","0.0-14.0-0.32","5e577e79ce30ae13226e61ae","650c16f0f2faf8d7a0d14c09","651c1e1e698d5e803271ef9c","null","null","<p style=""font-size: 60px; font-family: BACS"">udkmdUr</p>","","","","","","","","",""
"html-keyboard-response","284","503358","0.0-14.0-0.33","5e577e79ce30ae13226e61ae","650c16f0f2faf8d7a0d14c09","651c1e1e698d5e803271ef9c","null","null","<p style=""font-size: 60px; font-family: BACS"">NJZlkuvb</p>","","","","","","","","",""
"html-keyboard-response","285","504369","0.0-14.0-0.34","5e577e79ce30ae13226e61ae","650c16f0f2faf8d7a0d14c09","651c1e1e698d5e803271ef9c","null","null","<p style=""font-size: 60px; font-family: BACS"">ldAadUr</p>","","","","","","","","",""
"html-keyboard-response","286","505376","0.0-14.0-0.35","5e577e79ce30ae13226e61ae","650c16f0f2faf8d7a0d14c09","651c1e1e698d5e803271ef9c","null","null","<p style=""font-size: 60px; font-family: BACS"">ckduAUdvY</p>","","","","","","","","",""
"html-keyboard-response","287","506390","0.0-14.0-0.36","5e577e79ce30ae13226e61ae","650c16f0f2faf8d7a0d14c09","651c1e1e698d5e803271ef9c","null","null","<p style=""font-size: 60px; font-family: BACS"">udkmrab</p>","","","","","","","","",""
"html-keyboard-response","288","507393","0.0-14.0-0.37","5e577e79ce30ae13226e61ae","650c16f0f2faf8d7a0d14c09","651c1e1e698d5e803271ef9c","null","null","<p style=""font-size: 60px; font-family: BACS"">mARMTmc</p>","","","","","","","","",""
"html-keyboard-response","289","508397","0.0-14.0-0.38","5e577e79ce30ae13226e61ae","650c16f0f2faf8d7a0d14c09","651c1e1e698d5e803271ef9c","null","null","<p style=""font-size: 60px; font-family: BACS"">rckOGUOA</p>","","","","","","","","",""
"html-keyboard-response","290","509402","0.0-14.0-0.39","5e577e79ce30ae13226e61ae","650c16f0f2faf8d7a0d14c09","651c1e1e698d5e803271ef9c","null","null","<p style=""font-size: 60px; font-family: BACS"">JAdLmdUr</p>","","","","","","","","",""
"html-keyboard-response","291","510416","0.0-14.0-0.40","5e577e79ce30ae13226e61ae","650c16f0f2faf8d7a0d14c09","651c1e1e698d5e803271ef9c","null","null","<p style=""font-size: 60px; font-family: BACS"">YlCPBEcR</p>","","","","","","","","",""
"html-keyboard-response","292","511418","0.0-14.0-0.41","5e577e79ce30ae13226e61ae","650c16f0f2faf8d7a0d14c09","651c1e1e698d5e803271ef9c","null","null","<p style=""font-size: 60px; font-family: BACS"">KABAEKBO</p>","","","","","","","","",""
"html-keyboard-response","293","512435","0.0-14.0-0.42","5e577e79ce30ae13226e61ae","650c16f0f2faf8d7a0d14c09","651c1e1e698d5e803271ef9c","null","null","<p style=""font-size: 60px; font-family: BACS"">dNZArab</p>","","","","","","","","",""
"html-keyboard-response","294","513442","0.0-14.0-0.43","5e577e79ce30ae13226e61ae","650c16f0f2faf8d7a0d14c09","651c1e1e698d5e803271ef9c","null","null","<p style=""font-size: 60px; font-family: BACS"">GJZmkuvb</p>","","","","","","","","",""
"html-keyboard-response","295","514458","0.0-14.0-0.44","5e577e79ce30ae13226e61ae","650c16f0f2faf8d7a0d14c09","651c1e1e698d5e803271ef9c","null","null","<p style=""font-size: 60px; font-family: BACS"">PCMPKEcR</p>","","","","","","","","",""
"html-keyboard-response","296","515473","0.0-14.0-0.45","5e577e79ce30ae13226e61ae","650c16f0f2faf8d7a0d14c09","651c1e1e698d5e803271ef9c","null","null","<p style=""font-size: 60px; font-family: BACS"">YlCPBYDE</p>","","","","","","","","",""
"html-keyboard-response","297","516488","0.0-14.0-0.46","5e577e79ce30ae13226e61ae","650c16f0f2faf8d7a0d14c09","651c1e1e698d5e803271ef9c","null","null","<p style=""font-size: 60px; font-family: BACS"">vuJZuGUOA</p>","","","","","","","","",""
"html-keyboard-response","298","517490","0.0-14.0-0.47","5e577e79ce30ae13226e61ae","650c16f0f2faf8d7a0d14c09","651c1e1e698d5e803271ef9c","null","null","<p style=""font-size: 60px; font-family: BACS"">KABATmc</p>","","","","","","","","",""
"html-keyboard-response","299","518504","0.0-14.0-0.48","5e577e79ce30ae13226e61ae","650c16f0f2faf8d7a0d14c09","651c1e1e698d5e803271ef9c","null","null","<p style=""font-size: 60px; font-family: BACS"">JAdLmUdvY</p>","","","","","","","","",""
"html-keyboard-response","300","519507","0.0-14.0-0.49","5e577e79ce30ae13226e61ae","650c16f0f2faf8d7a0d14c09","651c1e1e698d5e803271ef9c","null","null","<p style=""font-size: 60px; font-family: BACS"">GJZmrab</p>","","","","","","","","",""
"html-keyboard-response","301","520523","0.0-14.0-0.50","5e577e79ce30ae13226e61ae","650c16f0f2faf8d7a0d14c09","651c1e1e698d5e803271ef9c","null","null","<p style=""font-size: 60px; font-family: BACS"">KABAYDE</p>","","","","","","","","",""
"html-keyboard-response","302","521525","0.0-14.0-0.51","5e577e79ce30ae13226e61ae","650c16f0f2faf8d7a0d14c09","651c1e1e698d5e803271ef9c","null","null","<p style=""font-size: 60px; font-family: BACS"">lKdbcEcR</p>","","","","","","","","",""
"html-keyboard-response","303","522526","0.0-14.0-0.52","5e577e79ce30ae13226e61ae","650c16f0f2faf8d7a0d14c09","651c1e1e698d5e803271ef9c","null","null","<p style=""font-size: 60px; font-family: BACS"">bRABtYDE</p>","","","","","","","","",""
"html-keyboard-response","304","523534","0.0-14.0-0.53","5e577e79ce30ae13226e61ae","650c16f0f2faf8d7a0d14c09","651c1e1e698d5e803271ef9c","null","null","<p style=""font-size: 60px; font-family: BACS"">rckOrab</p>","","","","","","","","",""
"html-keyboard-response","305","524538","0.0-14.0-0.54","5e577e79ce30ae13226e61ae","650c16f0f2faf8d7a0d14c09","651c1e1e698d5e803271ef9c","null","null","<p style=""font-size: 60px; font-family: BACS"">JAdLmGUOA</p>","","","","","","","","",""
"html-keyboard-response","306","525541","0.0-14.0-0.55","5e577e79ce30ae13226e61ae","650c16f0f2faf8d7a0d14c09","651c1e1e698d5e803271ef9c","null","null","<p style=""font-size: 60px; font-family: BACS"">BATOcEcR</p>","","","","","","","","",""
"html-keyboard-response","307","526546","0.0-14.0-0.56","5e577e79ce30ae13226e61ae","650c16f0f2faf8d7a0d14c09","651c1e1e698d5e803271ef9c","null","null","<p style=""font-size: 60px; font-family: BACS"">vuJZuUdvY</p>","","","","","","","","",""
"html-keyboard-response","308","527558","0.0-14.0-0.57","5e577e79ce30ae13226e61ae","650c16f0f2faf8d7a0d14c09","651c1e1e698d5e803271ef9c","null","null","<p style=""font-size: 60px; font-family: BACS"">NJZldUr</p>","","","","","","","","",""
"html-keyboard-response","309","528571","0.0-14.0-0.58","5e577e79ce30ae13226e61ae","650c16f0f2faf8d7a0d14c09","651c1e1e698d5e803271ef9c","null","null","<p style=""font-size: 60px; font-family: BACS"">lKdbcEKBO</p>","","","","","","","","",""
"html-keyboard-response","310","529575","0.0-14.0-0.59","5e577e79ce30ae13226e61ae","650c16f0f2faf8d7a0d14c09","651c1e1e698d5e803271ef9c","null","null","<p style=""font-size: 60px; font-family: BACS"">bRABtTmTm</p>","","","","","","","","",""
"html-keyboard-response","311","530592","0.0-14.0-0.60","5e577e79ce30ae13226e61ae","650c16f0f2faf8d7a0d14c09","651c1e1e698d5e803271ef9c","null","null","<p style=""font-size: 60px; font-family: BACS"">hbmAYDE</p>","","","","","","","","",""
"html-keyboard-response","312","531597","0.0-14.0-0.61","5e577e79ce30ae13226e61ae","650c16f0f2faf8d7a0d14c09","651c1e1e698d5e803271ef9c","null","null","<p style=""font-size: 60px; font-family: BACS"">TObCOEcR</p>","","","","","","","","",""
"html-keyboard-response","313","532601","0.0-14.0-0.62","5e577e79ce30ae13226e61ae","650c16f0f2faf8d7a0d14c09","651c1e1e698d5e803271ef9c","null","null","<p style=""font-size: 60px; font-family: BACS"">YlCPBTmc</p>","","","","","","","","",""
"html-keyboard-response","314","533617","0.0-14.0-0.63","5e577e79ce30ae13226e61ae","650c16f0f2faf8d7a0d14c09","651c1e1e698d5e803271ef9c","null","null","<p style=""font-size: 60px; font-family: BACS"">vuJZukuvb</p>","","","","","","","","",""
"html-keyboard-response","315","534622","0.0-14.0-0.64","5e577e79ce30ae13226e61ae","650c16f0f2faf8d7a0d14c09","651c1e1e698d5e803271ef9c","null","null","<p style=""font-size: 60px; font-family: BACS"">NJZlrab</p>","","","","","","","","",""
"html-keyboard-response","316","535638","0.0-14.0-0.65","5e577e79ce30ae13226e61ae","650c16f0f2faf8d7a0d14c09","651c1e1e698d5e803271ef9c","null","null","<p style=""font-size: 60px; font-family: BACS"">PCMPKEKBO</p>","","","","","","","","",""
"html-keyboard-response","317","536655","0.0-14.0-0.66","5e577e79ce30ae13226e61ae","650c16f0f2faf8d7a0d14c09","651c1e1e698d5e803271ef9c","null","null","<p style=""font-size: 60px; font-family: BACS"">AdDbYDE</p>","","","","","","","","",""
"html-keyboard-response","318","537670","0.0-14.0-0.67","5e577e79ce30ae13226e61ae","650c16f0f2faf8d7a0d14c09","651c1e1e698d5e803271ef9c","null","null","<p style=""font-size: 60px; font-family: BACS"">dNZAUdvY</p>","","","","","","","","",""
"html-keyboard-response","319","538676","0.0-14.0-0.68","5e577e79ce30ae13226e61ae","650c16f0f2faf8d7a0d14c09","651c1e1e698d5e803271ef9c","null","null","<p style=""font-size: 60px; font-family: BACS"">TObCOTmTm</p>","","","","","","","","",""
"html-keyboard-response","320","539693","0.0-14.0-0.69","5e577e79ce30ae13226e61ae","650c16f0f2faf8d7a0d14c09","651c1e1e698d5e803271ef9c","null","null","<p style=""font-size: 60px; font-family: BACS"">rLaZdUr</p>","","","","","","","","",""
"html-keyboard-response","321","540707","0.0-14.0-0.70","5e577e79ce30ae13226e61ae","650c16f0f2faf8d7a0d14c09","651c1e1e698d5e803271ef9c","null","null","<p style=""font-size: 60px; font-family: BACS"">rckOkuvb</p>","","","","","","","","",""
"html-keyboard-response","322","541710","0.0-14.0-0.71","5e577e79ce30ae13226e61ae","650c16f0f2faf8d7a0d14c09","651c1e1e698d5e803271ef9c","null","null","<p style=""font-size: 60px; font-family: BACS"">ckduArab</p>","","","","","","","","",""
"html-keyboard-response","323","542713","0.0-14.0-0.72","5e577e79ce30ae13226e61ae","650c16f0f2faf8d7a0d14c09","651c1e1e698d5e803271ef9c","null","null","<p style=""font-size: 60px; font-family: BACS"">JAdLmkuvb</p>","","","","","","","","",""
"html-keyboard-response","324","543716","0.0-14.0-0.73","5e577e79ce30ae13226e61ae","650c16f0f2faf8d7a0d14c09","651c1e1e698d5e803271ef9c","null","null","<p style=""font-size: 60px; font-family: BACS"">rLaZGUOA</p>","","","","","","","","",""
"html-keyboard-response","325","544728","0.0-14.0-0.74","5e577e79ce30ae13226e61ae","650c16f0f2faf8d7a0d14c09","651c1e1e698d5e803271ef9c","null","null","<p style=""font-size: 60px; font-family: BACS"">dNZAkuvb</p>","","","","","","","","",""
"html-keyboard-response","326","545741","0.0-14.0-0.75","5e577e79ce30ae13226e61ae","650c16f0f2faf8d7a0d14c09","651c1e1e698d5e803271ef9c","null","null","<p style=""font-size: 60px; font-family: BACS"">udkmGUOA</p>","","","","","","","","",""
"html-keyboard-response","327","546745","0.0-14.0-0.76","5e577e79ce30ae13226e61ae","650c16f0f2faf8d7a0d14c09","651c1e1e698d5e803271ef9c","null","null","<p style=""font-size: 60px; font-family: BACS"">hbmAEKBO</p>","","","","","","","","",""
"html-keyboard-response","328","547757","0.0-14.0-0.77","5e577e79ce30ae13226e61ae","650c16f0f2faf8d7a0d14c09","651c1e1e698d5e803271ef9c","null","null","<p style=""font-size: 60px; font-family: BACS"">TObCOTmc</p>","","","","","","","","",""
"html-keyboard-response","329","548760","0.0-14.0-0.78","5e577e79ce30ae13226e61ae","650c16f0f2faf8d7a0d14c09","651c1e1e698d5e803271ef9c","null","null","<p style=""font-size: 60px; font-family: BACS"">GJZmUdvY</p>","","","","","","","","",""
"html-keyboard-response","330","549764","0.0-14.0-0.79","5e577e79ce30ae13226e61ae","650c16f0f2faf8d7a0d14c09","651c1e1e698d5e803271ef9c","null","null","<p style=""font-size: 60px; font-family: BACS"">rLaZrab</p>","","","","","","","","",""
"html-keyboard-response","331","556506","0.0-15.0","5e577e79ce30ae13226e61ae","650c16f0f2faf8d7a0d14c09","651c1e1e698d5e803271ef9c","6739"," ","<p>Great, you've seen the fourth block of words. You may now take a short break.</p>
      <p>Press the spacebar when you're ready to continue.</p>","","","","","","","","",""
"html-keyboard-response","332","557521","0.0-16.0-0.0","5e577e79ce30ae13226e61ae","650c16f0f2faf8d7a0d14c09","651c1e1e698d5e803271ef9c","null","null","<p style=""font-size: 60px; font-family: BACS"">KABAYDE</p>","","","","","","","","",""
"html-keyboard-response","333","558538","0.0-16.0-0.1","5e577e79ce30ae13226e61ae","650c16f0f2faf8d7a0d14c09","651c1e1e698d5e803271ef9c","null","null","<p style=""font-size: 60px; font-family: BACS"">KABAYDE</p>","","","","","","","","",""
"html-keyboard-response","334","559554","0.0-16.0-0.2","5e577e79ce30ae13226e61ae","650c16f0f2faf8d7a0d14c09","651c1e1e698d5e803271ef9c","null","null","<p style=""font-size: 60px; font-family: BACS"">KABAYDE</p>","","","","","","","","",""
"html-keyboard-response","335","560556","0.0-16.0-0.3","5e577e79ce30ae13226e61ae","650c16f0f2faf8d7a0d14c09","651c1e1e698d5e803271ef9c","null","null","<p style=""font-size: 60px; font-family: BACS"">KABAYDE</p>","","","","","","","","",""
"html-keyboard-response","336","561570","0.0-16.0-0.4","5e577e79ce30ae13226e61ae","650c16f0f2faf8d7a0d14c09","651c1e1e698d5e803271ef9c","null","null","<p style=""font-size: 60px; font-family: BACS"">KABAYDE</p>","","","","","","","","",""
"html-keyboard-response","337","562575","0.0-16.0-0.5","5e577e79ce30ae13226e61ae","650c16f0f2faf8d7a0d14c09","651c1e1e698d5e803271ef9c","null","null","<p style=""font-size: 60px; font-family: BACS"">KABAYDE</p>","","","","","","","","",""
"html-keyboard-response","338","563577","0.0-16.0-0.6","5e577e79ce30ae13226e61ae","650c16f0f2faf8d7a0d14c09","651c1e1e698d5e803271ef9c","null","null","<p style=""font-size: 60px; font-family: BACS"">KABAYDE</p>","","","","","","","","",""
"html-keyboard-response","339","564590","0.0-16.0-0.7","5e577e79ce30ae13226e61ae","650c16f0f2faf8d7a0d14c09","651c1e1e698d5e803271ef9c","null","null","<p style=""font-size: 60px; font-family: BACS"">KABAYDE</p>","","","","","","","","",""
"html-keyboard-response","340","565601","0.0-16.0-0.8","5e577e79ce30ae13226e61ae","650c16f0f2faf8d7a0d14c09","651c1e1e698d5e803271ef9c","null","null","<p style=""font-size: 60px; font-family: BACS"">KABAYDE</p>","","","","","","","","",""
"html-keyboard-response","341","566607","0.0-16.0-0.9","5e577e79ce30ae13226e61ae","650c16f0f2faf8d7a0d14c09","651c1e1e698d5e803271ef9c","null","null","<p style=""font-size: 60px; font-family: BACS"">KABAYDE</p>","","","","","","","","",""
"html-keyboard-response","342","567611","0.0-16.0-0.10","5e577e79ce30ae13226e61ae","650c16f0f2faf8d7a0d14c09","651c1e1e698d5e803271ef9c","null","null","<p style=""font-size: 60px; font-family: BACS"">KABAYDE</p>","","","","","","","","",""
"html-keyboard-response","343","568618","0.0-16.0-0.11","5e577e79ce30ae13226e61ae","650c16f0f2faf8d7a0d14c09","651c1e1e698d5e803271ef9c","null","null","<p style=""font-size: 60px; font-family: BACS"">KABAYDE</p>","","","","","","","","",""
"html-keyboard-response","344","569627","0.0-16.0-0.12","5e577e79ce30ae13226e61ae","650c16f0f2faf8d7a0d14c09","651c1e1e698d5e803271ef9c","null","null","<p style=""font-size: 60px; font-family: BACS"">KABAYDE</p>","","","","","","","","",""
"html-keyboard-response","345","570633","0.0-16.0-0.13","5e577e79ce30ae13226e61ae","650c16f0f2faf8d7a0d14c09","651c1e1e698d5e803271ef9c","null","null","<p style=""font-size: 60px; font-family: BACS"">KABAYDE</p>","","","","","","","","",""
"html-keyboard-response","346","571646","0.0-16.0-0.14","5e577e79ce30ae13226e61ae","650c16f0f2faf8d7a0d14c09","651c1e1e698d5e803271ef9c","null","null","<p style=""font-size: 60px; font-family: BACS"">KABAYDE</p>","","","","","","","","",""
"html-keyboard-response","347","572663","0.0-16.0-0.15","5e577e79ce30ae13226e61ae","650c16f0f2faf8d7a0d14c09","651c1e1e698d5e803271ef9c","null","null","<p style=""font-size: 60px; font-family: BACS"">KABAYDE</p>","","","","","","","","",""
"html-keyboard-response","348","573676","0.0-16.0-0.16","5e577e79ce30ae13226e61ae","650c16f0f2faf8d7a0d14c09","651c1e1e698d5e803271ef9c","null","null","<p style=""font-size: 60px; font-family: BACS"">KABAYDE</p>","","","","","","","","",""
"html-keyboard-response","349","574692","0.0-16.0-0.17","5e577e79ce30ae13226e61ae","650c16f0f2faf8d7a0d14c09","651c1e1e698d5e803271ef9c","null","null","<p style=""font-size: 60px; font-family: BACS"">KABAYDE</p>","","","","","","","","",""
"html-keyboard-response","350","575709","0.0-16.0-0.18","5e577e79ce30ae13226e61ae","650c16f0f2faf8d7a0d14c09","651c1e1e698d5e803271ef9c","null","null","<p style=""font-size: 60px; font-family: BACS"">KABAYDE</p>","","","","","","","","",""
"html-keyboard-response","351","576725","0.0-16.0-0.19","5e577e79ce30ae13226e61ae","650c16f0f2faf8d7a0d14c09","651c1e1e698d5e803271ef9c","null","null","<p style=""font-size: 60px; font-family: BACS"">KABAYDE</p>","","","","","","","","",""
"html-keyboard-response","352","577742","0.0-16.0-0.20","5e577e79ce30ae13226e61ae","650c16f0f2faf8d7a0d14c09","651c1e1e698d5e803271ef9c","null","null","<p style=""font-size: 60px; font-family: BACS"">KABAYDE</p>","","","","","","","","",""
"html-keyboard-response","353","578757","0.0-16.0-0.21","5e577e79ce30ae13226e61ae","650c16f0f2faf8d7a0d14c09","651c1e1e698d5e803271ef9c","null","null","<p style=""font-size: 60px; font-family: BACS"">KABAYDE</p>","","","","","","","","",""
"html-keyboard-response","354","579770","0.0-16.0-0.22","5e577e79ce30ae13226e61ae","650c16f0f2faf8d7a0d14c09","651c1e1e698d5e803271ef9c","null","null","<p style=""font-size: 60px; font-family: BACS"">KABAYDE</p>","","","","","","","","",""
"html-keyboard-response","355","580786","0.0-16.0-0.23","5e577e79ce30ae13226e61ae","650c16f0f2faf8d7a0d14c09","651c1e1e698d5e803271ef9c","null","null","<p style=""font-size: 60px; font-family: BACS"">KABAYDE</p>","","","","","","","","",""
"html-keyboard-response","356","581802","0.0-16.0-0.24","5e577e79ce30ae13226e61ae","650c16f0f2faf8d7a0d14c09","651c1e1e698d5e803271ef9c","null","null","<p style=""font-size: 60px; font-family: BACS"">KABAYDE</p>","","","","","","","","",""
"html-keyboard-response","357","582818","0.0-16.0-0.25","5e577e79ce30ae13226e61ae","650c16f0f2faf8d7a0d14c09","651c1e1e698d5e803271ef9c","null","null","<p style=""font-size: 60px; font-family: BACS"">KABAYDE</p>","","","","","","","","",""
"html-keyboard-response","358","583833","0.0-16.0-0.26","5e577e79ce30ae13226e61ae","650c16f0f2faf8d7a0d14c09","651c1e1e698d5e803271ef9c","null","null","<p style=""font-size: 60px; font-family: BACS"">KABAYDE</p>","","","","","","","","",""
"html-keyboard-response","359","584846","0.0-16.0-0.27","5e577e79ce30ae13226e61ae","650c16f0f2faf8d7a0d14c09","651c1e1e698d5e803271ef9c","null","null","<p style=""font-size: 60px; font-family: BACS"">KABAYDE</p>","","","","","","","","",""
"html-keyboard-response","360","585847","0.0-16.0-0.28","5e577e79ce30ae13226e61ae","650c16f0f2faf8d7a0d14c09","651c1e1e698d5e803271ef9c","null","null","<p style=""font-size: 60px; font-family: BACS"">KABAYDE</p>","","","","","","","","",""
"html-keyboard-response","361","586860","0.0-16.0-0.29","5e577e79ce30ae13226e61ae","650c16f0f2faf8d7a0d14c09","651c1e1e698d5e803271ef9c","null","null","<p style=""font-size: 60px; font-family: BACS"">KABAYDE</p>","","","","","","","","",""
"html-keyboard-response","362","587875","0.0-16.0-0.30","5e577e79ce30ae13226e61ae","650c16f0f2faf8d7a0d14c09","651c1e1e698d5e803271ef9c","null","null","<p style=""font-size: 60px; font-family: BACS"">KABAYDE</p>","","","","","","","","",""
"html-keyboard-response","363","588890","0.0-16.0-0.31","5e577e79ce30ae13226e61ae","650c16f0f2faf8d7a0d14c09","651c1e1e698d5e803271ef9c","null","null","<p style=""font-size: 60px; font-family: BACS"">KABAYDE</p>","","","","","","","","",""
"html-keyboard-response","364","589903","0.0-16.0-0.32","5e577e79ce30ae13226e61ae","650c16f0f2faf8d7a0d14c09","651c1e1e698d5e803271ef9c","null","null","<p style=""font-size: 60px; font-family: BACS"">KABAYDE</p>","","","","","","","","",""
"html-keyboard-response","365","590905","0.0-16.0-0.33","5e577e79ce30ae13226e61ae","650c16f0f2faf8d7a0d14c09","651c1e1e698d5e803271ef9c","null","null","<p style=""font-size: 60px; font-family: BACS"">KABAYDE</p>","","","","","","","","",""
"html-keyboard-response","366","591917","0.0-16.0-0.34","5e577e79ce30ae13226e61ae","650c16f0f2faf8d7a0d14c09","651c1e1e698d5e803271ef9c","null","null","<p style=""font-size: 60px; font-family: BACS"">KABAYDE</p>","","","","","","","","",""
"html-keyboard-response","367","592934","0.0-16.0-0.35","5e577e79ce30ae13226e61ae","650c16f0f2faf8d7a0d14c09","651c1e1e698d5e803271ef9c","null","null","<p style=""font-size: 60px; font-family: BACS"">KABAYDE</p>","","","","","","","","",""
"html-keyboard-response","368","593936","0.0-16.0-0.36","5e577e79ce30ae13226e61ae","650c16f0f2faf8d7a0d14c09","651c1e1e698d5e803271ef9c","null","null","<p style=""font-size: 60px; font-family: BACS"">KABAYDE</p>","","","","","","","","",""
"html-keyboard-response","369","594950","0.0-16.0-0.37","5e577e79ce30ae13226e61ae","650c16f0f2faf8d7a0d14c09","651c1e1e698d5e803271ef9c","null","null","<p style=""font-size: 60px; font-family: BACS"">KABAYDE</p>","","","","","","","","",""
"html-keyboard-response","370","595967","0.0-16.0-0.38","5e577e79ce30ae13226e61ae","650c16f0f2faf8d7a0d14c09","651c1e1e698d5e803271ef9c","null","null","<p style=""font-size: 60px; font-family: BACS"">KABAYDE</p>","","","","","","","","",""
"html-keyboard-response","371","596982","0.0-16.0-0.39","5e577e79ce30ae13226e61ae","650c16f0f2faf8d7a0d14c09","651c1e1e698d5e803271ef9c","null","null","<p style=""font-size: 60px; font-family: BACS"">KABAYDE</p>","","","","","","","","",""
"html-keyboard-response","372","597984","0.0-16.0-0.40","5e577e79ce30ae13226e61ae","650c16f0f2faf8d7a0d14c09","651c1e1e698d5e803271ef9c","null","null","<p style=""font-size: 60px; font-family: BACS"">KABAYDE</p>","","","","","","","","",""
"html-keyboard-response","373","598986","0.0-16.0-0.41","5e577e79ce30ae13226e61ae","650c16f0f2faf8d7a0d14c09","651c1e1e698d5e803271ef9c","null","null","<p style=""font-size: 60px; font-family: BACS"">KABAYDE</p>","","","","","","","","",""
"html-keyboard-response","374","600000","0.0-16.0-0.42","5e577e79ce30ae13226e61ae","650c16f0f2faf8d7a0d14c09","651c1e1e698d5e803271ef9c","null","null","<p style=""font-size: 60px; font-family: BACS"">KABAYDE</p>","","","","","","","","",""
"html-keyboard-response","375","601015","0.0-16.0-0.43","5e577e79ce30ae13226e61ae","650c16f0f2faf8d7a0d14c09","651c1e1e698d5e803271ef9c","null","null","<p style=""font-size: 60px; font-family: BACS"">KABAYDE</p>","","","","","","","","",""
"html-keyboard-response","376","602031","0.0-16.0-0.44","5e577e79ce30ae13226e61ae","650c16f0f2faf8d7a0d14c09","651c1e1e698d5e803271ef9c","null","null","<p style=""font-size: 60px; font-family: BACS"">KABAYDE</p>","","","","","","","","",""
"html-keyboard-response","377","603046","0.0-16.0-0.45","5e577e79ce30ae13226e61ae","650c16f0f2faf8d7a0d14c09","651c1e1e698d5e803271ef9c","null","null","<p style=""font-size: 60px; font-family: BACS"">KABAYDE</p>","","","","","","","","",""
"html-keyboard-response","378","604052","0.0-16.0-0.46","5e577e79ce30ae13226e61ae","650c16f0f2faf8d7a0d14c09","651c1e1e698d5e803271ef9c","null","null","<p style=""font-size: 60px; font-family: BACS"">KABAYDE</p>","","","","","","","","",""
"html-keyboard-response","379","605066","0.0-16.0-0.47","5e577e79ce30ae13226e61ae","650c16f0f2faf8d7a0d14c09","651c1e1e698d5e803271ef9c","null","null","<p style=""font-size: 60px; font-family: BACS"">KABAYDE</p>","","","","","","","","",""
"html-keyboard-response","380","606081","0.0-16.0-0.48","5e577e79ce30ae13226e61ae","650c16f0f2faf8d7a0d14c09","651c1e1e698d5e803271ef9c","null","null","<p style=""font-size: 60px; font-family: BACS"">KABAYDE</p>","","","","","","","","",""
"html-keyboard-response","381","607084","0.0-16.0-0.49","5e577e79ce30ae13226e61ae","650c16f0f2faf8d7a0d14c09","651c1e1e698d5e803271ef9c","null","null","<p style=""font-size: 60px; font-family: BACS"">KABAYDE</p>","","","","","","","","",""
"html-keyboard-response","382","608100","0.0-16.0-0.50","5e577e79ce30ae13226e61ae","650c16f0f2faf8d7a0d14c09","651c1e1e698d5e803271ef9c","null","null","<p style=""font-size: 60px; font-family: BACS"">KABAYDE</p>","","","","","","","","",""
"html-keyboard-response","383","609115","0.0-16.0-0.51","5e577e79ce30ae13226e61ae","650c16f0f2faf8d7a0d14c09","651c1e1e698d5e803271ef9c","null","null","<p style=""font-size: 60px; font-family: BACS"">KABAYDE</p>","","","","","","","","",""
"html-keyboard-response","384","610131","0.0-16.0-0.52","5e577e79ce30ae13226e61ae","650c16f0f2faf8d7a0d14c09","651c1e1e698d5e803271ef9c","null","null","<p style=""font-size: 60px; font-family: BACS"">KABAYDE</p>","","","","","","","","",""
"html-keyboard-response","385","611138","0.0-16.0-0.53","5e577e79ce30ae13226e61ae","650c16f0f2faf8d7a0d14c09","651c1e1e698d5e803271ef9c","null","null","<p style=""font-size: 60px; font-family: BACS"">KABAYDE</p>","","","","","","","","",""
"html-keyboard-response","386","612149","0.0-16.0-0.54","5e577e79ce30ae13226e61ae","650c16f0f2faf8d7a0d14c09","651c1e1e698d5e803271ef9c","null","null","<p style=""font-size: 60px; font-family: BACS"">KABAYDE</p>","","","","","","","","",""
"html-keyboard-response","387","613165","0.0-16.0-0.55","5e577e79ce30ae13226e61ae","650c16f0f2faf8d7a0d14c09","651c1e1e698d5e803271ef9c","null","null","<p style=""font-size: 60px; font-family: BACS"">KABAYDE</p>","","","","","","","","",""
"html-keyboard-response","388","614179","0.0-16.0-0.56","5e577e79ce30ae13226e61ae","650c16f0f2faf8d7a0d14c09","651c1e1e698d5e803271ef9c","null","null","<p style=""font-size: 60px; font-family: BACS"">KABAYDE</p>","","","","","","","","",""
"html-keyboard-response","389","615181","0.0-16.0-0.57","5e577e79ce30ae13226e61ae","650c16f0f2faf8d7a0d14c09","651c1e1e698d5e803271ef9c","null","null","<p style=""font-size: 60px; font-family: BACS"">KABAYDE</p>","","","","","","","","",""
"html-keyboard-response","390","616182","0.0-16.0-0.58","5e577e79ce30ae13226e61ae","650c16f0f2faf8d7a0d14c09","651c1e1e698d5e803271ef9c","null","null","<p style=""font-size: 60px; font-family: BACS"">KABAYDE</p>","","","","","","","","",""
"html-keyboard-response","391","617196","0.0-16.0-0.59","5e577e79ce30ae13226e61ae","650c16f0f2faf8d7a0d14c09","651c1e1e698d5e803271ef9c","null","null","<p style=""font-size: 60px; font-family: BACS"">KABAYDE</p>","","","","","","","","",""
"html-keyboard-response","392","618213","0.0-16.0-0.60","5e577e79ce30ae13226e61ae","650c16f0f2faf8d7a0d14c09","651c1e1e698d5e803271ef9c","null","null","<p style=""font-size: 60px; font-family: BACS"">KABAYDE</p>","","","","","","","","",""
"html-keyboard-response","393","619215","0.0-16.0-0.61","5e577e79ce30ae13226e61ae","650c16f0f2faf8d7a0d14c09","651c1e1e698d5e803271ef9c","null","null","<p style=""font-size: 60px; font-family: BACS"">KABAYDE</p>","","","","","","","","",""
"html-keyboard-response","394","620221","0.0-16.0-0.62","5e577e79ce30ae13226e61ae","650c16f0f2faf8d7a0d14c09","651c1e1e698d5e803271ef9c","null","null","<p style=""font-size: 60px; font-family: BACS"">KABAYDE</p>","","","","","","","","",""
"html-keyboard-response","395","621226","0.0-16.0-0.63","5e577e79ce30ae13226e61ae","650c16f0f2faf8d7a0d14c09","651c1e1e698d5e803271ef9c","null","null","<p style=""font-size: 60px; font-family: BACS"">KABAYDE</p>","","","","","","","","",""
"html-keyboard-response","396","622228","0.0-16.0-0.64","5e577e79ce30ae13226e61ae","650c16f0f2faf8d7a0d14c09","651c1e1e698d5e803271ef9c","null","null","<p style=""font-size: 60px; font-family: BACS"">KABAYDE</p>","","","","","","","","",""
"html-keyboard-response","397","623239","0.0-16.0-0.65","5e577e79ce30ae13226e61ae","650c16f0f2faf8d7a0d14c09","651c1e1e698d5e803271ef9c","null","null","<p style=""font-size: 60px; font-family: BACS"">KABAYDE</p>","","","","","","","","",""
"html-keyboard-response","398","624254","0.0-16.0-0.66","5e577e79ce30ae13226e61ae","650c16f0f2faf8d7a0d14c09","651c1e1e698d5e803271ef9c","null","null","<p style=""font-size: 60px; font-family: BACS"">KABAYDE</p>","","","","","","","","",""
