"trial_type","trial_index","time_elapsed","internal_node_id","subject_id","study_id","session_id","rt","response","stimulus","success","item","task","correct_response","testing_condition","correct","target","confound","name","view_history"
"pavlovia","0","538","0.0-0.0","610d2275ba5f1ee0fdcee3e8","650c16f0f2faf8d7a0d14c09","651c1d2ce7b1372d39070b2a","","","","","","","","","","","","",""
"survey-html-form","1","11432","0.0-1.0","610d2275ba5f1ee0fdcee3e8","650c16f0f2faf8d7a0d14c09","651c1d2ce7b1372d39070b2a","10893","{""ID"":""610d2275ba5f1ee0fdcee3e8""}","","","","","","","","","","",""
"html-keyboard-response","2","68094","0.0-2.0","610d2275ba5f1ee0fdcee3e8","650c16f0f2faf8d7a0d14c09","651c1d2ce7b1372d39070b2a","56661"," ","<p style=""font-size: 15px;"">Before beginning, we ask that you read the consent information and confirm your agreement to participate in the experiment.</p>
      <p style=""font-size: 15px;""> We ask that you remember that this is a research project and that your participation is entirely voluntary. You can stop your participation at any time, without needing to provide any explanation. The study we're asking you to participate in aims at examining how readers process written words. You will be engaged in a session of apprximately 20 minutes, followed by a brief questionnaire. You will have the opportunity to take a few breaks during the experiment. You will be paid £4 for your participation, corresponding to a rate of £8/hour. While this experiment looks at cognitive faculties, this experiment doesn't constitute clinical proof of eventual pathologies.</p>
      <p style=""font-size: 15px;"">All of the information collected thanks to yours and others' participation will be held in a secure password-protected server, and will not be shared with anyone not authorised to view it. Your personal information will be kept with an arbitrary participant ID. Thanks to this data anonymity process, any researcher analysing the data won't be able to track the information back to a specific participant. Therefore, this process will make identifying you impossibile, even when results from the study will be published in scientific reviews, presented at congresses, or at any other public forum. More generally, the collected data will be treated in accordance with the laws on privacy and conformity to the Legislative Degree n. 196 ""Code regarding the protection of personal data"" of the 30th of June 2003 and to the European Regulation 2016/670 (General Data Protection Regulation - GDPR). The Data Protection Officer is Avv. Valentina Carollo, who can be contacted at the following email addresses: <a href=""mailto:dpo@sissa.it"">dpo@sissa.it</a> or <a href=""mailto:rpd@sissa.it"">rpd@sissa.it</a> - PEC: <a href=""mailto:protocollo@pec.sissa.it"">protocollo@pec.sissa.it</a>.</p>
      <p style=""font-size: 15px;""> Before expressing your consent to participate, we would like to remind you again that in case you need explanations on any aspect of the experimental procedure, the researcher is at your disposition (<a href=""mailto:aliebelt@sissa.it"">aliebelt@sissa.it</a>, <a href=""mailto:davide.crepaldi@sissa.it"">davide.crepaldi@sissa.it</a>).</p>
      <p style=""font-size: 15px;"">If you would like to download the informed consent form, you can do so here: <a href=""BASL-Informed_Consent.pdf"" download>informed consent form</a>.</p>
      <p style=""font-size: 15px;"">We ask that you press the spacebar to proceed to the consent section.</p>","","","","","","","","","",""
"survey-html-form","3","106121","0.0-3.0","610d2275ba5f1ee0fdcee3e8","650c16f0f2faf8d7a0d14c09","651c1d2ce7b1372d39070b2a","38027","{""consent1"":""YES"",""consent2"":""YES"",""consent3"":""YES"",""consent4"":""YES"",""consent5"":""YES"",""consent6"":""YES""}","","","","","","","","","","",""
"fullscreen","4","184644","0.0-4.0","610d2275ba5f1ee0fdcee3e8","650c16f0f2faf8d7a0d14c09","651c1d2ce7b1372d39070b2a","","","","true","","","","","","","","",""
"html-keyboard-response","5","191164","0.0-5.0","610d2275ba5f1ee0fdcee3e8","650c16f0f2faf8d7a0d14c09","651c1d2ce7b1372d39070b2a","6520"," ","<p>Welcome, and thank you very much for your time!</p>
      <p>In this experiment, you'll be a language expert who's been asked to take a look at words that Earth has received in its first communication with aliens. Your task, in this first part of the experiment, is to pay close attention to the words you'll be shown; later, world leaders will ask you questions on what you saw. The words will be shown to you quite quickly; it seems that the aliens were in a hurry :-)</p>
      <p>Press the spacebar to continue.<p>","","","","","","","","","",""
"html-keyboard-response","6","191216","0.0-6.0","610d2275ba5f1ee0fdcee3e8","650c16f0f2faf8d7a0d14c09","651c1d2ce7b1372d39070b2a","null","null","<p style=""font-size: 120px; font-family: BACS""> </p>","","","","","","","","","",""
"html-keyboard-response","7","201196","0.0-7.0","610d2275ba5f1ee0fdcee3e8","650c16f0f2faf8d7a0d14c09","651c1d2ce7b1372d39070b2a","9980"," ","<p>Here is an example of the words you'll see:</p>
      <img src='esempio.png' height='400px'>
      <p>When you're ready to begin, press the spacebar.</p></div>","","","","","","","","","",""
"html-keyboard-response","8","202197","0.0-8.0-0.0","610d2275ba5f1ee0fdcee3e8","650c16f0f2faf8d7a0d14c09","651c1d2ce7b1372d39070b2a","null","null","<p style=""font-size: 60px; font-family: BACS"">tmtEMTAm</p>","","","","","","","","","",""
"html-keyboard-response","9","203210","0.0-8.0-0.1","610d2275ba5f1ee0fdcee3e8","650c16f0f2faf8d7a0d14c09","651c1d2ce7b1372d39070b2a","null","null","<p style=""font-size: 60px; font-family: BACS"">JauQZckv</p>","","","","","","","","","",""
"html-keyboard-response","10","204211","0.0-8.0-0.2","610d2275ba5f1ee0fdcee3e8","650c16f0f2faf8d7a0d14c09","651c1d2ce7b1372d39070b2a","null","null","<p style=""font-size: 60px; font-family: BACS"">tmAKTAm</p>","","","","","","","","","",""
"html-keyboard-response","11","205226","0.0-8.0-0.3","610d2275ba5f1ee0fdcee3e8","650c16f0f2faf8d7a0d14c09","651c1d2ce7b1372d39070b2a","null","null","<p style=""font-size: 60px; font-family: BACS"">lAOKMOdOP</p>","","","","","","","","","",""
"html-keyboard-response","12","206228","0.0-8.0-0.4","610d2275ba5f1ee0fdcee3e8","650c16f0f2faf8d7a0d14c09","651c1d2ce7b1372d39070b2a","null","null","<p style=""font-size: 60px; font-family: BACS"">MkmEdTAm</p>","","","","","","","","","",""
"html-keyboard-response","13","207230","0.0-8.0-0.5","610d2275ba5f1ee0fdcee3e8","650c16f0f2faf8d7a0d14c09","651c1d2ce7b1372d39070b2a","null","null","<p style=""font-size: 60px; font-family: BACS"">ObZbAZckv</p>","","","","","","","","","",""
"html-keyboard-response","14","208239","0.0-8.0-0.6","610d2275ba5f1ee0fdcee3e8","650c16f0f2faf8d7a0d14c09","651c1d2ce7b1372d39070b2a","null","null","<p style=""font-size: 60px; font-family: BACS"">QcQAJOcN</p>","","","","","","","","","",""
"html-keyboard-response","15","209240","0.0-8.0-0.7","610d2275ba5f1ee0fdcee3e8","650c16f0f2faf8d7a0d14c09","651c1d2ce7b1372d39070b2a","null","null","<p style=""font-size: 60px; font-family: BACS"">ArQuZvkL</p>","","","","","","","","","",""
"html-keyboard-response","16","210242","0.0-8.0-0.8","610d2275ba5f1ee0fdcee3e8","650c16f0f2faf8d7a0d14c09","651c1d2ce7b1372d39070b2a","null","null","<p style=""font-size: 60px; font-family: BACS"">DkTCPRCdc</p>","","","","","","","","","",""
"html-keyboard-response","17","211251","0.0-8.0-0.9","610d2275ba5f1ee0fdcee3e8","650c16f0f2faf8d7a0d14c09","651c1d2ce7b1372d39070b2a","null","null","<p style=""font-size: 60px; font-family: BACS"">ZvalvkmU</p>","","","","","","","","","",""
"html-keyboard-response","18","212259","0.0-8.0-0.10","610d2275ba5f1ee0fdcee3e8","650c16f0f2faf8d7a0d14c09","651c1d2ce7b1372d39070b2a","null","null","<p style=""font-size: 60px; font-family: BACS"">ObZbAkdrO</p>","","","","","","","","","",""
"html-keyboard-response","19","213261","0.0-8.0-0.11","610d2275ba5f1ee0fdcee3e8","650c16f0f2faf8d7a0d14c09","651c1d2ce7b1372d39070b2a","null","null","<p style=""font-size: 60px; font-family: BACS"">ubALmOcN</p>","","","","","","","","","",""
"html-keyboard-response","20","214261","0.0-8.0-0.12","610d2275ba5f1ee0fdcee3e8","650c16f0f2faf8d7a0d14c09","651c1d2ce7b1372d39070b2a","null","null","<p style=""font-size: 60px; font-family: BACS"">ObZbAZvkL</p>","","","","","","","","","",""
"html-keyboard-response","21","215274","0.0-8.0-0.13","610d2275ba5f1ee0fdcee3e8","650c16f0f2faf8d7a0d14c09","651c1d2ce7b1372d39070b2a","null","null","<p style=""font-size: 60px; font-family: BACS"">YlCPBbRC</p>","","","","","","","","","",""
"html-keyboard-response","22","216275","0.0-8.0-0.14","610d2275ba5f1ee0fdcee3e8","650c16f0f2faf8d7a0d14c09","651c1d2ce7b1372d39070b2a","null","null","<p style=""font-size: 60px; font-family: BACS"">lcOckmU</p>","","","","","","","","","",""
"html-keyboard-response","23","217276","0.0-8.0-0.15","610d2275ba5f1ee0fdcee3e8","650c16f0f2faf8d7a0d14c09","651c1d2ce7b1372d39070b2a","null","null","<p style=""font-size: 60px; font-family: BACS"">ArQuOcN</p>","","","","","","","","","",""
"html-keyboard-response","24","218277","0.0-8.0-0.16","610d2275ba5f1ee0fdcee3e8","650c16f0f2faf8d7a0d14c09","651c1d2ce7b1372d39070b2a","null","null","<p style=""font-size: 60px; font-family: BACS"">ObOQlZckv</p>","","","","","","","","","",""
"html-keyboard-response","25","219279","0.0-8.0-0.17","610d2275ba5f1ee0fdcee3e8","650c16f0f2faf8d7a0d14c09","651c1d2ce7b1372d39070b2a","null","null","<p style=""font-size: 60px; font-family: BACS"">cBROBTAm</p>","","","","","","","","","",""
"html-keyboard-response","26","220280","0.0-8.0-0.18","610d2275ba5f1ee0fdcee3e8","650c16f0f2faf8d7a0d14c09","651c1d2ce7b1372d39070b2a","null","null","<p style=""font-size: 60px; font-family: BACS"">MkmEdRCdc</p>","","","","","","","","","",""
"html-keyboard-response","27","221289","0.0-8.0-0.19","610d2275ba5f1ee0fdcee3e8","650c16f0f2faf8d7a0d14c09","651c1d2ce7b1372d39070b2a","null","null","<p style=""font-size: 60px; font-family: BACS"">tmAKbRC</p>","","","","","","","","","",""
"html-keyboard-response","28","222290","0.0-8.0-0.20","610d2275ba5f1ee0fdcee3e8","650c16f0f2faf8d7a0d14c09","651c1d2ce7b1372d39070b2a","null","null","<p style=""font-size: 60px; font-family: BACS"">ObOQlkmU</p>","","","","","","","","","",""
"html-keyboard-response","29","223292","0.0-8.0-0.21","610d2275ba5f1ee0fdcee3e8","650c16f0f2faf8d7a0d14c09","651c1d2ce7b1372d39070b2a","null","null","<p style=""font-size: 60px; font-family: BACS"">ubALmkdrO</p>","","","","","","","","","",""
"html-keyboard-response","30","224307","0.0-8.0-0.22","610d2275ba5f1ee0fdcee3e8","650c16f0f2faf8d7a0d14c09","651c1d2ce7b1372d39070b2a","null","null","<p style=""font-size: 60px; font-family: BACS"">mBbKbRC</p>","","","","","","","","","",""
"html-keyboard-response","31","225309","0.0-8.0-0.23","610d2275ba5f1ee0fdcee3e8","650c16f0f2faf8d7a0d14c09","651c1d2ce7b1372d39070b2a","null","null","<p style=""font-size: 60px; font-family: BACS"">ubALmkmU</p>","","","","","","","","","",""
"html-keyboard-response","32","226310","0.0-8.0-0.24","610d2275ba5f1ee0fdcee3e8","650c16f0f2faf8d7a0d14c09","651c1d2ce7b1372d39070b2a","null","null","<p style=""font-size: 60px; font-family: BACS"">kNuaZckv</p>","","","","","","","","","",""
"html-keyboard-response","33","227312","0.0-8.0-0.25","610d2275ba5f1ee0fdcee3e8","650c16f0f2faf8d7a0d14c09","651c1d2ce7b1372d39070b2a","null","null","<p style=""font-size: 60px; font-family: BACS"">cBROBRdCc</p>","","","","","","","","","",""
"html-keyboard-response","34","228313","0.0-8.0-0.26","610d2275ba5f1ee0fdcee3e8","650c16f0f2faf8d7a0d14c09","651c1d2ce7b1372d39070b2a","null","null","<p style=""font-size: 60px; font-family: BACS"">kNuakmU</p>","","","","","","","","","",""
"html-keyboard-response","35","229315","0.0-8.0-0.27","610d2275ba5f1ee0fdcee3e8","650c16f0f2faf8d7a0d14c09","651c1d2ce7b1372d39070b2a","null","null","<p style=""font-size: 60px; font-family: BACS"">QcQAJZckv</p>","","","","","","","","","",""
"html-keyboard-response","36","230319","0.0-8.0-0.28","610d2275ba5f1ee0fdcee3e8","650c16f0f2faf8d7a0d14c09","651c1d2ce7b1372d39070b2a","null","null","<p style=""font-size: 60px; font-family: BACS"">mBbKTAm</p>","","","","","","","","","",""
"html-keyboard-response","37","231320","0.0-8.0-0.29","610d2275ba5f1ee0fdcee3e8","650c16f0f2faf8d7a0d14c09","651c1d2ce7b1372d39070b2a","null","null","<p style=""font-size: 60px; font-family: BACS"">cBROBOdOP</p>","","","","","","","","","",""
"html-keyboard-response","38","232322","0.0-8.0-0.30","610d2275ba5f1ee0fdcee3e8","650c16f0f2faf8d7a0d14c09","651c1d2ce7b1372d39070b2a","null","null","<p style=""font-size: 60px; font-family: BACS"">lAOKMbRC</p>","","","","","","","","","",""
"html-keyboard-response","39","233327","0.0-8.0-0.31","610d2275ba5f1ee0fdcee3e8","650c16f0f2faf8d7a0d14c09","651c1d2ce7b1372d39070b2a","null","null","<p style=""font-size: 60px; font-family: BACS"">ObZbAOcN</p>","","","","","","","","","",""
"html-keyboard-response","40","234340","0.0-8.0-0.32","610d2275ba5f1ee0fdcee3e8","650c16f0f2faf8d7a0d14c09","651c1d2ce7b1372d39070b2a","null","null","<p style=""font-size: 60px; font-family: BACS"">tmtEMbRC</p>","","","","","","","","","",""
"html-keyboard-response","41","235341","0.0-8.0-0.33","610d2275ba5f1ee0fdcee3e8","650c16f0f2faf8d7a0d14c09","651c1d2ce7b1372d39070b2a","null","null","<p style=""font-size: 60px; font-family: BACS"">lcOcZckv</p>","","","","","","","","","",""
"html-keyboard-response","42","236342","0.0-8.0-0.34","610d2275ba5f1ee0fdcee3e8","650c16f0f2faf8d7a0d14c09","651c1d2ce7b1372d39070b2a","null","null","<p style=""font-size: 60px; font-family: BACS"">MkmEdRdCc</p>","","","","","","","","","",""
"html-keyboard-response","43","237347","0.0-8.0-0.35","610d2275ba5f1ee0fdcee3e8","650c16f0f2faf8d7a0d14c09","651c1d2ce7b1372d39070b2a","null","null","<p style=""font-size: 60px; font-family: BACS"">JauQkmU</p>","","","","","","","","","",""
"html-keyboard-response","44","238349","0.0-8.0-0.36","610d2275ba5f1ee0fdcee3e8","650c16f0f2faf8d7a0d14c09","651c1d2ce7b1372d39070b2a","null","null","<p style=""font-size: 60px; font-family: BACS"">tmAKOdOP</p>","","","","","","","","","",""
"html-keyboard-response","45","239356","0.0-8.0-0.37","610d2275ba5f1ee0fdcee3e8","650c16f0f2faf8d7a0d14c09","651c1d2ce7b1372d39070b2a","null","null","<p style=""font-size: 60px; font-family: BACS"">lcOcZvkL</p>","","","","","","","","","",""
"html-keyboard-response","46","240366","0.0-8.0-0.38","610d2275ba5f1ee0fdcee3e8","650c16f0f2faf8d7a0d14c09","651c1d2ce7b1372d39070b2a","null","null","<p style=""font-size: 60px; font-family: BACS"">cBROBRCdc</p>","","","","","","","","","",""
"html-keyboard-response","47","241367","0.0-8.0-0.39","610d2275ba5f1ee0fdcee3e8","650c16f0f2faf8d7a0d14c09","651c1d2ce7b1372d39070b2a","null","null","<p style=""font-size: 60px; font-family: BACS"">mBbKRdCc</p>","","","","","","","","","",""
"html-keyboard-response","48","242368","0.0-8.0-0.40","610d2275ba5f1ee0fdcee3e8","650c16f0f2faf8d7a0d14c09","651c1d2ce7b1372d39070b2a","null","null","<p style=""font-size: 60px; font-family: BACS"">NJZlkdrO</p>","","","","","","","","","",""
"html-keyboard-response","49","243369","0.0-8.0-0.41","610d2275ba5f1ee0fdcee3e8","650c16f0f2faf8d7a0d14c09","651c1d2ce7b1372d39070b2a","null","null","<p style=""font-size: 60px; font-family: BACS"">MkmEdbRC</p>","","","","","","","","","",""
"html-keyboard-response","50","244381","0.0-8.0-0.42","610d2275ba5f1ee0fdcee3e8","650c16f0f2faf8d7a0d14c09","651c1d2ce7b1372d39070b2a","null","null","<p style=""font-size: 60px; font-family: BACS"">DOchlTAm</p>","","","","","","","","","",""
"html-keyboard-response","51","245382","0.0-8.0-0.43","610d2275ba5f1ee0fdcee3e8","650c16f0f2faf8d7a0d14c09","651c1d2ce7b1372d39070b2a","null","null","<p style=""font-size: 60px; font-family: BACS"">KElBbRC</p>","","","","","","","","","",""
"html-keyboard-response","52","246386","0.0-8.0-0.44","610d2275ba5f1ee0fdcee3e8","650c16f0f2faf8d7a0d14c09","651c1d2ce7b1372d39070b2a","null","null","<p style=""font-size: 60px; font-family: BACS"">YlCPBRCdc</p>","","","","","","","","","",""
"html-keyboard-response","53","247387","0.0-8.0-0.45","610d2275ba5f1ee0fdcee3e8","650c16f0f2faf8d7a0d14c09","651c1d2ce7b1372d39070b2a","null","null","<p style=""font-size: 60px; font-family: BACS"">NJZlZckv</p>","","","","","","","","","",""
"html-keyboard-response","54","248396","0.0-8.0-0.46","610d2275ba5f1ee0fdcee3e8","650c16f0f2faf8d7a0d14c09","651c1d2ce7b1372d39070b2a","null","null","<p style=""font-size: 60px; font-family: BACS"">DkTCPOdOP</p>","","","","","","","","","",""
"html-keyboard-response","55","249407","0.0-8.0-0.47","610d2275ba5f1ee0fdcee3e8","650c16f0f2faf8d7a0d14c09","651c1d2ce7b1372d39070b2a","null","null","<p style=""font-size: 60px; font-family: BACS"">QcQAJkmU</p>","","","","","","","","","",""
"html-keyboard-response","56","250408","0.0-8.0-0.48","610d2275ba5f1ee0fdcee3e8","650c16f0f2faf8d7a0d14c09","651c1d2ce7b1372d39070b2a","null","null","<p style=""font-size: 60px; font-family: BACS"">tmtEMOdOP</p>","","","","","","","","","",""
"html-keyboard-response","57","251413","0.0-8.0-0.49","610d2275ba5f1ee0fdcee3e8","650c16f0f2faf8d7a0d14c09","651c1d2ce7b1372d39070b2a","null","null","<p style=""font-size: 60px; font-family: BACS"">NJZlOcN</p>","","","","","","","","","",""
"html-keyboard-response","58","252413","0.0-8.0-0.50","610d2275ba5f1ee0fdcee3e8","650c16f0f2faf8d7a0d14c09","651c1d2ce7b1372d39070b2a","null","null","<p style=""font-size: 60px; font-family: BACS"">KElBOdOP</p>","","","","","","","","","",""
"html-keyboard-response","59","253415","0.0-8.0-0.51","610d2275ba5f1ee0fdcee3e8","650c16f0f2faf8d7a0d14c09","651c1d2ce7b1372d39070b2a","null","null","<p style=""font-size: 60px; font-family: BACS"">ObOQlZvkL</p>","","","","","","","","","",""
"html-keyboard-response","60","254425","0.0-8.0-0.52","610d2275ba5f1ee0fdcee3e8","650c16f0f2faf8d7a0d14c09","651c1d2ce7b1372d39070b2a","null","null","<p style=""font-size: 60px; font-family: BACS"">ZvalvkdrO</p>","","","","","","","","","",""
"html-keyboard-response","61","255426","0.0-8.0-0.53","610d2275ba5f1ee0fdcee3e8","650c16f0f2faf8d7a0d14c09","651c1d2ce7b1372d39070b2a","null","null","<p style=""font-size: 60px; font-family: BACS"">YlCPBRdCc</p>","","","","","","","","","",""
"html-keyboard-response","62","256427","0.0-8.0-0.54","610d2275ba5f1ee0fdcee3e8","650c16f0f2faf8d7a0d14c09","651c1d2ce7b1372d39070b2a","null","null","<p style=""font-size: 60px; font-family: BACS"">kNuaZvkL</p>","","","","","","","","","",""
"html-keyboard-response","63","257429","0.0-8.0-0.55","610d2275ba5f1ee0fdcee3e8","650c16f0f2faf8d7a0d14c09","651c1d2ce7b1372d39070b2a","null","null","<p style=""font-size: 60px; font-family: BACS"">tmAKRdCc</p>","","","","","","","","","",""
"html-keyboard-response","64","258429","0.0-8.0-0.56","610d2275ba5f1ee0fdcee3e8","650c16f0f2faf8d7a0d14c09","651c1d2ce7b1372d39070b2a","null","null","<p style=""font-size: 60px; font-family: BACS"">lAOKMRCdc</p>","","","","","","","","","",""
"html-keyboard-response","65","259444","0.0-8.0-0.57","610d2275ba5f1ee0fdcee3e8","650c16f0f2faf8d7a0d14c09","651c1d2ce7b1372d39070b2a","null","null","<p style=""font-size: 60px; font-family: BACS"">DOchlRdCc</p>","","","","","","","","","",""
"html-keyboard-response","66","260444","0.0-8.0-0.58","610d2275ba5f1ee0fdcee3e8","650c16f0f2faf8d7a0d14c09","651c1d2ce7b1372d39070b2a","null","null","<p style=""font-size: 60px; font-family: BACS"">ArQukmU</p>","","","","","","","","","",""
"html-keyboard-response","67","261445","0.0-8.0-0.59","610d2275ba5f1ee0fdcee3e8","650c16f0f2faf8d7a0d14c09","651c1d2ce7b1372d39070b2a","null","null","<p style=""font-size: 60px; font-family: BACS"">ZvalvOcN</p>","","","","","","","","","",""
"html-keyboard-response","68","262447","0.0-8.0-0.60","610d2275ba5f1ee0fdcee3e8","650c16f0f2faf8d7a0d14c09","651c1d2ce7b1372d39070b2a","null","null","<p style=""font-size: 60px; font-family: BACS"">KElBRCdc</p>","","","","","","","","","",""
"html-keyboard-response","69","263448","0.0-8.0-0.61","610d2275ba5f1ee0fdcee3e8","650c16f0f2faf8d7a0d14c09","651c1d2ce7b1372d39070b2a","null","null","<p style=""font-size: 60px; font-family: BACS"">ZvalvZvkL</p>","","","","","","","","","",""
"html-keyboard-response","70","264449","0.0-8.0-0.62","610d2275ba5f1ee0fdcee3e8","650c16f0f2faf8d7a0d14c09","651c1d2ce7b1372d39070b2a","null","null","<p style=""font-size: 60px; font-family: BACS"">QcQAJkdrO</p>","","","","","","","","","",""
"html-keyboard-response","71","265450","0.0-8.0-0.63","610d2275ba5f1ee0fdcee3e8","650c16f0f2faf8d7a0d14c09","651c1d2ce7b1372d39070b2a","null","null","<p style=""font-size: 60px; font-family: BACS"">tmtEMRdCc</p>","","","","","","","","","",""
"html-keyboard-response","72","266451","0.0-8.0-0.64","610d2275ba5f1ee0fdcee3e8","650c16f0f2faf8d7a0d14c09","651c1d2ce7b1372d39070b2a","null","null","<p style=""font-size: 60px; font-family: BACS"">ArQukdrO</p>","","","","","","","","","",""
"html-keyboard-response","73","267453","0.0-8.0-0.65","610d2275ba5f1ee0fdcee3e8","650c16f0f2faf8d7a0d14c09","651c1d2ce7b1372d39070b2a","null","null","<p style=""font-size: 60px; font-family: BACS"">DOchlOdOP</p>","","","","","","","","","",""
"html-keyboard-response","74","268454","0.0-8.0-0.66","610d2275ba5f1ee0fdcee3e8","650c16f0f2faf8d7a0d14c09","651c1d2ce7b1372d39070b2a","null","null","<p style=""font-size: 60px; font-family: BACS"">ubALmZckv</p>","","","","","","","","","",""
"html-keyboard-response","75","269455","0.0-8.0-0.67","610d2275ba5f1ee0fdcee3e8","650c16f0f2faf8d7a0d14c09","651c1d2ce7b1372d39070b2a","null","null","<p style=""font-size: 60px; font-family: BACS"">YlCPBOdOP</p>","","","","","","","","","",""
"html-keyboard-response","76","270457","0.0-8.0-0.68","610d2275ba5f1ee0fdcee3e8","650c16f0f2faf8d7a0d14c09","651c1d2ce7b1372d39070b2a","null","null","<p style=""font-size: 60px; font-family: BACS"">kNuakdrO</p>","","","","","","","","","",""
"html-keyboard-response","77","271457","0.0-8.0-0.69","610d2275ba5f1ee0fdcee3e8","650c16f0f2faf8d7a0d14c09","651c1d2ce7b1372d39070b2a","null","null","<p style=""font-size: 60px; font-family: BACS"">mBbKRCdc</p>","","","","","","","","","",""
"html-keyboard-response","78","272464","0.0-8.0-0.70","610d2275ba5f1ee0fdcee3e8","650c16f0f2faf8d7a0d14c09","651c1d2ce7b1372d39070b2a","null","null","<p style=""font-size: 60px; font-family: BACS"">lAOKMRdCc</p>","","","","","","","","","",""
"html-keyboard-response","79","273466","0.0-8.0-0.71","610d2275ba5f1ee0fdcee3e8","650c16f0f2faf8d7a0d14c09","651c1d2ce7b1372d39070b2a","null","null","<p style=""font-size: 60px; font-family: BACS"">DkTCPTAm</p>","","","","","","","","","",""
"html-keyboard-response","80","274466","0.0-8.0-0.72","610d2275ba5f1ee0fdcee3e8","650c16f0f2faf8d7a0d14c09","651c1d2ce7b1372d39070b2a","null","null","<p style=""font-size: 60px; font-family: BACS"">JauQZvkL</p>","","","","","","","","","",""
"html-keyboard-response","81","275468","0.0-8.0-0.73","610d2275ba5f1ee0fdcee3e8","650c16f0f2faf8d7a0d14c09","651c1d2ce7b1372d39070b2a","null","null","<p style=""font-size: 60px; font-family: BACS"">DkTCPbRC</p>","","","","","","","","","",""
"html-keyboard-response","82","276468","0.0-8.0-0.74","610d2275ba5f1ee0fdcee3e8","650c16f0f2faf8d7a0d14c09","651c1d2ce7b1372d39070b2a","null","null","<p style=""font-size: 60px; font-family: BACS"">ObOQlkdrO</p>","","","","","","","","","",""
"html-keyboard-response","83","277470","0.0-8.0-0.75","610d2275ba5f1ee0fdcee3e8","650c16f0f2faf8d7a0d14c09","651c1d2ce7b1372d39070b2a","null","null","<p style=""font-size: 60px; font-family: BACS"">JauQOcN</p>","","","","","","","","","",""
"html-keyboard-response","84","278483","0.0-8.0-0.76","610d2275ba5f1ee0fdcee3e8","650c16f0f2faf8d7a0d14c09","651c1d2ce7b1372d39070b2a","null","null","<p style=""font-size: 60px; font-family: BACS"">DOchlRCdc</p>","","","","","","","","","",""
"html-keyboard-response","85","279496","0.0-8.0-0.77","610d2275ba5f1ee0fdcee3e8","650c16f0f2faf8d7a0d14c09","651c1d2ce7b1372d39070b2a","null","null","<p style=""font-size: 60px; font-family: BACS"">KElBTAm</p>","","","","","","","","","",""
"html-keyboard-response","86","280498","0.0-8.0-0.78","610d2275ba5f1ee0fdcee3e8","650c16f0f2faf8d7a0d14c09","651c1d2ce7b1372d39070b2a","null","null","<p style=""font-size: 60px; font-family: BACS"">NJZlZvkL</p>","","","","","","","","","",""
"html-keyboard-response","87","281499","0.0-8.0-0.79","610d2275ba5f1ee0fdcee3e8","650c16f0f2faf8d7a0d14c09","651c1d2ce7b1372d39070b2a","null","null","<p style=""font-size: 60px; font-family: BACS"">lcOcOcN</p>","","","","","","","","","",""
"html-keyboard-response","88","287832","0.0-9.0","610d2275ba5f1ee0fdcee3e8","650c16f0f2faf8d7a0d14c09","651c1d2ce7b1372d39070b2a","6332"," ","<p>Great, you've seen the first block of words. You may now take a short break.</p>
      <p>Press the spacebar when you're ready to continue.</p>","","","","","","","","","",""
"html-keyboard-response","89","288846","0.0-10.0-0.0","610d2275ba5f1ee0fdcee3e8","650c16f0f2faf8d7a0d14c09","651c1d2ce7b1372d39070b2a","null","null","<p style=""font-size: 60px; font-family: BACS"">tmAKTAm</p>","","","","","","","","","",""
"html-keyboard-response","90","289848","0.0-10.0-0.1","610d2275ba5f1ee0fdcee3e8","650c16f0f2faf8d7a0d14c09","651c1d2ce7b1372d39070b2a","null","null","<p style=""font-size: 60px; font-family: BACS"">ZvalvkdrO</p>","","","","","","","","","",""
"html-keyboard-response","91","290849","0.0-10.0-0.2","610d2275ba5f1ee0fdcee3e8","650c16f0f2faf8d7a0d14c09","651c1d2ce7b1372d39070b2a","null","null","<p style=""font-size: 60px; font-family: BACS"">MkmEdRdCc</p>","","","","","","","","","",""
"html-keyboard-response","92","291849","0.0-10.0-0.3","610d2275ba5f1ee0fdcee3e8","650c16f0f2faf8d7a0d14c09","651c1d2ce7b1372d39070b2a","null","null","<p style=""font-size: 60px; font-family: BACS"">ArQukmU</p>","","","","","","","","","",""
"html-keyboard-response","93","292863","0.0-10.0-0.4","610d2275ba5f1ee0fdcee3e8","650c16f0f2faf8d7a0d14c09","651c1d2ce7b1372d39070b2a","null","null","<p style=""font-size: 60px; font-family: BACS"">KElBRCdc</p>","","","","","","","","","",""
"html-keyboard-response","94","293871","0.0-10.0-0.5","610d2275ba5f1ee0fdcee3e8","650c16f0f2faf8d7a0d14c09","651c1d2ce7b1372d39070b2a","null","null","<p style=""font-size: 60px; font-family: BACS"">tmAKOdOP</p>","","","","","","","","","",""
"html-keyboard-response","95","294872","0.0-10.0-0.6","610d2275ba5f1ee0fdcee3e8","650c16f0f2faf8d7a0d14c09","651c1d2ce7b1372d39070b2a","null","null","<p style=""font-size: 60px; font-family: BACS"">lcOckmU</p>","","","","","","","","","",""
"html-keyboard-response","96","295873","0.0-10.0-0.7","610d2275ba5f1ee0fdcee3e8","650c16f0f2faf8d7a0d14c09","651c1d2ce7b1372d39070b2a","null","null","<p style=""font-size: 60px; font-family: BACS"">ubALmOcN</p>","","","","","","","","","",""
"html-keyboard-response","97","296875","0.0-10.0-0.8","610d2275ba5f1ee0fdcee3e8","650c16f0f2faf8d7a0d14c09","651c1d2ce7b1372d39070b2a","null","null","<p style=""font-size: 60px; font-family: BACS"">ZvalvkmU</p>","","","","","","","","","",""
"html-keyboard-response","98","297876","0.0-10.0-0.9","610d2275ba5f1ee0fdcee3e8","650c16f0f2faf8d7a0d14c09","651c1d2ce7b1372d39070b2a","null","null","<p style=""font-size: 60px; font-family: BACS"">JauQOcN</p>","","","","","","","","","",""
"html-keyboard-response","99","298877","0.0-10.0-0.10","610d2275ba5f1ee0fdcee3e8","650c16f0f2faf8d7a0d14c09","651c1d2ce7b1372d39070b2a","null","null","<p style=""font-size: 60px; font-family: BACS"">cBROBOdOP</p>","","","","","","","","","",""
"html-keyboard-response","100","299886","0.0-10.0-0.11","610d2275ba5f1ee0fdcee3e8","650c16f0f2faf8d7a0d14c09","651c1d2ce7b1372d39070b2a","null","null","<p style=""font-size: 60px; font-family: BACS"">NJZlZckv</p>","","","","","","","","","",""
"html-keyboard-response","101","300887","0.0-10.0-0.12","610d2275ba5f1ee0fdcee3e8","650c16f0f2faf8d7a0d14c09","651c1d2ce7b1372d39070b2a","null","null","<p style=""font-size: 60px; font-family: BACS"">kNuakmU</p>","","","","","","","","","",""
"html-keyboard-response","102","301889","0.0-10.0-0.13","610d2275ba5f1ee0fdcee3e8","650c16f0f2faf8d7a0d14c09","651c1d2ce7b1372d39070b2a","null","null","<p style=""font-size: 60px; font-family: BACS"">MkmEdbRC</p>","","","","","","","","","",""
"html-keyboard-response","103","302889","0.0-10.0-0.14","610d2275ba5f1ee0fdcee3e8","650c16f0f2faf8d7a0d14c09","651c1d2ce7b1372d39070b2a","null","null","<p style=""font-size: 60px; font-family: BACS"">kNuaZckv</p>","","","","","","","","","",""
"html-keyboard-response","104","303893","0.0-10.0-0.15","610d2275ba5f1ee0fdcee3e8","650c16f0f2faf8d7a0d14c09","651c1d2ce7b1372d39070b2a","null","null","<p style=""font-size: 60px; font-family: BACS"">QcQAJkmU</p>","","","","","","","","","",""
"html-keyboard-response","105","304894","0.0-10.0-0.16","610d2275ba5f1ee0fdcee3e8","650c16f0f2faf8d7a0d14c09","651c1d2ce7b1372d39070b2a","null","null","<p style=""font-size: 60px; font-family: BACS"">ObOQlZvkL</p>","","","","","","","","","",""
"html-keyboard-response","106","305902","0.0-10.0-0.17","610d2275ba5f1ee0fdcee3e8","650c16f0f2faf8d7a0d14c09","651c1d2ce7b1372d39070b2a","null","null","<p style=""font-size: 60px; font-family: BACS"">QcQAJOcN</p>","","","","","","","","","",""
"html-keyboard-response","107","306903","0.0-10.0-0.18","610d2275ba5f1ee0fdcee3e8","650c16f0f2faf8d7a0d14c09","651c1d2ce7b1372d39070b2a","null","null","<p style=""font-size: 60px; font-family: BACS"">DkTCPOdOP</p>","","","","","","","","","",""
"html-keyboard-response","108","307904","0.0-10.0-0.19","610d2275ba5f1ee0fdcee3e8","650c16f0f2faf8d7a0d14c09","651c1d2ce7b1372d39070b2a","null","null","<p style=""font-size: 60px; font-family: BACS"">NJZlZvkL</p>","","","","","","","","","",""
"html-keyboard-response","109","308906","0.0-10.0-0.20","610d2275ba5f1ee0fdcee3e8","650c16f0f2faf8d7a0d14c09","651c1d2ce7b1372d39070b2a","null","null","<p style=""font-size: 60px; font-family: BACS"">cBROBRdCc</p>","","","","","","","","","",""
"html-keyboard-response","110","309912","0.0-10.0-0.21","610d2275ba5f1ee0fdcee3e8","650c16f0f2faf8d7a0d14c09","651c1d2ce7b1372d39070b2a","null","null","<p style=""font-size: 60px; font-family: BACS"">JauQkmU</p>","","","","","","","","","",""
"html-keyboard-response","111","310914","0.0-10.0-0.22","610d2275ba5f1ee0fdcee3e8","650c16f0f2faf8d7a0d14c09","651c1d2ce7b1372d39070b2a","null","null","<p style=""font-size: 60px; font-family: BACS"">tmtEMbRC</p>","","","","","","","","","",""
"html-keyboard-response","112","311922","0.0-10.0-0.23","610d2275ba5f1ee0fdcee3e8","650c16f0f2faf8d7a0d14c09","651c1d2ce7b1372d39070b2a","null","null","<p style=""font-size: 60px; font-family: BACS"">ZvalvOcN</p>","","","","","","","","","",""
"html-keyboard-response","113","312923","0.0-10.0-0.24","610d2275ba5f1ee0fdcee3e8","650c16f0f2faf8d7a0d14c09","651c1d2ce7b1372d39070b2a","null","null","<p style=""font-size: 60px; font-family: BACS"">MkmEdTAm</p>","","","","","","","","","",""
"html-keyboard-response","114","313925","0.0-10.0-0.25","610d2275ba5f1ee0fdcee3e8","650c16f0f2faf8d7a0d14c09","651c1d2ce7b1372d39070b2a","null","null","<p style=""font-size: 60px; font-family: BACS"">YlCPBbRC</p>","","","","","","","","","",""
"html-keyboard-response","115","314930","0.0-10.0-0.26","610d2275ba5f1ee0fdcee3e8","650c16f0f2faf8d7a0d14c09","651c1d2ce7b1372d39070b2a","null","null","<p style=""font-size: 60px; font-family: BACS"">tmtEMOdOP</p>","","","","","","","","","",""
"html-keyboard-response","116","315931","0.0-10.0-0.27","610d2275ba5f1ee0fdcee3e8","650c16f0f2faf8d7a0d14c09","651c1d2ce7b1372d39070b2a","null","null","<p style=""font-size: 60px; font-family: BACS"">mBbKbRC</p>","","","","","","","","","",""
"html-keyboard-response","117","316932","0.0-10.0-0.28","610d2275ba5f1ee0fdcee3e8","650c16f0f2faf8d7a0d14c09","651c1d2ce7b1372d39070b2a","null","null","<p style=""font-size: 60px; font-family: BACS"">kNuaZvkL</p>","","","","","","","","","",""
"html-keyboard-response","118","317933","0.0-10.0-0.29","610d2275ba5f1ee0fdcee3e8","650c16f0f2faf8d7a0d14c09","651c1d2ce7b1372d39070b2a","null","null","<p style=""font-size: 60px; font-family: BACS"">NJZlkdrO</p>","","","","","","","","","",""
"html-keyboard-response","119","318935","0.0-10.0-0.30","610d2275ba5f1ee0fdcee3e8","650c16f0f2faf8d7a0d14c09","651c1d2ce7b1372d39070b2a","null","null","<p style=""font-size: 60px; font-family: BACS"">YlCPBRdCc</p>","","","","","","","","","",""
"html-keyboard-response","120","319938","0.0-10.0-0.31","610d2275ba5f1ee0fdcee3e8","650c16f0f2faf8d7a0d14c09","651c1d2ce7b1372d39070b2a","null","null","<p style=""font-size: 60px; font-family: BACS"">kNuakdrO</p>","","","","","","","","","",""
"html-keyboard-response","121","320940","0.0-10.0-0.32","610d2275ba5f1ee0fdcee3e8","650c16f0f2faf8d7a0d14c09","651c1d2ce7b1372d39070b2a","null","null","<p style=""font-size: 60px; font-family: BACS"">tmtEMRdCc</p>","","","","","","","","","",""
"html-keyboard-response","122","321946","0.0-10.0-0.33","610d2275ba5f1ee0fdcee3e8","650c16f0f2faf8d7a0d14c09","651c1d2ce7b1372d39070b2a","null","null","<p style=""font-size: 60px; font-family: BACS"">KElBbRC</p>","","","","","","","","","",""
"html-keyboard-response","123","322948","0.0-10.0-0.34","610d2275ba5f1ee0fdcee3e8","650c16f0f2faf8d7a0d14c09","651c1d2ce7b1372d39070b2a","null","null","<p style=""font-size: 60px; font-family: BACS"">tmtEMTAm</p>","","","","","","","","","",""
"html-keyboard-response","124","323958","0.0-10.0-0.35","610d2275ba5f1ee0fdcee3e8","650c16f0f2faf8d7a0d14c09","651c1d2ce7b1372d39070b2a","null","null","<p style=""font-size: 60px; font-family: BACS"">ObZbAOcN</p>","","","","","","","","","",""
"html-keyboard-response","125","324959","0.0-10.0-0.36","610d2275ba5f1ee0fdcee3e8","650c16f0f2faf8d7a0d14c09","651c1d2ce7b1372d39070b2a","null","null","<p style=""font-size: 60px; font-family: BACS"">YlCPBRCdc</p>","","","","","","","","","",""
"html-keyboard-response","126","325973","0.0-10.0-0.37","610d2275ba5f1ee0fdcee3e8","650c16f0f2faf8d7a0d14c09","651c1d2ce7b1372d39070b2a","null","null","<p style=""font-size: 60px; font-family: BACS"">ObOQlZckv</p>","","","","","","","","","",""
"html-keyboard-response","127","326986","0.0-10.0-0.38","610d2275ba5f1ee0fdcee3e8","650c16f0f2faf8d7a0d14c09","651c1d2ce7b1372d39070b2a","null","null","<p style=""font-size: 60px; font-family: BACS"">ubALmkdrO</p>","","","","","","","","","",""
"html-keyboard-response","128","327999","0.0-10.0-0.39","610d2275ba5f1ee0fdcee3e8","650c16f0f2faf8d7a0d14c09","651c1d2ce7b1372d39070b2a","null","null","<p style=""font-size: 60px; font-family: BACS"">DOchlRdCc</p>","","","","","","","","","",""
"html-keyboard-response","129","329006","0.0-10.0-0.40","610d2275ba5f1ee0fdcee3e8","650c16f0f2faf8d7a0d14c09","651c1d2ce7b1372d39070b2a","null","null","<p style=""font-size: 60px; font-family: BACS"">JauQZckv</p>","","","","","","","","","",""
"html-keyboard-response","130","330008","0.0-10.0-0.41","610d2275ba5f1ee0fdcee3e8","650c16f0f2faf8d7a0d14c09","651c1d2ce7b1372d39070b2a","null","null","<p style=""font-size: 60px; font-family: BACS"">ObOQlkdrO</p>","","","","","","","","","",""
"html-keyboard-response","131","331009","0.0-10.0-0.42","610d2275ba5f1ee0fdcee3e8","650c16f0f2faf8d7a0d14c09","651c1d2ce7b1372d39070b2a","null","null","<p style=""font-size: 60px; font-family: BACS"">cBROBRCdc</p>","","","","","","","","","",""
"html-keyboard-response","132","332010","0.0-10.0-0.43","610d2275ba5f1ee0fdcee3e8","650c16f0f2faf8d7a0d14c09","651c1d2ce7b1372d39070b2a","null","null","<p style=""font-size: 60px; font-family: BACS"">lAOKMOdOP</p>","","","","","","","","","",""
"html-keyboard-response","133","333010","0.0-10.0-0.44","610d2275ba5f1ee0fdcee3e8","650c16f0f2faf8d7a0d14c09","651c1d2ce7b1372d39070b2a","null","null","<p style=""font-size: 60px; font-family: BACS"">ArQukdrO</p>","","","","","","","","","",""
"html-keyboard-response","134","334012","0.0-10.0-0.45","610d2275ba5f1ee0fdcee3e8","650c16f0f2faf8d7a0d14c09","651c1d2ce7b1372d39070b2a","null","null","<p style=""font-size: 60px; font-family: BACS"">DOchlRCdc</p>","","","","","","","","","",""
"html-keyboard-response","135","335018","0.0-10.0-0.46","610d2275ba5f1ee0fdcee3e8","650c16f0f2faf8d7a0d14c09","651c1d2ce7b1372d39070b2a","null","null","<p style=""font-size: 60px; font-family: BACS"">ObZbAZvkL</p>","","","","","","","","","",""
"html-keyboard-response","136","336019","0.0-10.0-0.47","610d2275ba5f1ee0fdcee3e8","650c16f0f2faf8d7a0d14c09","651c1d2ce7b1372d39070b2a","null","null","<p style=""font-size: 60px; font-family: BACS"">lAOKMbRC</p>","","","","","","","","","",""
"html-keyboard-response","137","337020","0.0-10.0-0.48","610d2275ba5f1ee0fdcee3e8","650c16f0f2faf8d7a0d14c09","651c1d2ce7b1372d39070b2a","null","null","<p style=""font-size: 60px; font-family: BACS"">cBROBTAm</p>","","","","","","","","","",""
"html-keyboard-response","138","338020","0.0-10.0-0.49","610d2275ba5f1ee0fdcee3e8","650c16f0f2faf8d7a0d14c09","651c1d2ce7b1372d39070b2a","null","null","<p style=""font-size: 60px; font-family: BACS"">ObZbAZckv</p>","","","","","","","","","",""
"html-keyboard-response","139","339021","0.0-10.0-0.50","610d2275ba5f1ee0fdcee3e8","650c16f0f2faf8d7a0d14c09","651c1d2ce7b1372d39070b2a","null","null","<p style=""font-size: 60px; font-family: BACS"">DOchlTAm</p>","","","","","","","","","",""
"html-keyboard-response","140","340029","0.0-10.0-0.51","610d2275ba5f1ee0fdcee3e8","650c16f0f2faf8d7a0d14c09","651c1d2ce7b1372d39070b2a","null","null","<p style=""font-size: 60px; font-family: BACS"">DkTCPbRC</p>","","","","","","","","","",""
"html-keyboard-response","141","341030","0.0-10.0-0.52","610d2275ba5f1ee0fdcee3e8","650c16f0f2faf8d7a0d14c09","651c1d2ce7b1372d39070b2a","null","null","<p style=""font-size: 60px; font-family: BACS"">ubALmkmU</p>","","","","","","","","","",""
"html-keyboard-response","142","342032","0.0-10.0-0.53","610d2275ba5f1ee0fdcee3e8","650c16f0f2faf8d7a0d14c09","651c1d2ce7b1372d39070b2a","null","null","<p style=""font-size: 60px; font-family: BACS"">lcOcZckv</p>","","","","","","","","","",""
"html-keyboard-response","143","343034","0.0-10.0-0.54","610d2275ba5f1ee0fdcee3e8","650c16f0f2faf8d7a0d14c09","651c1d2ce7b1372d39070b2a","null","null","<p style=""font-size: 60px; font-family: BACS"">DOchlOdOP</p>","","","","","","","","","",""
"html-keyboard-response","144","344035","0.0-10.0-0.55","610d2275ba5f1ee0fdcee3e8","650c16f0f2faf8d7a0d14c09","651c1d2ce7b1372d39070b2a","null","null","<p style=""font-size: 60px; font-family: BACS"">QcQAJkdrO</p>","","","","","","","","","",""
"html-keyboard-response","145","345036","0.0-10.0-0.56","610d2275ba5f1ee0fdcee3e8","650c16f0f2faf8d7a0d14c09","651c1d2ce7b1372d39070b2a","null","null","<p style=""font-size: 60px; font-family: BACS"">ubALmZckv</p>","","","","","","","","","",""
"html-keyboard-response","146","346037","0.0-10.0-0.57","610d2275ba5f1ee0fdcee3e8","650c16f0f2faf8d7a0d14c09","651c1d2ce7b1372d39070b2a","null","null","<p style=""font-size: 60px; font-family: BACS"">KElBOdOP</p>","","","","","","","","","",""
"html-keyboard-response","147","347038","0.0-10.0-0.58","610d2275ba5f1ee0fdcee3e8","650c16f0f2faf8d7a0d14c09","651c1d2ce7b1372d39070b2a","null","null","<p style=""font-size: 60px; font-family: BACS"">ZvalvZvkL</p>","","","","","","","","","",""
"html-keyboard-response","148","348038","0.0-10.0-0.59","610d2275ba5f1ee0fdcee3e8","650c16f0f2faf8d7a0d14c09","651c1d2ce7b1372d39070b2a","null","null","<p style=""font-size: 60px; font-family: BACS"">mBbKTAm</p>","","","","","","","","","",""
"html-keyboard-response","149","349040","0.0-10.0-0.60","610d2275ba5f1ee0fdcee3e8","650c16f0f2faf8d7a0d14c09","651c1d2ce7b1372d39070b2a","null","null","<p style=""font-size: 60px; font-family: BACS"">DkTCPRCdc</p>","","","","","","","","","",""
"html-keyboard-response","150","350040","0.0-10.0-0.61","610d2275ba5f1ee0fdcee3e8","650c16f0f2faf8d7a0d14c09","651c1d2ce7b1372d39070b2a","null","null","<p style=""font-size: 60px; font-family: BACS"">ArQuZvkL</p>","","","","","","","","","",""
"html-keyboard-response","151","351041","0.0-10.0-0.62","610d2275ba5f1ee0fdcee3e8","650c16f0f2faf8d7a0d14c09","651c1d2ce7b1372d39070b2a","null","null","<p style=""font-size: 60px; font-family: BACS"">KElBTAm</p>","","","","","","","","","",""
"html-keyboard-response","152","352058","0.0-10.0-0.63","610d2275ba5f1ee0fdcee3e8","650c16f0f2faf8d7a0d14c09","651c1d2ce7b1372d39070b2a","null","null","<p style=""font-size: 60px; font-family: BACS"">lAOKMRdCc</p>","","","","","","","","","",""
"html-keyboard-response","153","353059","0.0-10.0-0.64","610d2275ba5f1ee0fdcee3e8","650c16f0f2faf8d7a0d14c09","651c1d2ce7b1372d39070b2a","null","null","<p style=""font-size: 60px; font-family: BACS"">tmAKbRC</p>","","","","","","","","","",""
"html-keyboard-response","154","354061","0.0-10.0-0.65","610d2275ba5f1ee0fdcee3e8","650c16f0f2faf8d7a0d14c09","651c1d2ce7b1372d39070b2a","null","null","<p style=""font-size: 60px; font-family: BACS"">ArQuOcN</p>","","","","","","","","","",""
"html-keyboard-response","155","355063","0.0-10.0-0.66","610d2275ba5f1ee0fdcee3e8","650c16f0f2faf8d7a0d14c09","651c1d2ce7b1372d39070b2a","null","null","<p style=""font-size: 60px; font-family: BACS"">MkmEdRCdc</p>","","","","","","","","","",""
"html-keyboard-response","156","356064","0.0-10.0-0.67","610d2275ba5f1ee0fdcee3e8","650c16f0f2faf8d7a0d14c09","651c1d2ce7b1372d39070b2a","null","null","<p style=""font-size: 60px; font-family: BACS"">tmAKRdCc</p>","","","","","","","","","",""
"html-keyboard-response","157","357065","0.0-10.0-0.68","610d2275ba5f1ee0fdcee3e8","650c16f0f2faf8d7a0d14c09","651c1d2ce7b1372d39070b2a","null","null","<p style=""font-size: 60px; font-family: BACS"">lAOKMRCdc</p>","","","","","","","","","",""
"html-keyboard-response","158","358067","0.0-10.0-0.69","610d2275ba5f1ee0fdcee3e8","650c16f0f2faf8d7a0d14c09","651c1d2ce7b1372d39070b2a","null","null","<p style=""font-size: 60px; font-family: BACS"">lcOcZvkL</p>","","","","","","","","","",""
"html-keyboard-response","159","359068","0.0-10.0-0.70","610d2275ba5f1ee0fdcee3e8","650c16f0f2faf8d7a0d14c09","651c1d2ce7b1372d39070b2a","null","null","<p style=""font-size: 60px; font-family: BACS"">QcQAJZckv</p>","","","","","","","","","",""
"html-keyboard-response","160","360069","0.0-10.0-0.71","610d2275ba5f1ee0fdcee3e8","650c16f0f2faf8d7a0d14c09","651c1d2ce7b1372d39070b2a","null","null","<p style=""font-size: 60px; font-family: BACS"">NJZlOcN</p>","","","","","","","","","",""
"html-keyboard-response","161","361070","0.0-10.0-0.72","610d2275ba5f1ee0fdcee3e8","650c16f0f2faf8d7a0d14c09","651c1d2ce7b1372d39070b2a","null","null","<p style=""font-size: 60px; font-family: BACS"">ObOQlkmU</p>","","","","","","","","","",""
"html-keyboard-response","162","362071","0.0-10.0-0.73","610d2275ba5f1ee0fdcee3e8","650c16f0f2faf8d7a0d14c09","651c1d2ce7b1372d39070b2a","null","null","<p style=""font-size: 60px; font-family: BACS"">DkTCPTAm</p>","","","","","","","","","",""
"html-keyboard-response","163","363072","0.0-10.0-0.74","610d2275ba5f1ee0fdcee3e8","650c16f0f2faf8d7a0d14c09","651c1d2ce7b1372d39070b2a","null","null","<p style=""font-size: 60px; font-family: BACS"">YlCPBOdOP</p>","","","","","","","","","",""
"html-keyboard-response","164","364089","0.0-10.0-0.75","610d2275ba5f1ee0fdcee3e8","650c16f0f2faf8d7a0d14c09","651c1d2ce7b1372d39070b2a","null","null","<p style=""font-size: 60px; font-family: BACS"">mBbKRdCc</p>","","","","","","","","","",""
"html-keyboard-response","165","365090","0.0-10.0-0.76","610d2275ba5f1ee0fdcee3e8","650c16f0f2faf8d7a0d14c09","651c1d2ce7b1372d39070b2a","null","null","<p style=""font-size: 60px; font-family: BACS"">JauQZvkL</p>","","","","","","","","","",""
"html-keyboard-response","166","366091","0.0-10.0-0.77","610d2275ba5f1ee0fdcee3e8","650c16f0f2faf8d7a0d14c09","651c1d2ce7b1372d39070b2a","null","null","<p style=""font-size: 60px; font-family: BACS"">mBbKRCdc</p>","","","","","","","","","",""
"html-keyboard-response","167","367094","0.0-10.0-0.78","610d2275ba5f1ee0fdcee3e8","650c16f0f2faf8d7a0d14c09","651c1d2ce7b1372d39070b2a","null","null","<p style=""font-size: 60px; font-family: BACS"">lcOcOcN</p>","","","","","","","","","",""
"html-keyboard-response","168","368096","0.0-10.0-0.79","610d2275ba5f1ee0fdcee3e8","650c16f0f2faf8d7a0d14c09","651c1d2ce7b1372d39070b2a","null","null","<p style=""font-size: 60px; font-family: BACS"">ObZbAkdrO</p>","","","","","","","","","",""
"html-keyboard-response","169","372637","0.0-11.0","610d2275ba5f1ee0fdcee3e8","650c16f0f2faf8d7a0d14c09","651c1d2ce7b1372d39070b2a","4541"," ","<p>Great, you've seen the second block of words. You may now take a short break.</p>
      <p>Press the spacebar when you're ready to continue.</p>","","","","","","","","","",""
"html-keyboard-response","170","373638","0.0-12.0-0.0","610d2275ba5f1ee0fdcee3e8","650c16f0f2faf8d7a0d14c09","651c1d2ce7b1372d39070b2a","null","null","<p style=""font-size: 60px; font-family: BACS"">DOchlRCdc</p>","","","","","","","","","",""
"html-keyboard-response","171","374639","0.0-12.0-0.1","610d2275ba5f1ee0fdcee3e8","650c16f0f2faf8d7a0d14c09","651c1d2ce7b1372d39070b2a","null","null","<p style=""font-size: 60px; font-family: BACS"">tmtEMTAm</p>","","","","","","","","","",""
"html-keyboard-response","172","375642","0.0-12.0-0.2","610d2275ba5f1ee0fdcee3e8","650c16f0f2faf8d7a0d14c09","651c1d2ce7b1372d39070b2a","null","null","<p style=""font-size: 60px; font-family: BACS"">ArQuOcN</p>","","","","","","","","","",""
"html-keyboard-response","173","376653","0.0-12.0-0.3","610d2275ba5f1ee0fdcee3e8","650c16f0f2faf8d7a0d14c09","651c1d2ce7b1372d39070b2a","null","null","<p style=""font-size: 60px; font-family: BACS"">JauQZckv</p>","","","","","","","","","",""
"html-keyboard-response","174","377655","0.0-12.0-0.4","610d2275ba5f1ee0fdcee3e8","650c16f0f2faf8d7a0d14c09","651c1d2ce7b1372d39070b2a","null","null","<p style=""font-size: 60px; font-family: BACS"">mBbKTAm</p>","","","","","","","","","",""
"html-keyboard-response","175","378660","0.0-12.0-0.5","610d2275ba5f1ee0fdcee3e8","650c16f0f2faf8d7a0d14c09","651c1d2ce7b1372d39070b2a","null","null","<p style=""font-size: 60px; font-family: BACS"">ObZbAkdrO</p>","","","","","","","","","",""
"html-keyboard-response","176","379665","0.0-12.0-0.6","610d2275ba5f1ee0fdcee3e8","650c16f0f2faf8d7a0d14c09","651c1d2ce7b1372d39070b2a","null","null","<p style=""font-size: 60px; font-family: BACS"">MkmEdRdCc</p>","","","","","","","","","",""
"html-keyboard-response","177","380667","0.0-12.0-0.7","610d2275ba5f1ee0fdcee3e8","650c16f0f2faf8d7a0d14c09","651c1d2ce7b1372d39070b2a","null","null","<p style=""font-size: 60px; font-family: BACS"">mBbKbRC</p>","","","","","","","","","",""
"html-keyboard-response","178","381669","0.0-12.0-0.8","610d2275ba5f1ee0fdcee3e8","650c16f0f2faf8d7a0d14c09","651c1d2ce7b1372d39070b2a","null","null","<p style=""font-size: 60px; font-family: BACS"">DOchlOdOP</p>","","","","","","","","","",""
"html-keyboard-response","179","382671","0.0-12.0-0.9","610d2275ba5f1ee0fdcee3e8","650c16f0f2faf8d7a0d14c09","651c1d2ce7b1372d39070b2a","null","null","<p style=""font-size: 60px; font-family: BACS"">tmAKRdCc</p>","","","","","","","","","",""
"html-keyboard-response","180","383673","0.0-12.0-0.10","610d2275ba5f1ee0fdcee3e8","650c16f0f2faf8d7a0d14c09","651c1d2ce7b1372d39070b2a","null","null","<p style=""font-size: 60px; font-family: BACS"">lAOKMRCdc</p>","","","","","","","","","",""
"html-keyboard-response","181","384675","0.0-12.0-0.11","610d2275ba5f1ee0fdcee3e8","650c16f0f2faf8d7a0d14c09","651c1d2ce7b1372d39070b2a","null","null","<p style=""font-size: 60px; font-family: BACS"">ObOQlkmU</p>","","","","","","","","","",""
"html-keyboard-response","182","385689","0.0-12.0-0.12","610d2275ba5f1ee0fdcee3e8","650c16f0f2faf8d7a0d14c09","651c1d2ce7b1372d39070b2a","null","null","<p style=""font-size: 60px; font-family: BACS"">ArQuZvkL</p>","","","","","","","","","",""
"html-keyboard-response","183","386702","0.0-12.0-0.13","610d2275ba5f1ee0fdcee3e8","650c16f0f2faf8d7a0d14c09","651c1d2ce7b1372d39070b2a","null","null","<p style=""font-size: 60px; font-family: BACS"">KElBOdOP</p>","","","","","","","","","",""
"html-keyboard-response","184","387703","0.0-12.0-0.14","610d2275ba5f1ee0fdcee3e8","650c16f0f2faf8d7a0d14c09","651c1d2ce7b1372d39070b2a","null","null","<p style=""font-size: 60px; font-family: BACS"">lcOcOcN</p>","","","","","","","","","",""
"html-keyboard-response","185","388704","0.0-12.0-0.15","610d2275ba5f1ee0fdcee3e8","650c16f0f2faf8d7a0d14c09","651c1d2ce7b1372d39070b2a","null","null","<p style=""font-size: 60px; font-family: BACS"">ZvalvkmU</p>","","","","","","","","","",""
"html-keyboard-response","186","389705","0.0-12.0-0.16","610d2275ba5f1ee0fdcee3e8","650c16f0f2faf8d7a0d14c09","651c1d2ce7b1372d39070b2a","null","null","<p style=""font-size: 60px; font-family: BACS"">NJZlZvkL</p>","","","","","","","","","",""
"html-keyboard-response","187","390707","0.0-12.0-0.17","610d2275ba5f1ee0fdcee3e8","650c16f0f2faf8d7a0d14c09","651c1d2ce7b1372d39070b2a","null","null","<p style=""font-size: 60px; font-family: BACS"">tmtEMRdCc</p>","","","","","","","","","",""
"html-keyboard-response","188","391708","0.0-12.0-0.18","610d2275ba5f1ee0fdcee3e8","650c16f0f2faf8d7a0d14c09","651c1d2ce7b1372d39070b2a","null","null","<p style=""font-size: 60px; font-family: BACS"">ObZbAZvkL</p>","","","","","","","","","",""
"html-keyboard-response","189","392709","0.0-12.0-0.19","610d2275ba5f1ee0fdcee3e8","650c16f0f2faf8d7a0d14c09","651c1d2ce7b1372d39070b2a","null","null","<p style=""font-size: 60px; font-family: BACS"">ArQukdrO</p>","","","","","","","","","",""
"html-keyboard-response","190","393712","0.0-12.0-0.20","610d2275ba5f1ee0fdcee3e8","650c16f0f2faf8d7a0d14c09","651c1d2ce7b1372d39070b2a","null","null","<p style=""font-size: 60px; font-family: BACS"">MkmEdRCdc</p>","","","","","","","","","",""
"html-keyboard-response","191","394718","0.0-12.0-0.21","610d2275ba5f1ee0fdcee3e8","650c16f0f2faf8d7a0d14c09","651c1d2ce7b1372d39070b2a","null","null","<p style=""font-size: 60px; font-family: BACS"">tmAKTAm</p>","","","","","","","","","",""
"html-keyboard-response","192","395726","0.0-12.0-0.22","610d2275ba5f1ee0fdcee3e8","650c16f0f2faf8d7a0d14c09","651c1d2ce7b1372d39070b2a","null","null","<p style=""font-size: 60px; font-family: BACS"">YlCPBOdOP</p>","","","","","","","","","",""
"html-keyboard-response","193","396728","0.0-12.0-0.23","610d2275ba5f1ee0fdcee3e8","650c16f0f2faf8d7a0d14c09","651c1d2ce7b1372d39070b2a","null","null","<p style=""font-size: 60px; font-family: BACS"">JauQkmU</p>","","","","","","","","","",""
"html-keyboard-response","194","397735","0.0-12.0-0.24","610d2275ba5f1ee0fdcee3e8","650c16f0f2faf8d7a0d14c09","651c1d2ce7b1372d39070b2a","null","null","<p style=""font-size: 60px; font-family: BACS"">MkmEdTAm</p>","","","","","","","","","",""
"html-keyboard-response","195","398736","0.0-12.0-0.25","610d2275ba5f1ee0fdcee3e8","650c16f0f2faf8d7a0d14c09","651c1d2ce7b1372d39070b2a","null","null","<p style=""font-size: 60px; font-family: BACS"">ubALmZckv</p>","","","","","","","","","",""
"html-keyboard-response","196","399737","0.0-12.0-0.26","610d2275ba5f1ee0fdcee3e8","650c16f0f2faf8d7a0d14c09","651c1d2ce7b1372d39070b2a","null","null","<p style=""font-size: 60px; font-family: BACS"">kNuaZvkL</p>","","","","","","","","","",""
"html-keyboard-response","197","400741","0.0-12.0-0.27","610d2275ba5f1ee0fdcee3e8","650c16f0f2faf8d7a0d14c09","651c1d2ce7b1372d39070b2a","null","null","<p style=""font-size: 60px; font-family: BACS"">mBbKRdCc</p>","","","","","","","","","",""
"html-keyboard-response","198","401743","0.0-12.0-0.28","610d2275ba5f1ee0fdcee3e8","650c16f0f2faf8d7a0d14c09","651c1d2ce7b1372d39070b2a","null","null","<p style=""font-size: 60px; font-family: BACS"">ubALmkdrO</p>","","","","","","","","","",""
"html-keyboard-response","199","402743","0.0-12.0-0.29","610d2275ba5f1ee0fdcee3e8","650c16f0f2faf8d7a0d14c09","651c1d2ce7b1372d39070b2a","null","null","<p style=""font-size: 60px; font-family: BACS"">JauQOcN</p>","","","","","","","","","",""
"html-keyboard-response","200","403744","0.0-12.0-0.30","610d2275ba5f1ee0fdcee3e8","650c16f0f2faf8d7a0d14c09","651c1d2ce7b1372d39070b2a","null","null","<p style=""font-size: 60px; font-family: BACS"">DkTCPRCdc</p>","","","","","","","","","",""
"html-keyboard-response","201","404746","0.0-12.0-0.31","610d2275ba5f1ee0fdcee3e8","650c16f0f2faf8d7a0d14c09","651c1d2ce7b1372d39070b2a","null","null","<p style=""font-size: 60px; font-family: BACS"">ObOQlZvkL</p>","","","","","","","","","",""
"html-keyboard-response","202","405747","0.0-12.0-0.32","610d2275ba5f1ee0fdcee3e8","650c16f0f2faf8d7a0d14c09","651c1d2ce7b1372d39070b2a","null","null","<p style=""font-size: 60px; font-family: BACS"">QcQAJOcN</p>","","","","","","","","","",""
"html-keyboard-response","203","406749","0.0-12.0-0.33","610d2275ba5f1ee0fdcee3e8","650c16f0f2faf8d7a0d14c09","651c1d2ce7b1372d39070b2a","null","null","<p style=""font-size: 60px; font-family: BACS"">tmtEMbRC</p>","","","","","","","","","",""
"html-keyboard-response","204","407750","0.0-12.0-0.34","610d2275ba5f1ee0fdcee3e8","650c16f0f2faf8d7a0d14c09","651c1d2ce7b1372d39070b2a","null","null","<p style=""font-size: 60px; font-family: BACS"">ubALmOcN</p>","","","","","","","","","",""
"html-keyboard-response","205","408758","0.0-12.0-0.35","610d2275ba5f1ee0fdcee3e8","650c16f0f2faf8d7a0d14c09","651c1d2ce7b1372d39070b2a","null","null","<p style=""font-size: 60px; font-family: BACS"">DOchlTAm</p>","","","","","","","","","",""
"html-keyboard-response","206","409758","0.0-12.0-0.36","610d2275ba5f1ee0fdcee3e8","650c16f0f2faf8d7a0d14c09","651c1d2ce7b1372d39070b2a","null","null","<p style=""font-size: 60px; font-family: BACS"">lAOKMRdCc</p>","","","","","","","","","",""
"html-keyboard-response","207","410769","0.0-12.0-0.37","610d2275ba5f1ee0fdcee3e8","650c16f0f2faf8d7a0d14c09","651c1d2ce7b1372d39070b2a","null","null","<p style=""font-size: 60px; font-family: BACS"">ZvalvOcN</p>","","","","","","","","","",""
"html-keyboard-response","208","411771","0.0-12.0-0.38","610d2275ba5f1ee0fdcee3e8","650c16f0f2faf8d7a0d14c09","651c1d2ce7b1372d39070b2a","null","null","<p style=""font-size: 60px; font-family: BACS"">DOchlRdCc</p>","","","","","","","","","",""
"html-keyboard-response","209","412772","0.0-12.0-0.39","610d2275ba5f1ee0fdcee3e8","650c16f0f2faf8d7a0d14c09","651c1d2ce7b1372d39070b2a","null","null","<p style=""font-size: 60px; font-family: BACS"">KElBRCdc</p>","","","","","","","","","",""
"html-keyboard-response","210","413773","0.0-12.0-0.40","610d2275ba5f1ee0fdcee3e8","650c16f0f2faf8d7a0d14c09","651c1d2ce7b1372d39070b2a","null","null","<p style=""font-size: 60px; font-family: BACS"">lcOcZvkL</p>","","","","","","","","","",""
"html-keyboard-response","211","414773","0.0-12.0-0.41","610d2275ba5f1ee0fdcee3e8","650c16f0f2faf8d7a0d14c09","651c1d2ce7b1372d39070b2a","null","null","<p style=""font-size: 60px; font-family: BACS"">cBROBOdOP</p>","","","","","","","","","",""
"html-keyboard-response","212","415775","0.0-12.0-0.42","610d2275ba5f1ee0fdcee3e8","650c16f0f2faf8d7a0d14c09","651c1d2ce7b1372d39070b2a","null","null","<p style=""font-size: 60px; font-family: BACS"">kNuakdrO</p>","","","","","","","","","",""
"html-keyboard-response","213","416791","0.0-12.0-0.43","610d2275ba5f1ee0fdcee3e8","650c16f0f2faf8d7a0d14c09","651c1d2ce7b1372d39070b2a","null","null","<p style=""font-size: 60px; font-family: BACS"">lAOKMOdOP</p>","","","","","","","","","",""
"html-keyboard-response","214","417800","0.0-12.0-0.44","610d2275ba5f1ee0fdcee3e8","650c16f0f2faf8d7a0d14c09","651c1d2ce7b1372d39070b2a","null","null","<p style=""font-size: 60px; font-family: BACS"">YlCPBbRC</p>","","","","","","","","","",""
"html-keyboard-response","215","418812","0.0-12.0-0.45","610d2275ba5f1ee0fdcee3e8","650c16f0f2faf8d7a0d14c09","651c1d2ce7b1372d39070b2a","null","null","<p style=""font-size: 60px; font-family: BACS"">mBbKRCdc</p>","","","","","","","","","",""
"html-keyboard-response","216","419814","0.0-12.0-0.46","610d2275ba5f1ee0fdcee3e8","650c16f0f2faf8d7a0d14c09","651c1d2ce7b1372d39070b2a","null","null","<p style=""font-size: 60px; font-family: BACS"">kNuakmU</p>","","","","","","","","","",""
"html-keyboard-response","217","420815","0.0-12.0-0.47","610d2275ba5f1ee0fdcee3e8","650c16f0f2faf8d7a0d14c09","651c1d2ce7b1372d39070b2a","null","null","<p style=""font-size: 60px; font-family: BACS"">cBROBRCdc</p>","","","","","","","","","",""
"html-keyboard-response","218","421821","0.0-12.0-0.48","610d2275ba5f1ee0fdcee3e8","650c16f0f2faf8d7a0d14c09","651c1d2ce7b1372d39070b2a","null","null","<p style=""font-size: 60px; font-family: BACS"">QcQAJZckv</p>","","","","","","","","","",""
"html-keyboard-response","219","422835","0.0-12.0-0.49","610d2275ba5f1ee0fdcee3e8","650c16f0f2faf8d7a0d14c09","651c1d2ce7b1372d39070b2a","null","null","<p style=""font-size: 60px; font-family: BACS"">DkTCPOdOP</p>","","","","","","","","","",""
"html-keyboard-response","220","423848","0.0-12.0-0.50","610d2275ba5f1ee0fdcee3e8","650c16f0f2faf8d7a0d14c09","651c1d2ce7b1372d39070b2a","null","null","<p style=""font-size: 60px; font-family: BACS"">ubALmkmU</p>","","","","","","","","","",""
"html-keyboard-response","221","424849","0.0-12.0-0.51","610d2275ba5f1ee0fdcee3e8","650c16f0f2faf8d7a0d14c09","651c1d2ce7b1372d39070b2a","null","null","<p style=""font-size: 60px; font-family: BACS"">ObOQlkdrO</p>","","","","","","","","","",""
"html-keyboard-response","222","425851","0.0-12.0-0.52","610d2275ba5f1ee0fdcee3e8","650c16f0f2faf8d7a0d14c09","651c1d2ce7b1372d39070b2a","null","null","<p style=""font-size: 60px; font-family: BACS"">ZvalvZvkL</p>","","","","","","","","","",""
"html-keyboard-response","223","426853","0.0-12.0-0.53","610d2275ba5f1ee0fdcee3e8","650c16f0f2faf8d7a0d14c09","651c1d2ce7b1372d39070b2a","null","null","<p style=""font-size: 60px; font-family: BACS"">cBROBRdCc</p>","","","","","","","","","",""
"html-keyboard-response","224","427854","0.0-12.0-0.54","610d2275ba5f1ee0fdcee3e8","650c16f0f2faf8d7a0d14c09","651c1d2ce7b1372d39070b2a","null","null","<p style=""font-size: 60px; font-family: BACS"">KElBbRC</p>","","","","","","","","","",""
"html-keyboard-response","225","428854","0.0-12.0-0.55","610d2275ba5f1ee0fdcee3e8","650c16f0f2faf8d7a0d14c09","651c1d2ce7b1372d39070b2a","null","null","<p style=""font-size: 60px; font-family: BACS"">NJZlkdrO</p>","","","","","","","","","",""
"html-keyboard-response","226","429868","0.0-12.0-0.56","610d2275ba5f1ee0fdcee3e8","650c16f0f2faf8d7a0d14c09","651c1d2ce7b1372d39070b2a","null","null","<p style=""font-size: 60px; font-family: BACS"">tmAKOdOP</p>","","","","","","","","","",""
"html-keyboard-response","227","430870","0.0-12.0-0.57","610d2275ba5f1ee0fdcee3e8","650c16f0f2faf8d7a0d14c09","651c1d2ce7b1372d39070b2a","null","null","<p style=""font-size: 60px; font-family: BACS"">ObOQlZckv</p>","","","","","","","","","",""
"html-keyboard-response","228","431871","0.0-12.0-0.58","610d2275ba5f1ee0fdcee3e8","650c16f0f2faf8d7a0d14c09","651c1d2ce7b1372d39070b2a","null","null","<p style=""font-size: 60px; font-family: BACS"">NJZlOcN</p>","","","","","","","","","",""
"html-keyboard-response","229","432877","0.0-12.0-0.59","610d2275ba5f1ee0fdcee3e8","650c16f0f2faf8d7a0d14c09","651c1d2ce7b1372d39070b2a","null","null","<p style=""font-size: 60px; font-family: BACS"">YlCPBRdCc</p>","","","","","","","","","",""
"html-keyboard-response","230","433879","0.0-12.0-0.60","610d2275ba5f1ee0fdcee3e8","650c16f0f2faf8d7a0d14c09","651c1d2ce7b1372d39070b2a","null","null","<p style=""font-size: 60px; font-family: BACS"">lcOckmU</p>","","","","","","","","","",""
"html-keyboard-response","231","434881","0.0-12.0-0.61","610d2275ba5f1ee0fdcee3e8","650c16f0f2faf8d7a0d14c09","651c1d2ce7b1372d39070b2a","null","null","<p style=""font-size: 60px; font-family: BACS"">KElBTAm</p>","","","","","","","","","",""
"html-keyboard-response","232","435881","0.0-12.0-0.62","610d2275ba5f1ee0fdcee3e8","650c16f0f2faf8d7a0d14c09","651c1d2ce7b1372d39070b2a","null","null","<p style=""font-size: 60px; font-family: BACS"">MkmEdbRC</p>","","","","","","","","","",""
"html-keyboard-response","233","436896","0.0-12.0-0.63","610d2275ba5f1ee0fdcee3e8","650c16f0f2faf8d7a0d14c09","651c1d2ce7b1372d39070b2a","null","null","<p style=""font-size: 60px; font-family: BACS"">ObZbAZckv</p>","","","","","","","","","",""
"html-keyboard-response","234","437897","0.0-12.0-0.64","610d2275ba5f1ee0fdcee3e8","650c16f0f2faf8d7a0d14c09","651c1d2ce7b1372d39070b2a","null","null","<p style=""font-size: 60px; font-family: BACS"">QcQAJkdrO</p>","","","","","","","","","",""
"html-keyboard-response","235","438903","0.0-12.0-0.65","610d2275ba5f1ee0fdcee3e8","650c16f0f2faf8d7a0d14c09","651c1d2ce7b1372d39070b2a","null","null","<p style=""font-size: 60px; font-family: BACS"">lcOcZckv</p>","","","","","","","","","",""
"html-keyboard-response","236","439905","0.0-12.0-0.66","610d2275ba5f1ee0fdcee3e8","650c16f0f2faf8d7a0d14c09","651c1d2ce7b1372d39070b2a","null","null","<p style=""font-size: 60px; font-family: BACS"">ObZbAOcN</p>","","","","","","","","","",""
"html-keyboard-response","237","440906","0.0-12.0-0.67","610d2275ba5f1ee0fdcee3e8","650c16f0f2faf8d7a0d14c09","651c1d2ce7b1372d39070b2a","null","null","<p style=""font-size: 60px; font-family: BACS"">DkTCPTAm</p>","","","","","","","","","",""
"html-keyboard-response","238","441907","0.0-12.0-0.68","610d2275ba5f1ee0fdcee3e8","650c16f0f2faf8d7a0d14c09","651c1d2ce7b1372d39070b2a","null","null","<p style=""font-size: 60px; font-family: BACS"">ZvalvkdrO</p>","","","","","","","","","",""
"html-keyboard-response","239","442909","0.0-12.0-0.69","610d2275ba5f1ee0fdcee3e8","650c16f0f2faf8d7a0d14c09","651c1d2ce7b1372d39070b2a","null","null","<p style=""font-size: 60px; font-family: BACS"">kNuaZckv</p>","","","","","","","","","",""
"html-keyboard-response","240","443910","0.0-12.0-0.70","610d2275ba5f1ee0fdcee3e8","650c16f0f2faf8d7a0d14c09","651c1d2ce7b1372d39070b2a","null","null","<p style=""font-size: 60px; font-family: BACS"">JauQZvkL</p>","","","","","","","","","",""
"html-keyboard-response","241","444921","0.0-12.0-0.71","610d2275ba5f1ee0fdcee3e8","650c16f0f2faf8d7a0d14c09","651c1d2ce7b1372d39070b2a","null","null","<p style=""font-size: 60px; font-family: BACS"">QcQAJkmU</p>","","","","","","","","","",""
"html-keyboard-response","242","445922","0.0-12.0-0.72","610d2275ba5f1ee0fdcee3e8","650c16f0f2faf8d7a0d14c09","651c1d2ce7b1372d39070b2a","null","null","<p style=""font-size: 60px; font-family: BACS"">NJZlZckv</p>","","","","","","","","","",""
"html-keyboard-response","243","446932","0.0-12.0-0.73","610d2275ba5f1ee0fdcee3e8","650c16f0f2faf8d7a0d14c09","651c1d2ce7b1372d39070b2a","null","null","<p style=""font-size: 60px; font-family: BACS"">tmAKbRC</p>","","","","","","","","","",""
"html-keyboard-response","244","447933","0.0-12.0-0.74","610d2275ba5f1ee0fdcee3e8","650c16f0f2faf8d7a0d14c09","651c1d2ce7b1372d39070b2a","null","null","<p style=""font-size: 60px; font-family: BACS"">ArQukmU</p>","","","","","","","","","",""
"html-keyboard-response","245","448934","0.0-12.0-0.75","610d2275ba5f1ee0fdcee3e8","650c16f0f2faf8d7a0d14c09","651c1d2ce7b1372d39070b2a","null","null","<p style=""font-size: 60px; font-family: BACS"">DkTCPbRC</p>","","","","","","","","","",""
"html-keyboard-response","246","449936","0.0-12.0-0.76","610d2275ba5f1ee0fdcee3e8","650c16f0f2faf8d7a0d14c09","651c1d2ce7b1372d39070b2a","null","null","<p style=""font-size: 60px; font-family: BACS"">tmtEMOdOP</p>","","","","","","","","","",""
"html-keyboard-response","247","450937","0.0-12.0-0.77","610d2275ba5f1ee0fdcee3e8","650c16f0f2faf8d7a0d14c09","651c1d2ce7b1372d39070b2a","null","null","<p style=""font-size: 60px; font-family: BACS"">cBROBTAm</p>","","","","","","","","","",""
"html-keyboard-response","248","451938","0.0-12.0-0.78","610d2275ba5f1ee0fdcee3e8","650c16f0f2faf8d7a0d14c09","651c1d2ce7b1372d39070b2a","null","null","<p style=""font-size: 60px; font-family: BACS"">lAOKMbRC</p>","","","","","","","","","",""
"html-keyboard-response","249","452939","0.0-12.0-0.79","610d2275ba5f1ee0fdcee3e8","650c16f0f2faf8d7a0d14c09","651c1d2ce7b1372d39070b2a","null","null","<p style=""font-size: 60px; font-family: BACS"">YlCPBRCdc</p>","","","","","","","","","",""
"html-keyboard-response","250","456139","0.0-13.0","610d2275ba5f1ee0fdcee3e8","650c16f0f2faf8d7a0d14c09","651c1d2ce7b1372d39070b2a","3200"," ","<p>Great, you've seen the third block of words. You may now take a short break.</p>
      <p>Press the spacebar when you're ready to continue.</p>","","","","","","","","","",""
"html-keyboard-response","251","457141","0.0-14.0-0.0","610d2275ba5f1ee0fdcee3e8","650c16f0f2faf8d7a0d14c09","651c1d2ce7b1372d39070b2a","null","null","<p style=""font-size: 60px; font-family: BACS"">mBbKRCdc</p>","","","","","","","","","",""
"html-keyboard-response","252","458142","0.0-14.0-0.1","610d2275ba5f1ee0fdcee3e8","650c16f0f2faf8d7a0d14c09","651c1d2ce7b1372d39070b2a","null","null","<p style=""font-size: 60px; font-family: BACS"">QcQAJkdrO</p>","","","","","","","","","",""
"html-keyboard-response","253","459142","0.0-14.0-0.2","610d2275ba5f1ee0fdcee3e8","650c16f0f2faf8d7a0d14c09","651c1d2ce7b1372d39070b2a","null","null","<p style=""font-size: 60px; font-family: BACS"">kNuaZvkL</p>","","","","","","","","","",""
"html-keyboard-response","254","460144","0.0-14.0-0.3","610d2275ba5f1ee0fdcee3e8","650c16f0f2faf8d7a0d14c09","651c1d2ce7b1372d39070b2a","null","null","<p style=""font-size: 60px; font-family: BACS"">ObOQlkmU</p>","","","","","","","","","",""
"html-keyboard-response","255","461146","0.0-14.0-0.4","610d2275ba5f1ee0fdcee3e8","650c16f0f2faf8d7a0d14c09","651c1d2ce7b1372d39070b2a","null","null","<p style=""font-size: 60px; font-family: BACS"">DkTCPRCdc</p>","","","","","","","","","",""
"html-keyboard-response","256","462147","0.0-14.0-0.5","610d2275ba5f1ee0fdcee3e8","650c16f0f2faf8d7a0d14c09","651c1d2ce7b1372d39070b2a","null","null","<p style=""font-size: 60px; font-family: BACS"">KElBTAm</p>","","","","","","","","","",""
"html-keyboard-response","257","463147","0.0-14.0-0.6","610d2275ba5f1ee0fdcee3e8","650c16f0f2faf8d7a0d14c09","651c1d2ce7b1372d39070b2a","null","null","<p style=""font-size: 60px; font-family: BACS"">ZvalvOcN</p>","","","","","","","","","",""
"html-keyboard-response","258","464149","0.0-14.0-0.7","610d2275ba5f1ee0fdcee3e8","650c16f0f2faf8d7a0d14c09","651c1d2ce7b1372d39070b2a","null","null","<p style=""font-size: 60px; font-family: BACS"">ubALmZckv</p>","","","","","","","","","",""
"html-keyboard-response","259","465149","0.0-14.0-0.8","610d2275ba5f1ee0fdcee3e8","650c16f0f2faf8d7a0d14c09","651c1d2ce7b1372d39070b2a","null","null","<p style=""font-size: 60px; font-family: BACS"">ObOQlkdrO</p>","","","","","","","","","",""
"html-keyboard-response","260","466151","0.0-14.0-0.9","610d2275ba5f1ee0fdcee3e8","650c16f0f2faf8d7a0d14c09","651c1d2ce7b1372d39070b2a","null","null","<p style=""font-size: 60px; font-family: BACS"">lAOKMOdOP</p>","","","","","","","","","",""
"html-keyboard-response","261","467152","0.0-14.0-0.10","610d2275ba5f1ee0fdcee3e8","650c16f0f2faf8d7a0d14c09","651c1d2ce7b1372d39070b2a","null","null","<p style=""font-size: 60px; font-family: BACS"">NJZlkdrO</p>","","","","","","","","","",""
"html-keyboard-response","262","468153","0.0-14.0-0.11","610d2275ba5f1ee0fdcee3e8","650c16f0f2faf8d7a0d14c09","651c1d2ce7b1372d39070b2a","null","null","<p style=""font-size: 60px; font-family: BACS"">tmAKRdCc</p>","","","","","","","","","",""
"html-keyboard-response","263","469155","0.0-14.0-0.12","610d2275ba5f1ee0fdcee3e8","650c16f0f2faf8d7a0d14c09","651c1d2ce7b1372d39070b2a","null","null","<p style=""font-size: 60px; font-family: BACS"">lcOcOcN</p>","","","","","","","","","",""
"html-keyboard-response","264","470170","0.0-14.0-0.13","610d2275ba5f1ee0fdcee3e8","650c16f0f2faf8d7a0d14c09","651c1d2ce7b1372d39070b2a","null","null","<p style=""font-size: 60px; font-family: BACS"">MkmEdRdCc</p>","","","","","","","","","",""
"html-keyboard-response","265","471172","0.0-14.0-0.14","610d2275ba5f1ee0fdcee3e8","650c16f0f2faf8d7a0d14c09","651c1d2ce7b1372d39070b2a","null","null","<p style=""font-size: 60px; font-family: BACS"">kNuaZckv</p>","","","","","","","","","",""
"html-keyboard-response","266","472179","0.0-14.0-0.15","610d2275ba5f1ee0fdcee3e8","650c16f0f2faf8d7a0d14c09","651c1d2ce7b1372d39070b2a","null","null","<p style=""font-size: 60px; font-family: BACS"">QcQAJOcN</p>","","","","","","","","","",""
"html-keyboard-response","267","473181","0.0-14.0-0.16","610d2275ba5f1ee0fdcee3e8","650c16f0f2faf8d7a0d14c09","651c1d2ce7b1372d39070b2a","null","null","<p style=""font-size: 60px; font-family: BACS"">cBROBRCdc</p>","","","","","","","","","",""
"html-keyboard-response","268","474182","0.0-14.0-0.17","610d2275ba5f1ee0fdcee3e8","650c16f0f2faf8d7a0d14c09","651c1d2ce7b1372d39070b2a","null","null","<p style=""font-size: 60px; font-family: BACS"">mBbKbRC</p>","","","","","","","","","",""
"html-keyboard-response","269","475184","0.0-14.0-0.18","610d2275ba5f1ee0fdcee3e8","650c16f0f2faf8d7a0d14c09","651c1d2ce7b1372d39070b2a","null","null","<p style=""font-size: 60px; font-family: BACS"">tmtEMRdCc</p>","","","","","","","","","",""
"html-keyboard-response","270","476185","0.0-14.0-0.19","610d2275ba5f1ee0fdcee3e8","650c16f0f2faf8d7a0d14c09","651c1d2ce7b1372d39070b2a","null","null","<p style=""font-size: 60px; font-family: BACS"">YlCPBbRC</p>","","","","","","","","","",""
"html-keyboard-response","271","477192","0.0-14.0-0.20","610d2275ba5f1ee0fdcee3e8","650c16f0f2faf8d7a0d14c09","651c1d2ce7b1372d39070b2a","null","null","<p style=""font-size: 60px; font-family: BACS"">QcQAJkmU</p>","","","","","","","","","",""
"html-keyboard-response","272","478193","0.0-14.0-0.21","610d2275ba5f1ee0fdcee3e8","650c16f0f2faf8d7a0d14c09","651c1d2ce7b1372d39070b2a","null","null","<p style=""font-size: 60px; font-family: BACS"">NJZlOcN</p>","","","","","","","","","",""
"html-keyboard-response","273","479194","0.0-14.0-0.22","610d2275ba5f1ee0fdcee3e8","650c16f0f2faf8d7a0d14c09","651c1d2ce7b1372d39070b2a","null","null","<p style=""font-size: 60px; font-family: BACS"">YlCPBRCdc</p>","","","","","","","","","",""
"html-keyboard-response","274","480207","0.0-14.0-0.23","610d2275ba5f1ee0fdcee3e8","650c16f0f2faf8d7a0d14c09","651c1d2ce7b1372d39070b2a","null","null","<p style=""font-size: 60px; font-family: BACS"">ObZbAOcN</p>","","","","","","","","","",""
"html-keyboard-response","275","481208","0.0-14.0-0.24","610d2275ba5f1ee0fdcee3e8","650c16f0f2faf8d7a0d14c09","651c1d2ce7b1372d39070b2a","null","null","<p style=""font-size: 60px; font-family: BACS"">YlCPBOdOP</p>","","","","","","","","","",""
"html-keyboard-response","276","482209","0.0-14.0-0.25","610d2275ba5f1ee0fdcee3e8","650c16f0f2faf8d7a0d14c09","651c1d2ce7b1372d39070b2a","null","null","<p style=""font-size: 60px; font-family: BACS"">ubALmkmU</p>","","","","","","","","","",""
"html-keyboard-response","277","483216","0.0-14.0-0.26","610d2275ba5f1ee0fdcee3e8","650c16f0f2faf8d7a0d14c09","651c1d2ce7b1372d39070b2a","null","null","<p style=""font-size: 60px; font-family: BACS"">lcOcZckv</p>","","","","","","","","","",""
"html-keyboard-response","278","484225","0.0-14.0-0.27","610d2275ba5f1ee0fdcee3e8","650c16f0f2faf8d7a0d14c09","651c1d2ce7b1372d39070b2a","null","null","<p style=""font-size: 60px; font-family: BACS"">tmtEMbRC</p>","","","","","","","","","",""
"html-keyboard-response","279","485227","0.0-14.0-0.28","610d2275ba5f1ee0fdcee3e8","650c16f0f2faf8d7a0d14c09","651c1d2ce7b1372d39070b2a","null","null","<p style=""font-size: 60px; font-family: BACS"">lAOKMRdCc</p>","","","","","","","","","",""
"html-keyboard-response","280","486239","0.0-14.0-0.29","610d2275ba5f1ee0fdcee3e8","650c16f0f2faf8d7a0d14c09","651c1d2ce7b1372d39070b2a","null","null","<p style=""font-size: 60px; font-family: BACS"">tmAKbRC</p>","","","","","","","","","",""
"html-keyboard-response","281","487240","0.0-14.0-0.30","610d2275ba5f1ee0fdcee3e8","650c16f0f2faf8d7a0d14c09","651c1d2ce7b1372d39070b2a","null","null","<p style=""font-size: 60px; font-family: BACS"">lcOckmU</p>","","","","","","","","","",""
"html-keyboard-response","282","488242","0.0-14.0-0.31","610d2275ba5f1ee0fdcee3e8","650c16f0f2faf8d7a0d14c09","651c1d2ce7b1372d39070b2a","null","null","<p style=""font-size: 60px; font-family: BACS"">JauQOcN</p>","","","","","","","","","",""
"html-keyboard-response","283","489243","0.0-14.0-0.32","610d2275ba5f1ee0fdcee3e8","650c16f0f2faf8d7a0d14c09","651c1d2ce7b1372d39070b2a","null","null","<p style=""font-size: 60px; font-family: BACS"">tmtEMTAm</p>","","","","","","","","","",""
"html-keyboard-response","284","490254","0.0-14.0-0.33","610d2275ba5f1ee0fdcee3e8","650c16f0f2faf8d7a0d14c09","651c1d2ce7b1372d39070b2a","null","null","<p style=""font-size: 60px; font-family: BACS"">DOchlRdCc</p>","","","","","","","","","",""
"html-keyboard-response","285","491263","0.0-14.0-0.34","610d2275ba5f1ee0fdcee3e8","650c16f0f2faf8d7a0d14c09","651c1d2ce7b1372d39070b2a","null","null","<p style=""font-size: 60px; font-family: BACS"">MkmEdTAm</p>","","","","","","","","","",""
"html-keyboard-response","286","492264","0.0-14.0-0.35","610d2275ba5f1ee0fdcee3e8","650c16f0f2faf8d7a0d14c09","651c1d2ce7b1372d39070b2a","null","null","<p style=""font-size: 60px; font-family: BACS"">ubALmOcN</p>","","","","","","","","","",""
"html-keyboard-response","287","493265","0.0-14.0-0.36","610d2275ba5f1ee0fdcee3e8","650c16f0f2faf8d7a0d14c09","651c1d2ce7b1372d39070b2a","null","null","<p style=""font-size: 60px; font-family: BACS"">QcQAJZckv</p>","","","","","","","","","",""
"html-keyboard-response","288","494267","0.0-14.0-0.37","610d2275ba5f1ee0fdcee3e8","650c16f0f2faf8d7a0d14c09","651c1d2ce7b1372d39070b2a","null","null","<p style=""font-size: 60px; font-family: BACS"">ArQukdrO</p>","","","","","","","","","",""
"html-keyboard-response","289","495268","0.0-14.0-0.38","610d2275ba5f1ee0fdcee3e8","650c16f0f2faf8d7a0d14c09","651c1d2ce7b1372d39070b2a","null","null","<p style=""font-size: 60px; font-family: BACS"">lAOKMRCdc</p>","","","","","","","","","",""
"html-keyboard-response","290","496269","0.0-14.0-0.39","610d2275ba5f1ee0fdcee3e8","650c16f0f2faf8d7a0d14c09","651c1d2ce7b1372d39070b2a","null","null","<p style=""font-size: 60px; font-family: BACS"">JauQZckv</p>","","","","","","","","","",""
"html-keyboard-response","291","497273","0.0-14.0-0.40","610d2275ba5f1ee0fdcee3e8","650c16f0f2faf8d7a0d14c09","651c1d2ce7b1372d39070b2a","null","null","<p style=""font-size: 60px; font-family: BACS"">ObZbAZvkL</p>","","","","","","","","","",""
"html-keyboard-response","292","498274","0.0-14.0-0.41","610d2275ba5f1ee0fdcee3e8","650c16f0f2faf8d7a0d14c09","651c1d2ce7b1372d39070b2a","null","null","<p style=""font-size: 60px; font-family: BACS"">cBROBOdOP</p>","","","","","","","","","",""
"html-keyboard-response","293","499275","0.0-14.0-0.42","610d2275ba5f1ee0fdcee3e8","650c16f0f2faf8d7a0d14c09","651c1d2ce7b1372d39070b2a","null","null","<p style=""font-size: 60px; font-family: BACS"">lcOcZvkL</p>","","","","","","","","","",""
"html-keyboard-response","294","500276","0.0-14.0-0.43","610d2275ba5f1ee0fdcee3e8","650c16f0f2faf8d7a0d14c09","651c1d2ce7b1372d39070b2a","null","null","<p style=""font-size: 60px; font-family: BACS"">ArQukmU</p>","","","","","","","","","",""
"html-keyboard-response","295","501292","0.0-14.0-0.44","610d2275ba5f1ee0fdcee3e8","650c16f0f2faf8d7a0d14c09","651c1d2ce7b1372d39070b2a","null","null","<p style=""font-size: 60px; font-family: BACS"">MkmEdbRC</p>","","","","","","","","","",""
"html-keyboard-response","296","502305","0.0-14.0-0.45","610d2275ba5f1ee0fdcee3e8","650c16f0f2faf8d7a0d14c09","651c1d2ce7b1372d39070b2a","null","null","<p style=""font-size: 60px; font-family: BACS"">tmAKTAm</p>","","","","","","","","","",""
"html-keyboard-response","297","503316","0.0-14.0-0.46","610d2275ba5f1ee0fdcee3e8","650c16f0f2faf8d7a0d14c09","651c1d2ce7b1372d39070b2a","null","null","<p style=""font-size: 60px; font-family: BACS"">ObZbAZckv</p>","","","","","","","","","",""
"html-keyboard-response","298","504326","0.0-14.0-0.47","610d2275ba5f1ee0fdcee3e8","650c16f0f2faf8d7a0d14c09","651c1d2ce7b1372d39070b2a","null","null","<p style=""font-size: 60px; font-family: BACS"">kNuakdrO</p>","","","","","","","","","",""
"html-keyboard-response","299","505327","0.0-14.0-0.48","610d2275ba5f1ee0fdcee3e8","650c16f0f2faf8d7a0d14c09","651c1d2ce7b1372d39070b2a","null","null","<p style=""font-size: 60px; font-family: BACS"">KElBRCdc</p>","","","","","","","","","",""
"html-keyboard-response","300","506328","0.0-14.0-0.49","610d2275ba5f1ee0fdcee3e8","650c16f0f2faf8d7a0d14c09","651c1d2ce7b1372d39070b2a","null","null","<p style=""font-size: 60px; font-family: BACS"">ObOQlZckv</p>","","","","","","","","","",""
"html-keyboard-response","301","507330","0.0-14.0-0.50","610d2275ba5f1ee0fdcee3e8","650c16f0f2faf8d7a0d14c09","651c1d2ce7b1372d39070b2a","null","null","<p style=""font-size: 60px; font-family: BACS"">ZvalvkdrO</p>","","","","","","","","","",""
"html-keyboard-response","302","508332","0.0-14.0-0.51","610d2275ba5f1ee0fdcee3e8","650c16f0f2faf8d7a0d14c09","651c1d2ce7b1372d39070b2a","null","null","<p style=""font-size: 60px; font-family: BACS"">ArQuOcN</p>","","","","","","","","","",""
"html-keyboard-response","303","509333","0.0-14.0-0.52","610d2275ba5f1ee0fdcee3e8","650c16f0f2faf8d7a0d14c09","651c1d2ce7b1372d39070b2a","null","null","<p style=""font-size: 60px; font-family: BACS"">DOchlRCdc</p>","","","","","","","","","",""
"html-keyboard-response","304","510335","0.0-14.0-0.53","610d2275ba5f1ee0fdcee3e8","650c16f0f2faf8d7a0d14c09","651c1d2ce7b1372d39070b2a","null","null","<p style=""font-size: 60px; font-family: BACS"">DkTCPbRC</p>","","","","","","","","","",""
"html-keyboard-response","305","511336","0.0-14.0-0.54","610d2275ba5f1ee0fdcee3e8","650c16f0f2faf8d7a0d14c09","651c1d2ce7b1372d39070b2a","null","null","<p style=""font-size: 60px; font-family: BACS"">cBROBTAm</p>","","","","","","","","","",""
"html-keyboard-response","306","512337","0.0-14.0-0.55","610d2275ba5f1ee0fdcee3e8","650c16f0f2faf8d7a0d14c09","651c1d2ce7b1372d39070b2a","null","null","<p style=""font-size: 60px; font-family: BACS"">ZvalvZvkL</p>","","","","","","","","","",""
"html-keyboard-response","307","513339","0.0-14.0-0.56","610d2275ba5f1ee0fdcee3e8","650c16f0f2faf8d7a0d14c09","651c1d2ce7b1372d39070b2a","null","null","<p style=""font-size: 60px; font-family: BACS"">YlCPBRdCc</p>","","","","","","","","","",""
"html-keyboard-response","308","514340","0.0-14.0-0.57","610d2275ba5f1ee0fdcee3e8","650c16f0f2faf8d7a0d14c09","651c1d2ce7b1372d39070b2a","null","null","<p style=""font-size: 60px; font-family: BACS"">MkmEdRCdc</p>","","","","","","","","","",""
"html-keyboard-response","309","515341","0.0-14.0-0.58","610d2275ba5f1ee0fdcee3e8","650c16f0f2faf8d7a0d14c09","651c1d2ce7b1372d39070b2a","null","null","<p style=""font-size: 60px; font-family: BACS"">ObOQlZvkL</p>","","","","","","","","","",""
"html-keyboard-response","310","516350","0.0-14.0-0.59","610d2275ba5f1ee0fdcee3e8","650c16f0f2faf8d7a0d14c09","651c1d2ce7b1372d39070b2a","null","null","<p style=""font-size: 60px; font-family: BACS"">tmtEMOdOP</p>","","","","","","","","","",""
"html-keyboard-response","311","517363","0.0-14.0-0.60","610d2275ba5f1ee0fdcee3e8","650c16f0f2faf8d7a0d14c09","651c1d2ce7b1372d39070b2a","null","null","<p style=""font-size: 60px; font-family: BACS"">mBbKTAm</p>","","","","","","","","","",""
"html-keyboard-response","312","518365","0.0-14.0-0.61","610d2275ba5f1ee0fdcee3e8","650c16f0f2faf8d7a0d14c09","651c1d2ce7b1372d39070b2a","null","null","<p style=""font-size: 60px; font-family: BACS"">KElBOdOP</p>","","","","","","","","","",""
"html-keyboard-response","313","519366","0.0-14.0-0.62","610d2275ba5f1ee0fdcee3e8","650c16f0f2faf8d7a0d14c09","651c1d2ce7b1372d39070b2a","null","null","<p style=""font-size: 60px; font-family: BACS"">NJZlZvkL</p>","","","","","","","","","",""
"html-keyboard-response","314","520370","0.0-14.0-0.63","610d2275ba5f1ee0fdcee3e8","650c16f0f2faf8d7a0d14c09","651c1d2ce7b1372d39070b2a","null","null","<p style=""font-size: 60px; font-family: BACS"">ObZbAkdrO</p>","","","","","","","","","",""
"html-keyboard-response","315","521370","0.0-14.0-0.64","610d2275ba5f1ee0fdcee3e8","650c16f0f2faf8d7a0d14c09","651c1d2ce7b1372d39070b2a","null","null","<p style=""font-size: 60px; font-family: BACS"">mBbKRdCc</p>","","","","","","","","","",""
"html-keyboard-response","316","522371","0.0-14.0-0.65","610d2275ba5f1ee0fdcee3e8","650c16f0f2faf8d7a0d14c09","651c1d2ce7b1372d39070b2a","null","null","<p style=""font-size: 60px; font-family: BACS"">DkTCPTAm</p>","","","","","","","","","",""
"html-keyboard-response","317","523372","0.0-14.0-0.66","610d2275ba5f1ee0fdcee3e8","650c16f0f2faf8d7a0d14c09","651c1d2ce7b1372d39070b2a","null","null","<p style=""font-size: 60px; font-family: BACS"">JauQkmU</p>","","","","","","","","","",""
"html-keyboard-response","318","524383","0.0-14.0-0.67","610d2275ba5f1ee0fdcee3e8","650c16f0f2faf8d7a0d14c09","651c1d2ce7b1372d39070b2a","null","null","<p style=""font-size: 60px; font-family: BACS"">ArQuZvkL</p>","","","","","","","","","",""
"html-keyboard-response","319","525384","0.0-14.0-0.68","610d2275ba5f1ee0fdcee3e8","650c16f0f2faf8d7a0d14c09","651c1d2ce7b1372d39070b2a","null","null","<p style=""font-size: 60px; font-family: BACS"">lAOKMbRC</p>","","","","","","","","","",""
"html-keyboard-response","320","526386","0.0-14.0-0.69","610d2275ba5f1ee0fdcee3e8","650c16f0f2faf8d7a0d14c09","651c1d2ce7b1372d39070b2a","null","null","<p style=""font-size: 60px; font-family: BACS"">NJZlZckv</p>","","","","","","","","","",""
"html-keyboard-response","321","527388","0.0-14.0-0.70","610d2275ba5f1ee0fdcee3e8","650c16f0f2faf8d7a0d14c09","651c1d2ce7b1372d39070b2a","null","null","<p style=""font-size: 60px; font-family: BACS"">ubALmkdrO</p>","","","","","","","","","",""
"html-keyboard-response","322","528388","0.0-14.0-0.71","610d2275ba5f1ee0fdcee3e8","650c16f0f2faf8d7a0d14c09","651c1d2ce7b1372d39070b2a","null","null","<p style=""font-size: 60px; font-family: BACS"">DOchlOdOP</p>","","","","","","","","","",""
"html-keyboard-response","323","529389","0.0-14.0-0.72","610d2275ba5f1ee0fdcee3e8","650c16f0f2faf8d7a0d14c09","651c1d2ce7b1372d39070b2a","null","null","<p style=""font-size: 60px; font-family: BACS"">cBROBRdCc</p>","","","","","","","","","",""
"html-keyboard-response","324","530400","0.0-14.0-0.73","610d2275ba5f1ee0fdcee3e8","650c16f0f2faf8d7a0d14c09","651c1d2ce7b1372d39070b2a","null","null","<p style=""font-size: 60px; font-family: BACS"">tmAKOdOP</p>","","","","","","","","","",""
"html-keyboard-response","325","531401","0.0-14.0-0.74","610d2275ba5f1ee0fdcee3e8","650c16f0f2faf8d7a0d14c09","651c1d2ce7b1372d39070b2a","null","null","<p style=""font-size: 60px; font-family: BACS"">kNuakmU</p>","","","","","","","","","",""
"html-keyboard-response","326","532416","0.0-14.0-0.75","610d2275ba5f1ee0fdcee3e8","650c16f0f2faf8d7a0d14c09","651c1d2ce7b1372d39070b2a","null","null","<p style=""font-size: 60px; font-family: BACS"">DkTCPOdOP</p>","","","","","","","","","",""
"html-keyboard-response","327","533417","0.0-14.0-0.76","610d2275ba5f1ee0fdcee3e8","650c16f0f2faf8d7a0d14c09","651c1d2ce7b1372d39070b2a","null","null","<p style=""font-size: 60px; font-family: BACS"">DOchlTAm</p>","","","","","","","","","",""
"html-keyboard-response","328","534425","0.0-14.0-0.77","610d2275ba5f1ee0fdcee3e8","650c16f0f2faf8d7a0d14c09","651c1d2ce7b1372d39070b2a","null","null","<p style=""font-size: 60px; font-family: BACS"">JauQZvkL</p>","","","","","","","","","",""
"html-keyboard-response","329","535426","0.0-14.0-0.78","610d2275ba5f1ee0fdcee3e8","650c16f0f2faf8d7a0d14c09","651c1d2ce7b1372d39070b2a","null","null","<p style=""font-size: 60px; font-family: BACS"">ZvalvkmU</p>","","","","","","","","","",""
"html-keyboard-response","330","536427","0.0-14.0-0.79","610d2275ba5f1ee0fdcee3e8","650c16f0f2faf8d7a0d14c09","651c1d2ce7b1372d39070b2a","null","null","<p style=""font-size: 60px; font-family: BACS"">KElBbRC</p>","","","","","","","","","",""
"html-keyboard-response","331","541788","0.0-15.0","610d2275ba5f1ee0fdcee3e8","650c16f0f2faf8d7a0d14c09","651c1d2ce7b1372d39070b2a","5361"," ","<p>Great, you've seen the fourth block of words. You may now take a short break.</p>
      <p>Press the spacebar when you're ready to continue.</p>","","","","","","","","","",""
"html-keyboard-response","332","542790","0.0-16.0-0.0","610d2275ba5f1ee0fdcee3e8","650c16f0f2faf8d7a0d14c09","651c1d2ce7b1372d39070b2a","null","null","<p style=""font-size: 60px; font-family: BACS"">lcOcOcN</p>","","","","","","","","","",""
"html-keyboard-response","333","543792","0.0-16.0-0.1","610d2275ba5f1ee0fdcee3e8","650c16f0f2faf8d7a0d14c09","651c1d2ce7b1372d39070b2a","null","null","<p style=""font-size: 60px; font-family: BACS"">lcOcOcN</p>","","","","","","","","","",""
"html-keyboard-response","334","544798","0.0-16.0-0.2","610d2275ba5f1ee0fdcee3e8","650c16f0f2faf8d7a0d14c09","651c1d2ce7b1372d39070b2a","null","null","<p style=""font-size: 60px; font-family: BACS"">lcOcOcN</p>","","","","","","","","","",""
"html-keyboard-response","335","545800","0.0-16.0-0.3","610d2275ba5f1ee0fdcee3e8","650c16f0f2faf8d7a0d14c09","651c1d2ce7b1372d39070b2a","null","null","<p style=""font-size: 60px; font-family: BACS"">lcOcOcN</p>","","","","","","","","","",""
"html-keyboard-response","336","546801","0.0-16.0-0.4","610d2275ba5f1ee0fdcee3e8","650c16f0f2faf8d7a0d14c09","651c1d2ce7b1372d39070b2a","null","null","<p style=""font-size: 60px; font-family: BACS"">lcOcOcN</p>","","","","","","","","","",""
"html-keyboard-response","337","547802","0.0-16.0-0.5","610d2275ba5f1ee0fdcee3e8","650c16f0f2faf8d7a0d14c09","651c1d2ce7b1372d39070b2a","null","null","<p style=""font-size: 60px; font-family: BACS"">lcOcOcN</p>","","","","","","","","","",""
"html-keyboard-response","338","548803","0.0-16.0-0.6","610d2275ba5f1ee0fdcee3e8","650c16f0f2faf8d7a0d14c09","651c1d2ce7b1372d39070b2a","null","null","<p style=""font-size: 60px; font-family: BACS"">lcOcOcN</p>","","","","","","","","","",""
"html-keyboard-response","339","549804","0.0-16.0-0.7","610d2275ba5f1ee0fdcee3e8","650c16f0f2faf8d7a0d14c09","651c1d2ce7b1372d39070b2a","null","null","<p style=""font-size: 60px; font-family: BACS"">lcOcOcN</p>","","","","","","","","","",""
"html-keyboard-response","340","550805","0.0-16.0-0.8","610d2275ba5f1ee0fdcee3e8","650c16f0f2faf8d7a0d14c09","651c1d2ce7b1372d39070b2a","null","null","<p style=""font-size: 60px; font-family: BACS"">lcOcOcN</p>","","","","","","","","","",""
"html-keyboard-response","341","551805","0.0-16.0-0.9","610d2275ba5f1ee0fdcee3e8","650c16f0f2faf8d7a0d14c09","651c1d2ce7b1372d39070b2a","null","null","<p style=""font-size: 60px; font-family: BACS"">lcOcOcN</p>","","","","","","","","","",""
"html-keyboard-response","342","552806","0.0-16.0-0.10","610d2275ba5f1ee0fdcee3e8","650c16f0f2faf8d7a0d14c09","651c1d2ce7b1372d39070b2a","null","null","<p style=""font-size: 60px; font-family: BACS"">lcOcOcN</p>","","","","","","","","","",""
"html-keyboard-response","343","553807","0.0-16.0-0.11","610d2275ba5f1ee0fdcee3e8","650c16f0f2faf8d7a0d14c09","651c1d2ce7b1372d39070b2a","null","null","<p style=""font-size: 60px; font-family: BACS"">lcOcOcN</p>","","","","","","","","","",""
"html-keyboard-response","344","554809","0.0-16.0-0.12","610d2275ba5f1ee0fdcee3e8","650c16f0f2faf8d7a0d14c09","651c1d2ce7b1372d39070b2a","null","null","<p style=""font-size: 60px; font-family: BACS"">lcOcOcN</p>","","","","","","","","","",""
"html-keyboard-response","345","555810","0.0-16.0-0.13","610d2275ba5f1ee0fdcee3e8","650c16f0f2faf8d7a0d14c09","651c1d2ce7b1372d39070b2a","null","null","<p style=""font-size: 60px; font-family: BACS"">lcOcOcN</p>","","","","","","","","","",""
"html-keyboard-response","346","556812","0.0-16.0-0.14","610d2275ba5f1ee0fdcee3e8","650c16f0f2faf8d7a0d14c09","651c1d2ce7b1372d39070b2a","null","null","<p style=""font-size: 60px; font-family: BACS"">lcOcOcN</p>","","","","","","","","","",""
"html-keyboard-response","347","557813","0.0-16.0-0.15","610d2275ba5f1ee0fdcee3e8","650c16f0f2faf8d7a0d14c09","651c1d2ce7b1372d39070b2a","null","null","<p style=""font-size: 60px; font-family: BACS"">lcOcOcN</p>","","","","","","","","","",""
"html-keyboard-response","348","558814","0.0-16.0-0.16","610d2275ba5f1ee0fdcee3e8","650c16f0f2faf8d7a0d14c09","651c1d2ce7b1372d39070b2a","null","null","<p style=""font-size: 60px; font-family: BACS"">lcOcOcN</p>","","","","","","","","","",""
"html-keyboard-response","349","559817","0.0-16.0-0.17","610d2275ba5f1ee0fdcee3e8","650c16f0f2faf8d7a0d14c09","651c1d2ce7b1372d39070b2a","null","null","<p style=""font-size: 60px; font-family: BACS"">lcOcOcN</p>","","","","","","","","","",""
"html-keyboard-response","350","560817","0.0-16.0-0.18","610d2275ba5f1ee0fdcee3e8","650c16f0f2faf8d7a0d14c09","651c1d2ce7b1372d39070b2a","null","null","<p style=""font-size: 60px; font-family: BACS"">lcOcOcN</p>","","","","","","","","","",""
"html-keyboard-response","351","561821","0.0-16.0-0.19","610d2275ba5f1ee0fdcee3e8","650c16f0f2faf8d7a0d14c09","651c1d2ce7b1372d39070b2a","null","null","<p style=""font-size: 60px; font-family: BACS"">lcOcOcN</p>","","","","","","","","","",""
"html-keyboard-response","352","562822","0.0-16.0-0.20","610d2275ba5f1ee0fdcee3e8","650c16f0f2faf8d7a0d14c09","651c1d2ce7b1372d39070b2a","null","null","<p style=""font-size: 60px; font-family: BACS"">lcOcOcN</p>","","","","","","","","","",""
"html-keyboard-response","353","563832","0.0-16.0-0.21","610d2275ba5f1ee0fdcee3e8","650c16f0f2faf8d7a0d14c09","651c1d2ce7b1372d39070b2a","null","null","<p style=""font-size: 60px; font-family: BACS"">lcOcOcN</p>","","","","","","","","","",""
"html-keyboard-response","354","564839","0.0-16.0-0.22","610d2275ba5f1ee0fdcee3e8","650c16f0f2faf8d7a0d14c09","651c1d2ce7b1372d39070b2a","null","null","<p style=""font-size: 60px; font-family: BACS"">lcOcOcN</p>","","","","","","","","","",""
"html-keyboard-response","355","565839","0.0-16.0-0.23","610d2275ba5f1ee0fdcee3e8","650c16f0f2faf8d7a0d14c09","651c1d2ce7b1372d39070b2a","null","null","<p style=""font-size: 60px; font-family: BACS"">lcOcOcN</p>","","","","","","","","","",""
"html-keyboard-response","356","566841","0.0-16.0-0.24","610d2275ba5f1ee0fdcee3e8","650c16f0f2faf8d7a0d14c09","651c1d2ce7b1372d39070b2a","null","null","<p style=""font-size: 60px; font-family: BACS"">lcOcOcN</p>","","","","","","","","","",""
"html-keyboard-response","357","567845","0.0-16.0-0.25","610d2275ba5f1ee0fdcee3e8","650c16f0f2faf8d7a0d14c09","651c1d2ce7b1372d39070b2a","null","null","<p style=""font-size: 60px; font-family: BACS"">lcOcOcN</p>","","","","","","","","","",""
"html-keyboard-response","358","568847","0.0-16.0-0.26","610d2275ba5f1ee0fdcee3e8","650c16f0f2faf8d7a0d14c09","651c1d2ce7b1372d39070b2a","null","null","<p style=""font-size: 60px; font-family: BACS"">lcOcOcN</p>","","","","","","","","","",""
"html-keyboard-response","359","569848","0.0-16.0-0.27","610d2275ba5f1ee0fdcee3e8","650c16f0f2faf8d7a0d14c09","651c1d2ce7b1372d39070b2a","null","null","<p style=""font-size: 60px; font-family: BACS"">lcOcOcN</p>","","","","","","","","","",""
"html-keyboard-response","360","570849","0.0-16.0-0.28","610d2275ba5f1ee0fdcee3e8","650c16f0f2faf8d7a0d14c09","651c1d2ce7b1372d39070b2a","null","null","<p style=""font-size: 60px; font-family: BACS"">lcOcOcN</p>","","","","","","","","","",""
"html-keyboard-response","361","571850","0.0-16.0-0.29","610d2275ba5f1ee0fdcee3e8","650c16f0f2faf8d7a0d14c09","651c1d2ce7b1372d39070b2a","null","null","<p style=""font-size: 60px; font-family: BACS"">lcOcOcN</p>","","","","","","","","","",""
"html-keyboard-response","362","572859","0.0-16.0-0.30","610d2275ba5f1ee0fdcee3e8","650c16f0f2faf8d7a0d14c09","651c1d2ce7b1372d39070b2a","null","null","<p style=""font-size: 60px; font-family: BACS"">lcOcOcN</p>","","","","","","","","","",""
"html-keyboard-response","363","573860","0.0-16.0-0.31","610d2275ba5f1ee0fdcee3e8","650c16f0f2faf8d7a0d14c09","651c1d2ce7b1372d39070b2a","null","null","<p style=""font-size: 60px; font-family: BACS"">lcOcOcN</p>","","","","","","","","","",""
"html-keyboard-response","364","574861","0.0-16.0-0.32","610d2275ba5f1ee0fdcee3e8","650c16f0f2faf8d7a0d14c09","651c1d2ce7b1372d39070b2a","null","null","<p style=""font-size: 60px; font-family: BACS"">lcOcOcN</p>","","","","","","","","","",""
"html-keyboard-response","365","575863","0.0-16.0-0.33","610d2275ba5f1ee0fdcee3e8","650c16f0f2faf8d7a0d14c09","651c1d2ce7b1372d39070b2a","null","null","<p style=""font-size: 60px; font-family: BACS"">lcOcOcN</p>","","","","","","","","","",""
"html-keyboard-response","366","576876","0.0-16.0-0.34","610d2275ba5f1ee0fdcee3e8","650c16f0f2faf8d7a0d14c09","651c1d2ce7b1372d39070b2a","null","null","<p style=""font-size: 60px; font-family: BACS"">lcOcOcN</p>","","","","","","","","","",""
"html-keyboard-response","367","577877","0.0-16.0-0.35","610d2275ba5f1ee0fdcee3e8","650c16f0f2faf8d7a0d14c09","651c1d2ce7b1372d39070b2a","null","null","<p style=""font-size: 60px; font-family: BACS"">lcOcOcN</p>","","","","","","","","","",""
"html-keyboard-response","368","578888","0.0-16.0-0.36","610d2275ba5f1ee0fdcee3e8","650c16f0f2faf8d7a0d14c09","651c1d2ce7b1372d39070b2a","null","null","<p style=""font-size: 60px; font-family: BACS"">lcOcOcN</p>","","","","","","","","","",""
"html-keyboard-response","369","579889","0.0-16.0-0.37","610d2275ba5f1ee0fdcee3e8","650c16f0f2faf8d7a0d14c09","651c1d2ce7b1372d39070b2a","null","null","<p style=""font-size: 60px; font-family: BACS"">lcOcOcN</p>","","","","","","","","","",""
"html-keyboard-response","370","580895","0.0-16.0-0.38","610d2275ba5f1ee0fdcee3e8","650c16f0f2faf8d7a0d14c09","651c1d2ce7b1372d39070b2a","null","null","<p style=""font-size: 60px; font-family: BACS"">lcOcOcN</p>","","","","","","","","","",""
"html-keyboard-response","371","581909","0.0-16.0-0.39","610d2275ba5f1ee0fdcee3e8","650c16f0f2faf8d7a0d14c09","651c1d2ce7b1372d39070b2a","null","null","<p style=""font-size: 60px; font-family: BACS"">lcOcOcN</p>","","","","","","","","","",""
"html-keyboard-response","372","582910","0.0-16.0-0.40","610d2275ba5f1ee0fdcee3e8","650c16f0f2faf8d7a0d14c09","651c1d2ce7b1372d39070b2a","null","null","<p style=""font-size: 60px; font-family: BACS"">lcOcOcN</p>","","","","","","","","","",""
"html-keyboard-response","373","583911","0.0-16.0-0.41","610d2275ba5f1ee0fdcee3e8","650c16f0f2faf8d7a0d14c09","651c1d2ce7b1372d39070b2a","null","null","<p style=""font-size: 60px; font-family: BACS"">lcOcOcN</p>","","","","","","","","","",""
"html-keyboard-response","374","584912","0.0-16.0-0.42","610d2275ba5f1ee0fdcee3e8","650c16f0f2faf8d7a0d14c09","651c1d2ce7b1372d39070b2a","null","null","<p style=""font-size: 60px; font-family: BACS"">lcOcOcN</p>","","","","","","","","","",""
"html-keyboard-response","375","585912","0.0-16.0-0.43","610d2275ba5f1ee0fdcee3e8","650c16f0f2faf8d7a0d14c09","651c1d2ce7b1372d39070b2a","null","null","<p style=""font-size: 60px; font-family: BACS"">lcOcOcN</p>","","","","","","","","","",""
"html-keyboard-response","376","586913","0.0-16.0-0.44","610d2275ba5f1ee0fdcee3e8","650c16f0f2faf8d7a0d14c09","651c1d2ce7b1372d39070b2a","null","null","<p style=""font-size: 60px; font-family: BACS"">lcOcOcN</p>","","","","","","","","","",""
"html-keyboard-response","377","587915","0.0-16.0-0.45","610d2275ba5f1ee0fdcee3e8","650c16f0f2faf8d7a0d14c09","651c1d2ce7b1372d39070b2a","null","null","<p style=""font-size: 60px; font-family: BACS"">lcOcOcN</p>","","","","","","","","","",""
"html-keyboard-response","378","588916","0.0-16.0-0.46","610d2275ba5f1ee0fdcee3e8","650c16f0f2faf8d7a0d14c09","651c1d2ce7b1372d39070b2a","null","null","<p style=""font-size: 60px; font-family: BACS"">lcOcOcN</p>","","","","","","","","","",""
"html-keyboard-response","379","589917","0.0-16.0-0.47","610d2275ba5f1ee0fdcee3e8","650c16f0f2faf8d7a0d14c09","651c1d2ce7b1372d39070b2a","null","null","<p style=""font-size: 60px; font-family: BACS"">lcOcOcN</p>","","","","","","","","","",""
"html-keyboard-response","380","590918","0.0-16.0-0.48","610d2275ba5f1ee0fdcee3e8","650c16f0f2faf8d7a0d14c09","651c1d2ce7b1372d39070b2a","null","null","<p style=""font-size: 60px; font-family: BACS"">lcOcOcN</p>","","","","","","","","","",""
"html-keyboard-response","381","591920","0.0-16.0-0.49","610d2275ba5f1ee0fdcee3e8","650c16f0f2faf8d7a0d14c09","651c1d2ce7b1372d39070b2a","null","null","<p style=""font-size: 60px; font-family: BACS"">lcOcOcN</p>","","","","","","","","","",""
"html-keyboard-response","382","592922","0.0-16.0-0.50","610d2275ba5f1ee0fdcee3e8","650c16f0f2faf8d7a0d14c09","651c1d2ce7b1372d39070b2a","null","null","<p style=""font-size: 60px; font-family: BACS"">lcOcOcN</p>","","","","","","","","","",""
"html-keyboard-response","383","593923","0.0-16.0-0.51","610d2275ba5f1ee0fdcee3e8","650c16f0f2faf8d7a0d14c09","651c1d2ce7b1372d39070b2a","null","null","<p style=""font-size: 60px; font-family: BACS"">lcOcOcN</p>","","","","","","","","","",""
"html-keyboard-response","384","594924","0.0-16.0-0.52","610d2275ba5f1ee0fdcee3e8","650c16f0f2faf8d7a0d14c09","651c1d2ce7b1372d39070b2a","null","null","<p style=""font-size: 60px; font-family: BACS"">lcOcOcN</p>","","","","","","","","","",""
"html-keyboard-response","385","595925","0.0-16.0-0.53","610d2275ba5f1ee0fdcee3e8","650c16f0f2faf8d7a0d14c09","651c1d2ce7b1372d39070b2a","null","null","<p style=""font-size: 60px; font-family: BACS"">lcOcOcN</p>","","","","","","","","","",""
"html-keyboard-response","386","596935","0.0-16.0-0.54","610d2275ba5f1ee0fdcee3e8","650c16f0f2faf8d7a0d14c09","651c1d2ce7b1372d39070b2a","null","null","<p style=""font-size: 60px; font-family: BACS"">lcOcOcN</p>","","","","","","","","","",""
"html-keyboard-response","387","597936","0.0-16.0-0.55","610d2275ba5f1ee0fdcee3e8","650c16f0f2faf8d7a0d14c09","651c1d2ce7b1372d39070b2a","null","null","<p style=""font-size: 60px; font-family: BACS"">lcOcOcN</p>","","","","","","","","","",""
"html-keyboard-response","388","598937","0.0-16.0-0.56","610d2275ba5f1ee0fdcee3e8","650c16f0f2faf8d7a0d14c09","651c1d2ce7b1372d39070b2a","null","null","<p style=""font-size: 60px; font-family: BACS"">lcOcOcN</p>","","","","","","","","","",""
"html-keyboard-response","389","599944","0.0-16.0-0.57","610d2275ba5f1ee0fdcee3e8","650c16f0f2faf8d7a0d14c09","651c1d2ce7b1372d39070b2a","null","null","<p style=""font-size: 60px; font-family: BACS"">lcOcOcN</p>","","","","","","","","","",""
"html-keyboard-response","390","600955","0.0-16.0-0.58","610d2275ba5f1ee0fdcee3e8","650c16f0f2faf8d7a0d14c09","651c1d2ce7b1372d39070b2a","null","null","<p style=""font-size: 60px; font-family: BACS"">lcOcOcN</p>","","","","","","","","","",""
"html-keyboard-response","391","601957","0.0-16.0-0.59","610d2275ba5f1ee0fdcee3e8","650c16f0f2faf8d7a0d14c09","651c1d2ce7b1372d39070b2a","null","null","<p style=""font-size: 60px; font-family: BACS"">lcOcOcN</p>","","","","","","","","","",""
"html-keyboard-response","392","602958","0.0-16.0-0.60","610d2275ba5f1ee0fdcee3e8","650c16f0f2faf8d7a0d14c09","651c1d2ce7b1372d39070b2a","null","null","<p style=""font-size: 60px; font-family: BACS"">lcOcOcN</p>","","","","","","","","","",""
"html-keyboard-response","393","603959","0.0-16.0-0.61","610d2275ba5f1ee0fdcee3e8","650c16f0f2faf8d7a0d14c09","651c1d2ce7b1372d39070b2a","null","null","<p style=""font-size: 60px; font-family: BACS"">lcOcOcN</p>","","","","","","","","","",""
