"trial_type","trial_index","time_elapsed","internal_node_id","subject_id","study_id","session_id","rt","response","stimulus","success","item","task","correct_response","testing_condition","correct","target","confound","name"
"pavlovia","0","726","0.0-0.0","5f0d65ef2ad0c60009209f0f","650c16f0f2faf8d7a0d14c09","651c1c7f270f1a2b5ee1f01f","","","","","","","","","","","",""
"survey-html-form","1","2928","0.0-1.0","5f0d65ef2ad0c60009209f0f","650c16f0f2faf8d7a0d14c09","651c1c7f270f1a2b5ee1f01f","2200","{""ID"":""5f0d65ef2ad0c60009209f0f""}","","","","","","","","","",""
"html-keyboard-response","2","3682","0.0-2.0","5f0d65ef2ad0c60009209f0f","650c16f0f2faf8d7a0d14c09","651c1c7f270f1a2b5ee1f01f","753"," ","<p style=""font-size: 15px;"">Before beginning, we ask that you read the consent information and confirm your agreement to participate in the experiment.</p>
      <p style=""font-size: 15px;""> We ask that you remember that this is a research project and that your participation is entirely voluntary. You can stop your participation at any time, without needing to provide any explanation. The study we're asking you to participate in aims at examining how readers process written words. You will be engaged in a session of apprximately 20 minutes, followed by a brief questionnaire. You will have the opportunity to take a few breaks during the experiment. You will be paid £4 for your participation, corresponding to a rate of £8/hour. While this experiment looks at cognitive faculties, this experiment doesn't constitute clinical proof of eventual pathologies.</p>
      <p style=""font-size: 15px;"">All of the information collected thanks to yours and others' participation will be held in a secure password-protected server, and will not be shared with anyone not authorised to view it. Your personal information will be kept with an arbitrary participant ID. Thanks to this data anonymity process, any researcher analysing the data won't be able to track the information back to a specific participant. Therefore, this process will make identifying you impossibile, even when results from the study will be published in scientific reviews, presented at congresses, or at any other public forum. More generally, the collected data will be treated in accordance with the laws on privacy and conformity to the Legislative Degree n. 196 ""Code regarding the protection of personal data"" of the 30th of June 2003 and to the European Regulation 2016/670 (General Data Protection Regulation - GDPR). The Data Protection Officer is Avv. Valentina Carollo, who can be contacted at the following email addresses: <a href=""mailto:dpo@sissa.it"">dpo@sissa.it</a> or <a href=""mailto:rpd@sissa.it"">rpd@sissa.it</a> - PEC: <a href=""mailto:protocollo@pec.sissa.it"">protocollo@pec.sissa.it</a>.</p>
      <p style=""font-size: 15px;""> Before expressing your consent to participate, we would like to remind you again that in case you need explanations on any aspect of the experimental procedure, the researcher is at your disposition (<a href=""mailto:aliebelt@sissa.it"">aliebelt@sissa.it</a>, <a href=""mailto:davide.crepaldi@sissa.it"">davide.crepaldi@sissa.it</a>).</p>
      <p style=""font-size: 15px;"">If you would like to download the informed consent form, you can do so here: <a href=""BASL-Informed_Consent.pdf"" download>informed consent form</a>.</p>
      <p style=""font-size: 15px;"">We ask that you press the spacebar to proceed to the consent section.</p>","","","","","","","","",""
"survey-html-form","3","8160","0.0-3.0","5f0d65ef2ad0c60009209f0f","650c16f0f2faf8d7a0d14c09","651c1c7f270f1a2b5ee1f01f","4477","{""consent1"":""YES"",""consent2"":""YES"",""consent3"":""YES"",""consent4"":""YES"",""consent5"":""YES"",""consent6"":""YES""}","","","","","","","","","",""
"fullscreen","4","10143","0.0-4.0","5f0d65ef2ad0c60009209f0f","650c16f0f2faf8d7a0d14c09","651c1c7f270f1a2b5ee1f01f","","","","true","","","","","","","",""
"html-keyboard-response","5","11049","0.0-5.0","5f0d65ef2ad0c60009209f0f","650c16f0f2faf8d7a0d14c09","651c1c7f270f1a2b5ee1f01f","904"," ","<p>Welcome, and thank you very much for your time!</p>
      <p>In this experiment, you'll be a language expert who's been asked to take a look at words that Earth has received in its first communication with aliens. Your task, in this first part of the experiment, is to pay close attention to the words you'll be shown; later, world leaders will ask you questions on what you saw. The words will be shown to you quite quickly; it seems that the aliens were in a hurry :-)</p>
      <p>Press the spacebar to continue.<p>","","","","","","","","",""
"html-keyboard-response","6","11104","0.0-6.0","5f0d65ef2ad0c60009209f0f","650c16f0f2faf8d7a0d14c09","651c1c7f270f1a2b5ee1f01f","null","null","<p style=""font-size: 120px; font-family: BACS""> </p>","","","","","","","","",""
"html-keyboard-response","7","14456","0.0-7.0","5f0d65ef2ad0c60009209f0f","650c16f0f2faf8d7a0d14c09","651c1c7f270f1a2b5ee1f01f","3351"," ","<p>Here is an example of the words you'll see:</p>
      <img src='esempio.png' height='400px'>
      <p>When you're ready to begin, press the spacebar.</p></div>","","","","","","","","",""
"html-keyboard-response","8","15470","0.0-8.0-0.0","5f0d65ef2ad0c60009209f0f","650c16f0f2faf8d7a0d14c09","651c1c7f270f1a2b5ee1f01f","null","null","<p style=""font-size: 60px; font-family: BACS"">lGZvYbN</p>","","","","","","","","",""
"html-keyboard-response","9","16485","0.0-8.0-0.1","5f0d65ef2ad0c60009209f0f","650c16f0f2faf8d7a0d14c09","651c1c7f270f1a2b5ee1f01f","null","null","<p style=""font-size: 60px; font-family: BACS"">adkrmvG</p>","","","","","","","","",""
"html-keyboard-response","10","17486","0.0-8.0-0.2","5f0d65ef2ad0c60009209f0f","650c16f0f2faf8d7a0d14c09","651c1c7f270f1a2b5ee1f01f","null","null","<p style=""font-size: 60px; font-family: BACS"">kLvdNLUOk</p>","","","","","","","","",""
"html-keyboard-response","11","18500","0.0-8.0-0.3","5f0d65ef2ad0c60009209f0f","650c16f0f2faf8d7a0d14c09","651c1c7f270f1a2b5ee1f01f","null","null","<p style=""font-size: 60px; font-family: BACS"">vAarmZb</p>","","","","","","","","",""
"html-keyboard-response","12","19503","0.0-8.0-0.4","5f0d65ef2ad0c60009209f0f","650c16f0f2faf8d7a0d14c09","651c1c7f270f1a2b5ee1f01f","null","null","<p style=""font-size: 60px; font-family: BACS"">MlthCdt</p>","","","","","","","","",""
"html-keyboard-response","13","20517","0.0-8.0-0.5","5f0d65ef2ad0c60009209f0f","650c16f0f2faf8d7a0d14c09","651c1c7f270f1a2b5ee1f01f","null","null","<p style=""font-size: 60px; font-family: BACS"">YlCPBDOAK</p>","","","","","","","","",""
"html-keyboard-response","14","21533","0.0-8.0-0.6","5f0d65ef2ad0c60009209f0f","650c16f0f2faf8d7a0d14c09","651c1c7f270f1a2b5ee1f01f","null","null","<p style=""font-size: 60px; font-family: BACS"">lGZvmZb</p>","","","","","","","","",""
"html-keyboard-response","15","22535","0.0-8.0-0.7","5f0d65ef2ad0c60009209f0f","650c16f0f2faf8d7a0d14c09","651c1c7f270f1a2b5ee1f01f","null","null","<p style=""font-size: 60px; font-family: BACS"">YlCPBMAB</p>","","","","","","","","",""
"html-keyboard-response","16","23551","0.0-8.0-0.8","5f0d65ef2ad0c60009209f0f","650c16f0f2faf8d7a0d14c09","651c1c7f270f1a2b5ee1f01f","null","null","<p style=""font-size: 60px; font-family: BACS"">RYtkcDOAK</p>","","","","","","","","",""
"html-keyboard-response","17","24566","0.0-8.0-0.9","5f0d65ef2ad0c60009209f0f","650c16f0f2faf8d7a0d14c09","651c1c7f270f1a2b5ee1f01f","null","null","<p style=""font-size: 60px; font-family: BACS"">DBPhcMCkm</p>","","","","","","","","",""
"html-keyboard-response","18","25583","0.0-8.0-0.10","5f0d65ef2ad0c60009209f0f","650c16f0f2faf8d7a0d14c09","651c1c7f270f1a2b5ee1f01f","null","null","<p style=""font-size: 60px; font-family: BACS"">GLYrAZvkL</p>","","","","","","","","",""
"html-keyboard-response","19","26599","0.0-8.0-0.11","5f0d65ef2ad0c60009209f0f","650c16f0f2faf8d7a0d14c09","651c1c7f270f1a2b5ee1f01f","null","null","<p style=""font-size: 60px; font-family: BACS"">DBPhcCdt</p>","","","","","","","","",""
"html-keyboard-response","20","27600","0.0-8.0-0.12","5f0d65ef2ad0c60009209f0f","650c16f0f2faf8d7a0d14c09","651c1c7f270f1a2b5ee1f01f","null","null","<p style=""font-size: 60px; font-family: BACS"">AYkEhRCdc</p>","","","","","","","","",""
"html-keyboard-response","21","28615","0.0-8.0-0.13","5f0d65ef2ad0c60009209f0f","650c16f0f2faf8d7a0d14c09","651c1c7f270f1a2b5ee1f01f","null","null","<p style=""font-size: 60px; font-family: BACS"">hbmAMAB</p>","","","","","","","","",""
"html-keyboard-response","22","29616","0.0-8.0-0.14","5f0d65ef2ad0c60009209f0f","650c16f0f2faf8d7a0d14c09","651c1c7f270f1a2b5ee1f01f","null","null","<p style=""font-size: 60px; font-family: BACS"">LcNUJZvkL</p>","","","","","","","","",""
"html-keyboard-response","23","30631","0.0-8.0-0.15","5f0d65ef2ad0c60009209f0f","650c16f0f2faf8d7a0d14c09","651c1c7f270f1a2b5ee1f01f","null","null","<p style=""font-size: 60px; font-family: BACS"">mkmJNLUOk</p>","","","","","","","","",""
"html-keyboard-response","24","31634","0.0-8.0-0.16","5f0d65ef2ad0c60009209f0f","650c16f0f2faf8d7a0d14c09","651c1c7f270f1a2b5ee1f01f","null","null","<p style=""font-size: 60px; font-family: BACS"">kLvdNmvG</p>","","","","","","","","",""
"html-keyboard-response","25","32648","0.0-8.0-0.17","5f0d65ef2ad0c60009209f0f","650c16f0f2faf8d7a0d14c09","651c1c7f270f1a2b5ee1f01f","null","null","<p style=""font-size: 60px; font-family: BACS"">rbYbuYbN</p>","","","","","","","","",""
"html-keyboard-response","26","33650","0.0-8.0-0.18","5f0d65ef2ad0c60009209f0f","650c16f0f2faf8d7a0d14c09","651c1c7f270f1a2b5ee1f01f","null","null","<p style=""font-size: 60px; font-family: BACS"">hbmADOAK</p>","","","","","","","","",""
"html-keyboard-response","27","34666","0.0-8.0-0.19","5f0d65ef2ad0c60009209f0f","650c16f0f2faf8d7a0d14c09","651c1c7f270f1a2b5ee1f01f","null","null","<p style=""font-size: 60px; font-family: BACS"">mkmJNYbN</p>","","","","","","","","",""
"html-keyboard-response","28","35681","0.0-8.0-0.20","5f0d65ef2ad0c60009209f0f","650c16f0f2faf8d7a0d14c09","651c1c7f270f1a2b5ee1f01f","null","null","<p style=""font-size: 60px; font-family: BACS"">adkrmZb</p>","","","","","","","","",""
"html-keyboard-response","29","36683","0.0-8.0-0.21","5f0d65ef2ad0c60009209f0f","650c16f0f2faf8d7a0d14c09","651c1c7f270f1a2b5ee1f01f","null","null","<p style=""font-size: 60px; font-family: BACS"">rbYbuLUOk</p>","","","","","","","","",""
"html-keyboard-response","30","37697","0.0-8.0-0.22","5f0d65ef2ad0c60009209f0f","650c16f0f2faf8d7a0d14c09","651c1c7f270f1a2b5ee1f01f","null","null","<p style=""font-size: 60px; font-family: BACS"">OYuvbYbN</p>","","","","","","","","",""
"html-keyboard-response","31","38699","0.0-8.0-0.23","5f0d65ef2ad0c60009209f0f","650c16f0f2faf8d7a0d14c09","651c1c7f270f1a2b5ee1f01f","null","null","<p style=""font-size: 60px; font-family: BACS"">ckdAmMAB</p>","","","","","","","","",""
"html-keyboard-response","32","39714","0.0-8.0-0.24","5f0d65ef2ad0c60009209f0f","650c16f0f2faf8d7a0d14c09","651c1c7f270f1a2b5ee1f01f","null","null","<p style=""font-size: 60px; font-family: BACS"">kNuamZb</p>","","","","","","","","",""
"html-keyboard-response","33","40730","0.0-8.0-0.25","5f0d65ef2ad0c60009209f0f","650c16f0f2faf8d7a0d14c09","651c1c7f270f1a2b5ee1f01f","null","null","<p style=""font-size: 60px; font-family: BACS"">AYkEhDOAK</p>","","","","","","","","",""
"html-keyboard-response","34","41732","0.0-8.0-0.26","5f0d65ef2ad0c60009209f0f","650c16f0f2faf8d7a0d14c09","651c1c7f270f1a2b5ee1f01f","null","null","<p style=""font-size: 60px; font-family: BACS"">YlCPBMCkm</p>","","","","","","","","",""
"html-keyboard-response","35","42747","0.0-8.0-0.27","5f0d65ef2ad0c60009209f0f","650c16f0f2faf8d7a0d14c09","651c1c7f270f1a2b5ee1f01f","null","null","<p style=""font-size: 60px; font-family: BACS"">RYtkcCdt</p>","","","","","","","","",""
"html-keyboard-response","36","43748","0.0-8.0-0.28","5f0d65ef2ad0c60009209f0f","650c16f0f2faf8d7a0d14c09","651c1c7f270f1a2b5ee1f01f","null","null","<p style=""font-size: 60px; font-family: BACS"">ckdAmMCkm</p>","","","","","","","","",""
"html-keyboard-response","37","44764","0.0-8.0-0.29","5f0d65ef2ad0c60009209f0f","650c16f0f2faf8d7a0d14c09","651c1c7f270f1a2b5ee1f01f","null","null","<p style=""font-size: 60px; font-family: BACS"">YKRkRCdc</p>","","","","","","","","",""
"html-keyboard-response","38","45778","0.0-8.0-0.30","5f0d65ef2ad0c60009209f0f","650c16f0f2faf8d7a0d14c09","651c1c7f270f1a2b5ee1f01f","null","null","<p style=""font-size: 60px; font-family: BACS"">rbYbumvG</p>","","","","","","","","",""
"html-keyboard-response","39","46795","0.0-8.0-0.31","5f0d65ef2ad0c60009209f0f","650c16f0f2faf8d7a0d14c09","651c1c7f270f1a2b5ee1f01f","null","null","<p style=""font-size: 60px; font-family: BACS"">RtRhMCkm</p>","","","","","","","","",""
"html-keyboard-response","40","47811","0.0-8.0-0.32","5f0d65ef2ad0c60009209f0f","650c16f0f2faf8d7a0d14c09","651c1c7f270f1a2b5ee1f01f","null","null","<p style=""font-size: 60px; font-family: BACS"">kNuaZvkL</p>","","","","","","","","",""
"html-keyboard-response","41","48812","0.0-8.0-0.33","5f0d65ef2ad0c60009209f0f","650c16f0f2faf8d7a0d14c09","651c1c7f270f1a2b5ee1f01f","null","null","<p style=""font-size: 60px; font-family: BACS"">GLYrAmZb</p>","","","","","","","","",""
"html-keyboard-response","42","49827","0.0-8.0-0.34","5f0d65ef2ad0c60009209f0f","650c16f0f2faf8d7a0d14c09","651c1c7f270f1a2b5ee1f01f","null","null","<p style=""font-size: 60px; font-family: BACS"">mBbKMCkm</p>","","","","","","","","",""
"html-keyboard-response","43","50831","0.0-8.0-0.35","5f0d65ef2ad0c60009209f0f","650c16f0f2faf8d7a0d14c09","651c1c7f270f1a2b5ee1f01f","null","null","<p style=""font-size: 60px; font-family: BACS"">LcNUJYbN</p>","","","","","","","","",""
"html-keyboard-response","44","51844","0.0-8.0-0.36","5f0d65ef2ad0c60009209f0f","650c16f0f2faf8d7a0d14c09","651c1c7f270f1a2b5ee1f01f","null","null","<p style=""font-size: 60px; font-family: BACS"">vAarmvG</p>","","","","","","","","",""
"html-keyboard-response","45","52846","0.0-8.0-0.37","5f0d65ef2ad0c60009209f0f","650c16f0f2faf8d7a0d14c09","651c1c7f270f1a2b5ee1f01f","null","null","<p style=""font-size: 60px; font-family: BACS"">OYuvbLUOk</p>","","","","","","","","",""
"html-keyboard-response","46","53861","0.0-8.0-0.38","5f0d65ef2ad0c60009209f0f","650c16f0f2faf8d7a0d14c09","651c1c7f270f1a2b5ee1f01f","null","null","<p style=""font-size: 60px; font-family: BACS"">adkrZvkL</p>","","","","","","","","",""
"html-keyboard-response","47","54877","0.0-8.0-0.39","5f0d65ef2ad0c60009209f0f","650c16f0f2faf8d7a0d14c09","651c1c7f270f1a2b5ee1f01f","null","null","<p style=""font-size: 60px; font-family: BACS"">lGZvLUOk</p>","","","","","","","","",""
"html-keyboard-response","48","55879","0.0-8.0-0.40","5f0d65ef2ad0c60009209f0f","650c16f0f2faf8d7a0d14c09","651c1c7f270f1a2b5ee1f01f","null","null","<p style=""font-size: 60px; font-family: BACS"">RYtkcMCkm</p>","","","","","","","","",""
"html-keyboard-response","49","56894","0.0-8.0-0.41","5f0d65ef2ad0c60009209f0f","650c16f0f2faf8d7a0d14c09","651c1c7f270f1a2b5ee1f01f","null","null","<p style=""font-size: 60px; font-family: BACS"">YKRkMAB</p>","","","","","","","","",""
"html-keyboard-response","50","57895","0.0-8.0-0.42","5f0d65ef2ad0c60009209f0f","650c16f0f2faf8d7a0d14c09","651c1c7f270f1a2b5ee1f01f","null","null","<p style=""font-size: 60px; font-family: BACS"">RYtkcRCdc</p>","","","","","","","","",""
"html-keyboard-response","51","58909","0.0-8.0-0.43","5f0d65ef2ad0c60009209f0f","650c16f0f2faf8d7a0d14c09","651c1c7f270f1a2b5ee1f01f","null","null","<p style=""font-size: 60px; font-family: BACS"">mkmJNmvG</p>","","","","","","","","",""
"html-keyboard-response","52","59911","0.0-8.0-0.44","5f0d65ef2ad0c60009209f0f","650c16f0f2faf8d7a0d14c09","651c1c7f270f1a2b5ee1f01f","null","null","<p style=""font-size: 60px; font-family: BACS"">ckdAmRCdc</p>","","","","","","","","",""
"html-keyboard-response","53","60927","0.0-8.0-0.45","5f0d65ef2ad0c60009209f0f","650c16f0f2faf8d7a0d14c09","651c1c7f270f1a2b5ee1f01f","null","null","<p style=""font-size: 60px; font-family: BACS"">AYkEhMAB</p>","","","","","","","","",""
"html-keyboard-response","54","61943","0.0-8.0-0.46","5f0d65ef2ad0c60009209f0f","650c16f0f2faf8d7a0d14c09","651c1c7f270f1a2b5ee1f01f","null","null","<p style=""font-size: 60px; font-family: BACS"">kNuaLUOk</p>","","","","","","","","",""
"html-keyboard-response","55","62958","0.0-8.0-0.47","5f0d65ef2ad0c60009209f0f","650c16f0f2faf8d7a0d14c09","651c1c7f270f1a2b5ee1f01f","null","null","<p style=""font-size: 60px; font-family: BACS"">adkrYbN</p>","","","","","","","","",""
"html-keyboard-response","56","63961","0.0-8.0-0.48","5f0d65ef2ad0c60009209f0f","650c16f0f2faf8d7a0d14c09","651c1c7f270f1a2b5ee1f01f","null","null","<p style=""font-size: 60px; font-family: BACS"">MlthMAB</p>","","","","","","","","",""
"html-keyboard-response","57","64976","0.0-8.0-0.49","5f0d65ef2ad0c60009209f0f","650c16f0f2faf8d7a0d14c09","651c1c7f270f1a2b5ee1f01f","null","null","<p style=""font-size: 60px; font-family: BACS"">kLvdNmZb</p>","","","","","","","","",""
"html-keyboard-response","58","65992","0.0-8.0-0.50","5f0d65ef2ad0c60009209f0f","650c16f0f2faf8d7a0d14c09","651c1c7f270f1a2b5ee1f01f","null","null","<p style=""font-size: 60px; font-family: BACS"">MlthDOAK</p>","","","","","","","","",""
"html-keyboard-response","59","66994","0.0-8.0-0.51","5f0d65ef2ad0c60009209f0f","650c16f0f2faf8d7a0d14c09","651c1c7f270f1a2b5ee1f01f","null","null","<p style=""font-size: 60px; font-family: BACS"">vAarLUOk</p>","","","","","","","","",""
"html-keyboard-response","60","68008","0.0-8.0-0.52","5f0d65ef2ad0c60009209f0f","650c16f0f2faf8d7a0d14c09","651c1c7f270f1a2b5ee1f01f","null","null","<p style=""font-size: 60px; font-family: BACS"">YKRkDOAK</p>","","","","","","","","",""
"html-keyboard-response","61","69024","0.0-8.0-0.53","5f0d65ef2ad0c60009209f0f","650c16f0f2faf8d7a0d14c09","651c1c7f270f1a2b5ee1f01f","null","null","<p style=""font-size: 60px; font-family: BACS"">MlthMCkm</p>","","","","","","","","",""
"html-keyboard-response","62","70025","0.0-8.0-0.54","5f0d65ef2ad0c60009209f0f","650c16f0f2faf8d7a0d14c09","651c1c7f270f1a2b5ee1f01f","null","null","<p style=""font-size: 60px; font-family: BACS"">hbmACdt</p>","","","","","","","","",""
"html-keyboard-response","63","71026","0.0-8.0-0.55","5f0d65ef2ad0c60009209f0f","650c16f0f2faf8d7a0d14c09","651c1c7f270f1a2b5ee1f01f","null","null","<p style=""font-size: 60px; font-family: BACS"">ckdAmDOAK</p>","","","","","","","","",""
"html-keyboard-response","64","72041","0.0-8.0-0.56","5f0d65ef2ad0c60009209f0f","650c16f0f2faf8d7a0d14c09","651c1c7f270f1a2b5ee1f01f","null","null","<p style=""font-size: 60px; font-family: BACS"">kNuamvG</p>","","","","","","","","",""
"html-keyboard-response","65","73058","0.0-8.0-0.57","5f0d65ef2ad0c60009209f0f","650c16f0f2faf8d7a0d14c09","651c1c7f270f1a2b5ee1f01f","null","null","<p style=""font-size: 60px; font-family: BACS"">OYuvbmZb</p>","","","","","","","","",""
"html-keyboard-response","66","74073","0.0-8.0-0.58","5f0d65ef2ad0c60009209f0f","650c16f0f2faf8d7a0d14c09","651c1c7f270f1a2b5ee1f01f","null","null","<p style=""font-size: 60px; font-family: BACS"">vAarYbN</p>","","","","","","","","",""
"html-keyboard-response","67","75074","0.0-8.0-0.59","5f0d65ef2ad0c60009209f0f","650c16f0f2faf8d7a0d14c09","651c1c7f270f1a2b5ee1f01f","null","null","<p style=""font-size: 60px; font-family: BACS"">GLYrAmvG</p>","","","","","","","","",""
"html-keyboard-response","68","76089","0.0-8.0-0.60","5f0d65ef2ad0c60009209f0f","650c16f0f2faf8d7a0d14c09","651c1c7f270f1a2b5ee1f01f","null","null","<p style=""font-size: 60px; font-family: BACS"">RtRhCdt</p>","","","","","","","","",""
"html-keyboard-response","69","77106","0.0-8.0-0.61","5f0d65ef2ad0c60009209f0f","650c16f0f2faf8d7a0d14c09","651c1c7f270f1a2b5ee1f01f","null","null","<p style=""font-size: 60px; font-family: BACS"">mBbKRCdc</p>","","","","","","","","",""
"html-keyboard-response","70","78122","0.0-8.0-0.62","5f0d65ef2ad0c60009209f0f","650c16f0f2faf8d7a0d14c09","651c1c7f270f1a2b5ee1f01f","null","null","<p style=""font-size: 60px; font-family: BACS"">kLvdNZvkL</p>","","","","","","","","",""
"html-keyboard-response","71","79123","0.0-8.0-0.63","5f0d65ef2ad0c60009209f0f","650c16f0f2faf8d7a0d14c09","651c1c7f270f1a2b5ee1f01f","null","null","<p style=""font-size: 60px; font-family: BACS"">DBPhcRCdc</p>","","","","","","","","",""
"html-keyboard-response","72","80139","0.0-8.0-0.64","5f0d65ef2ad0c60009209f0f","650c16f0f2faf8d7a0d14c09","651c1c7f270f1a2b5ee1f01f","null","null","<p style=""font-size: 60px; font-family: BACS"">OYuvbZvkL</p>","","","","","","","","",""
"html-keyboard-response","73","81155","0.0-8.0-0.65","5f0d65ef2ad0c60009209f0f","650c16f0f2faf8d7a0d14c09","651c1c7f270f1a2b5ee1f01f","null","null","<p style=""font-size: 60px; font-family: BACS"">LcNUJmZb</p>","","","","","","","","",""
"html-keyboard-response","74","82171","0.0-8.0-0.66","5f0d65ef2ad0c60009209f0f","650c16f0f2faf8d7a0d14c09","651c1c7f270f1a2b5ee1f01f","null","null","<p style=""font-size: 60px; font-family: BACS"">hbmARCdc</p>","","","","","","","","",""
"html-keyboard-response","75","83188","0.0-8.0-0.67","5f0d65ef2ad0c60009209f0f","650c16f0f2faf8d7a0d14c09","651c1c7f270f1a2b5ee1f01f","null","null","<p style=""font-size: 60px; font-family: BACS"">YlCPBCdt</p>","","","","","","","","",""
"html-keyboard-response","76","84204","0.0-8.0-0.68","5f0d65ef2ad0c60009209f0f","650c16f0f2faf8d7a0d14c09","651c1c7f270f1a2b5ee1f01f","null","null","<p style=""font-size: 60px; font-family: BACS"">RtRhDOAK</p>","","","","","","","","",""
"html-keyboard-response","77","85206","0.0-8.0-0.69","5f0d65ef2ad0c60009209f0f","650c16f0f2faf8d7a0d14c09","651c1c7f270f1a2b5ee1f01f","null","null","<p style=""font-size: 60px; font-family: BACS"">YKRkMCkm</p>","","","","","","","","",""
"html-keyboard-response","78","86220","0.0-8.0-0.70","5f0d65ef2ad0c60009209f0f","650c16f0f2faf8d7a0d14c09","651c1c7f270f1a2b5ee1f01f","null","null","<p style=""font-size: 60px; font-family: BACS"">mBbKCdt</p>","","","","","","","","",""
"html-keyboard-response","79","87223","0.0-8.0-0.71","5f0d65ef2ad0c60009209f0f","650c16f0f2faf8d7a0d14c09","651c1c7f270f1a2b5ee1f01f","null","null","<p style=""font-size: 60px; font-family: BACS"">lGZvmvG</p>","","","","","","","","",""
"html-keyboard-response","80","88237","0.0-8.0-0.72","5f0d65ef2ad0c60009209f0f","650c16f0f2faf8d7a0d14c09","651c1c7f270f1a2b5ee1f01f","null","null","<p style=""font-size: 60px; font-family: BACS"">RtRhRCdc</p>","","","","","","","","",""
"html-keyboard-response","81","89253","0.0-8.0-0.73","5f0d65ef2ad0c60009209f0f","650c16f0f2faf8d7a0d14c09","651c1c7f270f1a2b5ee1f01f","null","null","<p style=""font-size: 60px; font-family: BACS"">GLYrAYbN</p>","","","","","","","","",""
"html-keyboard-response","82","90254","0.0-8.0-0.74","5f0d65ef2ad0c60009209f0f","650c16f0f2faf8d7a0d14c09","651c1c7f270f1a2b5ee1f01f","null","null","<p style=""font-size: 60px; font-family: BACS"">rbYbuZvkL</p>","","","","","","","","",""
"html-keyboard-response","83","91269","0.0-8.0-0.75","5f0d65ef2ad0c60009209f0f","650c16f0f2faf8d7a0d14c09","651c1c7f270f1a2b5ee1f01f","null","null","<p style=""font-size: 60px; font-family: BACS"">AYkEhCdt</p>","","","","","","","","",""
"html-keyboard-response","84","92272","0.0-8.0-0.76","5f0d65ef2ad0c60009209f0f","650c16f0f2faf8d7a0d14c09","651c1c7f270f1a2b5ee1f01f","null","null","<p style=""font-size: 60px; font-family: BACS"">mBbKMAB</p>","","","","","","","","",""
"html-keyboard-response","85","93287","0.0-8.0-0.77","5f0d65ef2ad0c60009209f0f","650c16f0f2faf8d7a0d14c09","651c1c7f270f1a2b5ee1f01f","null","null","<p style=""font-size: 60px; font-family: BACS"">LcNUJLUOk</p>","","","","","","","","",""
"html-keyboard-response","86","94303","0.0-8.0-0.78","5f0d65ef2ad0c60009209f0f","650c16f0f2faf8d7a0d14c09","651c1c7f270f1a2b5ee1f01f","null","null","<p style=""font-size: 60px; font-family: BACS"">mkmJNZvkL</p>","","","","","","","","",""
"html-keyboard-response","87","95319","0.0-8.0-0.79","5f0d65ef2ad0c60009209f0f","650c16f0f2faf8d7a0d14c09","651c1c7f270f1a2b5ee1f01f","null","null","<p style=""font-size: 60px; font-family: BACS"">DBPhcMAB</p>","","","","","","","","",""
"html-keyboard-response","88","97125","0.0-9.0","5f0d65ef2ad0c60009209f0f","650c16f0f2faf8d7a0d14c09","651c1c7f270f1a2b5ee1f01f","1805"," ","<p>Great, you've seen the first block of words. You may now take a short break.</p>
      <p>Press the spacebar when you're ready to continue.</p>","","","","","","","","",""
"html-keyboard-response","89","98134","0.0-10.0-0.0","5f0d65ef2ad0c60009209f0f","650c16f0f2faf8d7a0d14c09","651c1c7f270f1a2b5ee1f01f","null","null","<p style=""font-size: 60px; font-family: BACS"">kNuamZb</p>","","","","","","","","",""
"html-keyboard-response","90","99136","0.0-10.0-0.1","5f0d65ef2ad0c60009209f0f","650c16f0f2faf8d7a0d14c09","651c1c7f270f1a2b5ee1f01f","null","null","<p style=""font-size: 60px; font-family: BACS"">GLYrAZvkL</p>","","","","","","","","",""
"html-keyboard-response","91","100152","0.0-10.0-0.2","5f0d65ef2ad0c60009209f0f","650c16f0f2faf8d7a0d14c09","651c1c7f270f1a2b5ee1f01f","null","null","<p style=""font-size: 60px; font-family: BACS"">mBbKMAB</p>","","","","","","","","",""
"html-keyboard-response","92","101153","0.0-10.0-0.3","5f0d65ef2ad0c60009209f0f","650c16f0f2faf8d7a0d14c09","651c1c7f270f1a2b5ee1f01f","null","null","<p style=""font-size: 60px; font-family: BACS"">RtRhRCdc</p>","","","","","","","","",""
"html-keyboard-response","93","102167","0.0-10.0-0.4","5f0d65ef2ad0c60009209f0f","650c16f0f2faf8d7a0d14c09","651c1c7f270f1a2b5ee1f01f","null","null","<p style=""font-size: 60px; font-family: BACS"">OYuvbLUOk</p>","","","","","","","","",""
"html-keyboard-response","94","103183","0.0-10.0-0.5","5f0d65ef2ad0c60009209f0f","650c16f0f2faf8d7a0d14c09","651c1c7f270f1a2b5ee1f01f","null","null","<p style=""font-size: 60px; font-family: BACS"">hbmAMAB</p>","","","","","","","","",""
"html-keyboard-response","95","104184","0.0-10.0-0.6","5f0d65ef2ad0c60009209f0f","650c16f0f2faf8d7a0d14c09","651c1c7f270f1a2b5ee1f01f","null","null","<p style=""font-size: 60px; font-family: BACS"">AYkEhDOAK</p>","","","","","","","","",""
"html-keyboard-response","96","105186","0.0-10.0-0.7","5f0d65ef2ad0c60009209f0f","650c16f0f2faf8d7a0d14c09","651c1c7f270f1a2b5ee1f01f","null","null","<p style=""font-size: 60px; font-family: BACS"">RYtkcCdt</p>","","","","","","","","",""
"html-keyboard-response","97","106199","0.0-10.0-0.8","5f0d65ef2ad0c60009209f0f","650c16f0f2faf8d7a0d14c09","651c1c7f270f1a2b5ee1f01f","null","null","<p style=""font-size: 60px; font-family: BACS"">YlCPBMAB</p>","","","","","","","","",""
"html-keyboard-response","98","107216","0.0-10.0-0.9","5f0d65ef2ad0c60009209f0f","650c16f0f2faf8d7a0d14c09","651c1c7f270f1a2b5ee1f01f","null","null","<p style=""font-size: 60px; font-family: BACS"">GLYrAmZb</p>","","","","","","","","",""
"html-keyboard-response","99","108217","0.0-10.0-0.10","5f0d65ef2ad0c60009209f0f","650c16f0f2faf8d7a0d14c09","651c1c7f270f1a2b5ee1f01f","null","null","<p style=""font-size: 60px; font-family: BACS"">ckdAmMAB</p>","","","","","","","","",""
"html-keyboard-response","100","109218","0.0-10.0-0.11","5f0d65ef2ad0c60009209f0f","650c16f0f2faf8d7a0d14c09","651c1c7f270f1a2b5ee1f01f","null","null","<p style=""font-size: 60px; font-family: BACS"">adkrYbN</p>","","","","","","","","",""
"html-keyboard-response","101","110233","0.0-10.0-0.12","5f0d65ef2ad0c60009209f0f","650c16f0f2faf8d7a0d14c09","651c1c7f270f1a2b5ee1f01f","null","null","<p style=""font-size: 60px; font-family: BACS"">rbYbuLUOk</p>","","","","","","","","",""
"html-keyboard-response","102","111248","0.0-10.0-0.13","5f0d65ef2ad0c60009209f0f","650c16f0f2faf8d7a0d14c09","651c1c7f270f1a2b5ee1f01f","null","null","<p style=""font-size: 60px; font-family: BACS"">RYtkcRCdc</p>","","","","","","","","",""
"html-keyboard-response","103","112249","0.0-10.0-0.14","5f0d65ef2ad0c60009209f0f","650c16f0f2faf8d7a0d14c09","651c1c7f270f1a2b5ee1f01f","null","null","<p style=""font-size: 60px; font-family: BACS"">YlCPBCdt</p>","","","","","","","","",""
"html-keyboard-response","104","113250","0.0-10.0-0.15","5f0d65ef2ad0c60009209f0f","650c16f0f2faf8d7a0d14c09","651c1c7f270f1a2b5ee1f01f","null","null","<p style=""font-size: 60px; font-family: BACS"">mkmJNmvG</p>","","","","","","","","",""
"html-keyboard-response","105","114266","0.0-10.0-0.16","5f0d65ef2ad0c60009209f0f","650c16f0f2faf8d7a0d14c09","651c1c7f270f1a2b5ee1f01f","null","null","<p style=""font-size: 60px; font-family: BACS"">vAarmZb</p>","","","","","","","","",""
"html-keyboard-response","106","115280","0.0-10.0-0.17","5f0d65ef2ad0c60009209f0f","650c16f0f2faf8d7a0d14c09","651c1c7f270f1a2b5ee1f01f","null","null","<p style=""font-size: 60px; font-family: BACS"">DBPhcMCkm</p>","","","","","","","","",""
"html-keyboard-response","107","116282","0.0-10.0-0.18","5f0d65ef2ad0c60009209f0f","650c16f0f2faf8d7a0d14c09","651c1c7f270f1a2b5ee1f01f","null","null","<p style=""font-size: 60px; font-family: BACS"">GLYrAYbN</p>","","","","","","","","",""
"html-keyboard-response","108","117283","0.0-10.0-0.19","5f0d65ef2ad0c60009209f0f","650c16f0f2faf8d7a0d14c09","651c1c7f270f1a2b5ee1f01f","null","null","<p style=""font-size: 60px; font-family: BACS"">mkmJNZvkL</p>","","","","","","","","",""
"html-keyboard-response","109","118297","0.0-10.0-0.20","5f0d65ef2ad0c60009209f0f","650c16f0f2faf8d7a0d14c09","651c1c7f270f1a2b5ee1f01f","null","null","<p style=""font-size: 60px; font-family: BACS"">kNuamvG</p>","","","","","","","","",""
"html-keyboard-response","110","119299","0.0-10.0-0.21","5f0d65ef2ad0c60009209f0f","650c16f0f2faf8d7a0d14c09","651c1c7f270f1a2b5ee1f01f","null","null","<p style=""font-size: 60px; font-family: BACS"">ckdAmRCdc</p>","","","","","","","","",""
"html-keyboard-response","111","120314","0.0-10.0-0.22","5f0d65ef2ad0c60009209f0f","650c16f0f2faf8d7a0d14c09","651c1c7f270f1a2b5ee1f01f","null","null","<p style=""font-size: 60px; font-family: BACS"">kNuaZvkL</p>","","","","","","","","",""
"html-keyboard-response","112","121330","0.0-10.0-0.23","5f0d65ef2ad0c60009209f0f","650c16f0f2faf8d7a0d14c09","651c1c7f270f1a2b5ee1f01f","null","null","<p style=""font-size: 60px; font-family: BACS"">rbYbuYbN</p>","","","","","","","","",""
"html-keyboard-response","113","122332","0.0-10.0-0.24","5f0d65ef2ad0c60009209f0f","650c16f0f2faf8d7a0d14c09","651c1c7f270f1a2b5ee1f01f","null","null","<p style=""font-size: 60px; font-family: BACS"">RtRhMCkm</p>","","","","","","","","",""
"html-keyboard-response","114","123347","0.0-10.0-0.25","5f0d65ef2ad0c60009209f0f","650c16f0f2faf8d7a0d14c09","651c1c7f270f1a2b5ee1f01f","null","null","<p style=""font-size: 60px; font-family: BACS"">mkmJNYbN</p>","","","","","","","","",""
"html-keyboard-response","115","124363","0.0-10.0-0.26","5f0d65ef2ad0c60009209f0f","650c16f0f2faf8d7a0d14c09","651c1c7f270f1a2b5ee1f01f","null","null","<p style=""font-size: 60px; font-family: BACS"">kNuaLUOk</p>","","","","","","","","",""
"html-keyboard-response","116","125379","0.0-10.0-0.27","5f0d65ef2ad0c60009209f0f","650c16f0f2faf8d7a0d14c09","651c1c7f270f1a2b5ee1f01f","null","null","<p style=""font-size: 60px; font-family: BACS"">YKRkRCdc</p>","","","","","","","","",""
"html-keyboard-response","117","126380","0.0-10.0-0.28","5f0d65ef2ad0c60009209f0f","650c16f0f2faf8d7a0d14c09","651c1c7f270f1a2b5ee1f01f","null","null","<p style=""font-size: 60px; font-family: BACS"">hbmADOAK</p>","","","","","","","","",""
"html-keyboard-response","118","127380","0.0-10.0-0.29","5f0d65ef2ad0c60009209f0f","650c16f0f2faf8d7a0d14c09","651c1c7f270f1a2b5ee1f01f","null","null","<p style=""font-size: 60px; font-family: BACS"">MlthMAB</p>","","","","","","","","",""
"html-keyboard-response","119","128396","0.0-10.0-0.30","5f0d65ef2ad0c60009209f0f","650c16f0f2faf8d7a0d14c09","651c1c7f270f1a2b5ee1f01f","null","null","<p style=""font-size: 60px; font-family: BACS"">lGZvYbN</p>","","","","","","","","",""
"html-keyboard-response","120","129412","0.0-10.0-0.31","5f0d65ef2ad0c60009209f0f","650c16f0f2faf8d7a0d14c09","651c1c7f270f1a2b5ee1f01f","null","null","<p style=""font-size: 60px; font-family: BACS"">kLvdNZvkL</p>","","","","","","","","",""
"html-keyboard-response","121","130414","0.0-10.0-0.32","5f0d65ef2ad0c60009209f0f","650c16f0f2faf8d7a0d14c09","651c1c7f270f1a2b5ee1f01f","null","null","<p style=""font-size: 60px; font-family: BACS"">YlCPBMCkm</p>","","","","","","","","",""
"html-keyboard-response","122","131429","0.0-10.0-0.33","5f0d65ef2ad0c60009209f0f","650c16f0f2faf8d7a0d14c09","651c1c7f270f1a2b5ee1f01f","null","null","<p style=""font-size: 60px; font-family: BACS"">rbYbuZvkL</p>","","","","","","","","",""
"html-keyboard-response","123","132444","0.0-10.0-0.34","5f0d65ef2ad0c60009209f0f","650c16f0f2faf8d7a0d14c09","651c1c7f270f1a2b5ee1f01f","null","null","<p style=""font-size: 60px; font-family: BACS"">kLvdNLUOk</p>","","","","","","","","",""
"html-keyboard-response","124","133445","0.0-10.0-0.35","5f0d65ef2ad0c60009209f0f","650c16f0f2faf8d7a0d14c09","651c1c7f270f1a2b5ee1f01f","null","null","<p style=""font-size: 60px; font-family: BACS"">YlCPBDOAK</p>","","","","","","","","",""
"html-keyboard-response","125","134460","0.0-10.0-0.36","5f0d65ef2ad0c60009209f0f","650c16f0f2faf8d7a0d14c09","651c1c7f270f1a2b5ee1f01f","null","null","<p style=""font-size: 60px; font-family: BACS"">LcNUJZvkL</p>","","","","","","","","",""
"html-keyboard-response","126","135462","0.0-10.0-0.37","5f0d65ef2ad0c60009209f0f","650c16f0f2faf8d7a0d14c09","651c1c7f270f1a2b5ee1f01f","null","null","<p style=""font-size: 60px; font-family: BACS"">RtRhCdt</p>","","","","","","","","",""
"html-keyboard-response","127","136476","0.0-10.0-0.38","5f0d65ef2ad0c60009209f0f","650c16f0f2faf8d7a0d14c09","651c1c7f270f1a2b5ee1f01f","null","null","<p style=""font-size: 60px; font-family: BACS"">lGZvmvG</p>","","","","","","","","",""
"html-keyboard-response","128","137479","0.0-10.0-0.39","5f0d65ef2ad0c60009209f0f","650c16f0f2faf8d7a0d14c09","651c1c7f270f1a2b5ee1f01f","null","null","<p style=""font-size: 60px; font-family: BACS"">OYuvbYbN</p>","","","","","","","","",""
"html-keyboard-response","129","138493","0.0-10.0-0.40","5f0d65ef2ad0c60009209f0f","650c16f0f2faf8d7a0d14c09","651c1c7f270f1a2b5ee1f01f","null","null","<p style=""font-size: 60px; font-family: BACS"">adkrZvkL</p>","","","","","","","","",""
"html-keyboard-response","130","139495","0.0-10.0-0.41","5f0d65ef2ad0c60009209f0f","650c16f0f2faf8d7a0d14c09","651c1c7f270f1a2b5ee1f01f","null","null","<p style=""font-size: 60px; font-family: BACS"">YKRkMCkm</p>","","","","","","","","",""
"html-keyboard-response","131","140510","0.0-10.0-0.42","5f0d65ef2ad0c60009209f0f","650c16f0f2faf8d7a0d14c09","651c1c7f270f1a2b5ee1f01f","null","null","<p style=""font-size: 60px; font-family: BACS"">MlthCdt</p>","","","","","","","","",""
"html-keyboard-response","132","141526","0.0-10.0-0.43","5f0d65ef2ad0c60009209f0f","650c16f0f2faf8d7a0d14c09","651c1c7f270f1a2b5ee1f01f","null","null","<p style=""font-size: 60px; font-family: BACS"">lGZvmZb</p>","","","","","","","","",""
"html-keyboard-response","133","142527","0.0-10.0-0.44","5f0d65ef2ad0c60009209f0f","650c16f0f2faf8d7a0d14c09","651c1c7f270f1a2b5ee1f01f","null","null","<p style=""font-size: 60px; font-family: BACS"">kLvdNmvG</p>","","","","","","","","",""
"html-keyboard-response","134","143542","0.0-10.0-0.45","5f0d65ef2ad0c60009209f0f","650c16f0f2faf8d7a0d14c09","651c1c7f270f1a2b5ee1f01f","null","null","<p style=""font-size: 60px; font-family: BACS"">RYtkcMCkm</p>","","","","","","","","",""
"html-keyboard-response","135","144544","0.0-10.0-0.46","5f0d65ef2ad0c60009209f0f","650c16f0f2faf8d7a0d14c09","651c1c7f270f1a2b5ee1f01f","null","null","<p style=""font-size: 60px; font-family: BACS"">OYuvbmZb</p>","","","","","","","","",""
"html-keyboard-response","136","145559","0.0-10.0-0.47","5f0d65ef2ad0c60009209f0f","650c16f0f2faf8d7a0d14c09","651c1c7f270f1a2b5ee1f01f","null","null","<p style=""font-size: 60px; font-family: BACS"">mBbKMCkm</p>","","","","","","","","",""
"html-keyboard-response","137","146575","0.0-10.0-0.48","5f0d65ef2ad0c60009209f0f","650c16f0f2faf8d7a0d14c09","651c1c7f270f1a2b5ee1f01f","null","null","<p style=""font-size: 60px; font-family: BACS"">AYkEhCdt</p>","","","","","","","","",""
"html-keyboard-response","138","147591","0.0-10.0-0.49","5f0d65ef2ad0c60009209f0f","650c16f0f2faf8d7a0d14c09","651c1c7f270f1a2b5ee1f01f","null","null","<p style=""font-size: 60px; font-family: BACS"">YKRkDOAK</p>","","","","","","","","",""
"html-keyboard-response","139","148593","0.0-10.0-0.50","5f0d65ef2ad0c60009209f0f","650c16f0f2faf8d7a0d14c09","651c1c7f270f1a2b5ee1f01f","null","null","<p style=""font-size: 60px; font-family: BACS"">ckdAmMCkm</p>","","","","","","","","",""
"html-keyboard-response","140","149607","0.0-10.0-0.51","5f0d65ef2ad0c60009209f0f","650c16f0f2faf8d7a0d14c09","651c1c7f270f1a2b5ee1f01f","null","null","<p style=""font-size: 60px; font-family: BACS"">LcNUJLUOk</p>","","","","","","","","",""
"html-keyboard-response","141","150609","0.0-10.0-0.52","5f0d65ef2ad0c60009209f0f","650c16f0f2faf8d7a0d14c09","651c1c7f270f1a2b5ee1f01f","null","null","<p style=""font-size: 60px; font-family: BACS"">vAarmvG</p>","","","","","","","","",""
"html-keyboard-response","142","151624","0.0-10.0-0.53","5f0d65ef2ad0c60009209f0f","650c16f0f2faf8d7a0d14c09","651c1c7f270f1a2b5ee1f01f","null","null","<p style=""font-size: 60px; font-family: BACS"">mBbKCdt</p>","","","","","","","","",""
"html-keyboard-response","143","152640","0.0-10.0-0.54","5f0d65ef2ad0c60009209f0f","650c16f0f2faf8d7a0d14c09","651c1c7f270f1a2b5ee1f01f","null","null","<p style=""font-size: 60px; font-family: BACS"">RtRhDOAK</p>","","","","","","","","",""
"html-keyboard-response","144","153656","0.0-10.0-0.55","5f0d65ef2ad0c60009209f0f","650c16f0f2faf8d7a0d14c09","651c1c7f270f1a2b5ee1f01f","null","null","<p style=""font-size: 60px; font-family: BACS"">hbmARCdc</p>","","","","","","","","",""
"html-keyboard-response","145","154658","0.0-10.0-0.56","5f0d65ef2ad0c60009209f0f","650c16f0f2faf8d7a0d14c09","651c1c7f270f1a2b5ee1f01f","null","null","<p style=""font-size: 60px; font-family: BACS"">DBPhcMAB</p>","","","","","","","","",""
"html-keyboard-response","146","155673","0.0-10.0-0.57","5f0d65ef2ad0c60009209f0f","650c16f0f2faf8d7a0d14c09","651c1c7f270f1a2b5ee1f01f","null","null","<p style=""font-size: 60px; font-family: BACS"">lGZvLUOk</p>","","","","","","","","",""
"html-keyboard-response","147","156674","0.0-10.0-0.58","5f0d65ef2ad0c60009209f0f","650c16f0f2faf8d7a0d14c09","651c1c7f270f1a2b5ee1f01f","null","null","<p style=""font-size: 60px; font-family: BACS"">MlthMCkm</p>","","","","","","","","",""
"html-keyboard-response","148","157690","0.0-10.0-0.59","5f0d65ef2ad0c60009209f0f","650c16f0f2faf8d7a0d14c09","651c1c7f270f1a2b5ee1f01f","null","null","<p style=""font-size: 60px; font-family: BACS"">DBPhcCdt</p>","","","","","","","","",""
"html-keyboard-response","149","158706","0.0-10.0-0.60","5f0d65ef2ad0c60009209f0f","650c16f0f2faf8d7a0d14c09","651c1c7f270f1a2b5ee1f01f","null","null","<p style=""font-size: 60px; font-family: BACS"">vAarYbN</p>","","","","","","","","",""
"html-keyboard-response","150","159722","0.0-10.0-0.61","5f0d65ef2ad0c60009209f0f","650c16f0f2faf8d7a0d14c09","651c1c7f270f1a2b5ee1f01f","null","null","<p style=""font-size: 60px; font-family: BACS"">mBbKRCdc</p>","","","","","","","","",""
"html-keyboard-response","151","160723","0.0-10.0-0.62","5f0d65ef2ad0c60009209f0f","650c16f0f2faf8d7a0d14c09","651c1c7f270f1a2b5ee1f01f","null","null","<p style=""font-size: 60px; font-family: BACS"">ckdAmDOAK</p>","","","","","","","","",""
"html-keyboard-response","152","161738","0.0-10.0-0.63","5f0d65ef2ad0c60009209f0f","650c16f0f2faf8d7a0d14c09","651c1c7f270f1a2b5ee1f01f","null","null","<p style=""font-size: 60px; font-family: BACS"">mkmJNLUOk</p>","","","","","","","","",""
"html-keyboard-response","153","162754","0.0-10.0-0.64","5f0d65ef2ad0c60009209f0f","650c16f0f2faf8d7a0d14c09","651c1c7f270f1a2b5ee1f01f","null","null","<p style=""font-size: 60px; font-family: BACS"">RYtkcDOAK</p>","","","","","","","","",""
"html-keyboard-response","154","163755","0.0-10.0-0.65","5f0d65ef2ad0c60009209f0f","650c16f0f2faf8d7a0d14c09","651c1c7f270f1a2b5ee1f01f","null","null","<p style=""font-size: 60px; font-family: BACS"">adkrmvG</p>","","","","","","","","",""
"html-keyboard-response","155","164756","0.0-10.0-0.66","5f0d65ef2ad0c60009209f0f","650c16f0f2faf8d7a0d14c09","651c1c7f270f1a2b5ee1f01f","null","null","<p style=""font-size: 60px; font-family: BACS"">YKRkMAB</p>","","","","","","","","",""
"html-keyboard-response","156","165771","0.0-10.0-0.67","5f0d65ef2ad0c60009209f0f","650c16f0f2faf8d7a0d14c09","651c1c7f270f1a2b5ee1f01f","null","null","<p style=""font-size: 60px; font-family: BACS"">kLvdNmZb</p>","","","","","","","","",""
"html-keyboard-response","157","166787","0.0-10.0-0.68","5f0d65ef2ad0c60009209f0f","650c16f0f2faf8d7a0d14c09","651c1c7f270f1a2b5ee1f01f","null","null","<p style=""font-size: 60px; font-family: BACS"">hbmACdt</p>","","","","","","","","",""
"html-keyboard-response","158","167803","0.0-10.0-0.69","5f0d65ef2ad0c60009209f0f","650c16f0f2faf8d7a0d14c09","651c1c7f270f1a2b5ee1f01f","null","null","<p style=""font-size: 60px; font-family: BACS"">rbYbumvG</p>","","","","","","","","",""
"html-keyboard-response","159","168820","0.0-10.0-0.70","5f0d65ef2ad0c60009209f0f","650c16f0f2faf8d7a0d14c09","651c1c7f270f1a2b5ee1f01f","null","null","<p style=""font-size: 60px; font-family: BACS"">DBPhcRCdc</p>","","","","","","","","",""
"html-keyboard-response","160","169822","0.0-10.0-0.71","5f0d65ef2ad0c60009209f0f","650c16f0f2faf8d7a0d14c09","651c1c7f270f1a2b5ee1f01f","null","null","<p style=""font-size: 60px; font-family: BACS"">MlthDOAK</p>","","","","","","","","",""
"html-keyboard-response","161","170837","0.0-10.0-0.72","5f0d65ef2ad0c60009209f0f","650c16f0f2faf8d7a0d14c09","651c1c7f270f1a2b5ee1f01f","null","null","<p style=""font-size: 60px; font-family: BACS"">adkrmZb</p>","","","","","","","","",""
"html-keyboard-response","162","171852","0.0-10.0-0.73","5f0d65ef2ad0c60009209f0f","650c16f0f2faf8d7a0d14c09","651c1c7f270f1a2b5ee1f01f","null","null","<p style=""font-size: 60px; font-family: BACS"">AYkEhMAB</p>","","","","","","","","",""
"html-keyboard-response","163","172855","0.0-10.0-0.74","5f0d65ef2ad0c60009209f0f","650c16f0f2faf8d7a0d14c09","651c1c7f270f1a2b5ee1f01f","null","null","<p style=""font-size: 60px; font-family: BACS"">LcNUJYbN</p>","","","","","","","","",""
"html-keyboard-response","164","173868","0.0-10.0-0.75","5f0d65ef2ad0c60009209f0f","650c16f0f2faf8d7a0d14c09","651c1c7f270f1a2b5ee1f01f","null","null","<p style=""font-size: 60px; font-family: BACS"">AYkEhRCdc</p>","","","","","","","","",""
"html-keyboard-response","165","174871","0.0-10.0-0.76","5f0d65ef2ad0c60009209f0f","650c16f0f2faf8d7a0d14c09","651c1c7f270f1a2b5ee1f01f","null","null","<p style=""font-size: 60px; font-family: BACS"">GLYrAmvG</p>","","","","","","","","",""
"html-keyboard-response","166","175885","0.0-10.0-0.77","5f0d65ef2ad0c60009209f0f","650c16f0f2faf8d7a0d14c09","651c1c7f270f1a2b5ee1f01f","null","null","<p style=""font-size: 60px; font-family: BACS"">LcNUJmZb</p>","","","","","","","","",""
"html-keyboard-response","167","176886","0.0-10.0-0.78","5f0d65ef2ad0c60009209f0f","650c16f0f2faf8d7a0d14c09","651c1c7f270f1a2b5ee1f01f","null","null","<p style=""font-size: 60px; font-family: BACS"">OYuvbZvkL</p>","","","","","","","","",""
"html-keyboard-response","168","177901","0.0-10.0-0.79","5f0d65ef2ad0c60009209f0f","650c16f0f2faf8d7a0d14c09","651c1c7f270f1a2b5ee1f01f","null","null","<p style=""font-size: 60px; font-family: BACS"">vAarLUOk</p>","","","","","","","","",""
"html-keyboard-response","169","180539","0.0-11.0","5f0d65ef2ad0c60009209f0f","650c16f0f2faf8d7a0d14c09","651c1c7f270f1a2b5ee1f01f","2649"," ","<p>Great, you've seen the second block of words. You may now take a short break.</p>
      <p>Press the spacebar when you're ready to continue.</p>","","","","","","","","",""
"html-keyboard-response","170","181555","0.0-12.0-0.0","5f0d65ef2ad0c60009209f0f","650c16f0f2faf8d7a0d14c09","651c1c7f270f1a2b5ee1f01f","null","null","<p style=""font-size: 60px; font-family: BACS"">YlCPBMAB</p>","","","","","","","","",""
"html-keyboard-response","171","182556","0.0-12.0-0.1","5f0d65ef2ad0c60009209f0f","650c16f0f2faf8d7a0d14c09","651c1c7f270f1a2b5ee1f01f","null","null","<p style=""font-size: 60px; font-family: BACS"">LcNUJLUOk</p>","","","","","","","","",""
"html-keyboard-response","172","183571","0.0-12.0-0.2","5f0d65ef2ad0c60009209f0f","650c16f0f2faf8d7a0d14c09","651c1c7f270f1a2b5ee1f01f","null","null","<p style=""font-size: 60px; font-family: BACS"">adkrmvG</p>","","","","","","","","",""
"html-keyboard-response","173","184573","0.0-12.0-0.3","5f0d65ef2ad0c60009209f0f","650c16f0f2faf8d7a0d14c09","651c1c7f270f1a2b5ee1f01f","null","null","<p style=""font-size: 60px; font-family: BACS"">mkmJNLUOk</p>","","","","","","","","",""
"html-keyboard-response","174","185587","0.0-12.0-0.4","5f0d65ef2ad0c60009209f0f","650c16f0f2faf8d7a0d14c09","651c1c7f270f1a2b5ee1f01f","null","null","<p style=""font-size: 60px; font-family: BACS"">OYuvbmZb</p>","","","","","","","","",""
"html-keyboard-response","175","186588","0.0-12.0-0.5","5f0d65ef2ad0c60009209f0f","650c16f0f2faf8d7a0d14c09","651c1c7f270f1a2b5ee1f01f","null","null","<p style=""font-size: 60px; font-family: BACS"">YlCPBMCkm</p>","","","","","","","","",""
"html-keyboard-response","176","187589","0.0-12.0-0.6","5f0d65ef2ad0c60009209f0f","650c16f0f2faf8d7a0d14c09","651c1c7f270f1a2b5ee1f01f","null","null","<p style=""font-size: 60px; font-family: BACS"">lGZvYbN</p>","","","","","","","","",""
"html-keyboard-response","177","188604","0.0-12.0-0.7","5f0d65ef2ad0c60009209f0f","650c16f0f2faf8d7a0d14c09","651c1c7f270f1a2b5ee1f01f","null","null","<p style=""font-size: 60px; font-family: BACS"">LcNUJZvkL</p>","","","","","","","","",""
"html-keyboard-response","178","189620","0.0-12.0-0.8","5f0d65ef2ad0c60009209f0f","650c16f0f2faf8d7a0d14c09","651c1c7f270f1a2b5ee1f01f","null","null","<p style=""font-size: 60px; font-family: BACS"">hbmADOAK</p>","","","","","","","","",""
"html-keyboard-response","179","190621","0.0-12.0-0.9","5f0d65ef2ad0c60009209f0f","650c16f0f2faf8d7a0d14c09","651c1c7f270f1a2b5ee1f01f","null","null","<p style=""font-size: 60px; font-family: BACS"">LcNUJYbN</p>","","","","","","","","",""
"html-keyboard-response","180","191636","0.0-12.0-0.10","5f0d65ef2ad0c60009209f0f","650c16f0f2faf8d7a0d14c09","651c1c7f270f1a2b5ee1f01f","null","null","<p style=""font-size: 60px; font-family: BACS"">GLYrAmZb</p>","","","","","","","","",""
"html-keyboard-response","181","192637","0.0-12.0-0.11","5f0d65ef2ad0c60009209f0f","650c16f0f2faf8d7a0d14c09","651c1c7f270f1a2b5ee1f01f","null","null","<p style=""font-size: 60px; font-family: BACS"">lGZvLUOk</p>","","","","","","","","",""
"html-keyboard-response","182","193638","0.0-12.0-0.12","5f0d65ef2ad0c60009209f0f","650c16f0f2faf8d7a0d14c09","651c1c7f270f1a2b5ee1f01f","null","null","<p style=""font-size: 60px; font-family: BACS"">rbYbuZvkL</p>","","","","","","","","",""
"html-keyboard-response","183","194653","0.0-12.0-0.13","5f0d65ef2ad0c60009209f0f","650c16f0f2faf8d7a0d14c09","651c1c7f270f1a2b5ee1f01f","null","null","<p style=""font-size: 60px; font-family: BACS"">AYkEhMAB</p>","","","","","","","","",""
"html-keyboard-response","184","195669","0.0-12.0-0.14","5f0d65ef2ad0c60009209f0f","650c16f0f2faf8d7a0d14c09","651c1c7f270f1a2b5ee1f01f","null","null","<p style=""font-size: 60px; font-family: BACS"">RYtkcRCdc</p>","","","","","","","","",""
"html-keyboard-response","185","196670","0.0-12.0-0.15","5f0d65ef2ad0c60009209f0f","650c16f0f2faf8d7a0d14c09","651c1c7f270f1a2b5ee1f01f","null","null","<p style=""font-size: 60px; font-family: BACS"">rbYbumvG</p>","","","","","","","","",""
"html-keyboard-response","186","197686","0.0-12.0-0.16","5f0d65ef2ad0c60009209f0f","650c16f0f2faf8d7a0d14c09","651c1c7f270f1a2b5ee1f01f","null","null","<p style=""font-size: 60px; font-family: BACS"">OYuvbZvkL</p>","","","","","","","","",""
"html-keyboard-response","187","198702","0.0-12.0-0.17","5f0d65ef2ad0c60009209f0f","650c16f0f2faf8d7a0d14c09","651c1c7f270f1a2b5ee1f01f","null","null","<p style=""font-size: 60px; font-family: BACS"">adkrmZb</p>","","","","","","","","",""
"html-keyboard-response","188","199718","0.0-12.0-0.18","5f0d65ef2ad0c60009209f0f","650c16f0f2faf8d7a0d14c09","651c1c7f270f1a2b5ee1f01f","null","null","<p style=""font-size: 60px; font-family: BACS"">mBbKCdt</p>","","","","","","","","",""
"html-keyboard-response","189","200734","0.0-12.0-0.19","5f0d65ef2ad0c60009209f0f","650c16f0f2faf8d7a0d14c09","651c1c7f270f1a2b5ee1f01f","null","null","<p style=""font-size: 60px; font-family: BACS"">vAarYbN</p>","","","","","","","","",""
"html-keyboard-response","190","201751","0.0-12.0-0.20","5f0d65ef2ad0c60009209f0f","650c16f0f2faf8d7a0d14c09","651c1c7f270f1a2b5ee1f01f","null","null","<p style=""font-size: 60px; font-family: BACS"">kNuaZvkL</p>","","","","","","","","",""
"html-keyboard-response","191","202751","0.0-12.0-0.21","5f0d65ef2ad0c60009209f0f","650c16f0f2faf8d7a0d14c09","651c1c7f270f1a2b5ee1f01f","null","null","<p style=""font-size: 60px; font-family: BACS"">adkrYbN</p>","","","","","","","","",""
"html-keyboard-response","192","203767","0.0-12.0-0.22","5f0d65ef2ad0c60009209f0f","650c16f0f2faf8d7a0d14c09","651c1c7f270f1a2b5ee1f01f","null","null","<p style=""font-size: 60px; font-family: BACS"">RtRhCdt</p>","","","","","","","","",""
"html-keyboard-response","193","204783","0.0-12.0-0.23","5f0d65ef2ad0c60009209f0f","650c16f0f2faf8d7a0d14c09","651c1c7f270f1a2b5ee1f01f","null","null","<p style=""font-size: 60px; font-family: BACS"">YKRkMCkm</p>","","","","","","","","",""
"html-keyboard-response","194","205785","0.0-12.0-0.24","5f0d65ef2ad0c60009209f0f","650c16f0f2faf8d7a0d14c09","651c1c7f270f1a2b5ee1f01f","null","null","<p style=""font-size: 60px; font-family: BACS"">YlCPBCdt</p>","","","","","","","","",""
"html-keyboard-response","195","206800","0.0-12.0-0.25","5f0d65ef2ad0c60009209f0f","650c16f0f2faf8d7a0d14c09","651c1c7f270f1a2b5ee1f01f","null","null","<p style=""font-size: 60px; font-family: BACS"">ckdAmDOAK</p>","","","","","","","","",""
"html-keyboard-response","196","207816","0.0-12.0-0.26","5f0d65ef2ad0c60009209f0f","650c16f0f2faf8d7a0d14c09","651c1c7f270f1a2b5ee1f01f","null","null","<p style=""font-size: 60px; font-family: BACS"">lGZvmvG</p>","","","","","","","","",""
"html-keyboard-response","197","208818","0.0-12.0-0.27","5f0d65ef2ad0c60009209f0f","650c16f0f2faf8d7a0d14c09","651c1c7f270f1a2b5ee1f01f","null","null","<p style=""font-size: 60px; font-family: BACS"">ckdAmMAB</p>","","","","","","","","",""
"html-keyboard-response","198","209834","0.0-12.0-0.28","5f0d65ef2ad0c60009209f0f","650c16f0f2faf8d7a0d14c09","651c1c7f270f1a2b5ee1f01f","null","null","<p style=""font-size: 60px; font-family: BACS"">MlthDOAK</p>","","","","","","","","",""
"html-keyboard-response","199","210849","0.0-12.0-0.29","5f0d65ef2ad0c60009209f0f","650c16f0f2faf8d7a0d14c09","651c1c7f270f1a2b5ee1f01f","null","null","<p style=""font-size: 60px; font-family: BACS"">kLvdNLUOk</p>","","","","","","","","",""
"html-keyboard-response","200","211850","0.0-12.0-0.30","5f0d65ef2ad0c60009209f0f","650c16f0f2faf8d7a0d14c09","651c1c7f270f1a2b5ee1f01f","null","null","<p style=""font-size: 60px; font-family: BACS"">adkrZvkL</p>","","","","","","","","",""
"html-keyboard-response","201","212866","0.0-12.0-0.31","5f0d65ef2ad0c60009209f0f","650c16f0f2faf8d7a0d14c09","651c1c7f270f1a2b5ee1f01f","null","null","<p style=""font-size: 60px; font-family: BACS"">vAarmZb</p>","","","","","","","","",""
"html-keyboard-response","202","213866","0.0-12.0-0.32","5f0d65ef2ad0c60009209f0f","650c16f0f2faf8d7a0d14c09","651c1c7f270f1a2b5ee1f01f","null","null","<p style=""font-size: 60px; font-family: BACS"">rbYbuLUOk</p>","","","","","","","","",""
"html-keyboard-response","203","214881","0.0-12.0-0.33","5f0d65ef2ad0c60009209f0f","650c16f0f2faf8d7a0d14c09","651c1c7f270f1a2b5ee1f01f","null","null","<p style=""font-size: 60px; font-family: BACS"">YKRkRCdc</p>","","","","","","","","",""
"html-keyboard-response","204","215883","0.0-12.0-0.34","5f0d65ef2ad0c60009209f0f","650c16f0f2faf8d7a0d14c09","651c1c7f270f1a2b5ee1f01f","null","null","<p style=""font-size: 60px; font-family: BACS"">vAarmvG</p>","","","","","","","","",""
"html-keyboard-response","205","216897","0.0-12.0-0.35","5f0d65ef2ad0c60009209f0f","650c16f0f2faf8d7a0d14c09","651c1c7f270f1a2b5ee1f01f","null","null","<p style=""font-size: 60px; font-family: BACS"">kNuamZb</p>","","","","","","","","",""
"html-keyboard-response","206","217898","0.0-12.0-0.36","5f0d65ef2ad0c60009209f0f","650c16f0f2faf8d7a0d14c09","651c1c7f270f1a2b5ee1f01f","null","null","<p style=""font-size: 60px; font-family: BACS"">DBPhcCdt</p>","","","","","","","","",""
"html-keyboard-response","207","218899","0.0-12.0-0.37","5f0d65ef2ad0c60009209f0f","650c16f0f2faf8d7a0d14c09","651c1c7f270f1a2b5ee1f01f","null","null","<p style=""font-size: 60px; font-family: BACS"">mkmJNZvkL</p>","","","","","","","","",""
"html-keyboard-response","208","219914","0.0-12.0-0.38","5f0d65ef2ad0c60009209f0f","650c16f0f2faf8d7a0d14c09","651c1c7f270f1a2b5ee1f01f","null","null","<p style=""font-size: 60px; font-family: BACS"">MlthMAB</p>","","","","","","","","",""
"html-keyboard-response","209","220915","0.0-12.0-0.39","5f0d65ef2ad0c60009209f0f","650c16f0f2faf8d7a0d14c09","651c1c7f270f1a2b5ee1f01f","null","null","<p style=""font-size: 60px; font-family: BACS"">AYkEhDOAK</p>","","","","","","","","",""
"html-keyboard-response","210","221930","0.0-12.0-0.40","5f0d65ef2ad0c60009209f0f","650c16f0f2faf8d7a0d14c09","651c1c7f270f1a2b5ee1f01f","null","null","<p style=""font-size: 60px; font-family: BACS"">mkmJNmvG</p>","","","","","","","","",""
"html-keyboard-response","211","222932","0.0-12.0-0.41","5f0d65ef2ad0c60009209f0f","650c16f0f2faf8d7a0d14c09","651c1c7f270f1a2b5ee1f01f","null","null","<p style=""font-size: 60px; font-family: BACS"">RtRhMCkm</p>","","","","","","","","",""
"html-keyboard-response","212","223946","0.0-12.0-0.42","5f0d65ef2ad0c60009209f0f","650c16f0f2faf8d7a0d14c09","651c1c7f270f1a2b5ee1f01f","null","null","<p style=""font-size: 60px; font-family: BACS"">rbYbuYbN</p>","","","","","","","","",""
"html-keyboard-response","213","224962","0.0-12.0-0.43","5f0d65ef2ad0c60009209f0f","650c16f0f2faf8d7a0d14c09","651c1c7f270f1a2b5ee1f01f","null","null","<p style=""font-size: 60px; font-family: BACS"">AYkEhRCdc</p>","","","","","","","","",""
"html-keyboard-response","214","225963","0.0-12.0-0.44","5f0d65ef2ad0c60009209f0f","650c16f0f2faf8d7a0d14c09","651c1c7f270f1a2b5ee1f01f","null","null","<p style=""font-size: 60px; font-family: BACS"">GLYrAZvkL</p>","","","","","","","","",""
"html-keyboard-response","215","226978","0.0-12.0-0.45","5f0d65ef2ad0c60009209f0f","650c16f0f2faf8d7a0d14c09","651c1c7f270f1a2b5ee1f01f","null","null","<p style=""font-size: 60px; font-family: BACS"">ckdAmMCkm</p>","","","","","","","","",""
"html-keyboard-response","216","227980","0.0-12.0-0.46","5f0d65ef2ad0c60009209f0f","650c16f0f2faf8d7a0d14c09","651c1c7f270f1a2b5ee1f01f","null","null","<p style=""font-size: 60px; font-family: BACS"">AYkEhCdt</p>","","","","","","","","",""
"html-keyboard-response","217","228995","0.0-12.0-0.47","5f0d65ef2ad0c60009209f0f","650c16f0f2faf8d7a0d14c09","651c1c7f270f1a2b5ee1f01f","null","null","<p style=""font-size: 60px; font-family: BACS"">mBbKMCkm</p>","","","","","","","","",""
"html-keyboard-response","218","229997","0.0-12.0-0.48","5f0d65ef2ad0c60009209f0f","650c16f0f2faf8d7a0d14c09","651c1c7f270f1a2b5ee1f01f","null","null","<p style=""font-size: 60px; font-family: BACS"">YKRkMAB</p>","","","","","","","","",""
"html-keyboard-response","219","231012","0.0-12.0-0.49","5f0d65ef2ad0c60009209f0f","650c16f0f2faf8d7a0d14c09","651c1c7f270f1a2b5ee1f01f","null","null","<p style=""font-size: 60px; font-family: BACS"">vAarLUOk</p>","","","","","","","","",""
"html-keyboard-response","220","232013","0.0-12.0-0.50","5f0d65ef2ad0c60009209f0f","650c16f0f2faf8d7a0d14c09","651c1c7f270f1a2b5ee1f01f","null","null","<p style=""font-size: 60px; font-family: BACS"">YlCPBDOAK</p>","","","","","","","","",""
"html-keyboard-response","221","233027","0.0-12.0-0.51","5f0d65ef2ad0c60009209f0f","650c16f0f2faf8d7a0d14c09","651c1c7f270f1a2b5ee1f01f","null","null","<p style=""font-size: 60px; font-family: BACS"">DBPhcRCdc</p>","","","","","","","","",""
"html-keyboard-response","222","234029","0.0-12.0-0.52","5f0d65ef2ad0c60009209f0f","650c16f0f2faf8d7a0d14c09","651c1c7f270f1a2b5ee1f01f","null","null","<p style=""font-size: 60px; font-family: BACS"">kLvdNmvG</p>","","","","","","","","",""
"html-keyboard-response","223","235044","0.0-12.0-0.53","5f0d65ef2ad0c60009209f0f","650c16f0f2faf8d7a0d14c09","651c1c7f270f1a2b5ee1f01f","null","null","<p style=""font-size: 60px; font-family: BACS"">DBPhcMCkm</p>","","","","","","","","",""
"html-keyboard-response","224","236060","0.0-12.0-0.54","5f0d65ef2ad0c60009209f0f","650c16f0f2faf8d7a0d14c09","651c1c7f270f1a2b5ee1f01f","null","null","<p style=""font-size: 60px; font-family: BACS"">RYtkcDOAK</p>","","","","","","","","",""
"html-keyboard-response","225","237062","0.0-12.0-0.55","5f0d65ef2ad0c60009209f0f","650c16f0f2faf8d7a0d14c09","651c1c7f270f1a2b5ee1f01f","null","null","<p style=""font-size: 60px; font-family: BACS"">mBbKMAB</p>","","","","","","","","",""
"html-keyboard-response","226","238076","0.0-12.0-0.56","5f0d65ef2ad0c60009209f0f","650c16f0f2faf8d7a0d14c09","651c1c7f270f1a2b5ee1f01f","null","null","<p style=""font-size: 60px; font-family: BACS"">MlthCdt</p>","","","","","","","","",""
"html-keyboard-response","227","239093","0.0-12.0-0.57","5f0d65ef2ad0c60009209f0f","650c16f0f2faf8d7a0d14c09","651c1c7f270f1a2b5ee1f01f","null","null","<p style=""font-size: 60px; font-family: BACS"">OYuvbLUOk</p>","","","","","","","","",""
"html-keyboard-response","228","240095","0.0-12.0-0.58","5f0d65ef2ad0c60009209f0f","650c16f0f2faf8d7a0d14c09","651c1c7f270f1a2b5ee1f01f","null","null","<p style=""font-size: 60px; font-family: BACS"">GLYrAmvG</p>","","","","","","","","",""
"html-keyboard-response","229","241122","0.0-12.0-0.59","5f0d65ef2ad0c60009209f0f","650c16f0f2faf8d7a0d14c09","651c1c7f270f1a2b5ee1f01f","null","null","<p style=""font-size: 60px; font-family: BACS"">mBbKRCdc</p>","","","","","","","","",""
"html-keyboard-response","230","242138","0.0-12.0-0.60","5f0d65ef2ad0c60009209f0f","650c16f0f2faf8d7a0d14c09","651c1c7f270f1a2b5ee1f01f","null","null","<p style=""font-size: 60px; font-family: BACS"">RtRhDOAK</p>","","","","","","","","",""
"html-keyboard-response","231","243139","0.0-12.0-0.61","5f0d65ef2ad0c60009209f0f","650c16f0f2faf8d7a0d14c09","651c1c7f270f1a2b5ee1f01f","null","null","<p style=""font-size: 60px; font-family: BACS"">RYtkcCdt</p>","","","","","","","","",""
"html-keyboard-response","232","244140","0.0-12.0-0.62","5f0d65ef2ad0c60009209f0f","650c16f0f2faf8d7a0d14c09","651c1c7f270f1a2b5ee1f01f","null","null","<p style=""font-size: 60px; font-family: BACS"">DBPhcMAB</p>","","","","","","","","",""
"html-keyboard-response","233","245154","0.0-12.0-0.63","5f0d65ef2ad0c60009209f0f","650c16f0f2faf8d7a0d14c09","651c1c7f270f1a2b5ee1f01f","null","null","<p style=""font-size: 60px; font-family: BACS"">RYtkcMCkm</p>","","","","","","","","",""
"html-keyboard-response","234","246170","0.0-12.0-0.64","5f0d65ef2ad0c60009209f0f","650c16f0f2faf8d7a0d14c09","651c1c7f270f1a2b5ee1f01f","null","null","<p style=""font-size: 60px; font-family: BACS"">kLvdNmZb</p>","","","","","","","","",""
"html-keyboard-response","235","247171","0.0-12.0-0.65","5f0d65ef2ad0c60009209f0f","650c16f0f2faf8d7a0d14c09","651c1c7f270f1a2b5ee1f01f","null","null","<p style=""font-size: 60px; font-family: BACS"">mkmJNYbN</p>","","","","","","","","",""
"html-keyboard-response","236","248187","0.0-12.0-0.66","5f0d65ef2ad0c60009209f0f","650c16f0f2faf8d7a0d14c09","651c1c7f270f1a2b5ee1f01f","null","null","<p style=""font-size: 60px; font-family: BACS"">hbmACdt</p>","","","","","","","","",""
"html-keyboard-response","237","249203","0.0-12.0-0.67","5f0d65ef2ad0c60009209f0f","650c16f0f2faf8d7a0d14c09","651c1c7f270f1a2b5ee1f01f","null","null","<p style=""font-size: 60px; font-family: BACS"">OYuvbYbN</p>","","","","","","","","",""
"html-keyboard-response","238","250204","0.0-12.0-0.68","5f0d65ef2ad0c60009209f0f","650c16f0f2faf8d7a0d14c09","651c1c7f270f1a2b5ee1f01f","null","null","<p style=""font-size: 60px; font-family: BACS"">kNuamvG</p>","","","","","","","","",""
"html-keyboard-response","239","251220","0.0-12.0-0.69","5f0d65ef2ad0c60009209f0f","650c16f0f2faf8d7a0d14c09","651c1c7f270f1a2b5ee1f01f","null","null","<p style=""font-size: 60px; font-family: BACS"">kLvdNZvkL</p>","","","","","","","","",""
"html-keyboard-response","240","252236","0.0-12.0-0.70","5f0d65ef2ad0c60009209f0f","650c16f0f2faf8d7a0d14c09","651c1c7f270f1a2b5ee1f01f","null","null","<p style=""font-size: 60px; font-family: BACS"">hbmAMAB</p>","","","","","","","","",""
"html-keyboard-response","241","253237","0.0-12.0-0.71","5f0d65ef2ad0c60009209f0f","650c16f0f2faf8d7a0d14c09","651c1c7f270f1a2b5ee1f01f","null","null","<p style=""font-size: 60px; font-family: BACS"">YKRkDOAK</p>","","","","","","","","",""
"html-keyboard-response","242","254252","0.0-12.0-0.72","5f0d65ef2ad0c60009209f0f","650c16f0f2faf8d7a0d14c09","651c1c7f270f1a2b5ee1f01f","null","null","<p style=""font-size: 60px; font-family: BACS"">MlthMCkm</p>","","","","","","","","",""
"html-keyboard-response","243","255255","0.0-12.0-0.73","5f0d65ef2ad0c60009209f0f","650c16f0f2faf8d7a0d14c09","651c1c7f270f1a2b5ee1f01f","null","null","<p style=""font-size: 60px; font-family: BACS"">hbmARCdc</p>","","","","","","","","",""
"html-keyboard-response","244","256268","0.0-12.0-0.74","5f0d65ef2ad0c60009209f0f","650c16f0f2faf8d7a0d14c09","651c1c7f270f1a2b5ee1f01f","null","null","<p style=""font-size: 60px; font-family: BACS"">kNuaLUOk</p>","","","","","","","","",""
"html-keyboard-response","245","257284","0.0-12.0-0.75","5f0d65ef2ad0c60009209f0f","650c16f0f2faf8d7a0d14c09","651c1c7f270f1a2b5ee1f01f","null","null","<p style=""font-size: 60px; font-family: BACS"">RtRhRCdc</p>","","","","","","","","",""
"html-keyboard-response","246","258286","0.0-12.0-0.76","5f0d65ef2ad0c60009209f0f","650c16f0f2faf8d7a0d14c09","651c1c7f270f1a2b5ee1f01f","null","null","<p style=""font-size: 60px; font-family: BACS"">lGZvmZb</p>","","","","","","","","",""
"html-keyboard-response","247","259301","0.0-12.0-0.77","5f0d65ef2ad0c60009209f0f","650c16f0f2faf8d7a0d14c09","651c1c7f270f1a2b5ee1f01f","null","null","<p style=""font-size: 60px; font-family: BACS"">ckdAmRCdc</p>","","","","","","","","",""
"html-keyboard-response","248","260302","0.0-12.0-0.78","5f0d65ef2ad0c60009209f0f","650c16f0f2faf8d7a0d14c09","651c1c7f270f1a2b5ee1f01f","null","null","<p style=""font-size: 60px; font-family: BACS"">LcNUJmZb</p>","","","","","","","","",""
"html-keyboard-response","249","261318","0.0-12.0-0.79","5f0d65ef2ad0c60009209f0f","650c16f0f2faf8d7a0d14c09","651c1c7f270f1a2b5ee1f01f","null","null","<p style=""font-size: 60px; font-family: BACS"">GLYrAYbN</p>","","","","","","","","",""
"html-keyboard-response","250","263628","0.0-13.0","5f0d65ef2ad0c60009209f0f","650c16f0f2faf8d7a0d14c09","651c1c7f270f1a2b5ee1f01f","2309"," ","<p>Great, you've seen the third block of words. You may now take a short break.</p>
      <p>Press the spacebar when you're ready to continue.</p>","","","","","","","","",""
"html-keyboard-response","251","264635","0.0-14.0-0.0","5f0d65ef2ad0c60009209f0f","650c16f0f2faf8d7a0d14c09","651c1c7f270f1a2b5ee1f01f","null","null","<p style=""font-size: 60px; font-family: BACS"">AYkEhDOAK</p>","","","","","","","","",""
"html-keyboard-response","252","265651","0.0-14.0-0.1","5f0d65ef2ad0c60009209f0f","650c16f0f2faf8d7a0d14c09","651c1c7f270f1a2b5ee1f01f","null","null","<p style=""font-size: 60px; font-family: BACS"">mBbKCdt</p>","","","","","","","","",""
"html-keyboard-response","253","266652","0.0-14.0-0.2","5f0d65ef2ad0c60009209f0f","650c16f0f2faf8d7a0d14c09","651c1c7f270f1a2b5ee1f01f","null","null","<p style=""font-size: 60px; font-family: BACS"">DBPhcRCdc</p>","","","","","","","","",""
"html-keyboard-response","254","267666","0.0-14.0-0.3","5f0d65ef2ad0c60009209f0f","650c16f0f2faf8d7a0d14c09","651c1c7f270f1a2b5ee1f01f","null","null","<p style=""font-size: 60px; font-family: BACS"">YlCPBDOAK</p>","","","","","","","","",""
"html-keyboard-response","255","268682","0.0-14.0-0.4","5f0d65ef2ad0c60009209f0f","650c16f0f2faf8d7a0d14c09","651c1c7f270f1a2b5ee1f01f","null","null","<p style=""font-size: 60px; font-family: BACS"">kLvdNmZb</p>","","","","","","","","",""
"html-keyboard-response","256","269684","0.0-14.0-0.5","5f0d65ef2ad0c60009209f0f","650c16f0f2faf8d7a0d14c09","651c1c7f270f1a2b5ee1f01f","null","null","<p style=""font-size: 60px; font-family: BACS"">RtRhCdt</p>","","","","","","","","",""
"html-keyboard-response","257","270698","0.0-14.0-0.6","5f0d65ef2ad0c60009209f0f","650c16f0f2faf8d7a0d14c09","651c1c7f270f1a2b5ee1f01f","null","null","<p style=""font-size: 60px; font-family: BACS"">adkrYbN</p>","","","","","","","","",""
"html-keyboard-response","258","271699","0.0-14.0-0.7","5f0d65ef2ad0c60009209f0f","650c16f0f2faf8d7a0d14c09","651c1c7f270f1a2b5ee1f01f","null","null","<p style=""font-size: 60px; font-family: BACS"">hbmADOAK</p>","","","","","","","","",""
"html-keyboard-response","259","272715","0.0-14.0-0.8","5f0d65ef2ad0c60009209f0f","650c16f0f2faf8d7a0d14c09","651c1c7f270f1a2b5ee1f01f","null","null","<p style=""font-size: 60px; font-family: BACS"">ckdAmRCdc</p>","","","","","","","","",""
"html-keyboard-response","260","273731","0.0-14.0-0.9","5f0d65ef2ad0c60009209f0f","650c16f0f2faf8d7a0d14c09","651c1c7f270f1a2b5ee1f01f","null","null","<p style=""font-size: 60px; font-family: BACS"">OYuvbLUOk</p>","","","","","","","","",""
"html-keyboard-response","261","274733","0.0-14.0-0.10","5f0d65ef2ad0c60009209f0f","650c16f0f2faf8d7a0d14c09","651c1c7f270f1a2b5ee1f01f","null","null","<p style=""font-size: 60px; font-family: BACS"">kNuamZb</p>","","","","","","","","",""
"html-keyboard-response","262","275748","0.0-14.0-0.11","5f0d65ef2ad0c60009209f0f","650c16f0f2faf8d7a0d14c09","651c1c7f270f1a2b5ee1f01f","null","null","<p style=""font-size: 60px; font-family: BACS"">mkmJNLUOk</p>","","","","","","","","",""
"html-keyboard-response","263","276764","0.0-14.0-0.12","5f0d65ef2ad0c60009209f0f","650c16f0f2faf8d7a0d14c09","651c1c7f270f1a2b5ee1f01f","null","null","<p style=""font-size: 60px; font-family: BACS"">YlCPBCdt</p>","","","","","","","","",""
"html-keyboard-response","264","277765","0.0-14.0-0.13","5f0d65ef2ad0c60009209f0f","650c16f0f2faf8d7a0d14c09","651c1c7f270f1a2b5ee1f01f","null","null","<p style=""font-size: 60px; font-family: BACS"">adkrmvG</p>","","","","","","","","",""
"html-keyboard-response","265","278781","0.0-14.0-0.14","5f0d65ef2ad0c60009209f0f","650c16f0f2faf8d7a0d14c09","651c1c7f270f1a2b5ee1f01f","null","null","<p style=""font-size: 60px; font-family: BACS"">lGZvLUOk</p>","","","","","","","","",""
"html-keyboard-response","266","279797","0.0-14.0-0.15","5f0d65ef2ad0c60009209f0f","650c16f0f2faf8d7a0d14c09","651c1c7f270f1a2b5ee1f01f","null","null","<p style=""font-size: 60px; font-family: BACS"">YKRkMAB</p>","","","","","","","","",""
"html-keyboard-response","267","280814","0.0-14.0-0.16","5f0d65ef2ad0c60009209f0f","650c16f0f2faf8d7a0d14c09","651c1c7f270f1a2b5ee1f01f","null","null","<p style=""font-size: 60px; font-family: BACS"">MlthCdt</p>","","","","","","","","",""
"html-keyboard-response","268","281829","0.0-14.0-0.17","5f0d65ef2ad0c60009209f0f","650c16f0f2faf8d7a0d14c09","651c1c7f270f1a2b5ee1f01f","null","null","<p style=""font-size: 60px; font-family: BACS"">vAarmvG</p>","","","","","","","","",""
"html-keyboard-response","269","282831","0.0-14.0-0.18","5f0d65ef2ad0c60009209f0f","650c16f0f2faf8d7a0d14c09","651c1c7f270f1a2b5ee1f01f","null","null","<p style=""font-size: 60px; font-family: BACS"">ckdAmMAB</p>","","","","","","","","",""
"html-keyboard-response","270","283847","0.0-14.0-0.19","5f0d65ef2ad0c60009209f0f","650c16f0f2faf8d7a0d14c09","651c1c7f270f1a2b5ee1f01f","null","null","<p style=""font-size: 60px; font-family: BACS"">rbYbuLUOk</p>","","","","","","","","",""
"html-keyboard-response","271","284862","0.0-14.0-0.20","5f0d65ef2ad0c60009209f0f","650c16f0f2faf8d7a0d14c09","651c1c7f270f1a2b5ee1f01f","null","null","<p style=""font-size: 60px; font-family: BACS"">RtRhDOAK</p>","","","","","","","","",""
"html-keyboard-response","272","285879","0.0-14.0-0.21","5f0d65ef2ad0c60009209f0f","650c16f0f2faf8d7a0d14c09","651c1c7f270f1a2b5ee1f01f","null","null","<p style=""font-size: 60px; font-family: BACS"">lGZvmZb</p>","","","","","","","","",""
"html-keyboard-response","273","286882","0.0-14.0-0.22","5f0d65ef2ad0c60009209f0f","650c16f0f2faf8d7a0d14c09","651c1c7f270f1a2b5ee1f01f","null","null","<p style=""font-size: 60px; font-family: BACS"">hbmACdt</p>","","","","","","","","",""
"html-keyboard-response","274","287895","0.0-14.0-0.23","5f0d65ef2ad0c60009209f0f","650c16f0f2faf8d7a0d14c09","651c1c7f270f1a2b5ee1f01f","null","null","<p style=""font-size: 60px; font-family: BACS"">adkrmZb</p>","","","","","","","","",""
"html-keyboard-response","275","288897","0.0-14.0-0.24","5f0d65ef2ad0c60009209f0f","650c16f0f2faf8d7a0d14c09","651c1c7f270f1a2b5ee1f01f","null","null","<p style=""font-size: 60px; font-family: BACS"">rbYbumvG</p>","","","","","","","","",""
"html-keyboard-response","276","289913","0.0-14.0-0.25","5f0d65ef2ad0c60009209f0f","650c16f0f2faf8d7a0d14c09","651c1c7f270f1a2b5ee1f01f","null","null","<p style=""font-size: 60px; font-family: BACS"">LcNUJLUOk</p>","","","","","","","","",""
"html-keyboard-response","277","290928","0.0-14.0-0.26","5f0d65ef2ad0c60009209f0f","650c16f0f2faf8d7a0d14c09","651c1c7f270f1a2b5ee1f01f","null","null","<p style=""font-size: 60px; font-family: BACS"">YKRkDOAK</p>","","","","","","","","",""
"html-keyboard-response","278","291930","0.0-14.0-0.27","5f0d65ef2ad0c60009209f0f","650c16f0f2faf8d7a0d14c09","651c1c7f270f1a2b5ee1f01f","null","null","<p style=""font-size: 60px; font-family: BACS"">kNuaZvkL</p>","","","","","","","","",""
"html-keyboard-response","279","292945","0.0-14.0-0.28","5f0d65ef2ad0c60009209f0f","650c16f0f2faf8d7a0d14c09","651c1c7f270f1a2b5ee1f01f","null","null","<p style=""font-size: 60px; font-family: BACS"">hbmARCdc</p>","","","","","","","","",""
"html-keyboard-response","280","293945","0.0-14.0-0.29","5f0d65ef2ad0c60009209f0f","650c16f0f2faf8d7a0d14c09","651c1c7f270f1a2b5ee1f01f","null","null","<p style=""font-size: 60px; font-family: BACS"">LcNUJZvkL</p>","","","","","","","","",""
"html-keyboard-response","281","294947","0.0-14.0-0.30","5f0d65ef2ad0c60009209f0f","650c16f0f2faf8d7a0d14c09","651c1c7f270f1a2b5ee1f01f","null","null","<p style=""font-size: 60px; font-family: BACS"">AYkEhCdt</p>","","","","","","","","",""
"html-keyboard-response","282","295960","0.0-14.0-0.31","5f0d65ef2ad0c60009209f0f","650c16f0f2faf8d7a0d14c09","651c1c7f270f1a2b5ee1f01f","null","null","<p style=""font-size: 60px; font-family: BACS"">GLYrAZvkL</p>","","","","","","","","",""
"html-keyboard-response","283","296976","0.0-14.0-0.32","5f0d65ef2ad0c60009209f0f","650c16f0f2faf8d7a0d14c09","651c1c7f270f1a2b5ee1f01f","null","null","<p style=""font-size: 60px; font-family: BACS"">hbmAMAB</p>","","","","","","","","",""
"html-keyboard-response","284","297993","0.0-14.0-0.33","5f0d65ef2ad0c60009209f0f","650c16f0f2faf8d7a0d14c09","651c1c7f270f1a2b5ee1f01f","null","null","<p style=""font-size: 60px; font-family: BACS"">vAarYbN</p>","","","","","","","","",""
"html-keyboard-response","285","298997","0.0-14.0-0.34","5f0d65ef2ad0c60009209f0f","650c16f0f2faf8d7a0d14c09","651c1c7f270f1a2b5ee1f01f","null","null","<p style=""font-size: 60px; font-family: BACS"">MlthDOAK</p>","","","","","","","","",""
"html-keyboard-response","286","300011","0.0-14.0-0.35","5f0d65ef2ad0c60009209f0f","650c16f0f2faf8d7a0d14c09","651c1c7f270f1a2b5ee1f01f","null","null","<p style=""font-size: 60px; font-family: BACS"">RtRhMCkm</p>","","","","","","","","",""
"html-keyboard-response","287","301027","0.0-14.0-0.36","5f0d65ef2ad0c60009209f0f","650c16f0f2faf8d7a0d14c09","651c1c7f270f1a2b5ee1f01f","null","null","<p style=""font-size: 60px; font-family: BACS"">vAarLUOk</p>","","","","","","","","",""
"html-keyboard-response","288","302043","0.0-14.0-0.37","5f0d65ef2ad0c60009209f0f","650c16f0f2faf8d7a0d14c09","651c1c7f270f1a2b5ee1f01f","null","null","<p style=""font-size: 60px; font-family: BACS"">YlCPBMAB</p>","","","","","","","","",""
"html-keyboard-response","289","303058","0.0-14.0-0.38","5f0d65ef2ad0c60009209f0f","650c16f0f2faf8d7a0d14c09","651c1c7f270f1a2b5ee1f01f","null","null","<p style=""font-size: 60px; font-family: BACS"">rbYbuYbN</p>","","","","","","","","",""
"html-keyboard-response","290","304061","0.0-14.0-0.39","5f0d65ef2ad0c60009209f0f","650c16f0f2faf8d7a0d14c09","651c1c7f270f1a2b5ee1f01f","null","null","<p style=""font-size: 60px; font-family: BACS"">YlCPBMCkm</p>","","","","","","","","",""
"html-keyboard-response","291","305076","0.0-14.0-0.40","5f0d65ef2ad0c60009209f0f","650c16f0f2faf8d7a0d14c09","651c1c7f270f1a2b5ee1f01f","null","null","<p style=""font-size: 60px; font-family: BACS"">lGZvmvG</p>","","","","","","","","",""
"html-keyboard-response","292","306091","0.0-14.0-0.41","5f0d65ef2ad0c60009209f0f","650c16f0f2faf8d7a0d14c09","651c1c7f270f1a2b5ee1f01f","null","null","<p style=""font-size: 60px; font-family: BACS"">MlthMCkm</p>","","","","","","","","",""
"html-keyboard-response","293","307093","0.0-14.0-0.42","5f0d65ef2ad0c60009209f0f","650c16f0f2faf8d7a0d14c09","651c1c7f270f1a2b5ee1f01f","null","null","<p style=""font-size: 60px; font-family: BACS"">LcNUJmZb</p>","","","","","","","","",""
"html-keyboard-response","294","308108","0.0-14.0-0.43","5f0d65ef2ad0c60009209f0f","650c16f0f2faf8d7a0d14c09","651c1c7f270f1a2b5ee1f01f","null","null","<p style=""font-size: 60px; font-family: BACS"">RYtkcRCdc</p>","","","","","","","","",""
"html-keyboard-response","295","309109","0.0-14.0-0.44","5f0d65ef2ad0c60009209f0f","650c16f0f2faf8d7a0d14c09","651c1c7f270f1a2b5ee1f01f","null","null","<p style=""font-size: 60px; font-family: BACS"">YKRkMCkm</p>","","","","","","","","",""
"html-keyboard-response","296","310125","0.0-14.0-0.45","5f0d65ef2ad0c60009209f0f","650c16f0f2faf8d7a0d14c09","651c1c7f270f1a2b5ee1f01f","null","null","<p style=""font-size: 60px; font-family: BACS"">adkrZvkL</p>","","","","","","","","",""
"html-keyboard-response","297","311140","0.0-14.0-0.46","5f0d65ef2ad0c60009209f0f","650c16f0f2faf8d7a0d14c09","651c1c7f270f1a2b5ee1f01f","null","null","<p style=""font-size: 60px; font-family: BACS"">RYtkcDOAK</p>","","","","","","","","",""
"html-keyboard-response","298","312157","0.0-14.0-0.47","5f0d65ef2ad0c60009209f0f","650c16f0f2faf8d7a0d14c09","651c1c7f270f1a2b5ee1f01f","null","null","<p style=""font-size: 60px; font-family: BACS"">lGZvYbN</p>","","","","","","","","",""
"html-keyboard-response","299","313173","0.0-14.0-0.48","5f0d65ef2ad0c60009209f0f","650c16f0f2faf8d7a0d14c09","651c1c7f270f1a2b5ee1f01f","null","null","<p style=""font-size: 60px; font-family: BACS"">DBPhcMAB</p>","","","","","","","","",""
"html-keyboard-response","300","314189","0.0-14.0-0.49","5f0d65ef2ad0c60009209f0f","650c16f0f2faf8d7a0d14c09","651c1c7f270f1a2b5ee1f01f","null","null","<p style=""font-size: 60px; font-family: BACS"">AYkEhRCdc</p>","","","","","","","","",""
"html-keyboard-response","301","315191","0.0-14.0-0.50","5f0d65ef2ad0c60009209f0f","650c16f0f2faf8d7a0d14c09","651c1c7f270f1a2b5ee1f01f","null","null","<p style=""font-size: 60px; font-family: BACS"">RYtkcCdt</p>","","","","","","","","",""
"html-keyboard-response","302","316206","0.0-14.0-0.51","5f0d65ef2ad0c60009209f0f","650c16f0f2faf8d7a0d14c09","651c1c7f270f1a2b5ee1f01f","null","null","<p style=""font-size: 60px; font-family: BACS"">mBbKRCdc</p>","","","","","","","","",""
"html-keyboard-response","303","317207","0.0-14.0-0.52","5f0d65ef2ad0c60009209f0f","650c16f0f2faf8d7a0d14c09","651c1c7f270f1a2b5ee1f01f","null","null","<p style=""font-size: 60px; font-family: BACS"">LcNUJYbN</p>","","","","","","","","",""
"html-keyboard-response","304","318223","0.0-14.0-0.53","5f0d65ef2ad0c60009209f0f","650c16f0f2faf8d7a0d14c09","651c1c7f270f1a2b5ee1f01f","null","null","<p style=""font-size: 60px; font-family: BACS"">kNuaLUOk</p>","","","","","","","","",""
"html-keyboard-response","305","319224","0.0-14.0-0.54","5f0d65ef2ad0c60009209f0f","650c16f0f2faf8d7a0d14c09","651c1c7f270f1a2b5ee1f01f","null","null","<p style=""font-size: 60px; font-family: BACS"">mkmJNZvkL</p>","","","","","","","","",""
"html-keyboard-response","306","320239","0.0-14.0-0.55","5f0d65ef2ad0c60009209f0f","650c16f0f2faf8d7a0d14c09","651c1c7f270f1a2b5ee1f01f","null","null","<p style=""font-size: 60px; font-family: BACS"">mBbKMCkm</p>","","","","","","","","",""
"html-keyboard-response","307","321240","0.0-14.0-0.56","5f0d65ef2ad0c60009209f0f","650c16f0f2faf8d7a0d14c09","651c1c7f270f1a2b5ee1f01f","null","null","<p style=""font-size: 60px; font-family: BACS"">mkmJNmvG</p>","","","","","","","","",""
"html-keyboard-response","308","322256","0.0-14.0-0.57","5f0d65ef2ad0c60009209f0f","650c16f0f2faf8d7a0d14c09","651c1c7f270f1a2b5ee1f01f","null","null","<p style=""font-size: 60px; font-family: BACS"">YKRkRCdc</p>","","","","","","","","",""
"html-keyboard-response","309","323258","0.0-14.0-0.58","5f0d65ef2ad0c60009209f0f","650c16f0f2faf8d7a0d14c09","651c1c7f270f1a2b5ee1f01f","null","null","<p style=""font-size: 60px; font-family: BACS"">ckdAmMCkm</p>","","","","","","","","",""
"html-keyboard-response","310","324270","0.0-14.0-0.59","5f0d65ef2ad0c60009209f0f","650c16f0f2faf8d7a0d14c09","651c1c7f270f1a2b5ee1f01f","null","null","<p style=""font-size: 60px; font-family: BACS"">GLYrAYbN</p>","","","","","","","","",""
"html-keyboard-response","311","325271","0.0-14.0-0.60","5f0d65ef2ad0c60009209f0f","650c16f0f2faf8d7a0d14c09","651c1c7f270f1a2b5ee1f01f","null","null","<p style=""font-size: 60px; font-family: BACS"">kNuamvG</p>","","","","","","","","",""
"html-keyboard-response","312","326286","0.0-14.0-0.61","5f0d65ef2ad0c60009209f0f","650c16f0f2faf8d7a0d14c09","651c1c7f270f1a2b5ee1f01f","null","null","<p style=""font-size: 60px; font-family: BACS"">GLYrAmZb</p>","","","","","","","","",""
"html-keyboard-response","313","327287","0.0-14.0-0.62","5f0d65ef2ad0c60009209f0f","650c16f0f2faf8d7a0d14c09","651c1c7f270f1a2b5ee1f01f","null","null","<p style=""font-size: 60px; font-family: BACS"">kLvdNLUOk</p>","","","","","","","","",""
"html-keyboard-response","314","328289","0.0-14.0-0.63","5f0d65ef2ad0c60009209f0f","650c16f0f2faf8d7a0d14c09","651c1c7f270f1a2b5ee1f01f","null","null","<p style=""font-size: 60px; font-family: BACS"">mkmJNYbN</p>","","","","","","","","",""
"html-keyboard-response","315","329303","0.0-14.0-0.64","5f0d65ef2ad0c60009209f0f","650c16f0f2faf8d7a0d14c09","651c1c7f270f1a2b5ee1f01f","null","null","<p style=""font-size: 60px; font-family: BACS"">OYuvbmZb</p>","","","","","","","","",""
"html-keyboard-response","316","330305","0.0-14.0-0.65","5f0d65ef2ad0c60009209f0f","650c16f0f2faf8d7a0d14c09","651c1c7f270f1a2b5ee1f01f","null","null","<p style=""font-size: 60px; font-family: BACS"">rbYbuZvkL</p>","","","","","","","","",""
"html-keyboard-response","317","331319","0.0-14.0-0.66","5f0d65ef2ad0c60009209f0f","650c16f0f2faf8d7a0d14c09","651c1c7f270f1a2b5ee1f01f","null","null","<p style=""font-size: 60px; font-family: BACS"">GLYrAmvG</p>","","","","","","","","",""
"html-keyboard-response","318","332336","0.0-14.0-0.67","5f0d65ef2ad0c60009209f0f","650c16f0f2faf8d7a0d14c09","651c1c7f270f1a2b5ee1f01f","null","null","<p style=""font-size: 60px; font-family: BACS"">kLvdNZvkL</p>","","","","","","","","",""
"html-keyboard-response","319","333338","0.0-14.0-0.68","5f0d65ef2ad0c60009209f0f","650c16f0f2faf8d7a0d14c09","651c1c7f270f1a2b5ee1f01f","null","null","<p style=""font-size: 60px; font-family: BACS"">DBPhcMCkm</p>","","","","","","","","",""
"html-keyboard-response","320","334352","0.0-14.0-0.69","5f0d65ef2ad0c60009209f0f","650c16f0f2faf8d7a0d14c09","651c1c7f270f1a2b5ee1f01f","null","null","<p style=""font-size: 60px; font-family: BACS"">ckdAmDOAK</p>","","","","","","","","",""
"html-keyboard-response","321","335354","0.0-14.0-0.70","5f0d65ef2ad0c60009209f0f","650c16f0f2faf8d7a0d14c09","651c1c7f270f1a2b5ee1f01f","null","null","<p style=""font-size: 60px; font-family: BACS"">RYtkcMCkm</p>","","","","","","","","",""
"html-keyboard-response","322","336368","0.0-14.0-0.71","5f0d65ef2ad0c60009209f0f","650c16f0f2faf8d7a0d14c09","651c1c7f270f1a2b5ee1f01f","null","null","<p style=""font-size: 60px; font-family: BACS"">OYuvbYbN</p>","","","","","","","","",""
"html-keyboard-response","323","337369","0.0-14.0-0.72","5f0d65ef2ad0c60009209f0f","650c16f0f2faf8d7a0d14c09","651c1c7f270f1a2b5ee1f01f","null","null","<p style=""font-size: 60px; font-family: BACS"">MlthMAB</p>","","","","","","","","",""
"html-keyboard-response","324","338384","0.0-14.0-0.73","5f0d65ef2ad0c60009209f0f","650c16f0f2faf8d7a0d14c09","651c1c7f270f1a2b5ee1f01f","null","null","<p style=""font-size: 60px; font-family: BACS"">RtRhRCdc</p>","","","","","","","","",""
"html-keyboard-response","325","339385","0.0-14.0-0.74","5f0d65ef2ad0c60009209f0f","650c16f0f2faf8d7a0d14c09","651c1c7f270f1a2b5ee1f01f","null","null","<p style=""font-size: 60px; font-family: BACS"">AYkEhMAB</p>","","","","","","","","",""
"html-keyboard-response","326","340387","0.0-14.0-0.75","5f0d65ef2ad0c60009209f0f","650c16f0f2faf8d7a0d14c09","651c1c7f270f1a2b5ee1f01f","null","null","<p style=""font-size: 60px; font-family: BACS"">vAarmZb</p>","","","","","","","","",""
"html-keyboard-response","327","341402","0.0-14.0-0.76","5f0d65ef2ad0c60009209f0f","650c16f0f2faf8d7a0d14c09","651c1c7f270f1a2b5ee1f01f","null","null","<p style=""font-size: 60px; font-family: BACS"">mBbKMAB</p>","","","","","","","","",""
"html-keyboard-response","328","342403","0.0-14.0-0.77","5f0d65ef2ad0c60009209f0f","650c16f0f2faf8d7a0d14c09","651c1c7f270f1a2b5ee1f01f","null","null","<p style=""font-size: 60px; font-family: BACS"">kLvdNmvG</p>","","","","","","","","",""
"html-keyboard-response","329","343417","0.0-14.0-0.78","5f0d65ef2ad0c60009209f0f","650c16f0f2faf8d7a0d14c09","651c1c7f270f1a2b5ee1f01f","null","null","<p style=""font-size: 60px; font-family: BACS"">DBPhcCdt</p>","","","","","","","","",""
"html-keyboard-response","330","344417","0.0-14.0-0.79","5f0d65ef2ad0c60009209f0f","650c16f0f2faf8d7a0d14c09","651c1c7f270f1a2b5ee1f01f","null","null","<p style=""font-size: 60px; font-family: BACS"">OYuvbZvkL</p>","","","","","","","","",""
"html-keyboard-response","331","346806","0.0-15.0","5f0d65ef2ad0c60009209f0f","650c16f0f2faf8d7a0d14c09","651c1c7f270f1a2b5ee1f01f","2388"," ","<p>Great, you've seen the fourth block of words. You may now take a short break.</p>
      <p>Press the spacebar when you're ready to continue.</p>","","","","","","","","",""
"html-keyboard-response","332","347817","0.0-16.0-0.0","5f0d65ef2ad0c60009209f0f","650c16f0f2faf8d7a0d14c09","651c1c7f270f1a2b5ee1f01f","null","null","<p style=""font-size: 60px; font-family: BACS"">DBPhcMAB</p>","","","","","","","","",""
"html-keyboard-response","333","348832","0.0-16.0-0.1","5f0d65ef2ad0c60009209f0f","650c16f0f2faf8d7a0d14c09","651c1c7f270f1a2b5ee1f01f","null","null","<p style=""font-size: 60px; font-family: BACS"">DBPhcMAB</p>","","","","","","","","",""
"html-keyboard-response","334","349834","0.0-16.0-0.2","5f0d65ef2ad0c60009209f0f","650c16f0f2faf8d7a0d14c09","651c1c7f270f1a2b5ee1f01f","null","null","<p style=""font-size: 60px; font-family: BACS"">DBPhcMAB</p>","","","","","","","","",""
"html-keyboard-response","335","350849","0.0-16.0-0.3","5f0d65ef2ad0c60009209f0f","650c16f0f2faf8d7a0d14c09","651c1c7f270f1a2b5ee1f01f","null","null","<p style=""font-size: 60px; font-family: BACS"">DBPhcMAB</p>","","","","","","","","",""
"html-keyboard-response","336","351865","0.0-16.0-0.4","5f0d65ef2ad0c60009209f0f","650c16f0f2faf8d7a0d14c09","651c1c7f270f1a2b5ee1f01f","null","null","<p style=""font-size: 60px; font-family: BACS"">DBPhcMAB</p>","","","","","","","","",""
"html-keyboard-response","337","352866","0.0-16.0-0.5","5f0d65ef2ad0c60009209f0f","650c16f0f2faf8d7a0d14c09","651c1c7f270f1a2b5ee1f01f","null","null","<p style=""font-size: 60px; font-family: BACS"">DBPhcMAB</p>","","","","","","","","",""
"html-keyboard-response","338","353881","0.0-16.0-0.6","5f0d65ef2ad0c60009209f0f","650c16f0f2faf8d7a0d14c09","651c1c7f270f1a2b5ee1f01f","null","null","<p style=""font-size: 60px; font-family: BACS"">DBPhcMAB</p>","","","","","","","","",""
"html-keyboard-response","339","354883","0.0-16.0-0.7","5f0d65ef2ad0c60009209f0f","650c16f0f2faf8d7a0d14c09","651c1c7f270f1a2b5ee1f01f","null","null","<p style=""font-size: 60px; font-family: BACS"">DBPhcMAB</p>","","","","","","","","",""
"html-keyboard-response","340","355897","0.0-16.0-0.8","5f0d65ef2ad0c60009209f0f","650c16f0f2faf8d7a0d14c09","651c1c7f270f1a2b5ee1f01f","null","null","<p style=""font-size: 60px; font-family: BACS"">DBPhcMAB</p>","","","","","","","","",""
"html-keyboard-response","341","356899","0.0-16.0-0.9","5f0d65ef2ad0c60009209f0f","650c16f0f2faf8d7a0d14c09","651c1c7f270f1a2b5ee1f01f","null","null","<p style=""font-size: 60px; font-family: BACS"">DBPhcMAB</p>","","","","","","","","",""
"html-keyboard-response","342","357915","0.0-16.0-0.10","5f0d65ef2ad0c60009209f0f","650c16f0f2faf8d7a0d14c09","651c1c7f270f1a2b5ee1f01f","null","null","<p style=""font-size: 60px; font-family: BACS"">DBPhcMAB</p>","","","","","","","","",""
"html-keyboard-response","343","358917","0.0-16.0-0.11","5f0d65ef2ad0c60009209f0f","650c16f0f2faf8d7a0d14c09","651c1c7f270f1a2b5ee1f01f","null","null","<p style=""font-size: 60px; font-family: BACS"">DBPhcMAB</p>","","","","","","","","",""
"html-keyboard-response","344","359930","0.0-16.0-0.12","5f0d65ef2ad0c60009209f0f","650c16f0f2faf8d7a0d14c09","651c1c7f270f1a2b5ee1f01f","null","null","<p style=""font-size: 60px; font-family: BACS"">DBPhcMAB</p>","","","","","","","","",""
"html-keyboard-response","345","360932","0.0-16.0-0.13","5f0d65ef2ad0c60009209f0f","650c16f0f2faf8d7a0d14c09","651c1c7f270f1a2b5ee1f01f","null","null","<p style=""font-size: 60px; font-family: BACS"">DBPhcMAB</p>","","","","","","","","",""
"html-keyboard-response","346","361947","0.0-16.0-0.14","5f0d65ef2ad0c60009209f0f","650c16f0f2faf8d7a0d14c09","651c1c7f270f1a2b5ee1f01f","null","null","<p style=""font-size: 60px; font-family: BACS"">DBPhcMAB</p>","","","","","","","","",""
"html-keyboard-response","347","362949","0.0-16.0-0.15","5f0d65ef2ad0c60009209f0f","650c16f0f2faf8d7a0d14c09","651c1c7f270f1a2b5ee1f01f","null","null","<p style=""font-size: 60px; font-family: BACS"">DBPhcMAB</p>","","","","","","","","",""
"html-keyboard-response","348","363963","0.0-16.0-0.16","5f0d65ef2ad0c60009209f0f","650c16f0f2faf8d7a0d14c09","651c1c7f270f1a2b5ee1f01f","null","null","<p style=""font-size: 60px; font-family: BACS"">DBPhcMAB</p>","","","","","","","","",""
"html-keyboard-response","349","364980","0.0-16.0-0.17","5f0d65ef2ad0c60009209f0f","650c16f0f2faf8d7a0d14c09","651c1c7f270f1a2b5ee1f01f","null","null","<p style=""font-size: 60px; font-family: BACS"">DBPhcMAB</p>","","","","","","","","",""
"html-keyboard-response","350","365995","0.0-16.0-0.18","5f0d65ef2ad0c60009209f0f","650c16f0f2faf8d7a0d14c09","651c1c7f270f1a2b5ee1f01f","null","null","<p style=""font-size: 60px; font-family: BACS"">DBPhcMAB</p>","","","","","","","","",""
"html-keyboard-response","351","366996","0.0-16.0-0.19","5f0d65ef2ad0c60009209f0f","650c16f0f2faf8d7a0d14c09","651c1c7f270f1a2b5ee1f01f","null","null","<p style=""font-size: 60px; font-family: BACS"">DBPhcMAB</p>","","","","","","","","",""
"html-keyboard-response","352","368012","0.0-16.0-0.20","5f0d65ef2ad0c60009209f0f","650c16f0f2faf8d7a0d14c09","651c1c7f270f1a2b5ee1f01f","null","null","<p style=""font-size: 60px; font-family: BACS"">DBPhcMAB</p>","","","","","","","","",""
"html-keyboard-response","353","369028","0.0-16.0-0.21","5f0d65ef2ad0c60009209f0f","650c16f0f2faf8d7a0d14c09","651c1c7f270f1a2b5ee1f01f","null","null","<p style=""font-size: 60px; font-family: BACS"">DBPhcMAB</p>","","","","","","","","",""
"html-keyboard-response","354","370045","0.0-16.0-0.22","5f0d65ef2ad0c60009209f0f","650c16f0f2faf8d7a0d14c09","651c1c7f270f1a2b5ee1f01f","null","null","<p style=""font-size: 60px; font-family: BACS"">DBPhcMAB</p>","","","","","","","","",""
"html-keyboard-response","355","371046","0.0-16.0-0.23","5f0d65ef2ad0c60009209f0f","650c16f0f2faf8d7a0d14c09","651c1c7f270f1a2b5ee1f01f","null","null","<p style=""font-size: 60px; font-family: BACS"">DBPhcMAB</p>","","","","","","","","",""
"html-keyboard-response","356","372061","0.0-16.0-0.24","5f0d65ef2ad0c60009209f0f","650c16f0f2faf8d7a0d14c09","651c1c7f270f1a2b5ee1f01f","null","null","<p style=""font-size: 60px; font-family: BACS"">DBPhcMAB</p>","","","","","","","","",""
"html-keyboard-response","357","373077","0.0-16.0-0.25","5f0d65ef2ad0c60009209f0f","650c16f0f2faf8d7a0d14c09","651c1c7f270f1a2b5ee1f01f","null","null","<p style=""font-size: 60px; font-family: BACS"">DBPhcMAB</p>","","","","","","","","",""
"html-keyboard-response","358","374080","0.0-16.0-0.26","5f0d65ef2ad0c60009209f0f","650c16f0f2faf8d7a0d14c09","651c1c7f270f1a2b5ee1f01f","null","null","<p style=""font-size: 60px; font-family: BACS"">DBPhcMAB</p>","","","","","","","","",""
"html-keyboard-response","359","375095","0.0-16.0-0.27","5f0d65ef2ad0c60009209f0f","650c16f0f2faf8d7a0d14c09","651c1c7f270f1a2b5ee1f01f","null","null","<p style=""font-size: 60px; font-family: BACS"">DBPhcMAB</p>","","","","","","","","",""
"html-keyboard-response","360","376095","0.0-16.0-0.28","5f0d65ef2ad0c60009209f0f","650c16f0f2faf8d7a0d14c09","651c1c7f270f1a2b5ee1f01f","null","null","<p style=""font-size: 60px; font-family: BACS"">DBPhcMAB</p>","","","","","","","","",""
"html-keyboard-response","361","377110","0.0-16.0-0.29","5f0d65ef2ad0c60009209f0f","650c16f0f2faf8d7a0d14c09","651c1c7f270f1a2b5ee1f01f","null","null","<p style=""font-size: 60px; font-family: BACS"">DBPhcMAB</p>","","","","","","","","",""
"html-keyboard-response","362","378111","0.0-16.0-0.30","5f0d65ef2ad0c60009209f0f","650c16f0f2faf8d7a0d14c09","651c1c7f270f1a2b5ee1f01f","null","null","<p style=""font-size: 60px; font-family: BACS"">DBPhcMAB</p>","","","","","","","","",""
"html-keyboard-response","363","379127","0.0-16.0-0.31","5f0d65ef2ad0c60009209f0f","650c16f0f2faf8d7a0d14c09","651c1c7f270f1a2b5ee1f01f","null","null","<p style=""font-size: 60px; font-family: BACS"">DBPhcMAB</p>","","","","","","","","",""
"html-keyboard-response","364","380142","0.0-16.0-0.32","5f0d65ef2ad0c60009209f0f","650c16f0f2faf8d7a0d14c09","651c1c7f270f1a2b5ee1f01f","null","null","<p style=""font-size: 60px; font-family: BACS"">DBPhcMAB</p>","","","","","","","","",""
"html-keyboard-response","365","381143","0.0-16.0-0.33","5f0d65ef2ad0c60009209f0f","650c16f0f2faf8d7a0d14c09","651c1c7f270f1a2b5ee1f01f","null","null","<p style=""font-size: 60px; font-family: BACS"">DBPhcMAB</p>","","","","","","","","",""
"html-keyboard-response","366","382159","0.0-16.0-0.34","5f0d65ef2ad0c60009209f0f","650c16f0f2faf8d7a0d14c09","651c1c7f270f1a2b5ee1f01f","null","null","<p style=""font-size: 60px; font-family: BACS"">DBPhcMAB</p>","","","","","","","","",""
"html-keyboard-response","367","383175","0.0-16.0-0.35","5f0d65ef2ad0c60009209f0f","650c16f0f2faf8d7a0d14c09","651c1c7f270f1a2b5ee1f01f","null","null","<p style=""font-size: 60px; font-family: BACS"">DBPhcMAB</p>","","","","","","","","",""
"html-keyboard-response","368","384176","0.0-16.0-0.36","5f0d65ef2ad0c60009209f0f","650c16f0f2faf8d7a0d14c09","651c1c7f270f1a2b5ee1f01f","null","null","<p style=""font-size: 60px; font-family: BACS"">DBPhcMAB</p>","","","","","","","","",""
"html-keyboard-response","369","385193","0.0-16.0-0.37","5f0d65ef2ad0c60009209f0f","650c16f0f2faf8d7a0d14c09","651c1c7f270f1a2b5ee1f01f","null","null","<p style=""font-size: 60px; font-family: BACS"">DBPhcMAB</p>","","","","","","","","",""
"html-keyboard-response","370","386194","0.0-16.0-0.38","5f0d65ef2ad0c60009209f0f","650c16f0f2faf8d7a0d14c09","651c1c7f270f1a2b5ee1f01f","null","null","<p style=""font-size: 60px; font-family: BACS"">DBPhcMAB</p>","","","","","","","","",""
"html-keyboard-response","371","387208","0.0-16.0-0.39","5f0d65ef2ad0c60009209f0f","650c16f0f2faf8d7a0d14c09","651c1c7f270f1a2b5ee1f01f","null","null","<p style=""font-size: 60px; font-family: BACS"">DBPhcMAB</p>","","","","","","","","",""
"html-keyboard-response","372","388224","0.0-16.0-0.40","5f0d65ef2ad0c60009209f0f","650c16f0f2faf8d7a0d14c09","651c1c7f270f1a2b5ee1f01f","null","null","<p style=""font-size: 60px; font-family: BACS"">DBPhcMAB</p>","","","","","","","","",""
"html-keyboard-response","373","389241","0.0-16.0-0.41","5f0d65ef2ad0c60009209f0f","650c16f0f2faf8d7a0d14c09","651c1c7f270f1a2b5ee1f01f","null","null","<p style=""font-size: 60px; font-family: BACS"">DBPhcMAB</p>","","","","","","","","",""
"html-keyboard-response","374","390257","0.0-16.0-0.42","5f0d65ef2ad0c60009209f0f","650c16f0f2faf8d7a0d14c09","651c1c7f270f1a2b5ee1f01f","null","null","<p style=""font-size: 60px; font-family: BACS"">DBPhcMAB</p>","","","","","","","","",""
"html-keyboard-response","375","391259","0.0-16.0-0.43","5f0d65ef2ad0c60009209f0f","650c16f0f2faf8d7a0d14c09","651c1c7f270f1a2b5ee1f01f","null","null","<p style=""font-size: 60px; font-family: BACS"">DBPhcMAB</p>","","","","","","","","",""
"html-keyboard-response","376","392275","0.0-16.0-0.44","5f0d65ef2ad0c60009209f0f","650c16f0f2faf8d7a0d14c09","651c1c7f270f1a2b5ee1f01f","null","null","<p style=""font-size: 60px; font-family: BACS"">DBPhcMAB</p>","","","","","","","","",""
"html-keyboard-response","377","393290","0.0-16.0-0.45","5f0d65ef2ad0c60009209f0f","650c16f0f2faf8d7a0d14c09","651c1c7f270f1a2b5ee1f01f","null","null","<p style=""font-size: 60px; font-family: BACS"">DBPhcMAB</p>","","","","","","","","",""
"html-keyboard-response","378","394290","0.0-16.0-0.46","5f0d65ef2ad0c60009209f0f","650c16f0f2faf8d7a0d14c09","651c1c7f270f1a2b5ee1f01f","null","null","<p style=""font-size: 60px; font-family: BACS"">DBPhcMAB</p>","","","","","","","","",""
"html-keyboard-response","379","395291","0.0-16.0-0.47","5f0d65ef2ad0c60009209f0f","650c16f0f2faf8d7a0d14c09","651c1c7f270f1a2b5ee1f01f","null","null","<p style=""font-size: 60px; font-family: BACS"">DBPhcMAB</p>","","","","","","","","",""
"html-keyboard-response","380","396307","0.0-16.0-0.48","5f0d65ef2ad0c60009209f0f","650c16f0f2faf8d7a0d14c09","651c1c7f270f1a2b5ee1f01f","null","null","<p style=""font-size: 60px; font-family: BACS"">DBPhcMAB</p>","","","","","","","","",""
"html-keyboard-response","381","397323","0.0-16.0-0.49","5f0d65ef2ad0c60009209f0f","650c16f0f2faf8d7a0d14c09","651c1c7f270f1a2b5ee1f01f","null","null","<p style=""font-size: 60px; font-family: BACS"">DBPhcMAB</p>","","","","","","","","",""
"html-keyboard-response","382","398324","0.0-16.0-0.50","5f0d65ef2ad0c60009209f0f","650c16f0f2faf8d7a0d14c09","651c1c7f270f1a2b5ee1f01f","null","null","<p style=""font-size: 60px; font-family: BACS"">DBPhcMAB</p>","","","","","","","","",""
"html-keyboard-response","383","399339","0.0-16.0-0.51","5f0d65ef2ad0c60009209f0f","650c16f0f2faf8d7a0d14c09","651c1c7f270f1a2b5ee1f01f","null","null","<p style=""font-size: 60px; font-family: BACS"">DBPhcMAB</p>","","","","","","","","",""
"html-keyboard-response","384","400356","0.0-16.0-0.52","5f0d65ef2ad0c60009209f0f","650c16f0f2faf8d7a0d14c09","651c1c7f270f1a2b5ee1f01f","null","null","<p style=""font-size: 60px; font-family: BACS"">DBPhcMAB</p>","","","","","","","","",""
"html-keyboard-response","385","401371","0.0-16.0-0.53","5f0d65ef2ad0c60009209f0f","650c16f0f2faf8d7a0d14c09","651c1c7f270f1a2b5ee1f01f","null","null","<p style=""font-size: 60px; font-family: BACS"">DBPhcMAB</p>","","","","","","","","",""
"html-keyboard-response","386","402374","0.0-16.0-0.54","5f0d65ef2ad0c60009209f0f","650c16f0f2faf8d7a0d14c09","651c1c7f270f1a2b5ee1f01f","null","null","<p style=""font-size: 60px; font-family: BACS"">DBPhcMAB</p>","","","","","","","","",""
"html-keyboard-response","387","403389","0.0-16.0-0.55","5f0d65ef2ad0c60009209f0f","650c16f0f2faf8d7a0d14c09","651c1c7f270f1a2b5ee1f01f","null","null","<p style=""font-size: 60px; font-family: BACS"">DBPhcMAB</p>","","","","","","","","",""
"html-keyboard-response","388","404391","0.0-16.0-0.56","5f0d65ef2ad0c60009209f0f","650c16f0f2faf8d7a0d14c09","651c1c7f270f1a2b5ee1f01f","null","null","<p style=""font-size: 60px; font-family: BACS"">DBPhcMAB</p>","","","","","","","","",""
"html-keyboard-response","389","405404","0.0-16.0-0.57","5f0d65ef2ad0c60009209f0f","650c16f0f2faf8d7a0d14c09","651c1c7f270f1a2b5ee1f01f","null","null","<p style=""font-size: 60px; font-family: BACS"">DBPhcMAB</p>","","","","","","","","",""
"html-keyboard-response","390","406420","0.0-16.0-0.58","5f0d65ef2ad0c60009209f0f","650c16f0f2faf8d7a0d14c09","651c1c7f270f1a2b5ee1f01f","null","null","<p style=""font-size: 60px; font-family: BACS"">DBPhcMAB</p>","","","","","","","","",""
"html-keyboard-response","391","407423","0.0-16.0-0.59","5f0d65ef2ad0c60009209f0f","650c16f0f2faf8d7a0d14c09","651c1c7f270f1a2b5ee1f01f","null","null","<p style=""font-size: 60px; font-family: BACS"">DBPhcMAB</p>","","","","","","","","",""
"html-keyboard-response","392","408438","0.0-16.0-0.60","5f0d65ef2ad0c60009209f0f","650c16f0f2faf8d7a0d14c09","651c1c7f270f1a2b5ee1f01f","null","null","<p style=""font-size: 60px; font-family: BACS"">DBPhcMAB</p>","","","","","","","","",""
"html-keyboard-response","393","409453","0.0-16.0-0.61","5f0d65ef2ad0c60009209f0f","650c16f0f2faf8d7a0d14c09","651c1c7f270f1a2b5ee1f01f","null","null","<p style=""font-size: 60px; font-family: BACS"">DBPhcMAB</p>","","","","","","","","",""
"html-keyboard-response","394","410454","0.0-16.0-0.62","5f0d65ef2ad0c60009209f0f","650c16f0f2faf8d7a0d14c09","651c1c7f270f1a2b5ee1f01f","null","null","<p style=""font-size: 60px; font-family: BACS"">DBPhcMAB</p>","","","","","","","","",""
"html-keyboard-response","395","411455","0.0-16.0-0.63","5f0d65ef2ad0c60009209f0f","650c16f0f2faf8d7a0d14c09","651c1c7f270f1a2b5ee1f01f","null","null","<p style=""font-size: 60px; font-family: BACS"">DBPhcMAB</p>","","","","","","","","",""
"html-keyboard-response","396","412470","0.0-16.0-0.64","5f0d65ef2ad0c60009209f0f","650c16f0f2faf8d7a0d14c09","651c1c7f270f1a2b5ee1f01f","null","null","<p style=""font-size: 60px; font-family: BACS"">DBPhcMAB</p>","","","","","","","","",""
"html-keyboard-response","397","413485","0.0-16.0-0.65","5f0d65ef2ad0c60009209f0f","650c16f0f2faf8d7a0d14c09","651c1c7f270f1a2b5ee1f01f","null","null","<p style=""font-size: 60px; font-family: BACS"">DBPhcMAB</p>","","","","","","","","",""
"html-keyboard-response","398","414486","0.0-16.0-0.66","5f0d65ef2ad0c60009209f0f","650c16f0f2faf8d7a0d14c09","651c1c7f270f1a2b5ee1f01f","null","null","<p style=""font-size: 60px; font-family: BACS"">DBPhcMAB</p>","","","","","","","","",""
