"trial_type","trial_index","time_elapsed","internal_node_id","subject_id","study_id","session_id","rt","response","stimulus","success","item","task","correct_response","testing_condition","correct","target","confound","name","view_history"
"pavlovia","0","2614","0.0-0.0","60fd913b3fd4aeea9829cff3","64e77d7b61f440b60e28659d","64eca321a2ce9e665856b43c","","","","","","","","","","","","",""
"survey-html-form","1","10745","0.0-1.0","60fd913b3fd4aeea9829cff3","64e77d7b61f440b60e28659d","64eca321a2ce9e665856b43c","8129","{""ID"":""60fd913b3fd4aeea9829cff3""}","","","","","","","","","","",""
"html-keyboard-response","2","28612","0.0-2.0","60fd913b3fd4aeea9829cff3","64e77d7b61f440b60e28659d","64eca321a2ce9e665856b43c","17864"," ","<p style=""font-size: 15px;"">Before beginning, we ask that you read the consent information and confirm your agreement to participate in the experiment.</p>
      <p style=""font-size: 15px;""> We ask that you remember that this is a research project and that your participation is entirely voluntary. You can stop your participation at any time, without needing to provide any explanation. The study we're asking you to participate in aims at examining how readers process written words. You will be engaged in a session of apprximately 20 minutes, followed by a brief questionnaire. You will have the opportunity to take a few breaks during the experiment. You will be paid £4 for your participation, corresponding to a rate of £8/hour. While this experiment looks at cognitive faculties, this experiment doesn't constitute clinical proof of eventual pathologies.</p>
      <p style=""font-size: 15px;"">All of the information collected thanks to yours and others' participation will be held in a secure password-protected server, and will not be shared with anyone not authorised to view it. Your personal information will be kept with an arbitrary participant ID. Thanks to this data anonymity process, any researcher analysing the data won't be able to track the information back to a specific participant. Therefore, this process will make identifying you impossibile, even when results from the study will be published in scientific reviews, presented at congresses, or at any other public forum. More generally, the collected data will be treated in accordance with the laws on privacy and conformity to the Legislative Degree n. 196 ""Code regarding the protection of personal data"" of the 30th of June 2003 and to the European Regulation 2016/670 (General Data Protection Regulation - GDPR). The Data Protection Officer is Avv. Valentina Carollo, who can be contacted at the following email addresses: <a href=""mailto:dpo@sissa.it"">dpo@sissa.it</a> or <a href=""mailto:rpd@sissa.it"">rpd@sissa.it</a> - PEC: <a href=""mailto:protocollo@pec.sissa.it"">protocollo@pec.sissa.it</a>.</p>
      <p style=""font-size: 15px;""> Before expressing your consent to participate, we would like to remind you again that in case you need explanations on any aspect of the experimental procedure, the researcher is at your disposition (<a href=""mailto:aliebelt@sissa.it"">aliebelt@sissa.it</a>, <a href=""mailto:davide.crepaldi@sissa.it"">davide.crepaldi@sissa.it</a>).</p>
      <p style=""font-size: 15px;"">If you would like to download the informed consent form, you can do so here: <a href=""BASL-Informed_Consent.pdf"" download>informed consent form</a>.</p>
      <p style=""font-size: 15px;"">We ask that you press the spacebar to proceed to the consent section.</p>","","","","","","","","","",""
"survey-html-form","3","78693","0.0-3.0","60fd913b3fd4aeea9829cff3","64e77d7b61f440b60e28659d","64eca321a2ce9e665856b43c","50076","{""consent1"":""YES"",""consent2"":""YES"",""consent3"":""YES"",""consent4"":""YES"",""consent5"":""YES"",""consent6"":""YES""}","","","","","","","","","","",""
"fullscreen","4","86946","0.0-4.0","60fd913b3fd4aeea9829cff3","64e77d7b61f440b60e28659d","64eca321a2ce9e665856b43c","","","","true","","","","","","","","",""
"html-keyboard-response","5","94868","0.0-5.0","60fd913b3fd4aeea9829cff3","64e77d7b61f440b60e28659d","64eca321a2ce9e665856b43c","7920"," ","<p>Welcome, and thank you very much for your time!</p>
      <p>In this experiment, you'll be a language expert who's been asked to take a look at words that Earth has received in its first communication with aliens. Your task, in this first part of the experiment, is to pay close attention to the words you'll be shown; later, world leaders will ask you questions on what you saw. The words will be shown to you quite quickly; it seems that the aliens were in a hurry :-)</p>
      <p>Press the spacebar to continue.<p>","","","","","","","","","",""
"html-keyboard-response","6","98856","0.0-6.0","60fd913b3fd4aeea9829cff3","64e77d7b61f440b60e28659d","64eca321a2ce9e665856b43c","3987"," ","<p>Here is an example of the words you'll see:</p>
      <img src='esempio.png' height='400px'>
      <p>When you're ready to begin, press the spacebar.</p></div>","","","","","","","","","",""
"html-keyboard-response","7","99868","0.0-7.0-0.0","60fd913b3fd4aeea9829cff3","64e77d7b61f440b60e28659d","64eca321a2ce9e665856b43c","null","null","<p style=""font-size: 60px; font-family: BACS"">PCPDhOBT</p>","","","","","","","","","",""
"html-keyboard-response","8","100878","0.0-7.0-0.1","60fd913b3fd4aeea9829cff3","64e77d7b61f440b60e28659d","64eca321a2ce9e665856b43c","null","null","<p style=""font-size: 60px; font-family: BACS"">uAkrJUNa</p>","","","","","","","","","",""
"html-keyboard-response","9","101885","0.0-7.0-0.2","60fd913b3fd4aeea9829cff3","64e77d7b61f440b60e28659d","64eca321a2ce9e665856b43c","null","null","<p style=""font-size: 60px; font-family: BACS"">rLaZvJQ</p>","","","","","","","","","",""
"html-keyboard-response","10","102899","0.0-7.0-0.3","60fd913b3fd4aeea9829cff3","64e77d7b61f440b60e28659d","64eca321a2ce9e665856b43c","null","null","<p style=""font-size: 60px; font-family: BACS"">PCPDhAPEM</p>","","","","","","","","","",""
"html-keyboard-response","11","103902","0.0-7.0-0.4","60fd913b3fd4aeea9829cff3","64e77d7b61f440b60e28659d","64eca321a2ce9e665856b43c","null","null","<p style=""font-size: 60px; font-family: BACS"">dkLlJUNa</p>","","","","","","","","","",""
"html-keyboard-response","12","104906","0.0-7.0-0.5","60fd913b3fd4aeea9829cff3","64e77d7b61f440b60e28659d","64eca321a2ce9e665856b43c","null","null","<p style=""font-size: 60px; font-family: BACS"">auYAkvJQ</p>","","","","","","","","","",""
"html-keyboard-response","13","105908","0.0-7.0-0.6","60fd913b3fd4aeea9829cff3","64e77d7b61f440b60e28659d","64eca321a2ce9e665856b43c","null","null","<p style=""font-size: 60px; font-family: BACS"">DdckAPEM</p>","","","","","","","","","",""
"html-keyboard-response","14","106923","0.0-7.0-0.7","60fd913b3fd4aeea9829cff3","64e77d7b61f440b60e28659d","64eca321a2ce9e665856b43c","null","null","<p style=""font-size: 60px; font-family: BACS"">krGuYaum</p>","","","","","","","","","",""
"html-keyboard-response","15","107930","0.0-7.0-0.8","60fd913b3fd4aeea9829cff3","64e77d7b61f440b60e28659d","64eca321a2ce9e665856b43c","null","null","<p style=""font-size: 60px; font-family: BACS"">DlDdAdYl</p>","","","","","","","","","",""
"html-keyboard-response","16","108940","0.0-7.0-0.9","60fd913b3fd4aeea9829cff3","64e77d7b61f440b60e28659d","64eca321a2ce9e665856b43c","null","null","<p style=""font-size: 60px; font-family: BACS"">kDRKcMCkm</p>","","","","","","","","","",""
"html-keyboard-response","17","109943","0.0-7.0-0.10","60fd913b3fd4aeea9829cff3","64e77d7b61f440b60e28659d","64eca321a2ce9e665856b43c","null","null","<p style=""font-size: 60px; font-family: BACS"">chAhAdYl</p>","","","","","","","","","",""
"html-keyboard-response","18","110947","0.0-7.0-0.11","60fd913b3fd4aeea9829cff3","64e77d7b61f440b60e28659d","64eca321a2ce9e665856b43c","null","null","<p style=""font-size: 60px; font-family: BACS"">PCPDhEcR</p>","","","","","","","","","",""
"html-keyboard-response","19","111964","0.0-7.0-0.12","60fd913b3fd4aeea9829cff3","64e77d7b61f440b60e28659d","64eca321a2ce9e665856b43c","null","null","<p style=""font-size: 60px; font-family: BACS"">CkBOPMCkm</p>","","","","","","","","","",""
"html-keyboard-response","20","112966","0.0-7.0-0.13","60fd913b3fd4aeea9829cff3","64e77d7b61f440b60e28659d","64eca321a2ce9e665856b43c","null","null","<p style=""font-size: 60px; font-family: BACS"">kKRCEcR</p>","","","","","","","","","",""
"html-keyboard-response","21","113975","0.0-7.0-0.14","60fd913b3fd4aeea9829cff3","64e77d7b61f440b60e28659d","64eca321a2ce9e665856b43c","null","null","<p style=""font-size: 60px; font-family: BACS"">khmhAdYl</p>","","","","","","","","","",""
"html-keyboard-response","22","114983","0.0-7.0-0.15","60fd913b3fd4aeea9829cff3","64e77d7b61f440b60e28659d","64eca321a2ce9e665856b43c","null","null","<p style=""font-size: 60px; font-family: BACS"">auYAkJUNa</p>","","","","","","","","","",""
"html-keyboard-response","23","115992","0.0-7.0-0.16","60fd913b3fd4aeea9829cff3","64e77d7b61f440b60e28659d","64eca321a2ce9e665856b43c","null","null","<p style=""font-size: 60px; font-family: BACS"">OmtlDEcR</p>","","","","","","","","","",""
"html-keyboard-response","24","117000","0.0-7.0-0.17","60fd913b3fd4aeea9829cff3","64e77d7b61f440b60e28659d","64eca321a2ce9e665856b43c","null","null","<p style=""font-size: 60px; font-family: BACS"">kKRCOBT</p>","","","","","","","","","",""
"html-keyboard-response","25","118016","0.0-7.0-0.18","60fd913b3fd4aeea9829cff3","64e77d7b61f440b60e28659d","64eca321a2ce9e665856b43c","null","null","<p style=""font-size: 60px; font-family: BACS"">bYuQYaum</p>","","","","","","","","","",""
"html-keyboard-response","26","119017","0.0-7.0-0.19","60fd913b3fd4aeea9829cff3","64e77d7b61f440b60e28659d","64eca321a2ce9e665856b43c","null","null","<p style=""font-size: 60px; font-family: BACS"">NulkJUNa</p>","","","","","","","","","",""
"html-keyboard-response","27","120031","0.0-7.0-0.20","60fd913b3fd4aeea9829cff3","64e77d7b61f440b60e28659d","64eca321a2ce9e665856b43c","null","null","<p style=""font-size: 60px; font-family: BACS"">tdDdEcR</p>","","","","","","","","","",""
"html-keyboard-response","28","121033","0.0-7.0-0.21","60fd913b3fd4aeea9829cff3","64e77d7b61f440b60e28659d","64eca321a2ce9e665856b43c","null","null","<p style=""font-size: 60px; font-family: BACS"">UdYUQJcUk</p>","","","","","","","","","",""
"html-keyboard-response","29","122046","0.0-7.0-0.22","60fd913b3fd4aeea9829cff3","64e77d7b61f440b60e28659d","64eca321a2ce9e665856b43c","null","null","<p style=""font-size: 60px; font-family: BACS"">rLaZmkc</p>","","","","","","","","","",""
"html-keyboard-response","30","123049","0.0-7.0-0.23","60fd913b3fd4aeea9829cff3","64e77d7b61f440b60e28659d","64eca321a2ce9e665856b43c","null","null","<p style=""font-size: 60px; font-family: BACS"">OmtlDAdYl</p>","","","","","","","","","",""
"html-keyboard-response","31","124065","0.0-7.0-0.24","60fd913b3fd4aeea9829cff3","64e77d7b61f440b60e28659d","64eca321a2ce9e665856b43c","null","null","<p style=""font-size: 60px; font-family: BACS"">tdDdOBT</p>","","","","","","","","","",""
"html-keyboard-response","32","125071","0.0-7.0-0.25","60fd913b3fd4aeea9829cff3","64e77d7b61f440b60e28659d","64eca321a2ce9e665856b43c","null","null","<p style=""font-size: 60px; font-family: BACS"">dkLlYaum</p>","","","","","","","","","",""
"html-keyboard-response","33","126081","0.0-7.0-0.26","60fd913b3fd4aeea9829cff3","64e77d7b61f440b60e28659d","64eca321a2ce9e665856b43c","null","null","<p style=""font-size: 60px; font-family: BACS"">uAkrJcUk</p>","","","","","","","","","",""
"html-keyboard-response","34","127083","0.0-7.0-0.27","60fd913b3fd4aeea9829cff3","64e77d7b61f440b60e28659d","64eca321a2ce9e665856b43c","null","null","<p style=""font-size: 60px; font-family: BACS"">DlDdAPEM</p>","","","","","","","","","",""
"html-keyboard-response","35","128103","0.0-7.0-0.28","60fd913b3fd4aeea9829cff3","64e77d7b61f440b60e28659d","64eca321a2ce9e665856b43c","null","null","<p style=""font-size: 60px; font-family: BACS"">NulkJcUk</p>","","","","","","","","","",""
"html-keyboard-response","36","129108","0.0-7.0-0.29","60fd913b3fd4aeea9829cff3","64e77d7b61f440b60e28659d","64eca321a2ce9e665856b43c","null","null","<p style=""font-size: 60px; font-family: BACS"">UdYUQJUNa</p>","","","","","","","","","",""
"html-keyboard-response","37","130113","0.0-7.0-0.30","60fd913b3fd4aeea9829cff3","64e77d7b61f440b60e28659d","64eca321a2ce9e665856b43c","null","null","<p style=""font-size: 60px; font-family: BACS"">chAhMCkm</p>","","","","","","","","","",""
"html-keyboard-response","38","131116","0.0-7.0-0.31","60fd913b3fd4aeea9829cff3","64e77d7b61f440b60e28659d","64eca321a2ce9e665856b43c","null","null","<p style=""font-size: 60px; font-family: BACS"">kDRKcOBT</p>","","","","","","","","","",""
"html-keyboard-response","39","132126","0.0-7.0-0.32","60fd913b3fd4aeea9829cff3","64e77d7b61f440b60e28659d","64eca321a2ce9e665856b43c","null","null","<p style=""font-size: 60px; font-family: BACS"">DdckMCkm</p>","","","","","","","","","",""
"html-keyboard-response","40","133128","0.0-7.0-0.33","60fd913b3fd4aeea9829cff3","64e77d7b61f440b60e28659d","64eca321a2ce9e665856b43c","null","null","<p style=""font-size: 60px; font-family: BACS"">chAhAPEM</p>","","","","","","","","","",""
"html-keyboard-response","41","134133","0.0-7.0-0.34","60fd913b3fd4aeea9829cff3","64e77d7b61f440b60e28659d","64eca321a2ce9e665856b43c","null","null","<p style=""font-size: 60px; font-family: BACS"">dGLAlmkc</p>","","","","","","","","","",""
"html-keyboard-response","42","135149","0.0-7.0-0.35","60fd913b3fd4aeea9829cff3","64e77d7b61f440b60e28659d","64eca321a2ce9e665856b43c","null","null","<p style=""font-size: 60px; font-family: BACS"">NulkvJQ</p>","","","","","","","","","",""
"html-keyboard-response","43","136166","0.0-7.0-0.36","60fd913b3fd4aeea9829cff3","64e77d7b61f440b60e28659d","64eca321a2ce9e665856b43c","null","null","<p style=""font-size: 60px; font-family: BACS"">dkLlJcUk</p>","","","","","","","","","",""
"html-keyboard-response","44","137180","0.0-7.0-0.37","60fd913b3fd4aeea9829cff3","64e77d7b61f440b60e28659d","64eca321a2ce9e665856b43c","null","null","<p style=""font-size: 60px; font-family: BACS"">mkmJNJUNa</p>","","","","","","","","","",""
"html-keyboard-response","45","138184","0.0-7.0-0.38","60fd913b3fd4aeea9829cff3","64e77d7b61f440b60e28659d","64eca321a2ce9e665856b43c","null","null","<p style=""font-size: 60px; font-family: BACS"">rLaZYaum</p>","","","","","","","","","",""
"html-keyboard-response","46","139200","0.0-7.0-0.39","60fd913b3fd4aeea9829cff3","64e77d7b61f440b60e28659d","64eca321a2ce9e665856b43c","null","null","<p style=""font-size: 60px; font-family: BACS"">khmhAPEM</p>","","","","","","","","","",""
"html-keyboard-response","47","140209","0.0-7.0-0.40","60fd913b3fd4aeea9829cff3","64e77d7b61f440b60e28659d","64eca321a2ce9e665856b43c","null","null","<p style=""font-size: 60px; font-family: BACS"">dGLAlJUNa</p>","","","","","","","","","",""
"html-keyboard-response","48","141218","0.0-7.0-0.41","60fd913b3fd4aeea9829cff3","64e77d7b61f440b60e28659d","64eca321a2ce9e665856b43c","null","null","<p style=""font-size: 60px; font-family: BACS"">uAkrYaum</p>","","","","","","","","","",""
"html-keyboard-response","49","142226","0.0-7.0-0.42","60fd913b3fd4aeea9829cff3","64e77d7b61f440b60e28659d","64eca321a2ce9e665856b43c","null","null","<p style=""font-size: 60px; font-family: BACS"">dkLlmkc</p>","","","","","","","","","",""
"html-keyboard-response","50","143232","0.0-7.0-0.43","60fd913b3fd4aeea9829cff3","64e77d7b61f440b60e28659d","64eca321a2ce9e665856b43c","null","null","<p style=""font-size: 60px; font-family: BACS"">tdDdAdYl</p>","","","","","","","","","",""
"html-keyboard-response","51","144244","0.0-7.0-0.44","60fd913b3fd4aeea9829cff3","64e77d7b61f440b60e28659d","64eca321a2ce9e665856b43c","null","null","<p style=""font-size: 60px; font-family: BACS"">auYAkYaum</p>","","","","","","","","","",""
"html-keyboard-response","52","145250","0.0-7.0-0.45","60fd913b3fd4aeea9829cff3","64e77d7b61f440b60e28659d","64eca321a2ce9e665856b43c","null","null","<p style=""font-size: 60px; font-family: BACS"">kKRCAdYl</p>","","","","","","","","","",""
"html-keyboard-response","53","146267","0.0-7.0-0.46","60fd913b3fd4aeea9829cff3","64e77d7b61f440b60e28659d","64eca321a2ce9e665856b43c","null","null","<p style=""font-size: 60px; font-family: BACS"">bYuQvJQ</p>","","","","","","","","","",""
"html-keyboard-response","54","147281","0.0-7.0-0.47","60fd913b3fd4aeea9829cff3","64e77d7b61f440b60e28659d","64eca321a2ce9e665856b43c","null","null","<p style=""font-size: 60px; font-family: BACS"">mkmJNmkc</p>","","","","","","","","","",""
"html-keyboard-response","55","148299","0.0-7.0-0.48","60fd913b3fd4aeea9829cff3","64e77d7b61f440b60e28659d","64eca321a2ce9e665856b43c","null","null","<p style=""font-size: 60px; font-family: BACS"">khmhEcR</p>","","","","","","","","","",""
"html-keyboard-response","56","149311","0.0-7.0-0.49","60fd913b3fd4aeea9829cff3","64e77d7b61f440b60e28659d","64eca321a2ce9e665856b43c","null","null","<p style=""font-size: 60px; font-family: BACS"">bYuQJUNa</p>","","","","","","","","","",""
"html-keyboard-response","57","150327","0.0-7.0-0.50","60fd913b3fd4aeea9829cff3","64e77d7b61f440b60e28659d","64eca321a2ce9e665856b43c","null","null","<p style=""font-size: 60px; font-family: BACS"">CkBOPEcR</p>","","","","","","","","","",""
"html-keyboard-response","58","151331","0.0-7.0-0.51","60fd913b3fd4aeea9829cff3","64e77d7b61f440b60e28659d","64eca321a2ce9e665856b43c","null","null","<p style=""font-size: 60px; font-family: BACS"">kDRKcAPEM</p>","","","","","","","","","",""
"html-keyboard-response","59","152342","0.0-7.0-0.52","60fd913b3fd4aeea9829cff3","64e77d7b61f440b60e28659d","64eca321a2ce9e665856b43c","null","null","<p style=""font-size: 60px; font-family: BACS"">rLaZJcUk</p>","","","","","","","","","",""
"html-keyboard-response","60","153358","0.0-7.0-0.53","60fd913b3fd4aeea9829cff3","64e77d7b61f440b60e28659d","64eca321a2ce9e665856b43c","null","null","<p style=""font-size: 60px; font-family: BACS"">DdckAdYl</p>","","","","","","","","","",""
"html-keyboard-response","61","154365","0.0-7.0-0.54","60fd913b3fd4aeea9829cff3","64e77d7b61f440b60e28659d","64eca321a2ce9e665856b43c","null","null","<p style=""font-size: 60px; font-family: BACS"">krGuvJQ</p>","","","","","","","","","",""
"html-keyboard-response","62","155376","0.0-7.0-0.55","60fd913b3fd4aeea9829cff3","64e77d7b61f440b60e28659d","64eca321a2ce9e665856b43c","null","null","<p style=""font-size: 60px; font-family: BACS"">auYAkJcUk</p>","","","","","","","","","",""
"html-keyboard-response","63","156380","0.0-7.0-0.56","60fd913b3fd4aeea9829cff3","64e77d7b61f440b60e28659d","64eca321a2ce9e665856b43c","null","null","<p style=""font-size: 60px; font-family: BACS"">OmtlDAPEM</p>","","","","","","","","","",""
"html-keyboard-response","64","157382","0.0-7.0-0.57","60fd913b3fd4aeea9829cff3","64e77d7b61f440b60e28659d","64eca321a2ce9e665856b43c","null","null","<p style=""font-size: 60px; font-family: BACS"">kDRKcEcR</p>","","","","","","","","","",""
"html-keyboard-response","65","158399","0.0-7.0-0.58","60fd913b3fd4aeea9829cff3","64e77d7b61f440b60e28659d","64eca321a2ce9e665856b43c","null","null","<p style=""font-size: 60px; font-family: BACS"">uAkrmkc</p>","","","","","","","","","",""
"html-keyboard-response","66","159415","0.0-7.0-0.59","60fd913b3fd4aeea9829cff3","64e77d7b61f440b60e28659d","64eca321a2ce9e665856b43c","null","null","<p style=""font-size: 60px; font-family: BACS"">DlDdOBT</p>","","","","","","","","","",""
"html-keyboard-response","67","160417","0.0-7.0-0.60","60fd913b3fd4aeea9829cff3","64e77d7b61f440b60e28659d","64eca321a2ce9e665856b43c","null","null","<p style=""font-size: 60px; font-family: BACS"">UdYUQvJQ</p>","","","","","","","","","",""
"html-keyboard-response","68","161433","0.0-7.0-0.61","60fd913b3fd4aeea9829cff3","64e77d7b61f440b60e28659d","64eca321a2ce9e665856b43c","null","null","<p style=""font-size: 60px; font-family: BACS"">CkBOPOBT</p>","","","","","","","","","",""
"html-keyboard-response","69","162450","0.0-7.0-0.62","60fd913b3fd4aeea9829cff3","64e77d7b61f440b60e28659d","64eca321a2ce9e665856b43c","null","null","<p style=""font-size: 60px; font-family: BACS"">PCPDhMCkm</p>","","","","","","","","","",""
"html-keyboard-response","70","163465","0.0-7.0-0.63","60fd913b3fd4aeea9829cff3","64e77d7b61f440b60e28659d","64eca321a2ce9e665856b43c","null","null","<p style=""font-size: 60px; font-family: BACS"">kKRCAPEM</p>","","","","","","","","","",""
"html-keyboard-response","71","164483","0.0-7.0-0.64","60fd913b3fd4aeea9829cff3","64e77d7b61f440b60e28659d","64eca321a2ce9e665856b43c","null","null","<p style=""font-size: 60px; font-family: BACS"">khmhOBT</p>","","","","","","","","","",""
"html-keyboard-response","72","165498","0.0-7.0-0.65","60fd913b3fd4aeea9829cff3","64e77d7b61f440b60e28659d","64eca321a2ce9e665856b43c","null","null","<p style=""font-size: 60px; font-family: BACS"">krGuJcUk</p>","","","","","","","","","",""
"html-keyboard-response","73","166512","0.0-7.0-0.66","60fd913b3fd4aeea9829cff3","64e77d7b61f440b60e28659d","64eca321a2ce9e665856b43c","null","null","<p style=""font-size: 60px; font-family: BACS"">bYuQmkc</p>","","","","","","","","","",""
"html-keyboard-response","74","167516","0.0-7.0-0.67","60fd913b3fd4aeea9829cff3","64e77d7b61f440b60e28659d","64eca321a2ce9e665856b43c","null","null","<p style=""font-size: 60px; font-family: BACS"">chAhEcR</p>","","","","","","","","","",""
"html-keyboard-response","75","168532","0.0-7.0-0.68","60fd913b3fd4aeea9829cff3","64e77d7b61f440b60e28659d","64eca321a2ce9e665856b43c","null","null","<p style=""font-size: 60px; font-family: BACS"">UdYUQmkc</p>","","","","","","","","","",""
"html-keyboard-response","76","169546","0.0-7.0-0.69","60fd913b3fd4aeea9829cff3","64e77d7b61f440b60e28659d","64eca321a2ce9e665856b43c","null","null","<p style=""font-size: 60px; font-family: BACS"">DdckOBT</p>","","","","","","","","","",""
"html-keyboard-response","77","170548","0.0-7.0-0.70","60fd913b3fd4aeea9829cff3","64e77d7b61f440b60e28659d","64eca321a2ce9e665856b43c","null","null","<p style=""font-size: 60px; font-family: BACS"">dGLAlvJQ</p>","","","","","","","","","",""
"html-keyboard-response","78","171565","0.0-7.0-0.71","60fd913b3fd4aeea9829cff3","64e77d7b61f440b60e28659d","64eca321a2ce9e665856b43c","null","null","<p style=""font-size: 60px; font-family: BACS"">tdDdMCkm</p>","","","","","","","","","",""
"html-keyboard-response","79","172581","0.0-7.0-0.72","60fd913b3fd4aeea9829cff3","64e77d7b61f440b60e28659d","64eca321a2ce9e665856b43c","null","null","<p style=""font-size: 60px; font-family: BACS"">mkmJNvJQ</p>","","","","","","","","","",""
"html-keyboard-response","80","173583","0.0-7.0-0.73","60fd913b3fd4aeea9829cff3","64e77d7b61f440b60e28659d","64eca321a2ce9e665856b43c","null","null","<p style=""font-size: 60px; font-family: BACS"">OmtlDMCkm</p>","","","","","","","","","",""
"html-keyboard-response","81","174599","0.0-7.0-0.74","60fd913b3fd4aeea9829cff3","64e77d7b61f440b60e28659d","64eca321a2ce9e665856b43c","null","null","<p style=""font-size: 60px; font-family: BACS"">NulkYaum</p>","","","","","","","","","",""
"html-keyboard-response","82","175614","0.0-7.0-0.75","60fd913b3fd4aeea9829cff3","64e77d7b61f440b60e28659d","64eca321a2ce9e665856b43c","null","null","<p style=""font-size: 60px; font-family: BACS"">DlDdMCkm</p>","","","","","","","","","",""
"html-keyboard-response","83","176624","0.0-7.0-0.76","60fd913b3fd4aeea9829cff3","64e77d7b61f440b60e28659d","64eca321a2ce9e665856b43c","null","null","<p style=""font-size: 60px; font-family: BACS"">CkBOPAdYl</p>","","","","","","","","","",""
"html-keyboard-response","84","177634","0.0-7.0-0.77","60fd913b3fd4aeea9829cff3","64e77d7b61f440b60e28659d","64eca321a2ce9e665856b43c","null","null","<p style=""font-size: 60px; font-family: BACS"">krGumkc</p>","","","","","","","","","",""
"html-keyboard-response","85","178643","0.0-7.0-0.78","60fd913b3fd4aeea9829cff3","64e77d7b61f440b60e28659d","64eca321a2ce9e665856b43c","null","null","<p style=""font-size: 60px; font-family: BACS"">dGLAlYaum</p>","","","","","","","","","",""
"html-keyboard-response","86","179649","0.0-7.0-0.79","60fd913b3fd4aeea9829cff3","64e77d7b61f440b60e28659d","64eca321a2ce9e665856b43c","null","null","<p style=""font-size: 60px; font-family: BACS"">mkmJNJcUk</p>","","","","","","","","","",""
"html-keyboard-response","87","193246","0.0-8.0","60fd913b3fd4aeea9829cff3","64e77d7b61f440b60e28659d","64eca321a2ce9e665856b43c","13596"," ","<p>Great, you've seen the first block of words. You may now take a short break.</p>
      <p>Press the spacebar when you're ready to continue.</p>","","","","","","","","","",""
"html-keyboard-response","88","194249","0.0-9.0-0.0","60fd913b3fd4aeea9829cff3","64e77d7b61f440b60e28659d","64eca321a2ce9e665856b43c","null","null","<p style=""font-size: 60px; font-family: BACS"">bYuQYaum</p>","","","","","","","","","",""
"html-keyboard-response","89","195252","0.0-9.0-0.1","60fd913b3fd4aeea9829cff3","64e77d7b61f440b60e28659d","64eca321a2ce9e665856b43c","null","null","<p style=""font-size: 60px; font-family: BACS"">kDRKcMCkm</p>","","","","","","","","","",""
"html-keyboard-response","90","196257","0.0-9.0-0.2","60fd913b3fd4aeea9829cff3","64e77d7b61f440b60e28659d","64eca321a2ce9e665856b43c","null","null","<p style=""font-size: 60px; font-family: BACS"">krGuYaum</p>","","","","","","","","","",""
"html-keyboard-response","91","197262","0.0-9.0-0.3","60fd913b3fd4aeea9829cff3","64e77d7b61f440b60e28659d","64eca321a2ce9e665856b43c","null","null","<p style=""font-size: 60px; font-family: BACS"">kKRCAPEM</p>","","","","","","","","","",""
"html-keyboard-response","92","198267","0.0-9.0-0.4","60fd913b3fd4aeea9829cff3","64e77d7b61f440b60e28659d","64eca321a2ce9e665856b43c","null","null","<p style=""font-size: 60px; font-family: BACS"">chAhMCkm</p>","","","","","","","","","",""
"html-keyboard-response","93","199277","0.0-9.0-0.5","60fd913b3fd4aeea9829cff3","64e77d7b61f440b60e28659d","64eca321a2ce9e665856b43c","null","null","<p style=""font-size: 60px; font-family: BACS"">kDRKcOBT</p>","","","","","","","","","",""
"html-keyboard-response","94","200282","0.0-9.0-0.6","60fd913b3fd4aeea9829cff3","64e77d7b61f440b60e28659d","64eca321a2ce9e665856b43c","null","null","<p style=""font-size: 60px; font-family: BACS"">UdYUQmkc</p>","","","","","","","","","",""
"html-keyboard-response","95","201301","0.0-9.0-0.7","60fd913b3fd4aeea9829cff3","64e77d7b61f440b60e28659d","64eca321a2ce9e665856b43c","null","null","<p style=""font-size: 60px; font-family: BACS"">DlDdAPEM</p>","","","","","","","","","",""
"html-keyboard-response","96","202316","0.0-9.0-0.8","60fd913b3fd4aeea9829cff3","64e77d7b61f440b60e28659d","64eca321a2ce9e665856b43c","null","null","<p style=""font-size: 60px; font-family: BACS"">bYuQvJQ</p>","","","","","","","","","",""
"html-keyboard-response","97","203317","0.0-9.0-0.9","60fd913b3fd4aeea9829cff3","64e77d7b61f440b60e28659d","64eca321a2ce9e665856b43c","null","null","<p style=""font-size: 60px; font-family: BACS"">kDRKcEcR</p>","","","","","","","","","",""
"html-keyboard-response","98","204332","0.0-9.0-0.10","60fd913b3fd4aeea9829cff3","64e77d7b61f440b60e28659d","64eca321a2ce9e665856b43c","null","null","<p style=""font-size: 60px; font-family: BACS"">rLaZmkc</p>","","","","","","","","","",""
"html-keyboard-response","99","205349","0.0-9.0-0.11","60fd913b3fd4aeea9829cff3","64e77d7b61f440b60e28659d","64eca321a2ce9e665856b43c","null","null","<p style=""font-size: 60px; font-family: BACS"">khmhAdYl</p>","","","","","","","","","",""
"html-keyboard-response","100","206362","0.0-9.0-0.12","60fd913b3fd4aeea9829cff3","64e77d7b61f440b60e28659d","64eca321a2ce9e665856b43c","null","null","<p style=""font-size: 60px; font-family: BACS"">tdDdEcR</p>","","","","","","","","","",""
"html-keyboard-response","101","207367","0.0-9.0-0.13","60fd913b3fd4aeea9829cff3","64e77d7b61f440b60e28659d","64eca321a2ce9e665856b43c","null","null","<p style=""font-size: 60px; font-family: BACS"">CkBOPOBT</p>","","","","","","","","","",""
"html-keyboard-response","102","208384","0.0-9.0-0.14","60fd913b3fd4aeea9829cff3","64e77d7b61f440b60e28659d","64eca321a2ce9e665856b43c","null","null","<p style=""font-size: 60px; font-family: BACS"">PCPDhEcR</p>","","","","","","","","","",""
"html-keyboard-response","103","209399","0.0-9.0-0.15","60fd913b3fd4aeea9829cff3","64e77d7b61f440b60e28659d","64eca321a2ce9e665856b43c","null","null","<p style=""font-size: 60px; font-family: BACS"">kDRKcAPEM</p>","","","","","","","","","",""
"html-keyboard-response","104","210416","0.0-9.0-0.16","60fd913b3fd4aeea9829cff3","64e77d7b61f440b60e28659d","64eca321a2ce9e665856b43c","null","null","<p style=""font-size: 60px; font-family: BACS"">DlDdAdYl</p>","","","","","","","","","",""
"html-keyboard-response","105","211430","0.0-9.0-0.17","60fd913b3fd4aeea9829cff3","64e77d7b61f440b60e28659d","64eca321a2ce9e665856b43c","null","null","<p style=""font-size: 60px; font-family: BACS"">CkBOPMCkm</p>","","","","","","","","","",""
"html-keyboard-response","106","212442","0.0-9.0-0.18","60fd913b3fd4aeea9829cff3","64e77d7b61f440b60e28659d","64eca321a2ce9e665856b43c","null","null","<p style=""font-size: 60px; font-family: BACS"">NulkvJQ</p>","","","","","","","","","",""
"html-keyboard-response","107","213450","0.0-9.0-0.19","60fd913b3fd4aeea9829cff3","64e77d7b61f440b60e28659d","64eca321a2ce9e665856b43c","null","null","<p style=""font-size: 60px; font-family: BACS"">khmhAPEM</p>","","","","","","","","","",""
"html-keyboard-response","108","214458","0.0-9.0-0.20","60fd913b3fd4aeea9829cff3","64e77d7b61f440b60e28659d","64eca321a2ce9e665856b43c","null","null","<p style=""font-size: 60px; font-family: BACS"">UdYUQJcUk</p>","","","","","","","","","",""
"html-keyboard-response","109","215460","0.0-9.0-0.21","60fd913b3fd4aeea9829cff3","64e77d7b61f440b60e28659d","64eca321a2ce9e665856b43c","null","null","<p style=""font-size: 60px; font-family: BACS"">kKRCAdYl</p>","","","","","","","","","",""
"html-keyboard-response","110","216467","0.0-9.0-0.22","60fd913b3fd4aeea9829cff3","64e77d7b61f440b60e28659d","64eca321a2ce9e665856b43c","null","null","<p style=""font-size: 60px; font-family: BACS"">uAkrJUNa</p>","","","","","","","","","",""
"html-keyboard-response","111","217468","0.0-9.0-0.23","60fd913b3fd4aeea9829cff3","64e77d7b61f440b60e28659d","64eca321a2ce9e665856b43c","null","null","<p style=""font-size: 60px; font-family: BACS"">kKRCEcR</p>","","","","","","","","","",""
"html-keyboard-response","112","218482","0.0-9.0-0.24","60fd913b3fd4aeea9829cff3","64e77d7b61f440b60e28659d","64eca321a2ce9e665856b43c","null","null","<p style=""font-size: 60px; font-family: BACS"">tdDdMCkm</p>","","","","","","","","","",""
"html-keyboard-response","113","219491","0.0-9.0-0.25","60fd913b3fd4aeea9829cff3","64e77d7b61f440b60e28659d","64eca321a2ce9e665856b43c","null","null","<p style=""font-size: 60px; font-family: BACS"">UdYUQJUNa</p>","","","","","","","","","",""
"html-keyboard-response","114","220508","0.0-9.0-0.26","60fd913b3fd4aeea9829cff3","64e77d7b61f440b60e28659d","64eca321a2ce9e665856b43c","null","null","<p style=""font-size: 60px; font-family: BACS"">mkmJNmkc</p>","","","","","","","","","",""
"html-keyboard-response","115","221513","0.0-9.0-0.27","60fd913b3fd4aeea9829cff3","64e77d7b61f440b60e28659d","64eca321a2ce9e665856b43c","null","null","<p style=""font-size: 60px; font-family: BACS"">auYAkJcUk</p>","","","","","","","","","",""
"html-keyboard-response","116","222525","0.0-9.0-0.28","60fd913b3fd4aeea9829cff3","64e77d7b61f440b60e28659d","64eca321a2ce9e665856b43c","null","null","<p style=""font-size: 60px; font-family: BACS"">tdDdOBT</p>","","","","","","","","","",""
"html-keyboard-response","117","223532","0.0-9.0-0.29","60fd913b3fd4aeea9829cff3","64e77d7b61f440b60e28659d","64eca321a2ce9e665856b43c","null","null","<p style=""font-size: 60px; font-family: BACS"">chAhAdYl</p>","","","","","","","","","",""
"html-keyboard-response","118","224534","0.0-9.0-0.30","60fd913b3fd4aeea9829cff3","64e77d7b61f440b60e28659d","64eca321a2ce9e665856b43c","null","null","<p style=""font-size: 60px; font-family: BACS"">OmtlDMCkm</p>","","","","","","","","","",""
"html-keyboard-response","119","225549","0.0-9.0-0.31","60fd913b3fd4aeea9829cff3","64e77d7b61f440b60e28659d","64eca321a2ce9e665856b43c","null","null","<p style=""font-size: 60px; font-family: BACS"">dkLlJcUk</p>","","","","","","","","","",""
"html-keyboard-response","120","226562","0.0-9.0-0.32","60fd913b3fd4aeea9829cff3","64e77d7b61f440b60e28659d","64eca321a2ce9e665856b43c","null","null","<p style=""font-size: 60px; font-family: BACS"">PCPDhAPEM</p>","","","","","","","","","",""
"html-keyboard-response","121","227566","0.0-9.0-0.33","60fd913b3fd4aeea9829cff3","64e77d7b61f440b60e28659d","64eca321a2ce9e665856b43c","null","null","<p style=""font-size: 60px; font-family: BACS"">auYAkvJQ</p>","","","","","","","","","",""
"html-keyboard-response","122","228579","0.0-9.0-0.34","60fd913b3fd4aeea9829cff3","64e77d7b61f440b60e28659d","64eca321a2ce9e665856b43c","null","null","<p style=""font-size: 60px; font-family: BACS"">uAkrmkc</p>","","","","","","","","","",""
"html-keyboard-response","123","229591","0.0-9.0-0.35","60fd913b3fd4aeea9829cff3","64e77d7b61f440b60e28659d","64eca321a2ce9e665856b43c","null","null","<p style=""font-size: 60px; font-family: BACS"">chAhAPEM</p>","","","","","","","","","",""
"html-keyboard-response","124","230598","0.0-9.0-0.36","60fd913b3fd4aeea9829cff3","64e77d7b61f440b60e28659d","64eca321a2ce9e665856b43c","null","null","<p style=""font-size: 60px; font-family: BACS"">krGumkc</p>","","","","","","","","","",""
"html-keyboard-response","125","231609","0.0-9.0-0.37","60fd913b3fd4aeea9829cff3","64e77d7b61f440b60e28659d","64eca321a2ce9e665856b43c","null","null","<p style=""font-size: 60px; font-family: BACS"">khmhOBT</p>","","","","","","","","","",""
"html-keyboard-response","126","232611","0.0-9.0-0.38","60fd913b3fd4aeea9829cff3","64e77d7b61f440b60e28659d","64eca321a2ce9e665856b43c","null","null","<p style=""font-size: 60px; font-family: BACS"">CkBOPAdYl</p>","","","","","","","","","",""
"html-keyboard-response","127","233616","0.0-9.0-0.39","60fd913b3fd4aeea9829cff3","64e77d7b61f440b60e28659d","64eca321a2ce9e665856b43c","null","null","<p style=""font-size: 60px; font-family: BACS"">PCPDhOBT</p>","","","","","","","","","",""
"html-keyboard-response","128","234625","0.0-9.0-0.40","60fd913b3fd4aeea9829cff3","64e77d7b61f440b60e28659d","64eca321a2ce9e665856b43c","null","null","<p style=""font-size: 60px; font-family: BACS"">bYuQJUNa</p>","","","","","","","","","",""
"html-keyboard-response","129","235632","0.0-9.0-0.41","60fd913b3fd4aeea9829cff3","64e77d7b61f440b60e28659d","64eca321a2ce9e665856b43c","null","null","<p style=""font-size: 60px; font-family: BACS"">dGLAlmkc</p>","","","","","","","","","",""
"html-keyboard-response","130","236642","0.0-9.0-0.42","60fd913b3fd4aeea9829cff3","64e77d7b61f440b60e28659d","64eca321a2ce9e665856b43c","null","null","<p style=""font-size: 60px; font-family: BACS"">NulkJcUk</p>","","","","","","","","","",""
"html-keyboard-response","131","237646","0.0-9.0-0.43","60fd913b3fd4aeea9829cff3","64e77d7b61f440b60e28659d","64eca321a2ce9e665856b43c","null","null","<p style=""font-size: 60px; font-family: BACS"">DdckMCkm</p>","","","","","","","","","",""
"html-keyboard-response","132","238651","0.0-9.0-0.44","60fd913b3fd4aeea9829cff3","64e77d7b61f440b60e28659d","64eca321a2ce9e665856b43c","null","null","<p style=""font-size: 60px; font-family: BACS"">mkmJNvJQ</p>","","","","","","","","","",""
"html-keyboard-response","133","239664","0.0-9.0-0.45","60fd913b3fd4aeea9829cff3","64e77d7b61f440b60e28659d","64eca321a2ce9e665856b43c","null","null","<p style=""font-size: 60px; font-family: BACS"">dkLlJUNa</p>","","","","","","","","","",""
"html-keyboard-response","134","240666","0.0-9.0-0.46","60fd913b3fd4aeea9829cff3","64e77d7b61f440b60e28659d","64eca321a2ce9e665856b43c","null","null","<p style=""font-size: 60px; font-family: BACS"">DdckAdYl</p>","","","","","","","","","",""
"html-keyboard-response","135","241668","0.0-9.0-0.47","60fd913b3fd4aeea9829cff3","64e77d7b61f440b60e28659d","64eca321a2ce9e665856b43c","null","null","<p style=""font-size: 60px; font-family: BACS"">uAkrJcUk</p>","","","","","","","","","",""
"html-keyboard-response","136","242682","0.0-9.0-0.48","60fd913b3fd4aeea9829cff3","64e77d7b61f440b60e28659d","64eca321a2ce9e665856b43c","null","null","<p style=""font-size: 60px; font-family: BACS"">OmtlDAPEM</p>","","","","","","","","","",""
"html-keyboard-response","137","243684","0.0-9.0-0.49","60fd913b3fd4aeea9829cff3","64e77d7b61f440b60e28659d","64eca321a2ce9e665856b43c","null","null","<p style=""font-size: 60px; font-family: BACS"">DlDdMCkm</p>","","","","","","","","","",""
"html-keyboard-response","138","244699","0.0-9.0-0.50","60fd913b3fd4aeea9829cff3","64e77d7b61f440b60e28659d","64eca321a2ce9e665856b43c","null","null","<p style=""font-size: 60px; font-family: BACS"">kKRCOBT</p>","","","","","","","","","",""
"html-keyboard-response","139","245701","0.0-9.0-0.51","60fd913b3fd4aeea9829cff3","64e77d7b61f440b60e28659d","64eca321a2ce9e665856b43c","null","null","<p style=""font-size: 60px; font-family: BACS"">krGuvJQ</p>","","","","","","","","","",""
"html-keyboard-response","140","246716","0.0-9.0-0.52","60fd913b3fd4aeea9829cff3","64e77d7b61f440b60e28659d","64eca321a2ce9e665856b43c","null","null","<p style=""font-size: 60px; font-family: BACS"">dkLlYaum</p>","","","","","","","","","",""
"html-keyboard-response","141","247732","0.0-9.0-0.53","60fd913b3fd4aeea9829cff3","64e77d7b61f440b60e28659d","64eca321a2ce9e665856b43c","null","null","<p style=""font-size: 60px; font-family: BACS"">UdYUQvJQ</p>","","","","","","","","","",""
"html-keyboard-response","142","248734","0.0-9.0-0.54","60fd913b3fd4aeea9829cff3","64e77d7b61f440b60e28659d","64eca321a2ce9e665856b43c","null","null","<p style=""font-size: 60px; font-family: BACS"">bYuQmkc</p>","","","","","","","","","",""
"html-keyboard-response","143","249749","0.0-9.0-0.55","60fd913b3fd4aeea9829cff3","64e77d7b61f440b60e28659d","64eca321a2ce9e665856b43c","null","null","<p style=""font-size: 60px; font-family: BACS"">uAkrYaum</p>","","","","","","","","","",""
"html-keyboard-response","144","250766","0.0-9.0-0.56","60fd913b3fd4aeea9829cff3","64e77d7b61f440b60e28659d","64eca321a2ce9e665856b43c","null","null","<p style=""font-size: 60px; font-family: BACS"">krGuJcUk</p>","","","","","","","","","",""
"html-keyboard-response","145","251768","0.0-9.0-0.57","60fd913b3fd4aeea9829cff3","64e77d7b61f440b60e28659d","64eca321a2ce9e665856b43c","null","null","<p style=""font-size: 60px; font-family: BACS"">OmtlDEcR</p>","","","","","","","","","",""
"html-keyboard-response","146","252782","0.0-9.0-0.58","60fd913b3fd4aeea9829cff3","64e77d7b61f440b60e28659d","64eca321a2ce9e665856b43c","null","null","<p style=""font-size: 60px; font-family: BACS"">PCPDhMCkm</p>","","","","","","","","","",""
"html-keyboard-response","147","253792","0.0-9.0-0.59","60fd913b3fd4aeea9829cff3","64e77d7b61f440b60e28659d","64eca321a2ce9e665856b43c","null","null","<p style=""font-size: 60px; font-family: BACS"">dGLAlYaum</p>","","","","","","","","","",""
"html-keyboard-response","148","254799","0.0-9.0-0.60","60fd913b3fd4aeea9829cff3","64e77d7b61f440b60e28659d","64eca321a2ce9e665856b43c","null","null","<p style=""font-size: 60px; font-family: BACS"">NulkJUNa</p>","","","","","","","","","",""
"html-keyboard-response","149","255815","0.0-9.0-0.61","60fd913b3fd4aeea9829cff3","64e77d7b61f440b60e28659d","64eca321a2ce9e665856b43c","null","null","<p style=""font-size: 60px; font-family: BACS"">rLaZvJQ</p>","","","","","","","","","",""
"html-keyboard-response","150","256817","0.0-9.0-0.62","60fd913b3fd4aeea9829cff3","64e77d7b61f440b60e28659d","64eca321a2ce9e665856b43c","null","null","<p style=""font-size: 60px; font-family: BACS"">OmtlDAdYl</p>","","","","","","","","","",""
"html-keyboard-response","151","257833","0.0-9.0-0.63","60fd913b3fd4aeea9829cff3","64e77d7b61f440b60e28659d","64eca321a2ce9e665856b43c","null","null","<p style=""font-size: 60px; font-family: BACS"">dGLAlJUNa</p>","","","","","","","","","",""
"html-keyboard-response","152","258850","0.0-9.0-0.64","60fd913b3fd4aeea9829cff3","64e77d7b61f440b60e28659d","64eca321a2ce9e665856b43c","null","null","<p style=""font-size: 60px; font-family: BACS"">NulkYaum</p>","","","","","","","","","",""
"html-keyboard-response","153","259860","0.0-9.0-0.65","60fd913b3fd4aeea9829cff3","64e77d7b61f440b60e28659d","64eca321a2ce9e665856b43c","null","null","<p style=""font-size: 60px; font-family: BACS"">dGLAlvJQ</p>","","","","","","","","","",""
"html-keyboard-response","154","260866","0.0-9.0-0.66","60fd913b3fd4aeea9829cff3","64e77d7b61f440b60e28659d","64eca321a2ce9e665856b43c","null","null","<p style=""font-size: 60px; font-family: BACS"">mkmJNJUNa</p>","","","","","","","","","",""
"html-keyboard-response","155","261876","0.0-9.0-0.67","60fd913b3fd4aeea9829cff3","64e77d7b61f440b60e28659d","64eca321a2ce9e665856b43c","null","null","<p style=""font-size: 60px; font-family: BACS"">khmhEcR</p>","","","","","","","","","",""
"html-keyboard-response","156","262891","0.0-9.0-0.68","60fd913b3fd4aeea9829cff3","64e77d7b61f440b60e28659d","64eca321a2ce9e665856b43c","null","null","<p style=""font-size: 60px; font-family: BACS"">mkmJNJcUk</p>","","","","","","","","","",""
"html-keyboard-response","157","263892","0.0-9.0-0.69","60fd913b3fd4aeea9829cff3","64e77d7b61f440b60e28659d","64eca321a2ce9e665856b43c","null","null","<p style=""font-size: 60px; font-family: BACS"">auYAkYaum</p>","","","","","","","","","",""
"html-keyboard-response","158","264909","0.0-9.0-0.70","60fd913b3fd4aeea9829cff3","64e77d7b61f440b60e28659d","64eca321a2ce9e665856b43c","null","null","<p style=""font-size: 60px; font-family: BACS"">DdckAPEM</p>","","","","","","","","","",""
"html-keyboard-response","159","265911","0.0-9.0-0.71","60fd913b3fd4aeea9829cff3","64e77d7b61f440b60e28659d","64eca321a2ce9e665856b43c","null","null","<p style=""font-size: 60px; font-family: BACS"">CkBOPEcR</p>","","","","","","","","","",""
"html-keyboard-response","160","266927","0.0-9.0-0.72","60fd913b3fd4aeea9829cff3","64e77d7b61f440b60e28659d","64eca321a2ce9e665856b43c","null","null","<p style=""font-size: 60px; font-family: BACS"">dkLlmkc</p>","","","","","","","","","",""
"html-keyboard-response","161","267930","0.0-9.0-0.73","60fd913b3fd4aeea9829cff3","64e77d7b61f440b60e28659d","64eca321a2ce9e665856b43c","null","null","<p style=""font-size: 60px; font-family: BACS"">chAhEcR</p>","","","","","","","","","",""
"html-keyboard-response","162","268932","0.0-9.0-0.74","60fd913b3fd4aeea9829cff3","64e77d7b61f440b60e28659d","64eca321a2ce9e665856b43c","null","null","<p style=""font-size: 60px; font-family: BACS"">rLaZYaum</p>","","","","","","","","","",""
"html-keyboard-response","163","269935","0.0-9.0-0.75","60fd913b3fd4aeea9829cff3","64e77d7b61f440b60e28659d","64eca321a2ce9e665856b43c","null","null","<p style=""font-size: 60px; font-family: BACS"">auYAkJUNa</p>","","","","","","","","","",""
"html-keyboard-response","164","270948","0.0-9.0-0.76","60fd913b3fd4aeea9829cff3","64e77d7b61f440b60e28659d","64eca321a2ce9e665856b43c","null","null","<p style=""font-size: 60px; font-family: BACS"">rLaZJcUk</p>","","","","","","","","","",""
"html-keyboard-response","165","271950","0.0-9.0-0.77","60fd913b3fd4aeea9829cff3","64e77d7b61f440b60e28659d","64eca321a2ce9e665856b43c","null","null","<p style=""font-size: 60px; font-family: BACS"">DdckOBT</p>","","","","","","","","","",""
"html-keyboard-response","166","272951","0.0-9.0-0.78","60fd913b3fd4aeea9829cff3","64e77d7b61f440b60e28659d","64eca321a2ce9e665856b43c","null","null","<p style=""font-size: 60px; font-family: BACS"">tdDdAdYl</p>","","","","","","","","","",""
"html-keyboard-response","167","273967","0.0-9.0-0.79","60fd913b3fd4aeea9829cff3","64e77d7b61f440b60e28659d","64eca321a2ce9e665856b43c","null","null","<p style=""font-size: 60px; font-family: BACS"">DlDdOBT</p>","","","","","","","","","",""
"html-keyboard-response","168","308178","0.0-10.0","60fd913b3fd4aeea9829cff3","64e77d7b61f440b60e28659d","64eca321a2ce9e665856b43c","34216"," ","<p>Great, you've seen the second block of words. You may now take a short break.</p>
      <p>Press the spacebar when you're ready to continue.</p>","","","","","","","","","",""
"html-keyboard-response","169","309193","0.0-11.0-0.0","60fd913b3fd4aeea9829cff3","64e77d7b61f440b60e28659d","64eca321a2ce9e665856b43c","null","null","<p style=""font-size: 60px; font-family: BACS"">UdYUQmkc</p>","","","","","","","","","",""
"html-keyboard-response","170","310204","0.0-11.0-0.1","60fd913b3fd4aeea9829cff3","64e77d7b61f440b60e28659d","64eca321a2ce9e665856b43c","null","null","<p style=""font-size: 60px; font-family: BACS"">dkLlYaum</p>","","","","","","","","","",""
"html-keyboard-response","171","311211","0.0-11.0-0.2","60fd913b3fd4aeea9829cff3","64e77d7b61f440b60e28659d","64eca321a2ce9e665856b43c","null","null","<p style=""font-size: 60px; font-family: BACS"">khmhAPEM</p>","","","","","","","","","",""
"html-keyboard-response","172","312220","0.0-11.0-0.3","60fd913b3fd4aeea9829cff3","64e77d7b61f440b60e28659d","64eca321a2ce9e665856b43c","null","null","<p style=""font-size: 60px; font-family: BACS"">dkLlmkc</p>","","","","","","","","","",""
"html-keyboard-response","173","313237","0.0-11.0-0.4","60fd913b3fd4aeea9829cff3","64e77d7b61f440b60e28659d","64eca321a2ce9e665856b43c","null","null","<p style=""font-size: 60px; font-family: BACS"">auYAkvJQ</p>","","","","","","","","","",""
"html-keyboard-response","174","314244","0.0-11.0-0.5","60fd913b3fd4aeea9829cff3","64e77d7b61f440b60e28659d","64eca321a2ce9e665856b43c","null","null","<p style=""font-size: 60px; font-family: BACS"">dGLAlJUNa</p>","","","","","","","","","",""
"html-keyboard-response","175","315260","0.0-11.0-0.6","60fd913b3fd4aeea9829cff3","64e77d7b61f440b60e28659d","64eca321a2ce9e665856b43c","null","null","<p style=""font-size: 60px; font-family: BACS"">kKRCAdYl</p>","","","","","","","","","",""
"html-keyboard-response","176","316276","0.0-11.0-0.7","60fd913b3fd4aeea9829cff3","64e77d7b61f440b60e28659d","64eca321a2ce9e665856b43c","null","null","<p style=""font-size: 60px; font-family: BACS"">NulkvJQ</p>","","","","","","","","","",""
"html-keyboard-response","177","317288","0.0-11.0-0.8","60fd913b3fd4aeea9829cff3","64e77d7b61f440b60e28659d","64eca321a2ce9e665856b43c","null","null","<p style=""font-size: 60px; font-family: BACS"">tdDdEcR</p>","","","","","","","","","",""
"html-keyboard-response","178","318294","0.0-11.0-0.9","60fd913b3fd4aeea9829cff3","64e77d7b61f440b60e28659d","64eca321a2ce9e665856b43c","null","null","<p style=""font-size: 60px; font-family: BACS"">uAkrJUNa</p>","","","","","","","","","",""
"html-keyboard-response","179","319311","0.0-11.0-0.10","60fd913b3fd4aeea9829cff3","64e77d7b61f440b60e28659d","64eca321a2ce9e665856b43c","null","null","<p style=""font-size: 60px; font-family: BACS"">dGLAlvJQ</p>","","","","","","","","","",""
"html-keyboard-response","180","320320","0.0-11.0-0.11","60fd913b3fd4aeea9829cff3","64e77d7b61f440b60e28659d","64eca321a2ce9e665856b43c","null","null","<p style=""font-size: 60px; font-family: BACS"">uAkrYaum</p>","","","","","","","","","",""
"html-keyboard-response","181","321325","0.0-11.0-0.12","60fd913b3fd4aeea9829cff3","64e77d7b61f440b60e28659d","64eca321a2ce9e665856b43c","null","null","<p style=""font-size: 60px; font-family: BACS"">khmhAdYl</p>","","","","","","","","","",""
"html-keyboard-response","182","322329","0.0-11.0-0.13","60fd913b3fd4aeea9829cff3","64e77d7b61f440b60e28659d","64eca321a2ce9e665856b43c","null","null","<p style=""font-size: 60px; font-family: BACS"">dGLAlmkc</p>","","","","","","","","","",""
"html-keyboard-response","183","323345","0.0-11.0-0.14","60fd913b3fd4aeea9829cff3","64e77d7b61f440b60e28659d","64eca321a2ce9e665856b43c","null","null","<p style=""font-size: 60px; font-family: BACS"">DlDdAdYl</p>","","","","","","","","","",""
"html-keyboard-response","184","324361","0.0-11.0-0.15","60fd913b3fd4aeea9829cff3","64e77d7b61f440b60e28659d","64eca321a2ce9e665856b43c","null","null","<p style=""font-size: 60px; font-family: BACS"">krGuYaum</p>","","","","","","","","","",""
"html-keyboard-response","185","325373","0.0-11.0-0.16","60fd913b3fd4aeea9829cff3","64e77d7b61f440b60e28659d","64eca321a2ce9e665856b43c","null","null","<p style=""font-size: 60px; font-family: BACS"">DdckAPEM</p>","","","","","","","","","",""
"html-keyboard-response","186","326379","0.0-11.0-0.17","60fd913b3fd4aeea9829cff3","64e77d7b61f440b60e28659d","64eca321a2ce9e665856b43c","null","null","<p style=""font-size: 60px; font-family: BACS"">UdYUQJUNa</p>","","","","","","","","","",""
"html-keyboard-response","187","327395","0.0-11.0-0.18","60fd913b3fd4aeea9829cff3","64e77d7b61f440b60e28659d","64eca321a2ce9e665856b43c","null","null","<p style=""font-size: 60px; font-family: BACS"">kDRKcMCkm</p>","","","","","","","","","",""
"html-keyboard-response","188","328405","0.0-11.0-0.19","60fd913b3fd4aeea9829cff3","64e77d7b61f440b60e28659d","64eca321a2ce9e665856b43c","null","null","<p style=""font-size: 60px; font-family: BACS"">UdYUQvJQ</p>","","","","","","","","","",""
"html-keyboard-response","189","329412","0.0-11.0-0.20","60fd913b3fd4aeea9829cff3","64e77d7b61f440b60e28659d","64eca321a2ce9e665856b43c","null","null","<p style=""font-size: 60px; font-family: BACS"">uAkrmkc</p>","","","","","","","","","",""
"html-keyboard-response","190","330418","0.0-11.0-0.21","60fd913b3fd4aeea9829cff3","64e77d7b61f440b60e28659d","64eca321a2ce9e665856b43c","null","null","<p style=""font-size: 60px; font-family: BACS"">mkmJNvJQ</p>","","","","","","","","","",""
"html-keyboard-response","191","331424","0.0-11.0-0.22","60fd913b3fd4aeea9829cff3","64e77d7b61f440b60e28659d","64eca321a2ce9e665856b43c","null","null","<p style=""font-size: 60px; font-family: BACS"">tdDdOBT</p>","","","","","","","","","",""
"html-keyboard-response","192","332427","0.0-11.0-0.23","60fd913b3fd4aeea9829cff3","64e77d7b61f440b60e28659d","64eca321a2ce9e665856b43c","null","null","<p style=""font-size: 60px; font-family: BACS"">CkBOPEcR</p>","","","","","","","","","",""
"html-keyboard-response","193","333439","0.0-11.0-0.24","60fd913b3fd4aeea9829cff3","64e77d7b61f440b60e28659d","64eca321a2ce9e665856b43c","null","null","<p style=""font-size: 60px; font-family: BACS"">UdYUQJcUk</p>","","","","","","","","","",""
"html-keyboard-response","194","334442","0.0-11.0-0.25","60fd913b3fd4aeea9829cff3","64e77d7b61f440b60e28659d","64eca321a2ce9e665856b43c","null","null","<p style=""font-size: 60px; font-family: BACS"">CkBOPOBT</p>","","","","","","","","","",""
"html-keyboard-response","195","335446","0.0-11.0-0.26","60fd913b3fd4aeea9829cff3","64e77d7b61f440b60e28659d","64eca321a2ce9e665856b43c","null","null","<p style=""font-size: 60px; font-family: BACS"">OmtlDMCkm</p>","","","","","","","","","",""
"html-keyboard-response","196","336448","0.0-11.0-0.27","60fd913b3fd4aeea9829cff3","64e77d7b61f440b60e28659d","64eca321a2ce9e665856b43c","null","null","<p style=""font-size: 60px; font-family: BACS"">kDRKcOBT</p>","","","","","","","","","",""
"html-keyboard-response","197","337454","0.0-11.0-0.28","60fd913b3fd4aeea9829cff3","64e77d7b61f440b60e28659d","64eca321a2ce9e665856b43c","null","null","<p style=""font-size: 60px; font-family: BACS"">mkmJNJUNa</p>","","","","","","","","","",""
"html-keyboard-response","198","338462","0.0-11.0-0.29","60fd913b3fd4aeea9829cff3","64e77d7b61f440b60e28659d","64eca321a2ce9e665856b43c","null","null","<p style=""font-size: 60px; font-family: BACS"">NulkJcUk</p>","","","","","","","","","",""
"html-keyboard-response","199","339478","0.0-11.0-0.30","60fd913b3fd4aeea9829cff3","64e77d7b61f440b60e28659d","64eca321a2ce9e665856b43c","null","null","<p style=""font-size: 60px; font-family: BACS"">chAhMCkm</p>","","","","","","","","","",""
"html-keyboard-response","200","340494","0.0-11.0-0.31","60fd913b3fd4aeea9829cff3","64e77d7b61f440b60e28659d","64eca321a2ce9e665856b43c","null","null","<p style=""font-size: 60px; font-family: BACS"">PCPDhAPEM</p>","","","","","","","","","",""
"html-keyboard-response","201","341509","0.0-11.0-0.32","60fd913b3fd4aeea9829cff3","64e77d7b61f440b60e28659d","64eca321a2ce9e665856b43c","null","null","<p style=""font-size: 60px; font-family: BACS"">auYAkJUNa</p>","","","","","","","","","",""
"html-keyboard-response","202","342511","0.0-11.0-0.33","60fd913b3fd4aeea9829cff3","64e77d7b61f440b60e28659d","64eca321a2ce9e665856b43c","null","null","<p style=""font-size: 60px; font-family: BACS"">rLaZvJQ</p>","","","","","","","","","",""
"html-keyboard-response","203","343519","0.0-11.0-0.34","60fd913b3fd4aeea9829cff3","64e77d7b61f440b60e28659d","64eca321a2ce9e665856b43c","null","null","<p style=""font-size: 60px; font-family: BACS"">DlDdMCkm</p>","","","","","","","","","",""
"html-keyboard-response","204","344522","0.0-11.0-0.35","60fd913b3fd4aeea9829cff3","64e77d7b61f440b60e28659d","64eca321a2ce9e665856b43c","null","null","<p style=""font-size: 60px; font-family: BACS"">PCPDhEcR</p>","","","","","","","","","",""
"html-keyboard-response","205","345528","0.0-11.0-0.36","60fd913b3fd4aeea9829cff3","64e77d7b61f440b60e28659d","64eca321a2ce9e665856b43c","null","null","<p style=""font-size: 60px; font-family: BACS"">bYuQYaum</p>","","","","","","","","","",""
"html-keyboard-response","206","346549","0.0-11.0-0.37","60fd913b3fd4aeea9829cff3","64e77d7b61f440b60e28659d","64eca321a2ce9e665856b43c","null","null","<p style=""font-size: 60px; font-family: BACS"">krGuvJQ</p>","","","","","","","","","",""
"html-keyboard-response","207","347560","0.0-11.0-0.38","60fd913b3fd4aeea9829cff3","64e77d7b61f440b60e28659d","64eca321a2ce9e665856b43c","null","null","<p style=""font-size: 60px; font-family: BACS"">chAhAdYl</p>","","","","","","","","","",""
"html-keyboard-response","208","348570","0.0-11.0-0.39","60fd913b3fd4aeea9829cff3","64e77d7b61f440b60e28659d","64eca321a2ce9e665856b43c","null","null","<p style=""font-size: 60px; font-family: BACS"">DlDdOBT</p>","","","","","","","","","",""
"html-keyboard-response","209","349577","0.0-11.0-0.40","60fd913b3fd4aeea9829cff3","64e77d7b61f440b60e28659d","64eca321a2ce9e665856b43c","null","null","<p style=""font-size: 60px; font-family: BACS"">OmtlDAdYl</p>","","","","","","","","","",""
"html-keyboard-response","210","350586","0.0-11.0-0.41","60fd913b3fd4aeea9829cff3","64e77d7b61f440b60e28659d","64eca321a2ce9e665856b43c","null","null","<p style=""font-size: 60px; font-family: BACS"">rLaZmkc</p>","","","","","","","","","",""
"html-keyboard-response","211","351595","0.0-11.0-0.42","60fd913b3fd4aeea9829cff3","64e77d7b61f440b60e28659d","64eca321a2ce9e665856b43c","null","null","<p style=""font-size: 60px; font-family: BACS"">DdckMCkm</p>","","","","","","","","","",""
"html-keyboard-response","212","352610","0.0-11.0-0.43","60fd913b3fd4aeea9829cff3","64e77d7b61f440b60e28659d","64eca321a2ce9e665856b43c","null","null","<p style=""font-size: 60px; font-family: BACS"">kDRKcEcR</p>","","","","","","","","","",""
"html-keyboard-response","213","353619","0.0-11.0-0.44","60fd913b3fd4aeea9829cff3","64e77d7b61f440b60e28659d","64eca321a2ce9e665856b43c","null","null","<p style=""font-size: 60px; font-family: BACS"">bYuQvJQ</p>","","","","","","","","","",""
"html-keyboard-response","214","354626","0.0-11.0-0.45","60fd913b3fd4aeea9829cff3","64e77d7b61f440b60e28659d","64eca321a2ce9e665856b43c","null","null","<p style=""font-size: 60px; font-family: BACS"">dkLlJcUk</p>","","","","","","","","","",""
"html-keyboard-response","215","355636","0.0-11.0-0.46","60fd913b3fd4aeea9829cff3","64e77d7b61f440b60e28659d","64eca321a2ce9e665856b43c","null","null","<p style=""font-size: 60px; font-family: BACS"">mkmJNmkc</p>","","","","","","","","","",""
"html-keyboard-response","216","356640","0.0-11.0-0.47","60fd913b3fd4aeea9829cff3","64e77d7b61f440b60e28659d","64eca321a2ce9e665856b43c","null","null","<p style=""font-size: 60px; font-family: BACS"">CkBOPAdYl</p>","","","","","","","","","",""
"html-keyboard-response","217","357656","0.0-11.0-0.48","60fd913b3fd4aeea9829cff3","64e77d7b61f440b60e28659d","64eca321a2ce9e665856b43c","null","null","<p style=""font-size: 60px; font-family: BACS"">bYuQJUNa</p>","","","","","","","","","",""
"html-keyboard-response","218","358661","0.0-11.0-0.49","60fd913b3fd4aeea9829cff3","64e77d7b61f440b60e28659d","64eca321a2ce9e665856b43c","null","null","<p style=""font-size: 60px; font-family: BACS"">CkBOPMCkm</p>","","","","","","","","","",""
"html-keyboard-response","219","359671","0.0-11.0-0.50","60fd913b3fd4aeea9829cff3","64e77d7b61f440b60e28659d","64eca321a2ce9e665856b43c","null","null","<p style=""font-size: 60px; font-family: BACS"">kKRCEcR</p>","","","","","","","","","",""
"html-keyboard-response","220","360678","0.0-11.0-0.51","60fd913b3fd4aeea9829cff3","64e77d7b61f440b60e28659d","64eca321a2ce9e665856b43c","null","null","<p style=""font-size: 60px; font-family: BACS"">PCPDhOBT</p>","","","","","","","","","",""
"html-keyboard-response","221","361695","0.0-11.0-0.52","60fd913b3fd4aeea9829cff3","64e77d7b61f440b60e28659d","64eca321a2ce9e665856b43c","null","null","<p style=""font-size: 60px; font-family: BACS"">chAhEcR</p>","","","","","","","","","",""
"html-keyboard-response","222","362711","0.0-11.0-0.53","60fd913b3fd4aeea9829cff3","64e77d7b61f440b60e28659d","64eca321a2ce9e665856b43c","null","null","<p style=""font-size: 60px; font-family: BACS"">NulkJUNa</p>","","","","","","","","","",""
"html-keyboard-response","223","363727","0.0-11.0-0.54","60fd913b3fd4aeea9829cff3","64e77d7b61f440b60e28659d","64eca321a2ce9e665856b43c","null","null","<p style=""font-size: 60px; font-family: BACS"">uAkrJcUk</p>","","","","","","","","","",""
"html-keyboard-response","224","364742","0.0-11.0-0.55","60fd913b3fd4aeea9829cff3","64e77d7b61f440b60e28659d","64eca321a2ce9e665856b43c","null","null","<p style=""font-size: 60px; font-family: BACS"">PCPDhMCkm</p>","","","","","","","","","",""
"html-keyboard-response","225","365754","0.0-11.0-0.56","60fd913b3fd4aeea9829cff3","64e77d7b61f440b60e28659d","64eca321a2ce9e665856b43c","null","null","<p style=""font-size: 60px; font-family: BACS"">krGuJcUk</p>","","","","","","","","","",""
"html-keyboard-response","226","366760","0.0-11.0-0.57","60fd913b3fd4aeea9829cff3","64e77d7b61f440b60e28659d","64eca321a2ce9e665856b43c","null","null","<p style=""font-size: 60px; font-family: BACS"">tdDdMCkm</p>","","","","","","","","","",""
"html-keyboard-response","227","367776","0.0-11.0-0.58","60fd913b3fd4aeea9829cff3","64e77d7b61f440b60e28659d","64eca321a2ce9e665856b43c","null","null","<p style=""font-size: 60px; font-family: BACS"">DlDdAPEM</p>","","","","","","","","","",""
"html-keyboard-response","228","368783","0.0-11.0-0.59","60fd913b3fd4aeea9829cff3","64e77d7b61f440b60e28659d","64eca321a2ce9e665856b43c","null","null","<p style=""font-size: 60px; font-family: BACS"">bYuQmkc</p>","","","","","","","","","",""
"html-keyboard-response","229","369800","0.0-11.0-0.60","60fd913b3fd4aeea9829cff3","64e77d7b61f440b60e28659d","64eca321a2ce9e665856b43c","null","null","<p style=""font-size: 60px; font-family: BACS"">rLaZYaum</p>","","","","","","","","","",""
"html-keyboard-response","230","370809","0.0-11.0-0.61","60fd913b3fd4aeea9829cff3","64e77d7b61f440b60e28659d","64eca321a2ce9e665856b43c","null","null","<p style=""font-size: 60px; font-family: BACS"">DdckOBT</p>","","","","","","","","","",""
"html-keyboard-response","231","371818","0.0-11.0-0.62","60fd913b3fd4aeea9829cff3","64e77d7b61f440b60e28659d","64eca321a2ce9e665856b43c","null","null","<p style=""font-size: 60px; font-family: BACS"">kDRKcAPEM</p>","","","","","","","","","",""
"html-keyboard-response","232","372830","0.0-11.0-0.63","60fd913b3fd4aeea9829cff3","64e77d7b61f440b60e28659d","64eca321a2ce9e665856b43c","null","null","<p style=""font-size: 60px; font-family: BACS"">auYAkYaum</p>","","","","","","","","","",""
"html-keyboard-response","233","373837","0.0-11.0-0.64","60fd913b3fd4aeea9829cff3","64e77d7b61f440b60e28659d","64eca321a2ce9e665856b43c","null","null","<p style=""font-size: 60px; font-family: BACS"">khmhEcR</p>","","","","","","","","","",""
"html-keyboard-response","234","374850","0.0-11.0-0.65","60fd913b3fd4aeea9829cff3","64e77d7b61f440b60e28659d","64eca321a2ce9e665856b43c","null","null","<p style=""font-size: 60px; font-family: BACS"">kKRCOBT</p>","","","","","","","","","",""
"html-keyboard-response","235","375866","0.0-11.0-0.66","60fd913b3fd4aeea9829cff3","64e77d7b61f440b60e28659d","64eca321a2ce9e665856b43c","null","null","<p style=""font-size: 60px; font-family: BACS"">OmtlDEcR</p>","","","","","","","","","",""
"html-keyboard-response","236","376881","0.0-11.0-0.67","60fd913b3fd4aeea9829cff3","64e77d7b61f440b60e28659d","64eca321a2ce9e665856b43c","null","null","<p style=""font-size: 60px; font-family: BACS"">auYAkJcUk</p>","","","","","","","","","",""
"html-keyboard-response","237","377892","0.0-11.0-0.68","60fd913b3fd4aeea9829cff3","64e77d7b61f440b60e28659d","64eca321a2ce9e665856b43c","null","null","<p style=""font-size: 60px; font-family: BACS"">chAhAPEM</p>","","","","","","","","","",""
"html-keyboard-response","238","378894","0.0-11.0-0.69","60fd913b3fd4aeea9829cff3","64e77d7b61f440b60e28659d","64eca321a2ce9e665856b43c","null","null","<p style=""font-size: 60px; font-family: BACS"">tdDdAdYl</p>","","","","","","","","","",""
"html-keyboard-response","239","379897","0.0-11.0-0.70","60fd913b3fd4aeea9829cff3","64e77d7b61f440b60e28659d","64eca321a2ce9e665856b43c","null","null","<p style=""font-size: 60px; font-family: BACS"">OmtlDAPEM</p>","","","","","","","","","",""
"html-keyboard-response","240","380901","0.0-11.0-0.71","60fd913b3fd4aeea9829cff3","64e77d7b61f440b60e28659d","64eca321a2ce9e665856b43c","null","null","<p style=""font-size: 60px; font-family: BACS"">rLaZJcUk</p>","","","","","","","","","",""
"html-keyboard-response","241","381916","0.0-11.0-0.72","60fd913b3fd4aeea9829cff3","64e77d7b61f440b60e28659d","64eca321a2ce9e665856b43c","null","null","<p style=""font-size: 60px; font-family: BACS"">NulkYaum</p>","","","","","","","","","",""
"html-keyboard-response","242","382918","0.0-11.0-0.73","60fd913b3fd4aeea9829cff3","64e77d7b61f440b60e28659d","64eca321a2ce9e665856b43c","null","null","<p style=""font-size: 60px; font-family: BACS"">khmhOBT</p>","","","","","","","","","",""
"html-keyboard-response","243","383932","0.0-11.0-0.74","60fd913b3fd4aeea9829cff3","64e77d7b61f440b60e28659d","64eca321a2ce9e665856b43c","null","null","<p style=""font-size: 60px; font-family: BACS"">dGLAlYaum</p>","","","","","","","","","",""
"html-keyboard-response","244","384934","0.0-11.0-0.75","60fd913b3fd4aeea9829cff3","64e77d7b61f440b60e28659d","64eca321a2ce9e665856b43c","null","null","<p style=""font-size: 60px; font-family: BACS"">krGumkc</p>","","","","","","","","","",""
"html-keyboard-response","245","385941","0.0-11.0-0.76","60fd913b3fd4aeea9829cff3","64e77d7b61f440b60e28659d","64eca321a2ce9e665856b43c","null","null","<p style=""font-size: 60px; font-family: BACS"">mkmJNJcUk</p>","","","","","","","","","",""
"html-keyboard-response","246","386951","0.0-11.0-0.77","60fd913b3fd4aeea9829cff3","64e77d7b61f440b60e28659d","64eca321a2ce9e665856b43c","null","null","<p style=""font-size: 60px; font-family: BACS"">dkLlJUNa</p>","","","","","","","","","",""
"html-keyboard-response","247","387959","0.0-11.0-0.78","60fd913b3fd4aeea9829cff3","64e77d7b61f440b60e28659d","64eca321a2ce9e665856b43c","null","null","<p style=""font-size: 60px; font-family: BACS"">DdckAdYl</p>","","","","","","","","","",""
"html-keyboard-response","248","388966","0.0-11.0-0.79","60fd913b3fd4aeea9829cff3","64e77d7b61f440b60e28659d","64eca321a2ce9e665856b43c","null","null","<p style=""font-size: 60px; font-family: BACS"">kKRCAPEM</p>","","","","","","","","","",""
"html-keyboard-response","249","401019","0.0-12.0","60fd913b3fd4aeea9829cff3","64e77d7b61f440b60e28659d","64eca321a2ce9e665856b43c","12052"," ","<p>Great, you've seen the third block of words. You may now take a short break.</p>
      <p>Press the spacebar when you're ready to continue.</p>","","","","","","","","","",""
"html-keyboard-response","250","402025","0.0-13.0-0.0","60fd913b3fd4aeea9829cff3","64e77d7b61f440b60e28659d","64eca321a2ce9e665856b43c","null","null","<p style=""font-size: 60px; font-family: BACS"">OmtlDAdYl</p>","","","","","","","","","",""
"html-keyboard-response","251","403033","0.0-13.0-0.1","60fd913b3fd4aeea9829cff3","64e77d7b61f440b60e28659d","64eca321a2ce9e665856b43c","null","null","<p style=""font-size: 60px; font-family: BACS"">kKRCEcR</p>","","","","","","","","","",""
"html-keyboard-response","252","404034","0.0-13.0-0.2","60fd913b3fd4aeea9829cff3","64e77d7b61f440b60e28659d","64eca321a2ce9e665856b43c","null","null","<p style=""font-size: 60px; font-family: BACS"">NulkYaum</p>","","","","","","","","","",""
"html-keyboard-response","253","405050","0.0-13.0-0.3","60fd913b3fd4aeea9829cff3","64e77d7b61f440b60e28659d","64eca321a2ce9e665856b43c","null","null","<p style=""font-size: 60px; font-family: BACS"">CkBOPMCkm</p>","","","","","","","","","",""
"html-keyboard-response","254","406051","0.0-13.0-0.4","60fd913b3fd4aeea9829cff3","64e77d7b61f440b60e28659d","64eca321a2ce9e665856b43c","null","null","<p style=""font-size: 60px; font-family: BACS"">NulkJUNa</p>","","","","","","","","","",""
"html-keyboard-response","255","407066","0.0-13.0-0.5","60fd913b3fd4aeea9829cff3","64e77d7b61f440b60e28659d","64eca321a2ce9e665856b43c","null","null","<p style=""font-size: 60px; font-family: BACS"">khmhAdYl</p>","","","","","","","","","",""
"html-keyboard-response","256","408069","0.0-13.0-0.6","60fd913b3fd4aeea9829cff3","64e77d7b61f440b60e28659d","64eca321a2ce9e665856b43c","null","null","<p style=""font-size: 60px; font-family: BACS"">krGumkc</p>","","","","","","","","","",""
"html-keyboard-response","257","409074","0.0-13.0-0.7","60fd913b3fd4aeea9829cff3","64e77d7b61f440b60e28659d","64eca321a2ce9e665856b43c","null","null","<p style=""font-size: 60px; font-family: BACS"">OmtlDEcR</p>","","","","","","","","","",""
"html-keyboard-response","258","410083","0.0-13.0-0.8","60fd913b3fd4aeea9829cff3","64e77d7b61f440b60e28659d","64eca321a2ce9e665856b43c","null","null","<p style=""font-size: 60px; font-family: BACS"">UdYUQJUNa</p>","","","","","","","","","",""
"html-keyboard-response","259","411100","0.0-13.0-0.9","60fd913b3fd4aeea9829cff3","64e77d7b61f440b60e28659d","64eca321a2ce9e665856b43c","null","null","<p style=""font-size: 60px; font-family: BACS"">OmtlDAPEM</p>","","","","","","","","","",""
"html-keyboard-response","260","412116","0.0-13.0-0.10","60fd913b3fd4aeea9829cff3","64e77d7b61f440b60e28659d","64eca321a2ce9e665856b43c","null","null","<p style=""font-size: 60px; font-family: BACS"">CkBOPOBT</p>","","","","","","","","","",""
"html-keyboard-response","261","413132","0.0-13.0-0.11","60fd913b3fd4aeea9829cff3","64e77d7b61f440b60e28659d","64eca321a2ce9e665856b43c","null","null","<p style=""font-size: 60px; font-family: BACS"">PCPDhEcR</p>","","","","","","","","","",""
"html-keyboard-response","262","414144","0.0-13.0-0.12","60fd913b3fd4aeea9829cff3","64e77d7b61f440b60e28659d","64eca321a2ce9e665856b43c","null","null","<p style=""font-size: 60px; font-family: BACS"">tdDdMCkm</p>","","","","","","","","","",""
"html-keyboard-response","263","415149","0.0-13.0-0.13","60fd913b3fd4aeea9829cff3","64e77d7b61f440b60e28659d","64eca321a2ce9e665856b43c","null","null","<p style=""font-size: 60px; font-family: BACS"">dGLAlYaum</p>","","","","","","","","","",""
"html-keyboard-response","264","416164","0.0-13.0-0.14","60fd913b3fd4aeea9829cff3","64e77d7b61f440b60e28659d","64eca321a2ce9e665856b43c","null","null","<p style=""font-size: 60px; font-family: BACS"">krGuJcUk</p>","","","","","","","","","",""
"html-keyboard-response","265","417176","0.0-13.0-0.15","60fd913b3fd4aeea9829cff3","64e77d7b61f440b60e28659d","64eca321a2ce9e665856b43c","null","null","<p style=""font-size: 60px; font-family: BACS"">uAkrYaum</p>","","","","","","","","","",""
"html-keyboard-response","266","418183","0.0-13.0-0.16","60fd913b3fd4aeea9829cff3","64e77d7b61f440b60e28659d","64eca321a2ce9e665856b43c","null","null","<p style=""font-size: 60px; font-family: BACS"">kDRKcAPEM</p>","","","","","","","","","",""
"html-keyboard-response","267","419196","0.0-13.0-0.17","60fd913b3fd4aeea9829cff3","64e77d7b61f440b60e28659d","64eca321a2ce9e665856b43c","null","null","<p style=""font-size: 60px; font-family: BACS"">NulkJcUk</p>","","","","","","","","","",""
"html-keyboard-response","268","420212","0.0-13.0-0.18","60fd913b3fd4aeea9829cff3","64e77d7b61f440b60e28659d","64eca321a2ce9e665856b43c","null","null","<p style=""font-size: 60px; font-family: BACS"">rLaZmkc</p>","","","","","","","","","",""
"html-keyboard-response","269","421216","0.0-13.0-0.19","60fd913b3fd4aeea9829cff3","64e77d7b61f440b60e28659d","64eca321a2ce9e665856b43c","null","null","<p style=""font-size: 60px; font-family: BACS"">krGuvJQ</p>","","","","","","","","","",""
"html-keyboard-response","270","422218","0.0-13.0-0.20","60fd913b3fd4aeea9829cff3","64e77d7b61f440b60e28659d","64eca321a2ce9e665856b43c","null","null","<p style=""font-size: 60px; font-family: BACS"">PCPDhAPEM</p>","","","","","","","","","",""
"html-keyboard-response","271","423227","0.0-13.0-0.21","60fd913b3fd4aeea9829cff3","64e77d7b61f440b60e28659d","64eca321a2ce9e665856b43c","null","null","<p style=""font-size: 60px; font-family: BACS"">DdckAdYl</p>","","","","","","","","","",""
"html-keyboard-response","272","424229","0.0-13.0-0.22","60fd913b3fd4aeea9829cff3","64e77d7b61f440b60e28659d","64eca321a2ce9e665856b43c","null","null","<p style=""font-size: 60px; font-family: BACS"">dGLAlJUNa</p>","","","","","","","","","",""
"html-keyboard-response","273","425234","0.0-13.0-0.23","60fd913b3fd4aeea9829cff3","64e77d7b61f440b60e28659d","64eca321a2ce9e665856b43c","null","null","<p style=""font-size: 60px; font-family: BACS"">khmhEcR</p>","","","","","","","","","",""
"html-keyboard-response","274","426235","0.0-13.0-0.24","60fd913b3fd4aeea9829cff3","64e77d7b61f440b60e28659d","64eca321a2ce9e665856b43c","null","null","<p style=""font-size: 60px; font-family: BACS"">uAkrJUNa</p>","","","","","","","","","",""
"html-keyboard-response","275","427242","0.0-13.0-0.25","60fd913b3fd4aeea9829cff3","64e77d7b61f440b60e28659d","64eca321a2ce9e665856b43c","null","null","<p style=""font-size: 60px; font-family: BACS"">bYuQmkc</p>","","","","","","","","","",""
"html-keyboard-response","276","428249","0.0-13.0-0.26","60fd913b3fd4aeea9829cff3","64e77d7b61f440b60e28659d","64eca321a2ce9e665856b43c","null","null","<p style=""font-size: 60px; font-family: BACS"">auYAkJUNa</p>","","","","","","","","","",""
"html-keyboard-response","277","429265","0.0-13.0-0.27","60fd913b3fd4aeea9829cff3","64e77d7b61f440b60e28659d","64eca321a2ce9e665856b43c","null","null","<p style=""font-size: 60px; font-family: BACS"">mkmJNJcUk</p>","","","","","","","","","",""
"html-keyboard-response","278","430276","0.0-13.0-0.28","60fd913b3fd4aeea9829cff3","64e77d7b61f440b60e28659d","64eca321a2ce9e665856b43c","null","null","<p style=""font-size: 60px; font-family: BACS"">DdckMCkm</p>","","","","","","","","","",""
"html-keyboard-response","279","431288","0.0-13.0-0.29","60fd913b3fd4aeea9829cff3","64e77d7b61f440b60e28659d","64eca321a2ce9e665856b43c","null","null","<p style=""font-size: 60px; font-family: BACS"">DlDdOBT</p>","","","","","","","","","",""
"html-keyboard-response","280","432294","0.0-13.0-0.30","60fd913b3fd4aeea9829cff3","64e77d7b61f440b60e28659d","64eca321a2ce9e665856b43c","null","null","<p style=""font-size: 60px; font-family: BACS"">UdYUQJcUk</p>","","","","","","","","","",""
"html-keyboard-response","281","433295","0.0-13.0-0.31","60fd913b3fd4aeea9829cff3","64e77d7b61f440b60e28659d","64eca321a2ce9e665856b43c","null","null","<p style=""font-size: 60px; font-family: BACS"">bYuQYaum</p>","","","","","","","","","",""
"html-keyboard-response","282","434309","0.0-13.0-0.32","60fd913b3fd4aeea9829cff3","64e77d7b61f440b60e28659d","64eca321a2ce9e665856b43c","null","null","<p style=""font-size: 60px; font-family: BACS"">dkLlJcUk</p>","","","","","","","","","",""
"html-keyboard-response","283","435317","0.0-13.0-0.33","60fd913b3fd4aeea9829cff3","64e77d7b61f440b60e28659d","64eca321a2ce9e665856b43c","null","null","<p style=""font-size: 60px; font-family: BACS"">auYAkvJQ</p>","","","","","","","","","",""
"html-keyboard-response","284","436330","0.0-13.0-0.34","60fd913b3fd4aeea9829cff3","64e77d7b61f440b60e28659d","64eca321a2ce9e665856b43c","null","null","<p style=""font-size: 60px; font-family: BACS"">rLaZYaum</p>","","","","","","","","","",""
"html-keyboard-response","285","437335","0.0-13.0-0.35","60fd913b3fd4aeea9829cff3","64e77d7b61f440b60e28659d","64eca321a2ce9e665856b43c","null","null","<p style=""font-size: 60px; font-family: BACS"">khmhOBT</p>","","","","","","","","","",""
"html-keyboard-response","286","438349","0.0-13.0-0.36","60fd913b3fd4aeea9829cff3","64e77d7b61f440b60e28659d","64eca321a2ce9e665856b43c","null","null","<p style=""font-size: 60px; font-family: BACS"">mkmJNJUNa</p>","","","","","","","","","",""
"html-keyboard-response","287","439365","0.0-13.0-0.37","60fd913b3fd4aeea9829cff3","64e77d7b61f440b60e28659d","64eca321a2ce9e665856b43c","null","null","<p style=""font-size: 60px; font-family: BACS"">kDRKcMCkm</p>","","","","","","","","","",""
"html-keyboard-response","288","440368","0.0-13.0-0.38","60fd913b3fd4aeea9829cff3","64e77d7b61f440b60e28659d","64eca321a2ce9e665856b43c","null","null","<p style=""font-size: 60px; font-family: BACS"">bYuQvJQ</p>","","","","","","","","","",""
"html-keyboard-response","289","441378","0.0-13.0-0.39","60fd913b3fd4aeea9829cff3","64e77d7b61f440b60e28659d","64eca321a2ce9e665856b43c","null","null","<p style=""font-size: 60px; font-family: BACS"">CkBOPAdYl</p>","","","","","","","","","",""
"html-keyboard-response","290","442384","0.0-13.0-0.40","60fd913b3fd4aeea9829cff3","64e77d7b61f440b60e28659d","64eca321a2ce9e665856b43c","null","null","<p style=""font-size: 60px; font-family: BACS"">auYAkYaum</p>","","","","","","","","","",""
"html-keyboard-response","291","443399","0.0-13.0-0.41","60fd913b3fd4aeea9829cff3","64e77d7b61f440b60e28659d","64eca321a2ce9e665856b43c","null","null","<p style=""font-size: 60px; font-family: BACS"">mkmJNmkc</p>","","","","","","","","","",""
"html-keyboard-response","292","444401","0.0-13.0-0.42","60fd913b3fd4aeea9829cff3","64e77d7b61f440b60e28659d","64eca321a2ce9e665856b43c","null","null","<p style=""font-size: 60px; font-family: BACS"">kDRKcEcR</p>","","","","","","","","","",""
"html-keyboard-response","293","445416","0.0-13.0-0.43","60fd913b3fd4aeea9829cff3","64e77d7b61f440b60e28659d","64eca321a2ce9e665856b43c","null","null","<p style=""font-size: 60px; font-family: BACS"">dGLAlmkc</p>","","","","","","","","","",""
"html-keyboard-response","294","446418","0.0-13.0-0.44","60fd913b3fd4aeea9829cff3","64e77d7b61f440b60e28659d","64eca321a2ce9e665856b43c","null","null","<p style=""font-size: 60px; font-family: BACS"">khmhAPEM</p>","","","","","","","","","",""
"html-keyboard-response","295","447432","0.0-13.0-0.45","60fd913b3fd4aeea9829cff3","64e77d7b61f440b60e28659d","64eca321a2ce9e665856b43c","null","null","<p style=""font-size: 60px; font-family: BACS"">PCPDhMCkm</p>","","","","","","","","","",""
"html-keyboard-response","296","448434","0.0-13.0-0.46","60fd913b3fd4aeea9829cff3","64e77d7b61f440b60e28659d","64eca321a2ce9e665856b43c","null","null","<p style=""font-size: 60px; font-family: BACS"">rLaZvJQ</p>","","","","","","","","","",""
"html-keyboard-response","297","449450","0.0-13.0-0.47","60fd913b3fd4aeea9829cff3","64e77d7b61f440b60e28659d","64eca321a2ce9e665856b43c","null","null","<p style=""font-size: 60px; font-family: BACS"">PCPDhOBT</p>","","","","","","","","","",""
"html-keyboard-response","298","450467","0.0-13.0-0.48","60fd913b3fd4aeea9829cff3","64e77d7b61f440b60e28659d","64eca321a2ce9e665856b43c","null","null","<p style=""font-size: 60px; font-family: BACS"">DlDdAdYl</p>","","","","","","","","","",""
"html-keyboard-response","299","451482","0.0-13.0-0.49","60fd913b3fd4aeea9829cff3","64e77d7b61f440b60e28659d","64eca321a2ce9e665856b43c","null","null","<p style=""font-size: 60px; font-family: BACS"">chAhEcR</p>","","","","","","","","","",""
"html-keyboard-response","300","452499","0.0-13.0-0.50","60fd913b3fd4aeea9829cff3","64e77d7b61f440b60e28659d","64eca321a2ce9e665856b43c","null","null","<p style=""font-size: 60px; font-family: BACS"">kKRCOBT</p>","","","","","","","","","",""
"html-keyboard-response","301","453511","0.0-13.0-0.51","60fd913b3fd4aeea9829cff3","64e77d7b61f440b60e28659d","64eca321a2ce9e665856b43c","null","null","<p style=""font-size: 60px; font-family: BACS"">uAkrJcUk</p>","","","","","","","","","",""
"html-keyboard-response","302","454517","0.0-13.0-0.52","60fd913b3fd4aeea9829cff3","64e77d7b61f440b60e28659d","64eca321a2ce9e665856b43c","null","null","<p style=""font-size: 60px; font-family: BACS"">tdDdEcR</p>","","","","","","","","","",""
"html-keyboard-response","303","455526","0.0-13.0-0.53","60fd913b3fd4aeea9829cff3","64e77d7b61f440b60e28659d","64eca321a2ce9e665856b43c","null","null","<p style=""font-size: 60px; font-family: BACS"">rLaZJcUk</p>","","","","","","","","","",""
"html-keyboard-response","304","456534","0.0-13.0-0.54","60fd913b3fd4aeea9829cff3","64e77d7b61f440b60e28659d","64eca321a2ce9e665856b43c","null","null","<p style=""font-size: 60px; font-family: BACS"">kKRCAdYl</p>","","","","","","","","","",""
"html-keyboard-response","305","457550","0.0-13.0-0.55","60fd913b3fd4aeea9829cff3","64e77d7b61f440b60e28659d","64eca321a2ce9e665856b43c","null","null","<p style=""font-size: 60px; font-family: BACS"">kDRKcOBT</p>","","","","","","","","","",""
"html-keyboard-response","306","458559","0.0-13.0-0.56","60fd913b3fd4aeea9829cff3","64e77d7b61f440b60e28659d","64eca321a2ce9e665856b43c","null","null","<p style=""font-size: 60px; font-family: BACS"">chAhAPEM</p>","","","","","","","","","",""
"html-keyboard-response","307","459567","0.0-13.0-0.57","60fd913b3fd4aeea9829cff3","64e77d7b61f440b60e28659d","64eca321a2ce9e665856b43c","null","null","<p style=""font-size: 60px; font-family: BACS"">dGLAlvJQ</p>","","","","","","","","","",""
"html-keyboard-response","308","460575","0.0-13.0-0.58","60fd913b3fd4aeea9829cff3","64e77d7b61f440b60e28659d","64eca321a2ce9e665856b43c","null","null","<p style=""font-size: 60px; font-family: BACS"">dkLlYaum</p>","","","","","","","","","",""
"html-keyboard-response","309","461583","0.0-13.0-0.59","60fd913b3fd4aeea9829cff3","64e77d7b61f440b60e28659d","64eca321a2ce9e665856b43c","null","null","<p style=""font-size: 60px; font-family: BACS"">DlDdAPEM</p>","","","","","","","","","",""
"html-keyboard-response","310","462588","0.0-13.0-0.60","60fd913b3fd4aeea9829cff3","64e77d7b61f440b60e28659d","64eca321a2ce9e665856b43c","null","null","<p style=""font-size: 60px; font-family: BACS"">DdckOBT</p>","","","","","","","","","",""
"html-keyboard-response","311","463600","0.0-13.0-0.61","60fd913b3fd4aeea9829cff3","64e77d7b61f440b60e28659d","64eca321a2ce9e665856b43c","null","null","<p style=""font-size: 60px; font-family: BACS"">CkBOPEcR</p>","","","","","","","","","",""
"html-keyboard-response","312","464614","0.0-13.0-0.62","60fd913b3fd4aeea9829cff3","64e77d7b61f440b60e28659d","64eca321a2ce9e665856b43c","null","null","<p style=""font-size: 60px; font-family: BACS"">kKRCAPEM</p>","","","","","","","","","",""
"html-keyboard-response","313","465617","0.0-13.0-0.63","60fd913b3fd4aeea9829cff3","64e77d7b61f440b60e28659d","64eca321a2ce9e665856b43c","null","null","<p style=""font-size: 60px; font-family: BACS"">UdYUQmkc</p>","","","","","","","","","",""
"html-keyboard-response","314","466633","0.0-13.0-0.64","60fd913b3fd4aeea9829cff3","64e77d7b61f440b60e28659d","64eca321a2ce9e665856b43c","null","null","<p style=""font-size: 60px; font-family: BACS"">chAhMCkm</p>","","","","","","","","","",""
"html-keyboard-response","315","467643","0.0-13.0-0.65","60fd913b3fd4aeea9829cff3","64e77d7b61f440b60e28659d","64eca321a2ce9e665856b43c","null","null","<p style=""font-size: 60px; font-family: BACS"">tdDdAdYl</p>","","","","","","","","","",""
"html-keyboard-response","316","468651","0.0-13.0-0.66","60fd913b3fd4aeea9829cff3","64e77d7b61f440b60e28659d","64eca321a2ce9e665856b43c","null","null","<p style=""font-size: 60px; font-family: BACS"">dkLlJUNa</p>","","","","","","","","","",""
"html-keyboard-response","317","469661","0.0-13.0-0.67","60fd913b3fd4aeea9829cff3","64e77d7b61f440b60e28659d","64eca321a2ce9e665856b43c","null","null","<p style=""font-size: 60px; font-family: BACS"">NulkvJQ</p>","","","","","","","","","",""
"html-keyboard-response","318","470678","0.0-13.0-0.68","60fd913b3fd4aeea9829cff3","64e77d7b61f440b60e28659d","64eca321a2ce9e665856b43c","null","null","<p style=""font-size: 60px; font-family: BACS"">DdckAPEM</p>","","","","","","","","","",""
"html-keyboard-response","319","471684","0.0-13.0-0.69","60fd913b3fd4aeea9829cff3","64e77d7b61f440b60e28659d","64eca321a2ce9e665856b43c","null","null","<p style=""font-size: 60px; font-family: BACS"">mkmJNvJQ</p>","","","","","","","","","",""
"html-keyboard-response","320","472685","0.0-13.0-0.70","60fd913b3fd4aeea9829cff3","64e77d7b61f440b60e28659d","64eca321a2ce9e665856b43c","null","null","<p style=""font-size: 60px; font-family: BACS"">tdDdOBT</p>","","","","","","","","","",""
"html-keyboard-response","321","473694","0.0-13.0-0.71","60fd913b3fd4aeea9829cff3","64e77d7b61f440b60e28659d","64eca321a2ce9e665856b43c","null","null","<p style=""font-size: 60px; font-family: BACS"">uAkrmkc</p>","","","","","","","","","",""
"html-keyboard-response","322","474700","0.0-13.0-0.72","60fd913b3fd4aeea9829cff3","64e77d7b61f440b60e28659d","64eca321a2ce9e665856b43c","null","null","<p style=""font-size: 60px; font-family: BACS"">auYAkJcUk</p>","","","","","","","","","",""
"html-keyboard-response","323","475710","0.0-13.0-0.73","60fd913b3fd4aeea9829cff3","64e77d7b61f440b60e28659d","64eca321a2ce9e665856b43c","null","null","<p style=""font-size: 60px; font-family: BACS"">OmtlDMCkm</p>","","","","","","","","","",""
"html-keyboard-response","324","476717","0.0-13.0-0.74","60fd913b3fd4aeea9829cff3","64e77d7b61f440b60e28659d","64eca321a2ce9e665856b43c","null","null","<p style=""font-size: 60px; font-family: BACS"">UdYUQvJQ</p>","","","","","","","","","",""
"html-keyboard-response","325","477726","0.0-13.0-0.75","60fd913b3fd4aeea9829cff3","64e77d7b61f440b60e28659d","64eca321a2ce9e665856b43c","null","null","<p style=""font-size: 60px; font-family: BACS"">chAhAdYl</p>","","","","","","","","","",""
"html-keyboard-response","326","478734","0.0-13.0-0.76","60fd913b3fd4aeea9829cff3","64e77d7b61f440b60e28659d","64eca321a2ce9e665856b43c","null","null","<p style=""font-size: 60px; font-family: BACS"">krGuYaum</p>","","","","","","","","","",""
"html-keyboard-response","327","479742","0.0-13.0-0.77","60fd913b3fd4aeea9829cff3","64e77d7b61f440b60e28659d","64eca321a2ce9e665856b43c","null","null","<p style=""font-size: 60px; font-family: BACS"">DlDdMCkm</p>","","","","","","","","","",""
"html-keyboard-response","328","480752","0.0-13.0-0.78","60fd913b3fd4aeea9829cff3","64e77d7b61f440b60e28659d","64eca321a2ce9e665856b43c","null","null","<p style=""font-size: 60px; font-family: BACS"">dkLlmkc</p>","","","","","","","","","",""
"html-keyboard-response","329","481769","0.0-13.0-0.79","60fd913b3fd4aeea9829cff3","64e77d7b61f440b60e28659d","64eca321a2ce9e665856b43c","null","null","<p style=""font-size: 60px; font-family: BACS"">bYuQJUNa</p>","","","","","","","","","",""
"html-keyboard-response","330","495620","0.0-14.0","60fd913b3fd4aeea9829cff3","64e77d7b61f440b60e28659d","64eca321a2ce9e665856b43c","13852"," ","<p>Great, you've seen the fourth block of words. You may now take a short break.</p>
      <p>Press the spacebar when you're ready to continue.</p>","","","","","","","","","",""
"html-keyboard-response","331","496624","0.0-15.0-0.0","60fd913b3fd4aeea9829cff3","64e77d7b61f440b60e28659d","64eca321a2ce9e665856b43c","null","null","<p style=""font-size: 60px; font-family: BACS"">mkmJNJcUk</p>","","","","","","","","","",""
"html-keyboard-response","332","497631","0.0-15.0-0.1","60fd913b3fd4aeea9829cff3","64e77d7b61f440b60e28659d","64eca321a2ce9e665856b43c","null","null","<p style=""font-size: 60px; font-family: BACS"">mkmJNJcUk</p>","","","","","","","","","",""
"html-keyboard-response","333","498633","0.0-15.0-0.2","60fd913b3fd4aeea9829cff3","64e77d7b61f440b60e28659d","64eca321a2ce9e665856b43c","null","null","<p style=""font-size: 60px; font-family: BACS"">mkmJNJcUk</p>","","","","","","","","","",""
"html-keyboard-response","334","499648","0.0-15.0-0.3","60fd913b3fd4aeea9829cff3","64e77d7b61f440b60e28659d","64eca321a2ce9e665856b43c","null","null","<p style=""font-size: 60px; font-family: BACS"">mkmJNJcUk</p>","","","","","","","","","",""
"html-keyboard-response","335","500651","0.0-15.0-0.4","60fd913b3fd4aeea9829cff3","64e77d7b61f440b60e28659d","64eca321a2ce9e665856b43c","null","null","<p style=""font-size: 60px; font-family: BACS"">mkmJNJcUk</p>","","","","","","","","","",""
"html-keyboard-response","336","501665","0.0-15.0-0.5","60fd913b3fd4aeea9829cff3","64e77d7b61f440b60e28659d","64eca321a2ce9e665856b43c","null","null","<p style=""font-size: 60px; font-family: BACS"">mkmJNJcUk</p>","","","","","","","","","",""
"html-keyboard-response","337","502674","0.0-15.0-0.6","60fd913b3fd4aeea9829cff3","64e77d7b61f440b60e28659d","64eca321a2ce9e665856b43c","null","null","<p style=""font-size: 60px; font-family: BACS"">mkmJNJcUk</p>","","","","","","","","","",""
"html-keyboard-response","338","503682","0.0-15.0-0.7","60fd913b3fd4aeea9829cff3","64e77d7b61f440b60e28659d","64eca321a2ce9e665856b43c","null","null","<p style=""font-size: 60px; font-family: BACS"">mkmJNJcUk</p>","","","","","","","","","",""
"html-keyboard-response","339","504697","0.0-15.0-0.8","60fd913b3fd4aeea9829cff3","64e77d7b61f440b60e28659d","64eca321a2ce9e665856b43c","null","null","<p style=""font-size: 60px; font-family: BACS"">mkmJNJcUk</p>","","","","","","","","","",""
"html-keyboard-response","340","505711","0.0-15.0-0.9","60fd913b3fd4aeea9829cff3","64e77d7b61f440b60e28659d","64eca321a2ce9e665856b43c","null","null","<p style=""font-size: 60px; font-family: BACS"">mkmJNJcUk</p>","","","","","","","","","",""
"html-keyboard-response","341","506725","0.0-15.0-0.10","60fd913b3fd4aeea9829cff3","64e77d7b61f440b60e28659d","64eca321a2ce9e665856b43c","null","null","<p style=""font-size: 60px; font-family: BACS"">mkmJNJcUk</p>","","","","","","","","","",""
"html-keyboard-response","342","507730","0.0-15.0-0.11","60fd913b3fd4aeea9829cff3","64e77d7b61f440b60e28659d","64eca321a2ce9e665856b43c","null","null","<p style=""font-size: 60px; font-family: BACS"">mkmJNJcUk</p>","","","","","","","","","",""
"html-keyboard-response","343","508742","0.0-15.0-0.12","60fd913b3fd4aeea9829cff3","64e77d7b61f440b60e28659d","64eca321a2ce9e665856b43c","null","null","<p style=""font-size: 60px; font-family: BACS"">mkmJNJcUk</p>","","","","","","","","","",""
"html-keyboard-response","344","509750","0.0-15.0-0.13","60fd913b3fd4aeea9829cff3","64e77d7b61f440b60e28659d","64eca321a2ce9e665856b43c","null","null","<p style=""font-size: 60px; font-family: BACS"">mkmJNJcUk</p>","","","","","","","","","",""
"html-keyboard-response","345","510758","0.0-15.0-0.14","60fd913b3fd4aeea9829cff3","64e77d7b61f440b60e28659d","64eca321a2ce9e665856b43c","null","null","<p style=""font-size: 60px; font-family: BACS"">mkmJNJcUk</p>","","","","","","","","","",""
"html-keyboard-response","346","511765","0.0-15.0-0.15","60fd913b3fd4aeea9829cff3","64e77d7b61f440b60e28659d","64eca321a2ce9e665856b43c","null","null","<p style=""font-size: 60px; font-family: BACS"">mkmJNJcUk</p>","","","","","","","","","",""
"html-keyboard-response","347","512767","0.0-15.0-0.16","60fd913b3fd4aeea9829cff3","64e77d7b61f440b60e28659d","64eca321a2ce9e665856b43c","null","null","<p style=""font-size: 60px; font-family: BACS"">mkmJNJcUk</p>","","","","","","","","","",""
"html-keyboard-response","348","513775","0.0-15.0-0.17","60fd913b3fd4aeea9829cff3","64e77d7b61f440b60e28659d","64eca321a2ce9e665856b43c","null","null","<p style=""font-size: 60px; font-family: BACS"">mkmJNJcUk</p>","","","","","","","","","",""
"html-keyboard-response","349","514783","0.0-15.0-0.18","60fd913b3fd4aeea9829cff3","64e77d7b61f440b60e28659d","64eca321a2ce9e665856b43c","null","null","<p style=""font-size: 60px; font-family: BACS"">mkmJNJcUk</p>","","","","","","","","","",""
"html-keyboard-response","350","515798","0.0-15.0-0.19","60fd913b3fd4aeea9829cff3","64e77d7b61f440b60e28659d","64eca321a2ce9e665856b43c","null","null","<p style=""font-size: 60px; font-family: BACS"">mkmJNJcUk</p>","","","","","","","","","",""
"html-keyboard-response","351","516800","0.0-15.0-0.20","60fd913b3fd4aeea9829cff3","64e77d7b61f440b60e28659d","64eca321a2ce9e665856b43c","null","null","<p style=""font-size: 60px; font-family: BACS"">mkmJNJcUk</p>","","","","","","","","","",""
"html-keyboard-response","352","517809","0.0-15.0-0.21","60fd913b3fd4aeea9829cff3","64e77d7b61f440b60e28659d","64eca321a2ce9e665856b43c","null","null","<p style=""font-size: 60px; font-family: BACS"">mkmJNJcUk</p>","","","","","","","","","",""
"html-keyboard-response","353","518815","0.0-15.0-0.22","60fd913b3fd4aeea9829cff3","64e77d7b61f440b60e28659d","64eca321a2ce9e665856b43c","null","null","<p style=""font-size: 60px; font-family: BACS"">mkmJNJcUk</p>","","","","","","","","","",""
"html-keyboard-response","354","519831","0.0-15.0-0.23","60fd913b3fd4aeea9829cff3","64e77d7b61f440b60e28659d","64eca321a2ce9e665856b43c","null","null","<p style=""font-size: 60px; font-family: BACS"">mkmJNJcUk</p>","","","","","","","","","",""
"html-keyboard-response","355","520833","0.0-15.0-0.24","60fd913b3fd4aeea9829cff3","64e77d7b61f440b60e28659d","64eca321a2ce9e665856b43c","null","null","<p style=""font-size: 60px; font-family: BACS"">mkmJNJcUk</p>","","","","","","","","","",""
"html-keyboard-response","356","521841","0.0-15.0-0.25","60fd913b3fd4aeea9829cff3","64e77d7b61f440b60e28659d","64eca321a2ce9e665856b43c","null","null","<p style=""font-size: 60px; font-family: BACS"">mkmJNJcUk</p>","","","","","","","","","",""
"html-keyboard-response","357","522848","0.0-15.0-0.26","60fd913b3fd4aeea9829cff3","64e77d7b61f440b60e28659d","64eca321a2ce9e665856b43c","null","null","<p style=""font-size: 60px; font-family: BACS"">mkmJNJcUk</p>","","","","","","","","","",""
"html-keyboard-response","358","523857","0.0-15.0-0.27","60fd913b3fd4aeea9829cff3","64e77d7b61f440b60e28659d","64eca321a2ce9e665856b43c","null","null","<p style=""font-size: 60px; font-family: BACS"">mkmJNJcUk</p>","","","","","","","","","",""
"html-keyboard-response","359","524865","0.0-15.0-0.28","60fd913b3fd4aeea9829cff3","64e77d7b61f440b60e28659d","64eca321a2ce9e665856b43c","null","null","<p style=""font-size: 60px; font-family: BACS"">mkmJNJcUk</p>","","","","","","","","","",""
"html-keyboard-response","360","525881","0.0-15.0-0.29","60fd913b3fd4aeea9829cff3","64e77d7b61f440b60e28659d","64eca321a2ce9e665856b43c","null","null","<p style=""font-size: 60px; font-family: BACS"">mkmJNJcUk</p>","","","","","","","","","",""
"html-keyboard-response","361","526897","0.0-15.0-0.30","60fd913b3fd4aeea9829cff3","64e77d7b61f440b60e28659d","64eca321a2ce9e665856b43c","null","null","<p style=""font-size: 60px; font-family: BACS"">mkmJNJcUk</p>","","","","","","","","","",""
"html-keyboard-response","362","527899","0.0-15.0-0.31","60fd913b3fd4aeea9829cff3","64e77d7b61f440b60e28659d","64eca321a2ce9e665856b43c","null","null","<p style=""font-size: 60px; font-family: BACS"">mkmJNJcUk</p>","","","","","","","","","",""
"html-keyboard-response","363","528909","0.0-15.0-0.32","60fd913b3fd4aeea9829cff3","64e77d7b61f440b60e28659d","64eca321a2ce9e665856b43c","null","null","<p style=""font-size: 60px; font-family: BACS"">mkmJNJcUk</p>","","","","","","","","","",""
"html-keyboard-response","364","529916","0.0-15.0-0.33","60fd913b3fd4aeea9829cff3","64e77d7b61f440b60e28659d","64eca321a2ce9e665856b43c","null","null","<p style=""font-size: 60px; font-family: BACS"">mkmJNJcUk</p>","","","","","","","","","",""
"html-keyboard-response","365","530932","0.0-15.0-0.34","60fd913b3fd4aeea9829cff3","64e77d7b61f440b60e28659d","64eca321a2ce9e665856b43c","null","null","<p style=""font-size: 60px; font-family: BACS"">mkmJNJcUk</p>","","","","","","","","","",""
"html-keyboard-response","366","531934","0.0-15.0-0.35","60fd913b3fd4aeea9829cff3","64e77d7b61f440b60e28659d","64eca321a2ce9e665856b43c","null","null","<p style=""font-size: 60px; font-family: BACS"">mkmJNJcUk</p>","","","","","","","","","",""
"html-keyboard-response","367","532942","0.0-15.0-0.36","60fd913b3fd4aeea9829cff3","64e77d7b61f440b60e28659d","64eca321a2ce9e665856b43c","null","null","<p style=""font-size: 60px; font-family: BACS"">mkmJNJcUk</p>","","","","","","","","","",""
"html-keyboard-response","368","533956","0.0-15.0-0.37","60fd913b3fd4aeea9829cff3","64e77d7b61f440b60e28659d","64eca321a2ce9e665856b43c","null","null","<p style=""font-size: 60px; font-family: BACS"">mkmJNJcUk</p>","","","","","","","","","",""
"html-keyboard-response","369","534959","0.0-15.0-0.38","60fd913b3fd4aeea9829cff3","64e77d7b61f440b60e28659d","64eca321a2ce9e665856b43c","null","null","<p style=""font-size: 60px; font-family: BACS"">mkmJNJcUk</p>","","","","","","","","","",""
"html-keyboard-response","370","535965","0.0-15.0-0.39","60fd913b3fd4aeea9829cff3","64e77d7b61f440b60e28659d","64eca321a2ce9e665856b43c","null","null","<p style=""font-size: 60px; font-family: BACS"">mkmJNJcUk</p>","","","","","","","","","",""
"html-keyboard-response","371","536980","0.0-15.0-0.40","60fd913b3fd4aeea9829cff3","64e77d7b61f440b60e28659d","64eca321a2ce9e665856b43c","null","null","<p style=""font-size: 60px; font-family: BACS"">mkmJNJcUk</p>","","","","","","","","","",""
"html-keyboard-response","372","537992","0.0-15.0-0.41","60fd913b3fd4aeea9829cff3","64e77d7b61f440b60e28659d","64eca321a2ce9e665856b43c","null","null","<p style=""font-size: 60px; font-family: BACS"">mkmJNJcUk</p>","","","","","","","","","",""
"html-keyboard-response","373","539004","0.0-15.0-0.42","60fd913b3fd4aeea9829cff3","64e77d7b61f440b60e28659d","64eca321a2ce9e665856b43c","null","null","<p style=""font-size: 60px; font-family: BACS"">mkmJNJcUk</p>","","","","","","","","","",""
"html-keyboard-response","374","540014","0.0-15.0-0.43","60fd913b3fd4aeea9829cff3","64e77d7b61f440b60e28659d","64eca321a2ce9e665856b43c","null","null","<p style=""font-size: 60px; font-family: BACS"">mkmJNJcUk</p>","","","","","","","","","",""
"html-keyboard-response","375","541023","0.0-15.0-0.44","60fd913b3fd4aeea9829cff3","64e77d7b61f440b60e28659d","64eca321a2ce9e665856b43c","null","null","<p style=""font-size: 60px; font-family: BACS"">mkmJNJcUk</p>","","","","","","","","","",""
"html-keyboard-response","376","542033","0.0-15.0-0.45","60fd913b3fd4aeea9829cff3","64e77d7b61f440b60e28659d","64eca321a2ce9e665856b43c","null","null","<p style=""font-size: 60px; font-family: BACS"">mkmJNJcUk</p>","","","","","","","","","",""
"html-keyboard-response","377","543042","0.0-15.0-0.46","60fd913b3fd4aeea9829cff3","64e77d7b61f440b60e28659d","64eca321a2ce9e665856b43c","null","null","<p style=""font-size: 60px; font-family: BACS"">mkmJNJcUk</p>","","","","","","","","","",""
"html-keyboard-response","378","544049","0.0-15.0-0.47","60fd913b3fd4aeea9829cff3","64e77d7b61f440b60e28659d","64eca321a2ce9e665856b43c","null","null","<p style=""font-size: 60px; font-family: BACS"">mkmJNJcUk</p>","","","","","","","","","",""
"html-keyboard-response","379","545059","0.0-15.0-0.48","60fd913b3fd4aeea9829cff3","64e77d7b61f440b60e28659d","64eca321a2ce9e665856b43c","null","null","<p style=""font-size: 60px; font-family: BACS"">mkmJNJcUk</p>","","","","","","","","","",""
"html-keyboard-response","380","546076","0.0-15.0-0.49","60fd913b3fd4aeea9829cff3","64e77d7b61f440b60e28659d","64eca321a2ce9e665856b43c","null","null","<p style=""font-size: 60px; font-family: BACS"">mkmJNJcUk</p>","","","","","","","","","",""
"html-keyboard-response","381","547081","0.0-15.0-0.50","60fd913b3fd4aeea9829cff3","64e77d7b61f440b60e28659d","64eca321a2ce9e665856b43c","null","null","<p style=""font-size: 60px; font-family: BACS"">mkmJNJcUk</p>","","","","","","","","","",""
"html-keyboard-response","382","548098","0.0-15.0-0.51","60fd913b3fd4aeea9829cff3","64e77d7b61f440b60e28659d","64eca321a2ce9e665856b43c","null","null","<p style=""font-size: 60px; font-family: BACS"">mkmJNJcUk</p>","","","","","","","","","",""
"html-keyboard-response","383","549099","0.0-15.0-0.52","60fd913b3fd4aeea9829cff3","64e77d7b61f440b60e28659d","64eca321a2ce9e665856b43c","null","null","<p style=""font-size: 60px; font-family: BACS"">mkmJNJcUk</p>","","","","","","","","","",""
"html-keyboard-response","384","550115","0.0-15.0-0.53","60fd913b3fd4aeea9829cff3","64e77d7b61f440b60e28659d","64eca321a2ce9e665856b43c","null","null","<p style=""font-size: 60px; font-family: BACS"">mkmJNJcUk</p>","","","","","","","","","",""
"html-keyboard-response","385","551127","0.0-15.0-0.54","60fd913b3fd4aeea9829cff3","64e77d7b61f440b60e28659d","64eca321a2ce9e665856b43c","null","null","<p style=""font-size: 60px; font-family: BACS"">mkmJNJcUk</p>","","","","","","","","","",""
"html-keyboard-response","386","552143","0.0-15.0-0.55","60fd913b3fd4aeea9829cff3","64e77d7b61f440b60e28659d","64eca321a2ce9e665856b43c","null","null","<p style=""font-size: 60px; font-family: BACS"">mkmJNJcUk</p>","","","","","","","","","",""
"html-keyboard-response","387","553147","0.0-15.0-0.56","60fd913b3fd4aeea9829cff3","64e77d7b61f440b60e28659d","64eca321a2ce9e665856b43c","null","null","<p style=""font-size: 60px; font-family: BACS"">mkmJNJcUk</p>","","","","","","","","","",""
"html-keyboard-response","388","554159","0.0-15.0-0.57","60fd913b3fd4aeea9829cff3","64e77d7b61f440b60e28659d","64eca321a2ce9e665856b43c","null","null","<p style=""font-size: 60px; font-family: BACS"">mkmJNJcUk</p>","","","","","","","","","",""
"html-keyboard-response","389","555175","0.0-15.0-0.58","60fd913b3fd4aeea9829cff3","64e77d7b61f440b60e28659d","64eca321a2ce9e665856b43c","null","null","<p style=""font-size: 60px; font-family: BACS"">mkmJNJcUk</p>","","","","","","","","","",""
"html-keyboard-response","390","556185","0.0-15.0-0.59","60fd913b3fd4aeea9829cff3","64e77d7b61f440b60e28659d","64eca321a2ce9e665856b43c","null","null","<p style=""font-size: 60px; font-family: BACS"">mkmJNJcUk</p>","","","","","","","","","",""
"html-keyboard-response","391","557199","0.0-15.0-0.60","60fd913b3fd4aeea9829cff3","64e77d7b61f440b60e28659d","64eca321a2ce9e665856b43c","null","null","<p style=""font-size: 60px; font-family: BACS"">mkmJNJcUk</p>","","","","","","","","","",""
"html-keyboard-response","392","558216","0.0-15.0-0.61","60fd913b3fd4aeea9829cff3","64e77d7b61f440b60e28659d","64eca321a2ce9e665856b43c","null","null","<p style=""font-size: 60px; font-family: BACS"">mkmJNJcUk</p>","","","","","","","","","",""
"html-keyboard-response","393","559230","0.0-15.0-0.62","60fd913b3fd4aeea9829cff3","64e77d7b61f440b60e28659d","64eca321a2ce9e665856b43c","null","null","<p style=""font-size: 60px; font-family: BACS"">mkmJNJcUk</p>","","","","","","","","","",""
