trial_type,trial_index,time_elapsed,internal_node_id,subject_id,study_id,session_id,rt,response,stimulus,success,item,task,correct_response,testing_condition,correct,target,confound,name,view_history
pavlovia,0,969,0.0-0.0,6163faf9d9ac4586fe776568,650c16f0f2faf8d7a0d14c09,651c1cd9553426bc649616d5,,,,,,,,,,,,,
survey-html-form,1,14848,0.0-1.0,6163faf9d9ac4586fe776568,650c16f0f2faf8d7a0d14c09,651c1cd9553426bc649616d5,13878,"{""ID"":""6163faf9d9ac4586fe776568""}",,,,,,,,,,,
html-keyboard-response,2,22170,0.0-2.0,6163faf9d9ac4586fe776568,650c16f0f2faf8d7a0d14c09,651c1cd9553426bc649616d5,7321, ,"<p style=""font-size: 15px;"">Before beginning, we ask that you read the consent information and confirm your agreement to participate in the experiment.</p>
      <p style=""font-size: 15px;""> We ask that you remember that this is a research project and that your participation is entirely voluntary. You can stop your participation at any time, without needing to provide any explanation. The study we're asking you to participate in aims at examining how readers process written words. You will be engaged in a session of apprximately 20 minutes, followed by a brief questionnaire. You will have the opportunity to take a few breaks during the experiment. You will be paid £4 for your participation, corresponding to a rate of £8/hour. While this experiment looks at cognitive faculties, this experiment doesn't constitute clinical proof of eventual pathologies.</p>
      <p style=""font-size: 15px;"">All of the information collected thanks to yours and others' participation will be held in a secure password-protected server, and will not be shared with anyone not authorised to view it. Your personal information will be kept with an arbitrary participant ID. Thanks to this data anonymity process, any researcher analysing the data won't be able to track the information back to a specific participant. Therefore, this process will make identifying you impossibile, even when results from the study will be published in scientific reviews, presented at congresses, or at any other public forum. More generally, the collected data will be treated in accordance with the laws on privacy and conformity to the Legislative Degree n. 196 ""Code regarding the protection of personal data"" of the 30th of June 2003 and to the European Regulation 2016/670 (General Data Protection Regulation - GDPR). The Data Protection Officer is Avv. Valentina Carollo, who can be contacted at the following email addresses: <a href=""mailto:dpo@sissa.it"">dpo@sissa.it</a> or <a href=""mailto:rpd@sissa.it"">rpd@sissa.it</a> - PEC: <a href=""mailto:protocollo@pec.sissa.it"">protocollo@pec.sissa.it</a>.</p>
      <p style=""font-size: 15px;""> Before expressing your consent to participate, we would like to remind you again that in case you need explanations on any aspect of the experimental procedure, the researcher is at your disposition (<a href=""mailto:aliebelt@sissa.it"">aliebelt@sissa.it</a>, <a href=""mailto:davide.crepaldi@sissa.it"">davide.crepaldi@sissa.it</a>).</p>
      <p style=""font-size: 15px;"">If you would like to download the informed consent form, you can do so here: <a href=""BASL-Informed_Consent.pdf"" download>informed consent form</a>.</p>
      <p style=""font-size: 15px;"">We ask that you press the spacebar to proceed to the consent section.</p>",,,,,,,,,,
survey-html-form,3,30225,0.0-3.0,6163faf9d9ac4586fe776568,650c16f0f2faf8d7a0d14c09,651c1cd9553426bc649616d5,8054,"{""consent1"":""YES"",""consent2"":""YES"",""consent3"":""YES"",""consent4"":""YES"",""consent5"":""YES"",""consent6"":""YES""}",,,,,,,,,,,
fullscreen,4,38607,0.0-4.0,6163faf9d9ac4586fe776568,650c16f0f2faf8d7a0d14c09,651c1cd9553426bc649616d5,,,,TRUE,,,,,,,,,
html-keyboard-response,5,66327,0.0-5.0,6163faf9d9ac4586fe776568,650c16f0f2faf8d7a0d14c09,651c1cd9553426bc649616d5,27719, ,"<p>Welcome, and thank you very much for your time!</p>
      <p>In this experiment, you'll be a language expert who's been asked to take a look at words that Earth has received in its first communication with aliens. Your task, in this first part of the experiment, is to pay close attention to the words you'll be shown; later, world leaders will ask you questions on what you saw. The words will be shown to you quite quickly; it seems that the aliens were in a hurry :-)</p>
      <p>Press the spacebar to continue.<p>",,,,,,,,,,
html-keyboard-response,6,66381,0.0-6.0,6163faf9d9ac4586fe776568,650c16f0f2faf8d7a0d14c09,651c1cd9553426bc649616d5,null,null,"<p style=""font-size: 120px; font-family: BACS""> </p>",,,,,,,,,,
html-keyboard-response,7,99476,0.0-7.0,6163faf9d9ac4586fe776568,650c16f0f2faf8d7a0d14c09,651c1cd9553426bc649616d5,33095, ,"<p>Here is an example of the words you'll see:</p>
      <img src='esempio.png' height='400px'>
      <p>When you're ready to begin, press the spacebar.</p></div>",,,,,,,,,,
html-keyboard-response,8,100482,0.0-8.0-0.0,6163faf9d9ac4586fe776568,650c16f0f2faf8d7a0d14c09,651c1cd9553426bc649616d5,null,null,"<p style=""font-size: 60px; font-family: BACS"">dOYmlAkd</p>",,,,,,,,,,
html-keyboard-response,9,101496,0.0-8.0-0.1,6163faf9d9ac4586fe776568,650c16f0f2faf8d7a0d14c09,651c1cd9553426bc649616d5,null,null,"<p style=""font-size: 60px; font-family: BACS"">GLluArAJu</p>",,,,,,,,,,
html-keyboard-response,10,102509,0.0-8.0-0.2,6163faf9d9ac4586fe776568,650c16f0f2faf8d7a0d14c09,651c1cd9553426bc649616d5,null,null,"<p style=""font-size: 60px; font-family: BACS"">kKRCEKBO</p>",,,,,,,,,,
html-keyboard-response,11,103525,0.0-8.0-0.3,6163faf9d9ac4586fe776568,650c16f0f2faf8d7a0d14c09,651c1cd9553426bc649616d5,null,null,"<p style=""font-size: 60px; font-family: BACS"">AlTdTbk</p>",,,,,,,,,,
html-keyboard-response,12,104537,0.0-8.0-0.4,6163faf9d9ac4586fe776568,650c16f0f2faf8d7a0d14c09,651c1cd9553426bc649616d5,null,null,"<p style=""font-size: 60px; font-family: BACS"">aUZAYaOk</p>",,,,,,,,,,
html-keyboard-response,13,105539,0.0-8.0-0.5,6163faf9d9ac4586fe776568,650c16f0f2faf8d7a0d14c09,651c1cd9553426bc649616d5,null,null,"<p style=""font-size: 60px; font-family: BACS"">blMkEKBO</p>",,,,,,,,,,
html-keyboard-response,14,106542,0.0-8.0-0.6,6163faf9d9ac4586fe776568,650c16f0f2faf8d7a0d14c09,651c1cd9553426bc649616d5,null,null,"<p style=""font-size: 60px; font-family: BACS"">TdTDtcB</p>",,,,,,,,,,
html-keyboard-response,15,107552,0.0-8.0-0.7,6163faf9d9ac4586fe776568,650c16f0f2faf8d7a0d14c09,651c1cd9553426bc649616d5,null,null,"<p style=""font-size: 60px; font-family: BACS"">vQdOZckv</p>",,,,,,,,,,
html-keyboard-response,16,108554,0.0-8.0-0.8,6163faf9d9ac4586fe776568,650c16f0f2faf8d7a0d14c09,651c1cd9553426bc649616d5,null,null,"<p style=""font-size: 60px; font-family: BACS"">GLluAYaOk</p>",,,,,,,,,,
html-keyboard-response,17,109566,0.0-8.0-0.9,6163faf9d9ac4586fe776568,650c16f0f2faf8d7a0d14c09,651c1cd9553426bc649616d5,null,null,"<p style=""font-size: 60px; font-family: BACS"">CDEmYtcB</p>",,,,,,,,,,
html-keyboard-response,18,110580,0.0-8.0-0.10,6163faf9d9ac4586fe776568,650c16f0f2faf8d7a0d14c09,651c1cd9553426bc649616d5,null,null,"<p style=""font-size: 60px; font-family: BACS"">LvuOGrAJu</p>",,,,,,,,,,
html-keyboard-response,19,111581,0.0-8.0-0.11,6163faf9d9ac4586fe776568,650c16f0f2faf8d7a0d14c09,651c1cd9553426bc649616d5,null,null,"<p style=""font-size: 60px; font-family: BACS"">uQkrduvJ</p>",,,,,,,,,,
html-keyboard-response,20,112594,0.0-8.0-0.12,6163faf9d9ac4586fe776568,650c16f0f2faf8d7a0d14c09,651c1cd9553426bc649616d5,null,null,"<p style=""font-size: 60px; font-family: BACS"">tDPRkcPK</p>",,,,,,,,,,
html-keyboard-response,21,113596,0.0-8.0-0.13,6163faf9d9ac4586fe776568,650c16f0f2faf8d7a0d14c09,651c1cd9553426bc649616d5,null,null,"<p style=""font-size: 60px; font-family: BACS"">rvAJrAJu</p>",,,,,,,,,,
html-keyboard-response,22,114611,0.0-8.0-0.14,6163faf9d9ac4586fe776568,650c16f0f2faf8d7a0d14c09,651c1cd9553426bc649616d5,null,null,"<p style=""font-size: 60px; font-family: BACS"">vQdOuUmb</p>",,,,,,,,,,
html-keyboard-response,23,115626,0.0-8.0-0.15,6163faf9d9ac4586fe776568,650c16f0f2faf8d7a0d14c09,651c1cd9553426bc649616d5,null,null,"<p style=""font-size: 60px; font-family: BACS"">thbOMTbk</p>",,,,,,,,,,
html-keyboard-response,24,116642,0.0-8.0-0.16,6163faf9d9ac4586fe776568,650c16f0f2faf8d7a0d14c09,651c1cd9553426bc649616d5,null,null,"<p style=""font-size: 60px; font-family: BACS"">YJkbZckv</p>",,,,,,,,,,
html-keyboard-response,25,117656,0.0-8.0-0.17,6163faf9d9ac4586fe776568,650c16f0f2faf8d7a0d14c09,651c1cd9553426bc649616d5,null,null,"<p style=""font-size: 60px; font-family: BACS"">PlEKTbk</p>",,,,,,,,,,
html-keyboard-response,26,118672,0.0-8.0-0.18,6163faf9d9ac4586fe776568,650c16f0f2faf8d7a0d14c09,651c1cd9553426bc649616d5,null,null,"<p style=""font-size: 60px; font-family: BACS"">aUZAuvJ</p>",,,,,,,,,,
html-keyboard-response,27,119683,0.0-8.0-0.19,6163faf9d9ac4586fe776568,650c16f0f2faf8d7a0d14c09,651c1cd9553426bc649616d5,null,null,"<p style=""font-size: 60px; font-family: BACS"">AlTdcPK</p>",,,,,,,,,,
html-keyboard-response,28,120685,0.0-8.0-0.20,6163faf9d9ac4586fe776568,650c16f0f2faf8d7a0d14c09,651c1cd9553426bc649616d5,null,null,"<p style=""font-size: 60px; font-family: BACS"">blMkAkd</p>",,,,,,,,,,
html-keyboard-response,29,121699,0.0-8.0-0.21,6163faf9d9ac4586fe776568,650c16f0f2faf8d7a0d14c09,651c1cd9553426bc649616d5,null,null,"<p style=""font-size: 60px; font-family: BACS"">aUZArAJu</p>",,,,,,,,,,
html-keyboard-response,30,122702,0.0-8.0-0.22,6163faf9d9ac4586fe776568,650c16f0f2faf8d7a0d14c09,651c1cd9553426bc649616d5,null,null,"<p style=""font-size: 60px; font-family: BACS"">CDEmYEKBO</p>",,,,,,,,,,
html-keyboard-response,31,123717,0.0-8.0-0.23,6163faf9d9ac4586fe776568,650c16f0f2faf8d7a0d14c09,651c1cd9553426bc649616d5,null,null,"<p style=""font-size: 60px; font-family: BACS"">YJkbuvJ</p>",,,,,,,,,,
html-keyboard-response,32,124731,0.0-8.0-0.24,6163faf9d9ac4586fe776568,650c16f0f2faf8d7a0d14c09,651c1cd9553426bc649616d5,null,null,"<p style=""font-size: 60px; font-family: BACS"">rvAJZckv</p>",,,,,,,,,,
html-keyboard-response,33,125732,0.0-8.0-0.25,6163faf9d9ac4586fe776568,650c16f0f2faf8d7a0d14c09,651c1cd9553426bc649616d5,null,null,"<p style=""font-size: 60px; font-family: BACS"">vQdOYaOk</p>",,,,,,,,,,
html-keyboard-response,34,126736,0.0-8.0-0.26,6163faf9d9ac4586fe776568,650c16f0f2faf8d7a0d14c09,651c1cd9553426bc649616d5,null,null,"<p style=""font-size: 60px; font-family: BACS"">kKRCAkd</p>",,,,,,,,,,
html-keyboard-response,35,127752,0.0-8.0-0.27,6163faf9d9ac4586fe776568,650c16f0f2faf8d7a0d14c09,651c1cd9553426bc649616d5,null,null,"<p style=""font-size: 60px; font-family: BACS"">AlTdEKBO</p>",,,,,,,,,,
html-keyboard-response,36,128764,0.0-8.0-0.28,6163faf9d9ac4586fe776568,650c16f0f2faf8d7a0d14c09,651c1cd9553426bc649616d5,null,null,"<p style=""font-size: 60px; font-family: BACS"">mZUrQZckv</p>",,,,,,,,,,
html-keyboard-response,37,129769,0.0-8.0-0.29,6163faf9d9ac4586fe776568,650c16f0f2faf8d7a0d14c09,651c1cd9553426bc649616d5,null,null,"<p style=""font-size: 60px; font-family: BACS"">YJkbuUmb</p>",,,,,,,,,,
html-keyboard-response,38,130784,0.0-8.0-0.30,6163faf9d9ac4586fe776568,650c16f0f2faf8d7a0d14c09,651c1cd9553426bc649616d5,null,null,"<p style=""font-size: 60px; font-family: BACS"">CDEmYcPK</p>",,,,,,,,,,
html-keyboard-response,39,131794,0.0-8.0-0.31,6163faf9d9ac4586fe776568,650c16f0f2faf8d7a0d14c09,651c1cd9553426bc649616d5,null,null,"<p style=""font-size: 60px; font-family: BACS"">vmuLlYaOk</p>",,,,,,,,,,
html-keyboard-response,40,132808,0.0-8.0-0.32,6163faf9d9ac4586fe776568,650c16f0f2faf8d7a0d14c09,651c1cd9553426bc649616d5,null,null,"<p style=""font-size: 60px; font-family: BACS"">TKDkTbk</p>",,,,,,,,,,
html-keyboard-response,41,133824,0.0-8.0-0.33,6163faf9d9ac4586fe776568,650c16f0f2faf8d7a0d14c09,651c1cd9553426bc649616d5,null,null,"<p style=""font-size: 60px; font-family: BACS"">uQkrdYaOk</p>",,,,,,,,,,
html-keyboard-response,42,134840,0.0-8.0-0.34,6163faf9d9ac4586fe776568,650c16f0f2faf8d7a0d14c09,651c1cd9553426bc649616d5,null,null,"<p style=""font-size: 60px; font-family: BACS"">vQdOrAJu</p>",,,,,,,,,,
html-keyboard-response,43,135852,0.0-8.0-0.35,6163faf9d9ac4586fe776568,650c16f0f2faf8d7a0d14c09,651c1cd9553426bc649616d5,null,null,"<p style=""font-size: 60px; font-family: BACS"">LvuOGuUmb</p>",,,,,,,,,,
html-keyboard-response,44,136862,0.0-8.0-0.36,6163faf9d9ac4586fe776568,650c16f0f2faf8d7a0d14c09,651c1cd9553426bc649616d5,null,null,"<p style=""font-size: 60px; font-family: BACS"">CDEmYAkd</p>",,,,,,,,,,
html-keyboard-response,45,137875,0.0-8.0-0.37,6163faf9d9ac4586fe776568,650c16f0f2faf8d7a0d14c09,651c1cd9553426bc649616d5,null,null,"<p style=""font-size: 60px; font-family: BACS"">kKRCTbk</p>",,,,,,,,,,
html-keyboard-response,46,138885,0.0-8.0-0.38,6163faf9d9ac4586fe776568,650c16f0f2faf8d7a0d14c09,651c1cd9553426bc649616d5,null,null,"<p style=""font-size: 60px; font-family: BACS"">mZUrQuvJ</p>",,,,,,,,,,
html-keyboard-response,47,139897,0.0-8.0-0.39,6163faf9d9ac4586fe776568,650c16f0f2faf8d7a0d14c09,651c1cd9553426bc649616d5,null,null,"<p style=""font-size: 60px; font-family: BACS"">TKDktcB</p>",,,,,,,,,,
html-keyboard-response,48,140898,0.0-8.0-0.40,6163faf9d9ac4586fe776568,650c16f0f2faf8d7a0d14c09,651c1cd9553426bc649616d5,null,null,"<p style=""font-size: 60px; font-family: BACS"">uQkrduUmb</p>",,,,,,,,,,
html-keyboard-response,49,141911,0.0-8.0-0.41,6163faf9d9ac4586fe776568,650c16f0f2faf8d7a0d14c09,651c1cd9553426bc649616d5,null,null,"<p style=""font-size: 60px; font-family: BACS"">TKDkEKBO</p>",,,,,,,,,,
html-keyboard-response,50,142926,0.0-8.0-0.42,6163faf9d9ac4586fe776568,650c16f0f2faf8d7a0d14c09,651c1cd9553426bc649616d5,null,null,"<p style=""font-size: 60px; font-family: BACS"">GabkZckv</p>",,,,,,,,,,
html-keyboard-response,51,143942,0.0-8.0-0.43,6163faf9d9ac4586fe776568,650c16f0f2faf8d7a0d14c09,651c1cd9553426bc649616d5,null,null,"<p style=""font-size: 60px; font-family: BACS"">PlEKAkd</p>",,,,,,,,,,
html-keyboard-response,52,144957,0.0-8.0-0.44,6163faf9d9ac4586fe776568,650c16f0f2faf8d7a0d14c09,651c1cd9553426bc649616d5,null,null,"<p style=""font-size: 60px; font-family: BACS"">kKRCtcB</p>",,,,,,,,,,
html-keyboard-response,53,145969,0.0-8.0-0.45,6163faf9d9ac4586fe776568,650c16f0f2faf8d7a0d14c09,651c1cd9553426bc649616d5,null,null,"<p style=""font-size: 60px; font-family: BACS"">TdTDEKBO</p>",,,,,,,,,,
html-keyboard-response,54,146985,0.0-8.0-0.46,6163faf9d9ac4586fe776568,650c16f0f2faf8d7a0d14c09,651c1cd9553426bc649616d5,null,null,"<p style=""font-size: 60px; font-family: BACS"">PlEKtcB</p>",,,,,,,,,,
html-keyboard-response,55,147997,0.0-8.0-0.47,6163faf9d9ac4586fe776568,650c16f0f2faf8d7a0d14c09,651c1cd9553426bc649616d5,null,null,"<p style=""font-size: 60px; font-family: BACS"">thbOMEKBO</p>",,,,,,,,,,
html-keyboard-response,56,149014,0.0-8.0-0.48,6163faf9d9ac4586fe776568,650c16f0f2faf8d7a0d14c09,651c1cd9553426bc649616d5,null,null,"<p style=""font-size: 60px; font-family: BACS"">rvAJYaOk</p>",,,,,,,,,,
html-keyboard-response,57,150025,0.0-8.0-0.49,6163faf9d9ac4586fe776568,650c16f0f2faf8d7a0d14c09,651c1cd9553426bc649616d5,null,null,"<p style=""font-size: 60px; font-family: BACS"">uQkrdrAJu</p>",,,,,,,,,,
html-keyboard-response,58,151039,0.0-8.0-0.50,6163faf9d9ac4586fe776568,650c16f0f2faf8d7a0d14c09,651c1cd9553426bc649616d5,null,null,"<p style=""font-size: 60px; font-family: BACS"">mZUrQYaOk</p>",,,,,,,,,,
html-keyboard-response,59,152055,0.0-8.0-0.51,6163faf9d9ac4586fe776568,650c16f0f2faf8d7a0d14c09,651c1cd9553426bc649616d5,null,null,"<p style=""font-size: 60px; font-family: BACS"">GLluAuUmb</p>",,,,,,,,,,
html-keyboard-response,60,153067,0.0-8.0-0.52,6163faf9d9ac4586fe776568,650c16f0f2faf8d7a0d14c09,651c1cd9553426bc649616d5,null,null,"<p style=""font-size: 60px; font-family: BACS"">dOYmlTbk</p>",,,,,,,,,,
html-keyboard-response,61,154070,0.0-8.0-0.53,6163faf9d9ac4586fe776568,650c16f0f2faf8d7a0d14c09,651c1cd9553426bc649616d5,null,null,"<p style=""font-size: 60px; font-family: BACS"">LvuOGuvJ</p>",,,,,,,,,,
html-keyboard-response,62,155084,0.0-8.0-0.54,6163faf9d9ac4586fe776568,650c16f0f2faf8d7a0d14c09,651c1cd9553426bc649616d5,null,null,"<p style=""font-size: 60px; font-family: BACS"">PlEKEKBO</p>",,,,,,,,,,
html-keyboard-response,63,156098,0.0-8.0-0.55,6163faf9d9ac4586fe776568,650c16f0f2faf8d7a0d14c09,651c1cd9553426bc649616d5,null,null,"<p style=""font-size: 60px; font-family: BACS"">tDPRkTbk</p>",,,,,,,,,,
html-keyboard-response,64,157113,0.0-8.0-0.56,6163faf9d9ac4586fe776568,650c16f0f2faf8d7a0d14c09,651c1cd9553426bc649616d5,null,null,"<p style=""font-size: 60px; font-family: BACS"">YJkbrAJu</p>",,,,,,,,,,
html-keyboard-response,65,158127,0.0-8.0-0.57,6163faf9d9ac4586fe776568,650c16f0f2faf8d7a0d14c09,651c1cd9553426bc649616d5,null,null,"<p style=""font-size: 60px; font-family: BACS"">TKDkcPK</p>",,,,,,,,,,
html-keyboard-response,66,159128,0.0-8.0-0.58,6163faf9d9ac4586fe776568,650c16f0f2faf8d7a0d14c09,651c1cd9553426bc649616d5,null,null,"<p style=""font-size: 60px; font-family: BACS"">rvAJuvJ</p>",,,,,,,,,,
html-keyboard-response,67,160141,0.0-8.0-0.59,6163faf9d9ac4586fe776568,650c16f0f2faf8d7a0d14c09,651c1cd9553426bc649616d5,null,null,"<p style=""font-size: 60px; font-family: BACS"">aUZAZckv</p>",,,,,,,,,,
html-keyboard-response,68,161142,0.0-8.0-0.60,6163faf9d9ac4586fe776568,650c16f0f2faf8d7a0d14c09,651c1cd9553426bc649616d5,null,null,"<p style=""font-size: 60px; font-family: BACS"">blMkTbk</p>",,,,,,,,,,
html-keyboard-response,69,162155,0.0-8.0-0.61,6163faf9d9ac4586fe776568,650c16f0f2faf8d7a0d14c09,651c1cd9553426bc649616d5,null,null,"<p style=""font-size: 60px; font-family: BACS"">GabkYaOk</p>",,,,,,,,,,
html-keyboard-response,70,163165,0.0-8.0-0.62,6163faf9d9ac4586fe776568,650c16f0f2faf8d7a0d14c09,651c1cd9553426bc649616d5,null,null,"<p style=""font-size: 60px; font-family: BACS"">tDPRktcB</p>",,,,,,,,,,
html-keyboard-response,71,164180,0.0-8.0-0.63,6163faf9d9ac4586fe776568,650c16f0f2faf8d7a0d14c09,651c1cd9553426bc649616d5,null,null,"<p style=""font-size: 60px; font-family: BACS"">GabkuUmb</p>",,,,,,,,,,
html-keyboard-response,72,165191,0.0-8.0-0.64,6163faf9d9ac4586fe776568,650c16f0f2faf8d7a0d14c09,651c1cd9553426bc649616d5,null,null,"<p style=""font-size: 60px; font-family: BACS"">thbOMAkd</p>",,,,,,,,,,
html-keyboard-response,73,166203,0.0-8.0-0.65,6163faf9d9ac4586fe776568,650c16f0f2faf8d7a0d14c09,651c1cd9553426bc649616d5,null,null,"<p style=""font-size: 60px; font-family: BACS"">vmuLluvJ</p>",,,,,,,,,,
html-keyboard-response,74,167217,0.0-8.0-0.66,6163faf9d9ac4586fe776568,650c16f0f2faf8d7a0d14c09,651c1cd9553426bc649616d5,null,null,"<p style=""font-size: 60px; font-family: BACS"">dOYmltcB</p>",,,,,,,,,,
html-keyboard-response,75,168230,0.0-8.0-0.67,6163faf9d9ac4586fe776568,650c16f0f2faf8d7a0d14c09,651c1cd9553426bc649616d5,null,null,"<p style=""font-size: 60px; font-family: BACS"">GabkuvJ</p>",,,,,,,,,,
html-keyboard-response,76,169244,0.0-8.0-0.68,6163faf9d9ac4586fe776568,650c16f0f2faf8d7a0d14c09,651c1cd9553426bc649616d5,null,null,"<p style=""font-size: 60px; font-family: BACS"">vmuLlrAJu</p>",,,,,,,,,,
html-keyboard-response,77,170256,0.0-8.0-0.69,6163faf9d9ac4586fe776568,650c16f0f2faf8d7a0d14c09,651c1cd9553426bc649616d5,null,null,"<p style=""font-size: 60px; font-family: BACS"">LvuOGZckv</p>",,,,,,,,,,
html-keyboard-response,78,171269,0.0-8.0-0.70,6163faf9d9ac4586fe776568,650c16f0f2faf8d7a0d14c09,651c1cd9553426bc649616d5,null,null,"<p style=""font-size: 60px; font-family: BACS"">tDPRkAkd</p>",,,,,,,,,,
html-keyboard-response,79,172280,0.0-8.0-0.71,6163faf9d9ac4586fe776568,650c16f0f2faf8d7a0d14c09,651c1cd9553426bc649616d5,null,null,"<p style=""font-size: 60px; font-family: BACS"">TdTDcPK</p>",,,,,,,,,,
html-keyboard-response,80,173291,0.0-8.0-0.72,6163faf9d9ac4586fe776568,650c16f0f2faf8d7a0d14c09,651c1cd9553426bc649616d5,null,null,"<p style=""font-size: 60px; font-family: BACS"">GLluAZckv</p>",,,,,,,,,,
html-keyboard-response,81,174304,0.0-8.0-0.73,6163faf9d9ac4586fe776568,650c16f0f2faf8d7a0d14c09,651c1cd9553426bc649616d5,null,null,"<p style=""font-size: 60px; font-family: BACS"">blMkcPK</p>",,,,,,,,,,
html-keyboard-response,82,175315,0.0-8.0-0.74,6163faf9d9ac4586fe776568,650c16f0f2faf8d7a0d14c09,651c1cd9553426bc649616d5,null,null,"<p style=""font-size: 60px; font-family: BACS"">mZUrQuUmb</p>",,,,,,,,,,
html-keyboard-response,83,176319,0.0-8.0-0.75,6163faf9d9ac4586fe776568,650c16f0f2faf8d7a0d14c09,651c1cd9553426bc649616d5,null,null,"<p style=""font-size: 60px; font-family: BACS"">thbOMcPK</p>",,,,,,,,,,
html-keyboard-response,84,177332,0.0-8.0-0.76,6163faf9d9ac4586fe776568,650c16f0f2faf8d7a0d14c09,651c1cd9553426bc649616d5,null,null,"<p style=""font-size: 60px; font-family: BACS"">TdTDAkd</p>",,,,,,,,,,
html-keyboard-response,85,178344,0.0-8.0-0.77,6163faf9d9ac4586fe776568,650c16f0f2faf8d7a0d14c09,651c1cd9553426bc649616d5,null,null,"<p style=""font-size: 60px; font-family: BACS"">dOYmlcPK</p>",,,,,,,,,,
html-keyboard-response,86,179358,0.0-8.0-0.78,6163faf9d9ac4586fe776568,650c16f0f2faf8d7a0d14c09,651c1cd9553426bc649616d5,null,null,"<p style=""font-size: 60px; font-family: BACS"">AlTdtcB</p>",,,,,,,,,,
html-keyboard-response,87,180372,0.0-8.0-0.79,6163faf9d9ac4586fe776568,650c16f0f2faf8d7a0d14c09,651c1cd9553426bc649616d5,null,null,"<p style=""font-size: 60px; font-family: BACS"">vmuLluUmb</p>",,,,,,,,,,
html-keyboard-response,88,187913,0.0-9.0,6163faf9d9ac4586fe776568,650c16f0f2faf8d7a0d14c09,651c1cd9553426bc649616d5,7541, ,"<p>Great, you've seen the first block of words. You may now take a short break.</p>
      <p>Press the spacebar when you're ready to continue.</p>",,,,,,,,,,
html-keyboard-response,89,188919,0.0-10.0-0.0,6163faf9d9ac4586fe776568,650c16f0f2faf8d7a0d14c09,651c1cd9553426bc649616d5,null,null,"<p style=""font-size: 60px; font-family: BACS"">TdTDtcB</p>",,,,,,,,,,
html-keyboard-response,90,189926,0.0-10.0-0.1,6163faf9d9ac4586fe776568,650c16f0f2faf8d7a0d14c09,651c1cd9553426bc649616d5,null,null,"<p style=""font-size: 60px; font-family: BACS"">CDEmYcPK</p>",,,,,,,,,,
html-keyboard-response,91,190938,0.0-10.0-0.2,6163faf9d9ac4586fe776568,650c16f0f2faf8d7a0d14c09,651c1cd9553426bc649616d5,null,null,"<p style=""font-size: 60px; font-family: BACS"">kKRCAkd</p>",,,,,,,,,,
html-keyboard-response,92,191951,0.0-10.0-0.3,6163faf9d9ac4586fe776568,650c16f0f2faf8d7a0d14c09,651c1cd9553426bc649616d5,null,null,"<p style=""font-size: 60px; font-family: BACS"">aUZAYaOk</p>",,,,,,,,,,
html-keyboard-response,93,192964,0.0-10.0-0.4,6163faf9d9ac4586fe776568,650c16f0f2faf8d7a0d14c09,651c1cd9553426bc649616d5,null,null,"<p style=""font-size: 60px; font-family: BACS"">CDEmYtcB</p>",,,,,,,,,,
html-keyboard-response,94,193978,0.0-10.0-0.5,6163faf9d9ac4586fe776568,650c16f0f2faf8d7a0d14c09,651c1cd9553426bc649616d5,null,null,"<p style=""font-size: 60px; font-family: BACS"">GabkZckv</p>",,,,,,,,,,
html-keyboard-response,95,194994,0.0-10.0-0.6,6163faf9d9ac4586fe776568,650c16f0f2faf8d7a0d14c09,651c1cd9553426bc649616d5,null,null,"<p style=""font-size: 60px; font-family: BACS"">YJkbuvJ</p>",,,,,,,,,,
html-keyboard-response,96,196009,0.0-10.0-0.7,6163faf9d9ac4586fe776568,650c16f0f2faf8d7a0d14c09,651c1cd9553426bc649616d5,null,null,"<p style=""font-size: 60px; font-family: BACS"">GLluAuUmb</p>",,,,,,,,,,
html-keyboard-response,97,197022,0.0-10.0-0.8,6163faf9d9ac4586fe776568,650c16f0f2faf8d7a0d14c09,651c1cd9553426bc649616d5,null,null,"<p style=""font-size: 60px; font-family: BACS"">YJkbrAJu</p>",,,,,,,,,,
html-keyboard-response,98,198033,0.0-10.0-0.9,6163faf9d9ac4586fe776568,650c16f0f2faf8d7a0d14c09,651c1cd9553426bc649616d5,null,null,"<p style=""font-size: 60px; font-family: BACS"">aUZAuvJ</p>",,,,,,,,,,
html-keyboard-response,99,199036,0.0-10.0-0.10,6163faf9d9ac4586fe776568,650c16f0f2faf8d7a0d14c09,651c1cd9553426bc649616d5,null,null,"<p style=""font-size: 60px; font-family: BACS"">dOYmlAkd</p>",,,,,,,,,,
html-keyboard-response,100,200048,0.0-10.0-0.11,6163faf9d9ac4586fe776568,650c16f0f2faf8d7a0d14c09,651c1cd9553426bc649616d5,null,null,"<p style=""font-size: 60px; font-family: BACS"">vQdOYaOk</p>",,,,,,,,,,
html-keyboard-response,101,201051,0.0-10.0-0.12,6163faf9d9ac4586fe776568,650c16f0f2faf8d7a0d14c09,651c1cd9553426bc649616d5,null,null,"<p style=""font-size: 60px; font-family: BACS"">thbOMcPK</p>",,,,,,,,,,
html-keyboard-response,102,202066,0.0-10.0-0.13,6163faf9d9ac4586fe776568,650c16f0f2faf8d7a0d14c09,651c1cd9553426bc649616d5,null,null,"<p style=""font-size: 60px; font-family: BACS"">LvuOGrAJu</p>",,,,,,,,,,
html-keyboard-response,103,203079,0.0-10.0-0.14,6163faf9d9ac4586fe776568,650c16f0f2faf8d7a0d14c09,651c1cd9553426bc649616d5,null,null,"<p style=""font-size: 60px; font-family: BACS"">aUZAZckv</p>",,,,,,,,,,
html-keyboard-response,104,204091,0.0-10.0-0.15,6163faf9d9ac4586fe776568,650c16f0f2faf8d7a0d14c09,651c1cd9553426bc649616d5,null,null,"<p style=""font-size: 60px; font-family: BACS"">tDPRkcPK</p>",,,,,,,,,,
html-keyboard-response,105,205103,0.0-10.0-0.16,6163faf9d9ac4586fe776568,650c16f0f2faf8d7a0d14c09,651c1cd9553426bc649616d5,null,null,"<p style=""font-size: 60px; font-family: BACS"">CDEmYAkd</p>",,,,,,,,,,
html-keyboard-response,106,206119,0.0-10.0-0.17,6163faf9d9ac4586fe776568,650c16f0f2faf8d7a0d14c09,651c1cd9553426bc649616d5,null,null,"<p style=""font-size: 60px; font-family: BACS"">GLluArAJu</p>",,,,,,,,,,
html-keyboard-response,107,207133,0.0-10.0-0.18,6163faf9d9ac4586fe776568,650c16f0f2faf8d7a0d14c09,651c1cd9553426bc649616d5,null,null,"<p style=""font-size: 60px; font-family: BACS"">PlEKEKBO</p>",,,,,,,,,,
html-keyboard-response,108,208146,0.0-10.0-0.19,6163faf9d9ac4586fe776568,650c16f0f2faf8d7a0d14c09,651c1cd9553426bc649616d5,null,null,"<p style=""font-size: 60px; font-family: BACS"">TdTDAkd</p>",,,,,,,,,,
html-keyboard-response,109,209159,0.0-10.0-0.20,6163faf9d9ac4586fe776568,650c16f0f2faf8d7a0d14c09,651c1cd9553426bc649616d5,null,null,"<p style=""font-size: 60px; font-family: BACS"">dOYmltcB</p>",,,,,,,,,,
html-keyboard-response,110,210174,0.0-10.0-0.21,6163faf9d9ac4586fe776568,650c16f0f2faf8d7a0d14c09,651c1cd9553426bc649616d5,null,null,"<p style=""font-size: 60px; font-family: BACS"">mZUrQuUmb</p>",,,,,,,,,,
html-keyboard-response,111,211176,0.0-10.0-0.22,6163faf9d9ac4586fe776568,650c16f0f2faf8d7a0d14c09,651c1cd9553426bc649616d5,null,null,"<p style=""font-size: 60px; font-family: BACS"">GabkuvJ</p>",,,,,,,,,,
html-keyboard-response,112,212190,0.0-10.0-0.23,6163faf9d9ac4586fe776568,650c16f0f2faf8d7a0d14c09,651c1cd9553426bc649616d5,null,null,"<p style=""font-size: 60px; font-family: BACS"">YJkbuUmb</p>",,,,,,,,,,
html-keyboard-response,113,213191,0.0-10.0-0.24,6163faf9d9ac4586fe776568,650c16f0f2faf8d7a0d14c09,651c1cd9553426bc649616d5,null,null,"<p style=""font-size: 60px; font-family: BACS"">AlTdEKBO</p>",,,,,,,,,,
html-keyboard-response,114,214195,0.0-10.0-0.25,6163faf9d9ac4586fe776568,650c16f0f2faf8d7a0d14c09,651c1cd9553426bc649616d5,null,null,"<p style=""font-size: 60px; font-family: BACS"">mZUrQuvJ</p>",,,,,,,,,,
html-keyboard-response,115,215198,0.0-10.0-0.26,6163faf9d9ac4586fe776568,650c16f0f2faf8d7a0d14c09,651c1cd9553426bc649616d5,null,null,"<p style=""font-size: 60px; font-family: BACS"">dOYmlTbk</p>",,,,,,,,,,
html-keyboard-response,116,216211,0.0-10.0-0.27,6163faf9d9ac4586fe776568,650c16f0f2faf8d7a0d14c09,651c1cd9553426bc649616d5,null,null,"<p style=""font-size: 60px; font-family: BACS"">kKRCtcB</p>",,,,,,,,,,
html-keyboard-response,117,217212,0.0-10.0-0.28,6163faf9d9ac4586fe776568,650c16f0f2faf8d7a0d14c09,651c1cd9553426bc649616d5,null,null,"<p style=""font-size: 60px; font-family: BACS"">uQkrduUmb</p>",,,,,,,,,,
html-keyboard-response,118,218223,0.0-10.0-0.29,6163faf9d9ac4586fe776568,650c16f0f2faf8d7a0d14c09,651c1cd9553426bc649616d5,null,null,"<p style=""font-size: 60px; font-family: BACS"">GabkYaOk</p>",,,,,,,,,,
html-keyboard-response,119,219237,0.0-10.0-0.30,6163faf9d9ac4586fe776568,650c16f0f2faf8d7a0d14c09,651c1cd9553426bc649616d5,null,null,"<p style=""font-size: 60px; font-family: BACS"">mZUrQZckv</p>",,,,,,,,,,
html-keyboard-response,120,220252,0.0-10.0-0.31,6163faf9d9ac4586fe776568,650c16f0f2faf8d7a0d14c09,651c1cd9553426bc649616d5,null,null,"<p style=""font-size: 60px; font-family: BACS"">AlTdcPK</p>",,,,,,,,,,
html-keyboard-response,121,221264,0.0-10.0-0.32,6163faf9d9ac4586fe776568,650c16f0f2faf8d7a0d14c09,651c1cd9553426bc649616d5,null,null,"<p style=""font-size: 60px; font-family: BACS"">tDPRkTbk</p>",,,,,,,,,,
html-keyboard-response,122,222275,0.0-10.0-0.33,6163faf9d9ac4586fe776568,650c16f0f2faf8d7a0d14c09,651c1cd9553426bc649616d5,null,null,"<p style=""font-size: 60px; font-family: BACS"">YJkbZckv</p>",,,,,,,,,,
html-keyboard-response,123,223287,0.0-10.0-0.34,6163faf9d9ac4586fe776568,650c16f0f2faf8d7a0d14c09,651c1cd9553426bc649616d5,null,null,"<p style=""font-size: 60px; font-family: BACS"">vQdOrAJu</p>",,,,,,,,,,
html-keyboard-response,124,224302,0.0-10.0-0.35,6163faf9d9ac4586fe776568,650c16f0f2faf8d7a0d14c09,651c1cd9553426bc649616d5,null,null,"<p style=""font-size: 60px; font-family: BACS"">uQkrdYaOk</p>",,,,,,,,,,
html-keyboard-response,125,225318,0.0-10.0-0.36,6163faf9d9ac4586fe776568,650c16f0f2faf8d7a0d14c09,651c1cd9553426bc649616d5,null,null,"<p style=""font-size: 60px; font-family: BACS"">blMkcPK</p>",,,,,,,,,,
html-keyboard-response,126,226319,0.0-10.0-0.37,6163faf9d9ac4586fe776568,650c16f0f2faf8d7a0d14c09,651c1cd9553426bc649616d5,null,null,"<p style=""font-size: 60px; font-family: BACS"">vmuLluUmb</p>",,,,,,,,,,
html-keyboard-response,127,227335,0.0-10.0-0.38,6163faf9d9ac4586fe776568,650c16f0f2faf8d7a0d14c09,651c1cd9553426bc649616d5,null,null,"<p style=""font-size: 60px; font-family: BACS"">TdTDEKBO</p>",,,,,,,,,,
html-keyboard-response,128,228346,0.0-10.0-0.39,6163faf9d9ac4586fe776568,650c16f0f2faf8d7a0d14c09,651c1cd9553426bc649616d5,null,null,"<p style=""font-size: 60px; font-family: BACS"">rvAJrAJu</p>",,,,,,,,,,
html-keyboard-response,129,229362,0.0-10.0-0.40,6163faf9d9ac4586fe776568,650c16f0f2faf8d7a0d14c09,651c1cd9553426bc649616d5,null,null,"<p style=""font-size: 60px; font-family: BACS"">AlTdTbk</p>",,,,,,,,,,
html-keyboard-response,130,230375,0.0-10.0-0.41,6163faf9d9ac4586fe776568,650c16f0f2faf8d7a0d14c09,651c1cd9553426bc649616d5,null,null,"<p style=""font-size: 60px; font-family: BACS"">blMkAkd</p>",,,,,,,,,,
html-keyboard-response,131,231387,0.0-10.0-0.42,6163faf9d9ac4586fe776568,650c16f0f2faf8d7a0d14c09,651c1cd9553426bc649616d5,null,null,"<p style=""font-size: 60px; font-family: BACS"">GabkuUmb</p>",,,,,,,,,,
html-keyboard-response,132,232401,0.0-10.0-0.43,6163faf9d9ac4586fe776568,650c16f0f2faf8d7a0d14c09,651c1cd9553426bc649616d5,null,null,"<p style=""font-size: 60px; font-family: BACS"">rvAJZckv</p>",,,,,,,,,,
html-keyboard-response,133,233405,0.0-10.0-0.44,6163faf9d9ac4586fe776568,650c16f0f2faf8d7a0d14c09,651c1cd9553426bc649616d5,null,null,"<p style=""font-size: 60px; font-family: BACS"">AlTdtcB</p>",,,,,,,,,,
html-keyboard-response,134,234418,0.0-10.0-0.45,6163faf9d9ac4586fe776568,650c16f0f2faf8d7a0d14c09,651c1cd9553426bc649616d5,null,null,"<p style=""font-size: 60px; font-family: BACS"">vQdOuUmb</p>",,,,,,,,,,
html-keyboard-response,135,235430,0.0-10.0-0.46,6163faf9d9ac4586fe776568,650c16f0f2faf8d7a0d14c09,651c1cd9553426bc649616d5,null,null,"<p style=""font-size: 60px; font-family: BACS"">kKRCEKBO</p>",,,,,,,,,,
html-keyboard-response,136,236445,0.0-10.0-0.47,6163faf9d9ac4586fe776568,650c16f0f2faf8d7a0d14c09,651c1cd9553426bc649616d5,null,null,"<p style=""font-size: 60px; font-family: BACS"">vmuLluvJ</p>",,,,,,,,,,
html-keyboard-response,137,237447,0.0-10.0-0.48,6163faf9d9ac4586fe776568,650c16f0f2faf8d7a0d14c09,651c1cd9553426bc649616d5,null,null,"<p style=""font-size: 60px; font-family: BACS"">TKDkcPK</p>",,,,,,,,,,
html-keyboard-response,138,238462,0.0-10.0-0.49,6163faf9d9ac4586fe776568,650c16f0f2faf8d7a0d14c09,651c1cd9553426bc649616d5,null,null,"<p style=""font-size: 60px; font-family: BACS"">thbOMAkd</p>",,,,,,,,,,
html-keyboard-response,139,239473,0.0-10.0-0.50,6163faf9d9ac4586fe776568,650c16f0f2faf8d7a0d14c09,651c1cd9553426bc649616d5,null,null,"<p style=""font-size: 60px; font-family: BACS"">mZUrQYaOk</p>",,,,,,,,,,
html-keyboard-response,140,240486,0.0-10.0-0.51,6163faf9d9ac4586fe776568,650c16f0f2faf8d7a0d14c09,651c1cd9553426bc649616d5,null,null,"<p style=""font-size: 60px; font-family: BACS"">rvAJuvJ</p>",,,,,,,,,,
html-keyboard-response,141,241493,0.0-10.0-0.52,6163faf9d9ac4586fe776568,650c16f0f2faf8d7a0d14c09,651c1cd9553426bc649616d5,null,null,"<p style=""font-size: 60px; font-family: BACS"">TKDkTbk</p>",,,,,,,,,,
html-keyboard-response,142,242505,0.0-10.0-0.53,6163faf9d9ac4586fe776568,650c16f0f2faf8d7a0d14c09,651c1cd9553426bc649616d5,null,null,"<p style=""font-size: 60px; font-family: BACS"">LvuOGuUmb</p>",,,,,,,,,,
html-keyboard-response,143,243507,0.0-10.0-0.54,6163faf9d9ac4586fe776568,650c16f0f2faf8d7a0d14c09,651c1cd9553426bc649616d5,null,null,"<p style=""font-size: 60px; font-family: BACS"">kKRCTbk</p>",,,,,,,,,,
html-keyboard-response,144,244517,0.0-10.0-0.55,6163faf9d9ac4586fe776568,650c16f0f2faf8d7a0d14c09,651c1cd9553426bc649616d5,null,null,"<p style=""font-size: 60px; font-family: BACS"">LvuOGZckv</p>",,,,,,,,,,
html-keyboard-response,145,245531,0.0-10.0-0.56,6163faf9d9ac4586fe776568,650c16f0f2faf8d7a0d14c09,651c1cd9553426bc649616d5,null,null,"<p style=""font-size: 60px; font-family: BACS"">CDEmYEKBO</p>",,,,,,,,,,
html-keyboard-response,146,246544,0.0-10.0-0.57,6163faf9d9ac4586fe776568,650c16f0f2faf8d7a0d14c09,651c1cd9553426bc649616d5,null,null,"<p style=""font-size: 60px; font-family: BACS"">LvuOGuvJ</p>",,,,,,,,,,
html-keyboard-response,147,247560,0.0-10.0-0.58,6163faf9d9ac4586fe776568,650c16f0f2faf8d7a0d14c09,651c1cd9553426bc649616d5,null,null,"<p style=""font-size: 60px; font-family: BACS"">tDPRkAkd</p>",,,,,,,,,,
html-keyboard-response,148,248573,0.0-10.0-0.59,6163faf9d9ac4586fe776568,650c16f0f2faf8d7a0d14c09,651c1cd9553426bc649616d5,null,null,"<p style=""font-size: 60px; font-family: BACS"">vmuLlrAJu</p>",,,,,,,,,,
html-keyboard-response,149,249586,0.0-10.0-0.60,6163faf9d9ac4586fe776568,650c16f0f2faf8d7a0d14c09,651c1cd9553426bc649616d5,null,null,"<p style=""font-size: 60px; font-family: BACS"">vQdOZckv</p>",,,,,,,,,,
html-keyboard-response,150,250588,0.0-10.0-0.61,6163faf9d9ac4586fe776568,650c16f0f2faf8d7a0d14c09,651c1cd9553426bc649616d5,null,null,"<p style=""font-size: 60px; font-family: BACS"">blMkEKBO</p>",,,,,,,,,,
html-keyboard-response,151,251604,0.0-10.0-0.62,6163faf9d9ac4586fe776568,650c16f0f2faf8d7a0d14c09,651c1cd9553426bc649616d5,null,null,"<p style=""font-size: 60px; font-family: BACS"">vmuLlYaOk</p>",,,,,,,,,,
html-keyboard-response,152,252618,0.0-10.0-0.63,6163faf9d9ac4586fe776568,650c16f0f2faf8d7a0d14c09,651c1cd9553426bc649616d5,null,null,"<p style=""font-size: 60px; font-family: BACS"">thbOMTbk</p>",,,,,,,,,,
html-keyboard-response,153,253632,0.0-10.0-0.64,6163faf9d9ac4586fe776568,650c16f0f2faf8d7a0d14c09,651c1cd9553426bc649616d5,null,null,"<p style=""font-size: 60px; font-family: BACS"">uQkrdrAJu</p>",,,,,,,,,,
html-keyboard-response,154,254642,0.0-10.0-0.65,6163faf9d9ac4586fe776568,650c16f0f2faf8d7a0d14c09,651c1cd9553426bc649616d5,null,null,"<p style=""font-size: 60px; font-family: BACS"">PlEKAkd</p>",,,,,,,,,,
html-keyboard-response,155,255656,0.0-10.0-0.66,6163faf9d9ac4586fe776568,650c16f0f2faf8d7a0d14c09,651c1cd9553426bc649616d5,null,null,"<p style=""font-size: 60px; font-family: BACS"">rvAJYaOk</p>",,,,,,,,,,
html-keyboard-response,156,256667,0.0-10.0-0.67,6163faf9d9ac4586fe776568,650c16f0f2faf8d7a0d14c09,651c1cd9553426bc649616d5,null,null,"<p style=""font-size: 60px; font-family: BACS"">TKDkEKBO</p>",,,,,,,,,,
html-keyboard-response,157,257684,0.0-10.0-0.68,6163faf9d9ac4586fe776568,650c16f0f2faf8d7a0d14c09,651c1cd9553426bc649616d5,null,null,"<p style=""font-size: 60px; font-family: BACS"">PlEKTbk</p>",,,,,,,,,,
html-keyboard-response,158,258697,0.0-10.0-0.69,6163faf9d9ac4586fe776568,650c16f0f2faf8d7a0d14c09,651c1cd9553426bc649616d5,null,null,"<p style=""font-size: 60px; font-family: BACS"">GLluAYaOk</p>",,,,,,,,,,
html-keyboard-response,159,259713,0.0-10.0-0.70,6163faf9d9ac4586fe776568,650c16f0f2faf8d7a0d14c09,651c1cd9553426bc649616d5,null,null,"<p style=""font-size: 60px; font-family: BACS"">aUZArAJu</p>",,,,,,,,,,
html-keyboard-response,160,260728,0.0-10.0-0.71,6163faf9d9ac4586fe776568,650c16f0f2faf8d7a0d14c09,651c1cd9553426bc649616d5,null,null,"<p style=""font-size: 60px; font-family: BACS"">PlEKtcB</p>",,,,,,,,,,
html-keyboard-response,161,261739,0.0-10.0-0.72,6163faf9d9ac4586fe776568,650c16f0f2faf8d7a0d14c09,651c1cd9553426bc649616d5,null,null,"<p style=""font-size: 60px; font-family: BACS"">blMkTbk</p>",,,,,,,,,,
html-keyboard-response,162,262751,0.0-10.0-0.73,6163faf9d9ac4586fe776568,650c16f0f2faf8d7a0d14c09,651c1cd9553426bc649616d5,null,null,"<p style=""font-size: 60px; font-family: BACS"">TKDktcB</p>",,,,,,,,,,
html-keyboard-response,163,263764,0.0-10.0-0.74,6163faf9d9ac4586fe776568,650c16f0f2faf8d7a0d14c09,651c1cd9553426bc649616d5,null,null,"<p style=""font-size: 60px; font-family: BACS"">TdTDcPK</p>",,,,,,,,,,
html-keyboard-response,164,264781,0.0-10.0-0.75,6163faf9d9ac4586fe776568,650c16f0f2faf8d7a0d14c09,651c1cd9553426bc649616d5,null,null,"<p style=""font-size: 60px; font-family: BACS"">GLluAZckv</p>",,,,,,,,,,
html-keyboard-response,165,265796,0.0-10.0-0.76,6163faf9d9ac4586fe776568,650c16f0f2faf8d7a0d14c09,651c1cd9553426bc649616d5,null,null,"<p style=""font-size: 60px; font-family: BACS"">thbOMEKBO</p>",,,,,,,,,,
html-keyboard-response,166,266811,0.0-10.0-0.77,6163faf9d9ac4586fe776568,650c16f0f2faf8d7a0d14c09,651c1cd9553426bc649616d5,null,null,"<p style=""font-size: 60px; font-family: BACS"">dOYmlcPK</p>",,,,,,,,,,
html-keyboard-response,167,267824,0.0-10.0-0.78,6163faf9d9ac4586fe776568,650c16f0f2faf8d7a0d14c09,651c1cd9553426bc649616d5,null,null,"<p style=""font-size: 60px; font-family: BACS"">uQkrduvJ</p>",,,,,,,,,,
html-keyboard-response,168,268838,0.0-10.0-0.79,6163faf9d9ac4586fe776568,650c16f0f2faf8d7a0d14c09,651c1cd9553426bc649616d5,null,null,"<p style=""font-size: 60px; font-family: BACS"">tDPRktcB</p>",,,,,,,,,,
html-keyboard-response,169,281071,0.0-11.0,6163faf9d9ac4586fe776568,650c16f0f2faf8d7a0d14c09,651c1cd9553426bc649616d5,12233, ,"<p>Great, you've seen the second block of words. You may now take a short break.</p>
      <p>Press the spacebar when you're ready to continue.</p>",,,,,,,,,,
html-keyboard-response,170,282081,0.0-12.0-0.0,6163faf9d9ac4586fe776568,650c16f0f2faf8d7a0d14c09,651c1cd9553426bc649616d5,null,null,"<p style=""font-size: 60px; font-family: BACS"">TKDktcB</p>",,,,,,,,,,
html-keyboard-response,171,283097,0.0-12.0-0.1,6163faf9d9ac4586fe776568,650c16f0f2faf8d7a0d14c09,651c1cd9553426bc649616d5,null,null,"<p style=""font-size: 60px; font-family: BACS"">mZUrQuvJ</p>",,,,,,,,,,
html-keyboard-response,172,284110,0.0-12.0-0.2,6163faf9d9ac4586fe776568,650c16f0f2faf8d7a0d14c09,651c1cd9553426bc649616d5,null,null,"<p style=""font-size: 60px; font-family: BACS"">CDEmYAkd</p>",,,,,,,,,,
html-keyboard-response,173,285119,0.0-12.0-0.3,6163faf9d9ac4586fe776568,650c16f0f2faf8d7a0d14c09,651c1cd9553426bc649616d5,null,null,"<p style=""font-size: 60px; font-family: BACS"">TKDkTbk</p>",,,,,,,,,,
html-keyboard-response,174,286133,0.0-12.0-0.4,6163faf9d9ac4586fe776568,650c16f0f2faf8d7a0d14c09,651c1cd9553426bc649616d5,null,null,"<p style=""font-size: 60px; font-family: BACS"">uQkrduvJ</p>",,,,,,,,,,
html-keyboard-response,175,287144,0.0-12.0-0.5,6163faf9d9ac4586fe776568,650c16f0f2faf8d7a0d14c09,651c1cd9553426bc649616d5,null,null,"<p style=""font-size: 60px; font-family: BACS"">GLluArAJu</p>",,,,,,,,,,
html-keyboard-response,176,288155,0.0-12.0-0.6,6163faf9d9ac4586fe776568,650c16f0f2faf8d7a0d14c09,651c1cd9553426bc649616d5,null,null,"<p style=""font-size: 60px; font-family: BACS"">TKDkEKBO</p>",,,,,,,,,,
html-keyboard-response,177,289162,0.0-12.0-0.7,6163faf9d9ac4586fe776568,650c16f0f2faf8d7a0d14c09,651c1cd9553426bc649616d5,null,null,"<p style=""font-size: 60px; font-family: BACS"">tDPRkTbk</p>",,,,,,,,,,
html-keyboard-response,178,290163,0.0-12.0-0.8,6163faf9d9ac4586fe776568,650c16f0f2faf8d7a0d14c09,651c1cd9553426bc649616d5,null,null,"<p style=""font-size: 60px; font-family: BACS"">blMkAkd</p>",,,,,,,,,,
html-keyboard-response,179,291173,0.0-12.0-0.9,6163faf9d9ac4586fe776568,650c16f0f2faf8d7a0d14c09,651c1cd9553426bc649616d5,null,null,"<p style=""font-size: 60px; font-family: BACS"">TKDkcPK</p>",,,,,,,,,,
html-keyboard-response,180,292178,0.0-12.0-0.10,6163faf9d9ac4586fe776568,650c16f0f2faf8d7a0d14c09,651c1cd9553426bc649616d5,null,null,"<p style=""font-size: 60px; font-family: BACS"">mZUrQuUmb</p>",,,,,,,,,,
html-keyboard-response,181,293190,0.0-12.0-0.11,6163faf9d9ac4586fe776568,650c16f0f2faf8d7a0d14c09,651c1cd9553426bc649616d5,null,null,"<p style=""font-size: 60px; font-family: BACS"">AlTdcPK</p>",,,,,,,,,,
html-keyboard-response,182,294204,0.0-12.0-0.12,6163faf9d9ac4586fe776568,650c16f0f2faf8d7a0d14c09,651c1cd9553426bc649616d5,null,null,"<p style=""font-size: 60px; font-family: BACS"">vmuLlYaOk</p>",,,,,,,,,,
html-keyboard-response,183,295215,0.0-12.0-0.13,6163faf9d9ac4586fe776568,650c16f0f2faf8d7a0d14c09,651c1cd9553426bc649616d5,null,null,"<p style=""font-size: 60px; font-family: BACS"">dOYmlTbk</p>",,,,,,,,,,
html-keyboard-response,184,296217,0.0-12.0-0.14,6163faf9d9ac4586fe776568,650c16f0f2faf8d7a0d14c09,651c1cd9553426bc649616d5,null,null,"<p style=""font-size: 60px; font-family: BACS"">mZUrQZckv</p>",,,,,,,,,,
html-keyboard-response,185,297229,0.0-12.0-0.15,6163faf9d9ac4586fe776568,650c16f0f2faf8d7a0d14c09,651c1cd9553426bc649616d5,null,null,"<p style=""font-size: 60px; font-family: BACS"">PlEKTbk</p>",,,,,,,,,,
html-keyboard-response,186,298240,0.0-12.0-0.16,6163faf9d9ac4586fe776568,650c16f0f2faf8d7a0d14c09,651c1cd9553426bc649616d5,null,null,"<p style=""font-size: 60px; font-family: BACS"">uQkrdYaOk</p>",,,,,,,,,,
html-keyboard-response,187,299254,0.0-12.0-0.17,6163faf9d9ac4586fe776568,650c16f0f2faf8d7a0d14c09,651c1cd9553426bc649616d5,null,null,"<p style=""font-size: 60px; font-family: BACS"">dOYmlcPK</p>",,,,,,,,,,
html-keyboard-response,188,300256,0.0-12.0-0.18,6163faf9d9ac4586fe776568,650c16f0f2faf8d7a0d14c09,651c1cd9553426bc649616d5,null,null,"<p style=""font-size: 60px; font-family: BACS"">PlEKEKBO</p>",,,,,,,,,,
html-keyboard-response,189,301259,0.0-12.0-0.19,6163faf9d9ac4586fe776568,650c16f0f2faf8d7a0d14c09,651c1cd9553426bc649616d5,null,null,"<p style=""font-size: 60px; font-family: BACS"">rvAJZckv</p>",,,,,,,,,,
html-keyboard-response,190,302268,0.0-12.0-0.20,6163faf9d9ac4586fe776568,650c16f0f2faf8d7a0d14c09,651c1cd9553426bc649616d5,null,null,"<p style=""font-size: 60px; font-family: BACS"">vmuLlrAJu</p>",,,,,,,,,,
html-keyboard-response,191,303280,0.0-12.0-0.21,6163faf9d9ac4586fe776568,650c16f0f2faf8d7a0d14c09,651c1cd9553426bc649616d5,null,null,"<p style=""font-size: 60px; font-family: BACS"">tDPRkcPK</p>",,,,,,,,,,
html-keyboard-response,192,304294,0.0-12.0-0.22,6163faf9d9ac4586fe776568,650c16f0f2faf8d7a0d14c09,651c1cd9553426bc649616d5,null,null,"<p style=""font-size: 60px; font-family: BACS"">thbOMEKBO</p>",,,,,,,,,,
html-keyboard-response,193,305310,0.0-12.0-0.23,6163faf9d9ac4586fe776568,650c16f0f2faf8d7a0d14c09,651c1cd9553426bc649616d5,null,null,"<p style=""font-size: 60px; font-family: BACS"">YJkbuvJ</p>",,,,,,,,,,
html-keyboard-response,194,306324,0.0-12.0-0.24,6163faf9d9ac4586fe776568,650c16f0f2faf8d7a0d14c09,651c1cd9553426bc649616d5,null,null,"<p style=""font-size: 60px; font-family: BACS"">kKRCtcB</p>",,,,,,,,,,
html-keyboard-response,195,307336,0.0-12.0-0.25,6163faf9d9ac4586fe776568,650c16f0f2faf8d7a0d14c09,651c1cd9553426bc649616d5,null,null,"<p style=""font-size: 60px; font-family: BACS"">thbOMAkd</p>",,,,,,,,,,
html-keyboard-response,196,308344,0.0-12.0-0.26,6163faf9d9ac4586fe776568,650c16f0f2faf8d7a0d14c09,651c1cd9553426bc649616d5,null,null,"<p style=""font-size: 60px; font-family: BACS"">GabkYaOk</p>",,,,,,,,,,
html-keyboard-response,197,309346,0.0-12.0-0.27,6163faf9d9ac4586fe776568,650c16f0f2faf8d7a0d14c09,651c1cd9553426bc649616d5,null,null,"<p style=""font-size: 60px; font-family: BACS"">GLluAZckv</p>",,,,,,,,,,
html-keyboard-response,198,310360,0.0-12.0-0.28,6163faf9d9ac4586fe776568,650c16f0f2faf8d7a0d14c09,651c1cd9553426bc649616d5,null,null,"<p style=""font-size: 60px; font-family: BACS"">TdTDcPK</p>",,,,,,,,,,
html-keyboard-response,199,311362,0.0-12.0-0.29,6163faf9d9ac4586fe776568,650c16f0f2faf8d7a0d14c09,651c1cd9553426bc649616d5,null,null,"<p style=""font-size: 60px; font-family: BACS"">AlTdTbk</p>",,,,,,,,,,
html-keyboard-response,200,312379,0.0-12.0-0.30,6163faf9d9ac4586fe776568,650c16f0f2faf8d7a0d14c09,651c1cd9553426bc649616d5,null,null,"<p style=""font-size: 60px; font-family: BACS"">YJkbuUmb</p>",,,,,,,,,,
html-keyboard-response,201,313390,0.0-12.0-0.31,6163faf9d9ac4586fe776568,650c16f0f2faf8d7a0d14c09,651c1cd9553426bc649616d5,null,null,"<p style=""font-size: 60px; font-family: BACS"">PlEKAkd</p>",,,,,,,,,,
html-keyboard-response,202,314400,0.0-12.0-0.32,6163faf9d9ac4586fe776568,650c16f0f2faf8d7a0d14c09,651c1cd9553426bc649616d5,null,null,"<p style=""font-size: 60px; font-family: BACS"">uQkrduUmb</p>",,,,,,,,,,
html-keyboard-response,203,315415,0.0-12.0-0.33,6163faf9d9ac4586fe776568,650c16f0f2faf8d7a0d14c09,651c1cd9553426bc649616d5,null,null,"<p style=""font-size: 60px; font-family: BACS"">aUZArAJu</p>",,,,,,,,,,
html-keyboard-response,204,316429,0.0-12.0-0.34,6163faf9d9ac4586fe776568,650c16f0f2faf8d7a0d14c09,651c1cd9553426bc649616d5,null,null,"<p style=""font-size: 60px; font-family: BACS"">GabkuvJ</p>",,,,,,,,,,
html-keyboard-response,205,317432,0.0-12.0-0.35,6163faf9d9ac4586fe776568,650c16f0f2faf8d7a0d14c09,651c1cd9553426bc649616d5,null,null,"<p style=""font-size: 60px; font-family: BACS"">blMkTbk</p>",,,,,,,,,,
html-keyboard-response,206,318445,0.0-12.0-0.36,6163faf9d9ac4586fe776568,650c16f0f2faf8d7a0d14c09,651c1cd9553426bc649616d5,null,null,"<p style=""font-size: 60px; font-family: BACS"">dOYmlAkd</p>",,,,,,,,,,
html-keyboard-response,207,319459,0.0-12.0-0.37,6163faf9d9ac4586fe776568,650c16f0f2faf8d7a0d14c09,651c1cd9553426bc649616d5,null,null,"<p style=""font-size: 60px; font-family: BACS"">TdTDEKBO</p>",,,,,,,,,,
html-keyboard-response,208,320474,0.0-12.0-0.38,6163faf9d9ac4586fe776568,650c16f0f2faf8d7a0d14c09,651c1cd9553426bc649616d5,null,null,"<p style=""font-size: 60px; font-family: BACS"">GLluAuUmb</p>",,,,,,,,,,
html-keyboard-response,209,321490,0.0-12.0-0.39,6163faf9d9ac4586fe776568,650c16f0f2faf8d7a0d14c09,651c1cd9553426bc649616d5,null,null,"<p style=""font-size: 60px; font-family: BACS"">CDEmYcPK</p>",,,,,,,,,,
html-keyboard-response,210,322502,0.0-12.0-0.40,6163faf9d9ac4586fe776568,650c16f0f2faf8d7a0d14c09,651c1cd9553426bc649616d5,null,null,"<p style=""font-size: 60px; font-family: BACS"">AlTdEKBO</p>",,,,,,,,,,
html-keyboard-response,211,323516,0.0-12.0-0.41,6163faf9d9ac4586fe776568,650c16f0f2faf8d7a0d14c09,651c1cd9553426bc649616d5,null,null,"<p style=""font-size: 60px; font-family: BACS"">YJkbZckv</p>",,,,,,,,,,
html-keyboard-response,212,324518,0.0-12.0-0.42,6163faf9d9ac4586fe776568,650c16f0f2faf8d7a0d14c09,651c1cd9553426bc649616d5,null,null,"<p style=""font-size: 60px; font-family: BACS"">uQkrdrAJu</p>",,,,,,,,,,
html-keyboard-response,213,325528,0.0-12.0-0.43,6163faf9d9ac4586fe776568,650c16f0f2faf8d7a0d14c09,651c1cd9553426bc649616d5,null,null,"<p style=""font-size: 60px; font-family: BACS"">GabkuUmb</p>",,,,,,,,,,
html-keyboard-response,214,326544,0.0-12.0-0.44,6163faf9d9ac4586fe776568,650c16f0f2faf8d7a0d14c09,651c1cd9553426bc649616d5,null,null,"<p style=""font-size: 60px; font-family: BACS"">LvuOGZckv</p>",,,,,,,,,,
html-keyboard-response,215,327556,0.0-12.0-0.45,6163faf9d9ac4586fe776568,650c16f0f2faf8d7a0d14c09,651c1cd9553426bc649616d5,null,null,"<p style=""font-size: 60px; font-family: BACS"">blMkcPK</p>",,,,,,,,,,
html-keyboard-response,216,328571,0.0-12.0-0.46,6163faf9d9ac4586fe776568,650c16f0f2faf8d7a0d14c09,651c1cd9553426bc649616d5,null,null,"<p style=""font-size: 60px; font-family: BACS"">thbOMTbk</p>",,,,,,,,,,
html-keyboard-response,217,329585,0.0-12.0-0.47,6163faf9d9ac4586fe776568,650c16f0f2faf8d7a0d14c09,651c1cd9553426bc649616d5,null,null,"<p style=""font-size: 60px; font-family: BACS"">vQdOYaOk</p>",,,,,,,,,,
html-keyboard-response,218,330598,0.0-12.0-0.48,6163faf9d9ac4586fe776568,650c16f0f2faf8d7a0d14c09,651c1cd9553426bc649616d5,null,null,"<p style=""font-size: 60px; font-family: BACS"">thbOMcPK</p>",,,,,,,,,,
html-keyboard-response,219,331601,0.0-12.0-0.49,6163faf9d9ac4586fe776568,650c16f0f2faf8d7a0d14c09,651c1cd9553426bc649616d5,null,null,"<p style=""font-size: 60px; font-family: BACS"">aUZAYaOk</p>",,,,,,,,,,
html-keyboard-response,220,332615,0.0-12.0-0.50,6163faf9d9ac4586fe776568,650c16f0f2faf8d7a0d14c09,651c1cd9553426bc649616d5,null,null,"<p style=""font-size: 60px; font-family: BACS"">rvAJrAJu</p>",,,,,,,,,,
html-keyboard-response,221,333631,0.0-12.0-0.51,6163faf9d9ac4586fe776568,650c16f0f2faf8d7a0d14c09,651c1cd9553426bc649616d5,null,null,"<p style=""font-size: 60px; font-family: BACS"">tDPRktcB</p>",,,,,,,,,,
html-keyboard-response,222,334640,0.0-12.0-0.52,6163faf9d9ac4586fe776568,650c16f0f2faf8d7a0d14c09,651c1cd9553426bc649616d5,null,null,"<p style=""font-size: 60px; font-family: BACS"">vQdOZckv</p>",,,,,,,,,,
html-keyboard-response,223,335653,0.0-12.0-0.53,6163faf9d9ac4586fe776568,650c16f0f2faf8d7a0d14c09,651c1cd9553426bc649616d5,null,null,"<p style=""font-size: 60px; font-family: BACS"">CDEmYtcB</p>",,,,,,,,,,
html-keyboard-response,224,336664,0.0-12.0-0.54,6163faf9d9ac4586fe776568,650c16f0f2faf8d7a0d14c09,651c1cd9553426bc649616d5,null,null,"<p style=""font-size: 60px; font-family: BACS"">tDPRkAkd</p>",,,,,,,,,,
html-keyboard-response,225,337673,0.0-12.0-0.55,6163faf9d9ac4586fe776568,650c16f0f2faf8d7a0d14c09,651c1cd9553426bc649616d5,null,null,"<p style=""font-size: 60px; font-family: BACS"">GLluAYaOk</p>",,,,,,,,,,
html-keyboard-response,226,338689,0.0-12.0-0.56,6163faf9d9ac4586fe776568,650c16f0f2faf8d7a0d14c09,651c1cd9553426bc649616d5,null,null,"<p style=""font-size: 60px; font-family: BACS"">LvuOGuvJ</p>",,,,,,,,,,
html-keyboard-response,227,339699,0.0-12.0-0.57,6163faf9d9ac4586fe776568,650c16f0f2faf8d7a0d14c09,651c1cd9553426bc649616d5,null,null,"<p style=""font-size: 60px; font-family: BACS"">PlEKtcB</p>",,,,,,,,,,
html-keyboard-response,228,340711,0.0-12.0-0.58,6163faf9d9ac4586fe776568,650c16f0f2faf8d7a0d14c09,651c1cd9553426bc649616d5,null,null,"<p style=""font-size: 60px; font-family: BACS"">aUZAZckv</p>",,,,,,,,,,
html-keyboard-response,229,341727,0.0-12.0-0.59,6163faf9d9ac4586fe776568,650c16f0f2faf8d7a0d14c09,651c1cd9553426bc649616d5,null,null,"<p style=""font-size: 60px; font-family: BACS"">kKRCAkd</p>",,,,,,,,,,
html-keyboard-response,230,342739,0.0-12.0-0.60,6163faf9d9ac4586fe776568,650c16f0f2faf8d7a0d14c09,651c1cd9553426bc649616d5,null,null,"<p style=""font-size: 60px; font-family: BACS"">YJkbrAJu</p>",,,,,,,,,,
html-keyboard-response,231,343750,0.0-12.0-0.61,6163faf9d9ac4586fe776568,650c16f0f2faf8d7a0d14c09,651c1cd9553426bc649616d5,null,null,"<p style=""font-size: 60px; font-family: BACS"">blMkEKBO</p>",,,,,,,,,,
html-keyboard-response,232,344766,0.0-12.0-0.62,6163faf9d9ac4586fe776568,650c16f0f2faf8d7a0d14c09,651c1cd9553426bc649616d5,null,null,"<p style=""font-size: 60px; font-family: BACS"">kKRCTbk</p>",,,,,,,,,,
html-keyboard-response,233,345775,0.0-12.0-0.63,6163faf9d9ac4586fe776568,650c16f0f2faf8d7a0d14c09,651c1cd9553426bc649616d5,null,null,"<p style=""font-size: 60px; font-family: BACS"">AlTdtcB</p>",,,,,,,,,,
html-keyboard-response,234,346777,0.0-12.0-0.64,6163faf9d9ac4586fe776568,650c16f0f2faf8d7a0d14c09,651c1cd9553426bc649616d5,null,null,"<p style=""font-size: 60px; font-family: BACS"">rvAJuvJ</p>",,,,,,,,,,
html-keyboard-response,235,347791,0.0-12.0-0.65,6163faf9d9ac4586fe776568,650c16f0f2faf8d7a0d14c09,651c1cd9553426bc649616d5,null,null,"<p style=""font-size: 60px; font-family: BACS"">LvuOGuUmb</p>",,,,,,,,,,
html-keyboard-response,236,348803,0.0-12.0-0.66,6163faf9d9ac4586fe776568,650c16f0f2faf8d7a0d14c09,651c1cd9553426bc649616d5,null,null,"<p style=""font-size: 60px; font-family: BACS"">CDEmYEKBO</p>",,,,,,,,,,
html-keyboard-response,237,349819,0.0-12.0-0.67,6163faf9d9ac4586fe776568,650c16f0f2faf8d7a0d14c09,651c1cd9553426bc649616d5,null,null,"<p style=""font-size: 60px; font-family: BACS"">TdTDAkd</p>",,,,,,,,,,
html-keyboard-response,238,350830,0.0-12.0-0.68,6163faf9d9ac4586fe776568,650c16f0f2faf8d7a0d14c09,651c1cd9553426bc649616d5,null,null,"<p style=""font-size: 60px; font-family: BACS"">vQdOrAJu</p>",,,,,,,,,,
html-keyboard-response,239,351842,0.0-12.0-0.69,6163faf9d9ac4586fe776568,650c16f0f2faf8d7a0d14c09,651c1cd9553426bc649616d5,null,null,"<p style=""font-size: 60px; font-family: BACS"">aUZAuvJ</p>",,,,,,,,,,
html-keyboard-response,240,352852,0.0-12.0-0.70,6163faf9d9ac4586fe776568,650c16f0f2faf8d7a0d14c09,651c1cd9553426bc649616d5,null,null,"<p style=""font-size: 60px; font-family: BACS"">GabkZckv</p>",,,,,,,,,,
html-keyboard-response,241,353853,0.0-12.0-0.71,6163faf9d9ac4586fe776568,650c16f0f2faf8d7a0d14c09,651c1cd9553426bc649616d5,null,null,"<p style=""font-size: 60px; font-family: BACS"">rvAJYaOk</p>",,,,,,,,,,
html-keyboard-response,242,354864,0.0-12.0-0.72,6163faf9d9ac4586fe776568,650c16f0f2faf8d7a0d14c09,651c1cd9553426bc649616d5,null,null,"<p style=""font-size: 60px; font-family: BACS"">TdTDtcB</p>",,,,,,,,,,
html-keyboard-response,243,355878,0.0-12.0-0.73,6163faf9d9ac4586fe776568,650c16f0f2faf8d7a0d14c09,651c1cd9553426bc649616d5,null,null,"<p style=""font-size: 60px; font-family: BACS"">LvuOGrAJu</p>",,,,,,,,,,
html-keyboard-response,244,356892,0.0-12.0-0.74,6163faf9d9ac4586fe776568,650c16f0f2faf8d7a0d14c09,651c1cd9553426bc649616d5,null,null,"<p style=""font-size: 60px; font-family: BACS"">dOYmltcB</p>",,,,,,,,,,
html-keyboard-response,245,357895,0.0-12.0-0.75,6163faf9d9ac4586fe776568,650c16f0f2faf8d7a0d14c09,651c1cd9553426bc649616d5,null,null,"<p style=""font-size: 60px; font-family: BACS"">vmuLluUmb</p>",,,,,,,,,,
html-keyboard-response,246,358910,0.0-12.0-0.76,6163faf9d9ac4586fe776568,650c16f0f2faf8d7a0d14c09,651c1cd9553426bc649616d5,null,null,"<p style=""font-size: 60px; font-family: BACS"">mZUrQYaOk</p>",,,,,,,,,,
html-keyboard-response,247,359922,0.0-12.0-0.77,6163faf9d9ac4586fe776568,650c16f0f2faf8d7a0d14c09,651c1cd9553426bc649616d5,null,null,"<p style=""font-size: 60px; font-family: BACS"">vQdOuUmb</p>",,,,,,,,,,
html-keyboard-response,248,360932,0.0-12.0-0.78,6163faf9d9ac4586fe776568,650c16f0f2faf8d7a0d14c09,651c1cd9553426bc649616d5,null,null,"<p style=""font-size: 60px; font-family: BACS"">kKRCEKBO</p>",,,,,,,,,,
html-keyboard-response,249,361945,0.0-12.0-0.79,6163faf9d9ac4586fe776568,650c16f0f2faf8d7a0d14c09,651c1cd9553426bc649616d5,null,null,"<p style=""font-size: 60px; font-family: BACS"">vmuLluvJ</p>",,,,,,,,,,
html-keyboard-response,250,364613,0.0-13.0,6163faf9d9ac4586fe776568,650c16f0f2faf8d7a0d14c09,651c1cd9553426bc649616d5,2668, ,"<p>Great, you've seen the third block of words. You may now take a short break.</p>
      <p>Press the spacebar when you're ready to continue.</p>",,,,,,,,,,
html-keyboard-response,251,365627,0.0-14.0-0.0,6163faf9d9ac4586fe776568,650c16f0f2faf8d7a0d14c09,651c1cd9553426bc649616d5,null,null,"<p style=""font-size: 60px; font-family: BACS"">CDEmYtcB</p>",,,,,,,,,,
html-keyboard-response,252,366642,0.0-14.0-0.1,6163faf9d9ac4586fe776568,650c16f0f2faf8d7a0d14c09,651c1cd9553426bc649616d5,null,null,"<p style=""font-size: 60px; font-family: BACS"">thbOMEKBO</p>",,,,,,,,,,
html-keyboard-response,253,367643,0.0-14.0-0.2,6163faf9d9ac4586fe776568,650c16f0f2faf8d7a0d14c09,651c1cd9553426bc649616d5,null,null,"<p style=""font-size: 60px; font-family: BACS"">YJkbZckv</p>",,,,,,,,,,
html-keyboard-response,254,368658,0.0-14.0-0.3,6163faf9d9ac4586fe776568,650c16f0f2faf8d7a0d14c09,651c1cd9553426bc649616d5,null,null,"<p style=""font-size: 60px; font-family: BACS"">mZUrQYaOk</p>",,,,,,,,,,
html-keyboard-response,255,369663,0.0-14.0-0.4,6163faf9d9ac4586fe776568,650c16f0f2faf8d7a0d14c09,651c1cd9553426bc649616d5,null,null,"<p style=""font-size: 60px; font-family: BACS"">dOYmlAkd</p>",,,,,,,,,,
html-keyboard-response,256,370679,0.0-14.0-0.5,6163faf9d9ac4586fe776568,650c16f0f2faf8d7a0d14c09,651c1cd9553426bc649616d5,null,null,"<p style=""font-size: 60px; font-family: BACS"">YJkbuvJ</p>",,,,,,,,,,
html-keyboard-response,257,371694,0.0-14.0-0.6,6163faf9d9ac4586fe776568,650c16f0f2faf8d7a0d14c09,651c1cd9553426bc649616d5,null,null,"<p style=""font-size: 60px; font-family: BACS"">blMkTbk</p>",,,,,,,,,,
html-keyboard-response,258,372703,0.0-14.0-0.7,6163faf9d9ac4586fe776568,650c16f0f2faf8d7a0d14c09,651c1cd9553426bc649616d5,null,null,"<p style=""font-size: 60px; font-family: BACS"">rvAJYaOk</p>",,,,,,,,,,
html-keyboard-response,259,373720,0.0-14.0-0.8,6163faf9d9ac4586fe776568,650c16f0f2faf8d7a0d14c09,651c1cd9553426bc649616d5,null,null,"<p style=""font-size: 60px; font-family: BACS"">LvuOGrAJu</p>",,,,,,,,,,
html-keyboard-response,260,374733,0.0-14.0-0.9,6163faf9d9ac4586fe776568,650c16f0f2faf8d7a0d14c09,651c1cd9553426bc649616d5,null,null,"<p style=""font-size: 60px; font-family: BACS"">tDPRkcPK</p>",,,,,,,,,,
html-keyboard-response,261,375741,0.0-14.0-0.10,6163faf9d9ac4586fe776568,650c16f0f2faf8d7a0d14c09,651c1cd9553426bc649616d5,null,null,"<p style=""font-size: 60px; font-family: BACS"">vmuLluUmb</p>",,,,,,,,,,
html-keyboard-response,262,376757,0.0-14.0-0.11,6163faf9d9ac4586fe776568,650c16f0f2faf8d7a0d14c09,651c1cd9553426bc649616d5,null,null,"<p style=""font-size: 60px; font-family: BACS"">PlEKAkd</p>",,,,,,,,,,
html-keyboard-response,263,377771,0.0-14.0-0.12,6163faf9d9ac4586fe776568,650c16f0f2faf8d7a0d14c09,651c1cd9553426bc649616d5,null,null,"<p style=""font-size: 60px; font-family: BACS"">GabkZckv</p>",,,,,,,,,,
html-keyboard-response,264,378785,0.0-14.0-0.13,6163faf9d9ac4586fe776568,650c16f0f2faf8d7a0d14c09,651c1cd9553426bc649616d5,null,null,"<p style=""font-size: 60px; font-family: BACS"">AlTdcPK</p>",,,,,,,,,,
html-keyboard-response,265,379797,0.0-14.0-0.14,6163faf9d9ac4586fe776568,650c16f0f2faf8d7a0d14c09,651c1cd9553426bc649616d5,null,null,"<p style=""font-size: 60px; font-family: BACS"">GabkuUmb</p>",,,,,,,,,,
html-keyboard-response,266,380812,0.0-14.0-0.15,6163faf9d9ac4586fe776568,650c16f0f2faf8d7a0d14c09,651c1cd9553426bc649616d5,null,null,"<p style=""font-size: 60px; font-family: BACS"">AlTdEKBO</p>",,,,,,,,,,
html-keyboard-response,267,381825,0.0-14.0-0.16,6163faf9d9ac4586fe776568,650c16f0f2faf8d7a0d14c09,651c1cd9553426bc649616d5,null,null,"<p style=""font-size: 60px; font-family: BACS"">aUZAZckv</p>",,,,,,,,,,
html-keyboard-response,268,382841,0.0-14.0-0.17,6163faf9d9ac4586fe776568,650c16f0f2faf8d7a0d14c09,651c1cd9553426bc649616d5,null,null,"<p style=""font-size: 60px; font-family: BACS"">TKDkTbk</p>",,,,,,,,,,
html-keyboard-response,269,383842,0.0-14.0-0.18,6163faf9d9ac4586fe776568,650c16f0f2faf8d7a0d14c09,651c1cd9553426bc649616d5,null,null,"<p style=""font-size: 60px; font-family: BACS"">PlEKtcB</p>",,,,,,,,,,
html-keyboard-response,270,384852,0.0-14.0-0.19,6163faf9d9ac4586fe776568,650c16f0f2faf8d7a0d14c09,651c1cd9553426bc649616d5,null,null,"<p style=""font-size: 60px; font-family: BACS"">uQkrduvJ</p>",,,,,,,,,,
html-keyboard-response,271,385861,0.0-14.0-0.20,6163faf9d9ac4586fe776568,650c16f0f2faf8d7a0d14c09,651c1cd9553426bc649616d5,null,null,"<p style=""font-size: 60px; font-family: BACS"">GLluAZckv</p>",,,,,,,,,,
html-keyboard-response,272,386873,0.0-14.0-0.21,6163faf9d9ac4586fe776568,650c16f0f2faf8d7a0d14c09,651c1cd9553426bc649616d5,null,null,"<p style=""font-size: 60px; font-family: BACS"">vQdOuUmb</p>",,,,,,,,,,
html-keyboard-response,273,387887,0.0-14.0-0.22,6163faf9d9ac4586fe776568,650c16f0f2faf8d7a0d14c09,651c1cd9553426bc649616d5,null,null,"<p style=""font-size: 60px; font-family: BACS"">YJkbrAJu</p>",,,,,,,,,,
html-keyboard-response,274,388900,0.0-14.0-0.23,6163faf9d9ac4586fe776568,650c16f0f2faf8d7a0d14c09,651c1cd9553426bc649616d5,null,null,"<p style=""font-size: 60px; font-family: BACS"">TdTDEKBO</p>",,,,,,,,,,
html-keyboard-response,275,389901,0.0-14.0-0.24,6163faf9d9ac4586fe776568,650c16f0f2faf8d7a0d14c09,651c1cd9553426bc649616d5,null,null,"<p style=""font-size: 60px; font-family: BACS"">PlEKTbk</p>",,,,,,,,,,
html-keyboard-response,276,390916,0.0-14.0-0.25,6163faf9d9ac4586fe776568,650c16f0f2faf8d7a0d14c09,651c1cd9553426bc649616d5,null,null,"<p style=""font-size: 60px; font-family: BACS"">GLluAYaOk</p>",,,,,,,,,,
html-keyboard-response,277,391927,0.0-14.0-0.26,6163faf9d9ac4586fe776568,650c16f0f2faf8d7a0d14c09,651c1cd9553426bc649616d5,null,null,"<p style=""font-size: 60px; font-family: BACS"">mZUrQuvJ</p>",,,,,,,,,,
html-keyboard-response,278,392940,0.0-14.0-0.27,6163faf9d9ac4586fe776568,650c16f0f2faf8d7a0d14c09,651c1cd9553426bc649616d5,null,null,"<p style=""font-size: 60px; font-family: BACS"">TKDktcB</p>",,,,,,,,,,
html-keyboard-response,279,393942,0.0-14.0-0.28,6163faf9d9ac4586fe776568,650c16f0f2faf8d7a0d14c09,651c1cd9553426bc649616d5,null,null,"<p style=""font-size: 60px; font-family: BACS"">thbOMTbk</p>",,,,,,,,,,
html-keyboard-response,280,394957,0.0-14.0-0.29,6163faf9d9ac4586fe776568,650c16f0f2faf8d7a0d14c09,651c1cd9553426bc649616d5,null,null,"<p style=""font-size: 60px; font-family: BACS"">kKRCtcB</p>",,,,,,,,,,
html-keyboard-response,281,395967,0.0-14.0-0.30,6163faf9d9ac4586fe776568,650c16f0f2faf8d7a0d14c09,651c1cd9553426bc649616d5,null,null,"<p style=""font-size: 60px; font-family: BACS"">CDEmYAkd</p>",,,,,,,,,,
html-keyboard-response,282,396968,0.0-14.0-0.31,6163faf9d9ac4586fe776568,650c16f0f2faf8d7a0d14c09,651c1cd9553426bc649616d5,null,null,"<p style=""font-size: 60px; font-family: BACS"">aUZAuvJ</p>",,,,,,,,,,
html-keyboard-response,283,397981,0.0-14.0-0.32,6163faf9d9ac4586fe776568,650c16f0f2faf8d7a0d14c09,651c1cd9553426bc649616d5,null,null,"<p style=""font-size: 60px; font-family: BACS"">dOYmltcB</p>",,,,,,,,,,
html-keyboard-response,284,398992,0.0-14.0-0.33,6163faf9d9ac4586fe776568,650c16f0f2faf8d7a0d14c09,651c1cd9553426bc649616d5,null,null,"<p style=""font-size: 60px; font-family: BACS"">TdTDcPK</p>",,,,,,,,,,
html-keyboard-response,285,399993,0.0-14.0-0.34,6163faf9d9ac4586fe776568,650c16f0f2faf8d7a0d14c09,651c1cd9553426bc649616d5,null,null,"<p style=""font-size: 60px; font-family: BACS"">TKDkEKBO</p>",,,,,,,,,,
html-keyboard-response,286,401008,0.0-14.0-0.35,6163faf9d9ac4586fe776568,650c16f0f2faf8d7a0d14c09,651c1cd9553426bc649616d5,null,null,"<p style=""font-size: 60px; font-family: BACS"">thbOMAkd</p>",,,,,,,,,,
html-keyboard-response,287,402018,0.0-14.0-0.36,6163faf9d9ac4586fe776568,650c16f0f2faf8d7a0d14c09,651c1cd9553426bc649616d5,null,null,"<p style=""font-size: 60px; font-family: BACS"">vQdOYaOk</p>",,,,,,,,,,
html-keyboard-response,288,403032,0.0-14.0-0.37,6163faf9d9ac4586fe776568,650c16f0f2faf8d7a0d14c09,651c1cd9553426bc649616d5,null,null,"<p style=""font-size: 60px; font-family: BACS"">rvAJrAJu</p>",,,,,,,,,,
html-keyboard-response,289,404046,0.0-14.0-0.38,6163faf9d9ac4586fe776568,650c16f0f2faf8d7a0d14c09,651c1cd9553426bc649616d5,null,null,"<p style=""font-size: 60px; font-family: BACS"">CDEmYcPK</p>",,,,,,,,,,
html-keyboard-response,290,405052,0.0-14.0-0.39,6163faf9d9ac4586fe776568,650c16f0f2faf8d7a0d14c09,651c1cd9553426bc649616d5,null,null,"<p style=""font-size: 60px; font-family: BACS"">aUZAYaOk</p>",,,,,,,,,,
html-keyboard-response,291,406067,0.0-14.0-0.40,6163faf9d9ac4586fe776568,650c16f0f2faf8d7a0d14c09,651c1cd9553426bc649616d5,null,null,"<p style=""font-size: 60px; font-family: BACS"">GLluAuUmb</p>",,,,,,,,,,
html-keyboard-response,292,407081,0.0-14.0-0.41,6163faf9d9ac4586fe776568,650c16f0f2faf8d7a0d14c09,651c1cd9553426bc649616d5,null,null,"<p style=""font-size: 60px; font-family: BACS"">GabkYaOk</p>",,,,,,,,,,
html-keyboard-response,293,408092,0.0-14.0-0.42,6163faf9d9ac4586fe776568,650c16f0f2faf8d7a0d14c09,651c1cd9553426bc649616d5,null,null,"<p style=""font-size: 60px; font-family: BACS"">rvAJuvJ</p>",,,,,,,,,,
html-keyboard-response,294,409105,0.0-14.0-0.43,6163faf9d9ac4586fe776568,650c16f0f2faf8d7a0d14c09,651c1cd9553426bc649616d5,null,null,"<p style=""font-size: 60px; font-family: BACS"">aUZArAJu</p>",,,,,,,,,,
html-keyboard-response,295,410120,0.0-14.0-0.44,6163faf9d9ac4586fe776568,650c16f0f2faf8d7a0d14c09,651c1cd9553426bc649616d5,null,null,"<p style=""font-size: 60px; font-family: BACS"">LvuOGuUmb</p>",,,,,,,,,,
html-keyboard-response,296,411130,0.0-14.0-0.45,6163faf9d9ac4586fe776568,650c16f0f2faf8d7a0d14c09,651c1cd9553426bc649616d5,null,null,"<p style=""font-size: 60px; font-family: BACS"">tDPRkAkd</p>",,,,,,,,,,
html-keyboard-response,297,412143,0.0-14.0-0.46,6163faf9d9ac4586fe776568,650c16f0f2faf8d7a0d14c09,651c1cd9553426bc649616d5,null,null,"<p style=""font-size: 60px; font-family: BACS"">vmuLlYaOk</p>",,,,,,,,,,
html-keyboard-response,298,413159,0.0-14.0-0.47,6163faf9d9ac4586fe776568,650c16f0f2faf8d7a0d14c09,651c1cd9553426bc649616d5,null,null,"<p style=""font-size: 60px; font-family: BACS"">LvuOGuvJ</p>",,,,,,,,,,
html-keyboard-response,299,414173,0.0-14.0-0.48,6163faf9d9ac4586fe776568,650c16f0f2faf8d7a0d14c09,651c1cd9553426bc649616d5,null,null,"<p style=""font-size: 60px; font-family: BACS"">tDPRktcB</p>",,,,,,,,,,
html-keyboard-response,300,415186,0.0-14.0-0.49,6163faf9d9ac4586fe776568,650c16f0f2faf8d7a0d14c09,651c1cd9553426bc649616d5,null,null,"<p style=""font-size: 60px; font-family: BACS"">GLluArAJu</p>",,,,,,,,,,
html-keyboard-response,301,416202,0.0-14.0-0.50,6163faf9d9ac4586fe776568,650c16f0f2faf8d7a0d14c09,651c1cd9553426bc649616d5,null,null,"<p style=""font-size: 60px; font-family: BACS"">YJkbuUmb</p>",,,,,,,,,,
html-keyboard-response,302,417218,0.0-14.0-0.51,6163faf9d9ac4586fe776568,650c16f0f2faf8d7a0d14c09,651c1cd9553426bc649616d5,null,null,"<p style=""font-size: 60px; font-family: BACS"">vQdOZckv</p>",,,,,,,,,,
html-keyboard-response,303,418232,0.0-14.0-0.52,6163faf9d9ac4586fe776568,650c16f0f2faf8d7a0d14c09,651c1cd9553426bc649616d5,null,null,"<p style=""font-size: 60px; font-family: BACS"">kKRCTbk</p>",,,,,,,,,,
html-keyboard-response,304,419246,0.0-14.0-0.53,6163faf9d9ac4586fe776568,650c16f0f2faf8d7a0d14c09,651c1cd9553426bc649616d5,null,null,"<p style=""font-size: 60px; font-family: BACS"">blMkAkd</p>",,,,,,,,,,
html-keyboard-response,305,420247,0.0-14.0-0.54,6163faf9d9ac4586fe776568,650c16f0f2faf8d7a0d14c09,651c1cd9553426bc649616d5,null,null,"<p style=""font-size: 60px; font-family: BACS"">LvuOGZckv</p>",,,,,,,,,,
html-keyboard-response,306,421262,0.0-14.0-0.55,6163faf9d9ac4586fe776568,650c16f0f2faf8d7a0d14c09,651c1cd9553426bc649616d5,null,null,"<p style=""font-size: 60px; font-family: BACS"">kKRCAkd</p>",,,,,,,,,,
html-keyboard-response,307,422270,0.0-14.0-0.56,6163faf9d9ac4586fe776568,650c16f0f2faf8d7a0d14c09,651c1cd9553426bc649616d5,null,null,"<p style=""font-size: 60px; font-family: BACS"">rvAJZckv</p>",,,,,,,,,,
html-keyboard-response,308,423272,0.0-14.0-0.57,6163faf9d9ac4586fe776568,650c16f0f2faf8d7a0d14c09,651c1cd9553426bc649616d5,null,null,"<p style=""font-size: 60px; font-family: BACS"">uQkrduUmb</p>",,,,,,,,,,
html-keyboard-response,309,424286,0.0-14.0-0.58,6163faf9d9ac4586fe776568,650c16f0f2faf8d7a0d14c09,651c1cd9553426bc649616d5,null,null,"<p style=""font-size: 60px; font-family: BACS"">TdTDAkd</p>",,,,,,,,,,
html-keyboard-response,310,425300,0.0-14.0-0.59,6163faf9d9ac4586fe776568,650c16f0f2faf8d7a0d14c09,651c1cd9553426bc649616d5,null,null,"<p style=""font-size: 60px; font-family: BACS"">AlTdTbk</p>",,,,,,,,,,
html-keyboard-response,311,426311,0.0-14.0-0.60,6163faf9d9ac4586fe776568,650c16f0f2faf8d7a0d14c09,651c1cd9553426bc649616d5,null,null,"<p style=""font-size: 60px; font-family: BACS"">mZUrQZckv</p>",,,,,,,,,,
html-keyboard-response,312,427323,0.0-14.0-0.61,6163faf9d9ac4586fe776568,650c16f0f2faf8d7a0d14c09,651c1cd9553426bc649616d5,null,null,"<p style=""font-size: 60px; font-family: BACS"">dOYmlcPK</p>",,,,,,,,,,
html-keyboard-response,313,428325,0.0-14.0-0.62,6163faf9d9ac4586fe776568,650c16f0f2faf8d7a0d14c09,651c1cd9553426bc649616d5,null,null,"<p style=""font-size: 60px; font-family: BACS"">AlTdtcB</p>",,,,,,,,,,
html-keyboard-response,314,429330,0.0-14.0-0.63,6163faf9d9ac4586fe776568,650c16f0f2faf8d7a0d14c09,651c1cd9553426bc649616d5,null,null,"<p style=""font-size: 60px; font-family: BACS"">vmuLlrAJu</p>",,,,,,,,,,
html-keyboard-response,315,430342,0.0-14.0-0.64,6163faf9d9ac4586fe776568,650c16f0f2faf8d7a0d14c09,651c1cd9553426bc649616d5,null,null,"<p style=""font-size: 60px; font-family: BACS"">blMkcPK</p>",,,,,,,,,,
html-keyboard-response,316,431358,0.0-14.0-0.65,6163faf9d9ac4586fe776568,650c16f0f2faf8d7a0d14c09,651c1cd9553426bc649616d5,null,null,"<p style=""font-size: 60px; font-family: BACS"">TdTDtcB</p>",,,,,,,,,,
html-keyboard-response,317,432374,0.0-14.0-0.66,6163faf9d9ac4586fe776568,650c16f0f2faf8d7a0d14c09,651c1cd9553426bc649616d5,null,null,"<p style=""font-size: 60px; font-family: BACS"">GabkuvJ</p>",,,,,,,,,,
html-keyboard-response,318,433389,0.0-14.0-0.67,6163faf9d9ac4586fe776568,650c16f0f2faf8d7a0d14c09,651c1cd9553426bc649616d5,null,null,"<p style=""font-size: 60px; font-family: BACS"">uQkrdYaOk</p>",,,,,,,,,,
html-keyboard-response,319,434403,0.0-14.0-0.68,6163faf9d9ac4586fe776568,650c16f0f2faf8d7a0d14c09,651c1cd9553426bc649616d5,null,null,"<p style=""font-size: 60px; font-family: BACS"">TKDkcPK</p>",,,,,,,,,,
html-keyboard-response,320,435404,0.0-14.0-0.69,6163faf9d9ac4586fe776568,650c16f0f2faf8d7a0d14c09,651c1cd9553426bc649616d5,null,null,"<p style=""font-size: 60px; font-family: BACS"">vmuLluvJ</p>",,,,,,,,,,
html-keyboard-response,321,436419,0.0-14.0-0.70,6163faf9d9ac4586fe776568,650c16f0f2faf8d7a0d14c09,651c1cd9553426bc649616d5,null,null,"<p style=""font-size: 60px; font-family: BACS"">CDEmYEKBO</p>",,,,,,,,,,
html-keyboard-response,322,437431,0.0-14.0-0.71,6163faf9d9ac4586fe776568,650c16f0f2faf8d7a0d14c09,651c1cd9553426bc649616d5,null,null,"<p style=""font-size: 60px; font-family: BACS"">vQdOrAJu</p>",,,,,,,,,,
html-keyboard-response,323,438446,0.0-14.0-0.72,6163faf9d9ac4586fe776568,650c16f0f2faf8d7a0d14c09,651c1cd9553426bc649616d5,null,null,"<p style=""font-size: 60px; font-family: BACS"">PlEKEKBO</p>",,,,,,,,,,
html-keyboard-response,324,439461,0.0-14.0-0.73,6163faf9d9ac4586fe776568,650c16f0f2faf8d7a0d14c09,651c1cd9553426bc649616d5,null,null,"<p style=""font-size: 60px; font-family: BACS"">dOYmlTbk</p>",,,,,,,,,,
html-keyboard-response,325,440476,0.0-14.0-0.74,6163faf9d9ac4586fe776568,650c16f0f2faf8d7a0d14c09,651c1cd9553426bc649616d5,null,null,"<p style=""font-size: 60px; font-family: BACS"">mZUrQuUmb</p>",,,,,,,,,,
html-keyboard-response,326,441487,0.0-14.0-0.75,6163faf9d9ac4586fe776568,650c16f0f2faf8d7a0d14c09,651c1cd9553426bc649616d5,null,null,"<p style=""font-size: 60px; font-family: BACS"">thbOMcPK</p>",,,,,,,,,,
html-keyboard-response,327,442500,0.0-14.0-0.76,6163faf9d9ac4586fe776568,650c16f0f2faf8d7a0d14c09,651c1cd9553426bc649616d5,null,null,"<p style=""font-size: 60px; font-family: BACS"">kKRCEKBO</p>",,,,,,,,,,
html-keyboard-response,328,443502,0.0-14.0-0.77,6163faf9d9ac4586fe776568,650c16f0f2faf8d7a0d14c09,651c1cd9553426bc649616d5,null,null,"<p style=""font-size: 60px; font-family: BACS"">tDPRkTbk</p>",,,,,,,,,,
html-keyboard-response,329,444515,0.0-14.0-0.78,6163faf9d9ac4586fe776568,650c16f0f2faf8d7a0d14c09,651c1cd9553426bc649616d5,null,null,"<p style=""font-size: 60px; font-family: BACS"">blMkEKBO</p>",,,,,,,,,,
html-keyboard-response,330,445529,0.0-14.0-0.79,6163faf9d9ac4586fe776568,650c16f0f2faf8d7a0d14c09,651c1cd9553426bc649616d5,null,null,"<p style=""font-size: 60px; font-family: BACS"">uQkrdrAJu</p>",,,,,,,,,,
html-keyboard-response,331,457352,0.0-15.0,6163faf9d9ac4586fe776568,650c16f0f2faf8d7a0d14c09,651c1cd9553426bc649616d5,11822, ,"<p>Great, you've seen the fourth block of words. You may now take a short break.</p>
      <p>Press the spacebar when you're ready to continue.</p>",,,,,,,,,,
html-keyboard-response,332,458361,0.0-16.0-0.0,6163faf9d9ac4586fe776568,650c16f0f2faf8d7a0d14c09,651c1cd9553426bc649616d5,null,null,"<p style=""font-size: 60px; font-family: BACS"">vmuLluUmb</p>",,,,,,,,,,
html-keyboard-response,333,459377,0.0-16.0-0.1,6163faf9d9ac4586fe776568,650c16f0f2faf8d7a0d14c09,651c1cd9553426bc649616d5,null,null,"<p style=""font-size: 60px; font-family: BACS"">vmuLluUmb</p>",,,,,,,,,,
html-keyboard-response,334,460392,0.0-16.0-0.2,6163faf9d9ac4586fe776568,650c16f0f2faf8d7a0d14c09,651c1cd9553426bc649616d5,null,null,"<p style=""font-size: 60px; font-family: BACS"">vmuLluUmb</p>",,,,,,,,,,
html-keyboard-response,335,461405,0.0-16.0-0.3,6163faf9d9ac4586fe776568,650c16f0f2faf8d7a0d14c09,651c1cd9553426bc649616d5,null,null,"<p style=""font-size: 60px; font-family: BACS"">vmuLluUmb</p>",,,,,,,,,,
html-keyboard-response,336,462415,0.0-16.0-0.4,6163faf9d9ac4586fe776568,650c16f0f2faf8d7a0d14c09,651c1cd9553426bc649616d5,null,null,"<p style=""font-size: 60px; font-family: BACS"">vmuLluUmb</p>",,,,,,,,,,
html-keyboard-response,337,463430,0.0-16.0-0.5,6163faf9d9ac4586fe776568,650c16f0f2faf8d7a0d14c09,651c1cd9553426bc649616d5,null,null,"<p style=""font-size: 60px; font-family: BACS"">vmuLluUmb</p>",,,,,,,,,,
html-keyboard-response,338,464446,0.0-16.0-0.6,6163faf9d9ac4586fe776568,650c16f0f2faf8d7a0d14c09,651c1cd9553426bc649616d5,null,null,"<p style=""font-size: 60px; font-family: BACS"">vmuLluUmb</p>",,,,,,,,,,
html-keyboard-response,339,465461,0.0-16.0-0.7,6163faf9d9ac4586fe776568,650c16f0f2faf8d7a0d14c09,651c1cd9553426bc649616d5,null,null,"<p style=""font-size: 60px; font-family: BACS"">vmuLluUmb</p>",,,,,,,,,,
html-keyboard-response,340,466476,0.0-16.0-0.8,6163faf9d9ac4586fe776568,650c16f0f2faf8d7a0d14c09,651c1cd9553426bc649616d5,null,null,"<p style=""font-size: 60px; font-family: BACS"">vmuLluUmb</p>",,,,,,,,,,
html-keyboard-response,341,467491,0.0-16.0-0.9,6163faf9d9ac4586fe776568,650c16f0f2faf8d7a0d14c09,651c1cd9553426bc649616d5,null,null,"<p style=""font-size: 60px; font-family: BACS"">vmuLluUmb</p>",,,,,,,,,,
html-keyboard-response,342,468504,0.0-16.0-0.10,6163faf9d9ac4586fe776568,650c16f0f2faf8d7a0d14c09,651c1cd9553426bc649616d5,null,null,"<p style=""font-size: 60px; font-family: BACS"">vmuLluUmb</p>",,,,,,,,,,
html-keyboard-response,343,469520,0.0-16.0-0.11,6163faf9d9ac4586fe776568,650c16f0f2faf8d7a0d14c09,651c1cd9553426bc649616d5,null,null,"<p style=""font-size: 60px; font-family: BACS"">vmuLluUmb</p>",,,,,,,,,,
html-keyboard-response,344,470534,0.0-16.0-0.12,6163faf9d9ac4586fe776568,650c16f0f2faf8d7a0d14c09,651c1cd9553426bc649616d5,null,null,"<p style=""font-size: 60px; font-family: BACS"">vmuLluUmb</p>",,,,,,,,,,
html-keyboard-response,345,471550,0.0-16.0-0.13,6163faf9d9ac4586fe776568,650c16f0f2faf8d7a0d14c09,651c1cd9553426bc649616d5,null,null,"<p style=""font-size: 60px; font-family: BACS"">vmuLluUmb</p>",,,,,,,,,,
html-keyboard-response,346,472565,0.0-16.0-0.14,6163faf9d9ac4586fe776568,650c16f0f2faf8d7a0d14c09,651c1cd9553426bc649616d5,null,null,"<p style=""font-size: 60px; font-family: BACS"">vmuLluUmb</p>",,,,,,,,,,
html-keyboard-response,347,473580,0.0-16.0-0.15,6163faf9d9ac4586fe776568,650c16f0f2faf8d7a0d14c09,651c1cd9553426bc649616d5,null,null,"<p style=""font-size: 60px; font-family: BACS"">vmuLluUmb</p>",,,,,,,,,,
html-keyboard-response,348,474594,0.0-16.0-0.16,6163faf9d9ac4586fe776568,650c16f0f2faf8d7a0d14c09,651c1cd9553426bc649616d5,null,null,"<p style=""font-size: 60px; font-family: BACS"">vmuLluUmb</p>",,,,,,,,,,
html-keyboard-response,349,475605,0.0-16.0-0.17,6163faf9d9ac4586fe776568,650c16f0f2faf8d7a0d14c09,651c1cd9553426bc649616d5,null,null,"<p style=""font-size: 60px; font-family: BACS"">vmuLluUmb</p>",,,,,,,,,,
html-keyboard-response,350,476618,0.0-16.0-0.18,6163faf9d9ac4586fe776568,650c16f0f2faf8d7a0d14c09,651c1cd9553426bc649616d5,null,null,"<p style=""font-size: 60px; font-family: BACS"">vmuLluUmb</p>",,,,,,,,,,
html-keyboard-response,351,477633,0.0-16.0-0.19,6163faf9d9ac4586fe776568,650c16f0f2faf8d7a0d14c09,651c1cd9553426bc649616d5,null,null,"<p style=""font-size: 60px; font-family: BACS"">vmuLluUmb</p>",,,,,,,,,,
html-keyboard-response,352,478647,0.0-16.0-0.20,6163faf9d9ac4586fe776568,650c16f0f2faf8d7a0d14c09,651c1cd9553426bc649616d5,null,null,"<p style=""font-size: 60px; font-family: BACS"">vmuLluUmb</p>",,,,,,,,,,
html-keyboard-response,353,479649,0.0-16.0-0.21,6163faf9d9ac4586fe776568,650c16f0f2faf8d7a0d14c09,651c1cd9553426bc649616d5,null,null,"<p style=""font-size: 60px; font-family: BACS"">vmuLluUmb</p>",,,,,,,,,,
html-keyboard-response,354,480651,0.0-16.0-0.22,6163faf9d9ac4586fe776568,650c16f0f2faf8d7a0d14c09,651c1cd9553426bc649616d5,null,null,"<p style=""font-size: 60px; font-family: BACS"">vmuLluUmb</p>",,,,,,,,,,
html-keyboard-response,355,481652,0.0-16.0-0.23,6163faf9d9ac4586fe776568,650c16f0f2faf8d7a0d14c09,651c1cd9553426bc649616d5,null,null,"<p style=""font-size: 60px; font-family: BACS"">vmuLluUmb</p>",,,,,,,,,,
html-keyboard-response,356,482654,0.0-16.0-0.24,6163faf9d9ac4586fe776568,650c16f0f2faf8d7a0d14c09,651c1cd9553426bc649616d5,null,null,"<p style=""font-size: 60px; font-family: BACS"">vmuLluUmb</p>",,,,,,,,,,
html-keyboard-response,357,483657,0.0-16.0-0.25,6163faf9d9ac4586fe776568,650c16f0f2faf8d7a0d14c09,651c1cd9553426bc649616d5,null,null,"<p style=""font-size: 60px; font-family: BACS"">vmuLluUmb</p>",,,,,,,,,,
html-keyboard-response,358,484670,0.0-16.0-0.26,6163faf9d9ac4586fe776568,650c16f0f2faf8d7a0d14c09,651c1cd9553426bc649616d5,null,null,"<p style=""font-size: 60px; font-family: BACS"">vmuLluUmb</p>",,,,,,,,,,
html-keyboard-response,359,485682,0.0-16.0-0.27,6163faf9d9ac4586fe776568,650c16f0f2faf8d7a0d14c09,651c1cd9553426bc649616d5,null,null,"<p style=""font-size: 60px; font-family: BACS"">vmuLluUmb</p>",,,,,,,,,,
html-keyboard-response,360,486695,0.0-16.0-0.28,6163faf9d9ac4586fe776568,650c16f0f2faf8d7a0d14c09,651c1cd9553426bc649616d5,null,null,"<p style=""font-size: 60px; font-family: BACS"">vmuLluUmb</p>",,,,,,,,,,
html-keyboard-response,361,487705,0.0-16.0-0.29,6163faf9d9ac4586fe776568,650c16f0f2faf8d7a0d14c09,651c1cd9553426bc649616d5,null,null,"<p style=""font-size: 60px; font-family: BACS"">vmuLluUmb</p>",,,,,,,,,,
html-keyboard-response,362,488718,0.0-16.0-0.30,6163faf9d9ac4586fe776568,650c16f0f2faf8d7a0d14c09,651c1cd9553426bc649616d5,null,null,"<p style=""font-size: 60px; font-family: BACS"">vmuLluUmb</p>",,,,,,,,,,
html-keyboard-response,363,489730,0.0-16.0-0.31,6163faf9d9ac4586fe776568,650c16f0f2faf8d7a0d14c09,651c1cd9553426bc649616d5,null,null,"<p style=""font-size: 60px; font-family: BACS"">vmuLluUmb</p>",,,,,,,,,,
html-keyboard-response,364,490743,0.0-16.0-0.32,6163faf9d9ac4586fe776568,650c16f0f2faf8d7a0d14c09,651c1cd9553426bc649616d5,null,null,"<p style=""font-size: 60px; font-family: BACS"">vmuLluUmb</p>",,,,,,,,,,
html-keyboard-response,365,491759,0.0-16.0-0.33,6163faf9d9ac4586fe776568,650c16f0f2faf8d7a0d14c09,651c1cd9553426bc649616d5,null,null,"<p style=""font-size: 60px; font-family: BACS"">vmuLluUmb</p>",,,,,,,,,,
html-keyboard-response,366,492774,0.0-16.0-0.34,6163faf9d9ac4586fe776568,650c16f0f2faf8d7a0d14c09,651c1cd9553426bc649616d5,null,null,"<p style=""font-size: 60px; font-family: BACS"">vmuLluUmb</p>",,,,,,,,,,
html-keyboard-response,367,493788,0.0-16.0-0.35,6163faf9d9ac4586fe776568,650c16f0f2faf8d7a0d14c09,651c1cd9553426bc649616d5,null,null,"<p style=""font-size: 60px; font-family: BACS"">vmuLluUmb</p>",,,,,,,,,,
html-keyboard-response,368,494804,0.0-16.0-0.36,6163faf9d9ac4586fe776568,650c16f0f2faf8d7a0d14c09,651c1cd9553426bc649616d5,null,null,"<p style=""font-size: 60px; font-family: BACS"">vmuLluUmb</p>",,,,,,,,,,
html-keyboard-response,369,495819,0.0-16.0-0.37,6163faf9d9ac4586fe776568,650c16f0f2faf8d7a0d14c09,651c1cd9553426bc649616d5,null,null,"<p style=""font-size: 60px; font-family: BACS"">vmuLluUmb</p>",,,,,,,,,,
html-keyboard-response,370,496821,0.0-16.0-0.38,6163faf9d9ac4586fe776568,650c16f0f2faf8d7a0d14c09,651c1cd9553426bc649616d5,null,null,"<p style=""font-size: 60px; font-family: BACS"">vmuLluUmb</p>",,,,,,,,,,
html-keyboard-response,371,497824,0.0-16.0-0.39,6163faf9d9ac4586fe776568,650c16f0f2faf8d7a0d14c09,651c1cd9553426bc649616d5,null,null,"<p style=""font-size: 60px; font-family: BACS"">vmuLluUmb</p>",,,,,,,,,,
html-keyboard-response,372,498836,0.0-16.0-0.40,6163faf9d9ac4586fe776568,650c16f0f2faf8d7a0d14c09,651c1cd9553426bc649616d5,null,null,"<p style=""font-size: 60px; font-family: BACS"">vmuLluUmb</p>",,,,,,,,,,
html-keyboard-response,373,499847,0.0-16.0-0.41,6163faf9d9ac4586fe776568,650c16f0f2faf8d7a0d14c09,651c1cd9553426bc649616d5,null,null,"<p style=""font-size: 60px; font-family: BACS"">vmuLluUmb</p>",,,,,,,,,,
html-keyboard-response,374,500861,0.0-16.0-0.42,6163faf9d9ac4586fe776568,650c16f0f2faf8d7a0d14c09,651c1cd9553426bc649616d5,null,null,"<p style=""font-size: 60px; font-family: BACS"">vmuLluUmb</p>",,,,,,,,,,
html-keyboard-response,375,501872,0.0-16.0-0.43,6163faf9d9ac4586fe776568,650c16f0f2faf8d7a0d14c09,651c1cd9553426bc649616d5,null,null,"<p style=""font-size: 60px; font-family: BACS"">vmuLluUmb</p>",,,,,,,,,,
html-keyboard-response,376,502885,0.0-16.0-0.44,6163faf9d9ac4586fe776568,650c16f0f2faf8d7a0d14c09,651c1cd9553426bc649616d5,null,null,"<p style=""font-size: 60px; font-family: BACS"">vmuLluUmb</p>",,,,,,,,,,
html-keyboard-response,377,503897,0.0-16.0-0.45,6163faf9d9ac4586fe776568,650c16f0f2faf8d7a0d14c09,651c1cd9553426bc649616d5,null,null,"<p style=""font-size: 60px; font-family: BACS"">vmuLluUmb</p>",,,,,,,,,,
html-keyboard-response,378,504909,0.0-16.0-0.46,6163faf9d9ac4586fe776568,650c16f0f2faf8d7a0d14c09,651c1cd9553426bc649616d5,null,null,"<p style=""font-size: 60px; font-family: BACS"">vmuLluUmb</p>",,,,,,,,,,
html-keyboard-response,379,505920,0.0-16.0-0.47,6163faf9d9ac4586fe776568,650c16f0f2faf8d7a0d14c09,651c1cd9553426bc649616d5,null,null,"<p style=""font-size: 60px; font-family: BACS"">vmuLluUmb</p>",,,,,,,,,,
html-keyboard-response,380,506934,0.0-16.0-0.48,6163faf9d9ac4586fe776568,650c16f0f2faf8d7a0d14c09,651c1cd9553426bc649616d5,null,null,"<p style=""font-size: 60px; font-family: BACS"">vmuLluUmb</p>",,,,,,,,,,
html-keyboard-response,381,507947,0.0-16.0-0.49,6163faf9d9ac4586fe776568,650c16f0f2faf8d7a0d14c09,651c1cd9553426bc649616d5,null,null,"<p style=""font-size: 60px; font-family: BACS"">vmuLluUmb</p>",,,,,,,,,,
html-keyboard-response,382,508961,0.0-16.0-0.50,6163faf9d9ac4586fe776568,650c16f0f2faf8d7a0d14c09,651c1cd9553426bc649616d5,null,null,"<p style=""font-size: 60px; font-family: BACS"">vmuLluUmb</p>",,,,,,,,,,
html-keyboard-response,383,509973,0.0-16.0-0.51,6163faf9d9ac4586fe776568,650c16f0f2faf8d7a0d14c09,651c1cd9553426bc649616d5,null,null,"<p style=""font-size: 60px; font-family: BACS"">vmuLluUmb</p>",,,,,,,,,,
html-keyboard-response,384,510985,0.0-16.0-0.52,6163faf9d9ac4586fe776568,650c16f0f2faf8d7a0d14c09,651c1cd9553426bc649616d5,null,null,"<p style=""font-size: 60px; font-family: BACS"">vmuLluUmb</p>",,,,,,,,,,
html-keyboard-response,385,511999,0.0-16.0-0.53,6163faf9d9ac4586fe776568,650c16f0f2faf8d7a0d14c09,651c1cd9553426bc649616d5,null,null,"<p style=""font-size: 60px; font-family: BACS"">vmuLluUmb</p>",,,,,,,,,,
html-keyboard-response,386,513000,0.0-16.0-0.54,6163faf9d9ac4586fe776568,650c16f0f2faf8d7a0d14c09,651c1cd9553426bc649616d5,null,null,"<p style=""font-size: 60px; font-family: BACS"">vmuLluUmb</p>",,,,,,,,,,
html-keyboard-response,387,514013,0.0-16.0-0.55,6163faf9d9ac4586fe776568,650c16f0f2faf8d7a0d14c09,651c1cd9553426bc649616d5,null,null,"<p style=""font-size: 60px; font-family: BACS"">vmuLluUmb</p>",,,,,,,,,,
html-keyboard-response,388,515029,0.0-16.0-0.56,6163faf9d9ac4586fe776568,650c16f0f2faf8d7a0d14c09,651c1cd9553426bc649616d5,null,null,"<p style=""font-size: 60px; font-family: BACS"">vmuLluUmb</p>",,,,,,,,,,
html-keyboard-response,389,516042,0.0-16.0-0.57,6163faf9d9ac4586fe776568,650c16f0f2faf8d7a0d14c09,651c1cd9553426bc649616d5,null,null,"<p style=""font-size: 60px; font-family: BACS"">vmuLluUmb</p>",,,,,,,,,,
html-keyboard-response,390,517043,0.0-16.0-0.58,6163faf9d9ac4586fe776568,650c16f0f2faf8d7a0d14c09,651c1cd9553426bc649616d5,null,null,"<p style=""font-size: 60px; font-family: BACS"">vmuLluUmb</p>",,,,,,,,,,
html-keyboard-response,391,518056,0.0-16.0-0.59,6163faf9d9ac4586fe776568,650c16f0f2faf8d7a0d14c09,651c1cd9553426bc649616d5,null,null,"<p style=""font-size: 60px; font-family: BACS"">vmuLluUmb</p>",,,,,,,,,,
html-keyboard-response,392,519058,0.0-16.0-0.60,6163faf9d9ac4586fe776568,650c16f0f2faf8d7a0d14c09,651c1cd9553426bc649616d5,null,null,"<p style=""font-size: 60px; font-family: BACS"">vmuLluUmb</p>",,,,,,,,,,
html-keyboard-response,393,520072,0.0-16.0-0.61,6163faf9d9ac4586fe776568,650c16f0f2faf8d7a0d14c09,651c1cd9553426bc649616d5,null,null,"<p style=""font-size: 60px; font-family: BACS"">vmuLluUmb</p>",,,,,,,,,,
html-keyboard-response,394,521083,0.0-16.0-0.62,6163faf9d9ac4586fe776568,650c16f0f2faf8d7a0d14c09,651c1cd9553426bc649616d5,null,null,"<p style=""font-size: 60px; font-family: BACS"">vmuLluUmb</p>",,,,,,,,,,
html-keyboard-response,395,522094,0.0-16.0-0.63,6163faf9d9ac4586fe776568,650c16f0f2faf8d7a0d14c09,651c1cd9553426bc649616d5,null,null,"<p style=""font-size: 60px; font-family: BACS"">vmuLluUmb</p>",,,,,,,,,,
html-keyboard-response,396,523103,0.0-16.0-0.64,6163faf9d9ac4586fe776568,650c16f0f2faf8d7a0d14c09,651c1cd9553426bc649616d5,null,null,"<p style=""font-size: 60px; font-family: BACS"">vmuLluUmb</p>",,,,,,,,,,
html-keyboard-response,397,524117,0.0-16.0-0.65,6163faf9d9ac4586fe776568,650c16f0f2faf8d7a0d14c09,651c1cd9553426bc649616d5,null,null,"<p style=""font-size: 60px; font-family: BACS"">vmuLluUmb</p>",,,,,,,,,,
html-keyboard-response,398,525130,0.0-16.0-0.66,6163faf9d9ac4586fe776568,650c16f0f2faf8d7a0d14c09,651c1cd9553426bc649616d5,null,null,"<p style=""font-size: 60px; font-family: BACS"">vmuLluUmb</p>",,,,,,,,,,
html-keyboard-response,399,526132,0.0-16.0-0.67,6163faf9d9ac4586fe776568,650c16f0f2faf8d7a0d14c09,651c1cd9553426bc649616d5,null,null,"<p style=""font-size: 60px; font-family: BACS"">vmuLluUmb</p>",,,,,,,,,,
html-keyboard-response,400,527142,0.0-16.0-0.68,6163faf9d9ac4586fe776568,650c16f0f2faf8d7a0d14c09,651c1cd9553426bc649616d5,null,null,"<p style=""font-size: 60px; font-family: BACS"">vmuLluUmb</p>",,,,,,,,,,
html-keyboard-response,401,528158,0.0-16.0-0.69,6163faf9d9ac4586fe776568,650c16f0f2faf8d7a0d14c09,651c1cd9553426bc649616d5,null,null,"<p style=""font-size: 60px; font-family: BACS"">vmuLluUmb</p>",,,,,,,,,,
html-keyboard-response,402,529159,0.0-16.0-0.70,6163faf9d9ac4586fe776568,650c16f0f2faf8d7a0d14c09,651c1cd9553426bc649616d5,null,null,"<p style=""font-size: 60px; font-family: BACS"">vmuLluUmb</p>",,,,,,,,,,
html-keyboard-response,403,530170,0.0-16.0-0.71,6163faf9d9ac4586fe776568,650c16f0f2faf8d7a0d14c09,651c1cd9553426bc649616d5,null,null,"<p style=""font-size: 60px; font-family: BACS"">vmuLluUmb</p>",,,,,,,,,,
html-keyboard-response,404,531185,0.0-16.0-0.72,6163faf9d9ac4586fe776568,650c16f0f2faf8d7a0d14c09,651c1cd9553426bc649616d5,null,null,"<p style=""font-size: 60px; font-family: BACS"">vmuLluUmb</p>",,,,,,,,,,
html-keyboard-response,405,532198,0.0-16.0-0.73,6163faf9d9ac4586fe776568,650c16f0f2faf8d7a0d14c09,651c1cd9553426bc649616d5,null,null,"<p style=""font-size: 60px; font-family: BACS"">vmuLluUmb</p>",,,,,,,,,,
html-keyboard-response,406,533210,0.0-16.0-0.74,6163faf9d9ac4586fe776568,650c16f0f2faf8d7a0d14c09,651c1cd9553426bc649616d5,null,null,"<p style=""font-size: 60px; font-family: BACS"">vmuLluUmb</p>",,,,,,,,,,
html-keyboard-response,407,534224,0.0-16.0-0.75,6163faf9d9ac4586fe776568,650c16f0f2faf8d7a0d14c09,651c1cd9553426bc649616d5,null,null,"<p style=""font-size: 60px; font-family: BACS"">vmuLluUmb</p>",,,,,,,,,,
html-keyboard-response,408,535238,0.0-16.0-0.76,6163faf9d9ac4586fe776568,650c16f0f2faf8d7a0d14c09,651c1cd9553426bc649616d5,null,null,"<p style=""font-size: 60px; font-family: BACS"">vmuLluUmb</p>",,,,,,,,,,
html-keyboard-response,409,536253,0.0-16.0-0.77,6163faf9d9ac4586fe776568,650c16f0f2faf8d7a0d14c09,651c1cd9553426bc649616d5,null,null,"<p style=""font-size: 60px; font-family: BACS"">vmuLluUmb</p>",,,,,,,,,,
html-keyboard-response,410,537268,0.0-16.0-0.78,6163faf9d9ac4586fe776568,650c16f0f2faf8d7a0d14c09,651c1cd9553426bc649616d5,null,null,"<p style=""font-size: 60px; font-family: BACS"">vmuLluUmb</p>",,,,,,,,,,
html-keyboard-response,411,538283,0.0-16.0-0.79,6163faf9d9ac4586fe776568,650c16f0f2faf8d7a0d14c09,651c1cd9553426bc649616d5,null,null,"<p style=""font-size: 60px; font-family: BACS"">vmuLluUmb</p>",,,,,,,,,,
html-keyboard-response,412,540663,0.0-17.0,6163faf9d9ac4586fe776568,650c16f0f2faf8d7a0d14c09,651c1cd9553426bc649616d5,2379, ,"<p>Great, you've seen the fifth block of words. You may now take a short break.</p>
      <p>Press the spacebar when you're ready to continue.</p>",,,,,,,,,,
html-keyboard-response,413,541672,0.0-18.0-0.0,6163faf9d9ac4586fe776568,650c16f0f2faf8d7a0d14c09,651c1cd9553426bc649616d5,null,null,"<p style=""font-size: 60px; font-family: BACS"">PlEKEKBO</p>",,,,,,,,,,
html-keyboard-response,414,542673,0.0-18.0-0.1,6163faf9d9ac4586fe776568,650c16f0f2faf8d7a0d14c09,651c1cd9553426bc649616d5,null,null,"<p style=""font-size: 60px; font-family: BACS"">kKRCtcB</p>",,,,,,,,,,
html-keyboard-response,415,543687,0.0-18.0-0.2,6163faf9d9ac4586fe776568,650c16f0f2faf8d7a0d14c09,651c1cd9553426bc649616d5,null,null,"<p style=""font-size: 60px; font-family: BACS"">GLluArAJu</p>",,,,,,,,,,
html-keyboard-response,416,544689,0.0-18.0-0.3,6163faf9d9ac4586fe776568,650c16f0f2faf8d7a0d14c09,651c1cd9553426bc649616d5,null,null,"<p style=""font-size: 60px; font-family: BACS"">aUZAYaOk</p>",,,,,,,,,,
html-keyboard-response,417,545701,0.0-18.0-0.4,6163faf9d9ac4586fe776568,650c16f0f2faf8d7a0d14c09,651c1cd9553426bc649616d5,null,null,"<p style=""font-size: 60px; font-family: BACS"">kKRCEKBO</p>",,,,,,,,,,
html-keyboard-response,418,546716,0.0-18.0-0.5,6163faf9d9ac4586fe776568,650c16f0f2faf8d7a0d14c09,651c1cd9553426bc649616d5,null,null,"<p style=""font-size: 60px; font-family: BACS"">YJkbZckv</p>",,,,,,,,,,
html-keyboard-response,419,547717,0.0-18.0-0.6,6163faf9d9ac4586fe776568,650c16f0f2faf8d7a0d14c09,651c1cd9553426bc649616d5,null,null,"<p style=""font-size: 60px; font-family: BACS"">thbOMTbk</p>",,,,,,,,,,
html-keyboard-response,420,548727,0.0-18.0-0.7,6163faf9d9ac4586fe776568,650c16f0f2faf8d7a0d14c09,651c1cd9553426bc649616d5,null,null,"<p style=""font-size: 60px; font-family: BACS"">AlTdEKBO</p>",,,,,,,,,,
html-keyboard-response,421,549741,0.0-18.0-0.8,6163faf9d9ac4586fe776568,650c16f0f2faf8d7a0d14c09,651c1cd9553426bc649616d5,null,null,"<p style=""font-size: 60px; font-family: BACS"">rvAJuvJ</p>",,,,,,,,,,
html-keyboard-response,422,550753,0.0-18.0-0.9,6163faf9d9ac4586fe776568,650c16f0f2faf8d7a0d14c09,651c1cd9553426bc649616d5,null,null,"<p style=""font-size: 60px; font-family: BACS"">TdTDcPK</p>",,,,,,,,,,
html-keyboard-response,423,551757,0.0-18.0-0.10,6163faf9d9ac4586fe776568,650c16f0f2faf8d7a0d14c09,651c1cd9553426bc649616d5,null,null,"<p style=""font-size: 60px; font-family: BACS"">rvAJZckv</p>",,,,,,,,,,
html-keyboard-response,424,552769,0.0-18.0-0.11,6163faf9d9ac4586fe776568,650c16f0f2faf8d7a0d14c09,651c1cd9553426bc649616d5,null,null,"<p style=""font-size: 60px; font-family: BACS"">TdTDEKBO</p>",,,,,,,,,,
html-keyboard-response,425,553775,0.0-18.0-0.12,6163faf9d9ac4586fe776568,650c16f0f2faf8d7a0d14c09,651c1cd9553426bc649616d5,null,null,"<p style=""font-size: 60px; font-family: BACS"">blMkcPK</p>",,,,,,,,,,
html-keyboard-response,426,554777,0.0-18.0-0.13,6163faf9d9ac4586fe776568,650c16f0f2faf8d7a0d14c09,651c1cd9553426bc649616d5,null,null,"<p style=""font-size: 60px; font-family: BACS"">GLluAZckv</p>",,,,,,,,,,
html-keyboard-response,427,555790,0.0-18.0-0.14,6163faf9d9ac4586fe776568,650c16f0f2faf8d7a0d14c09,651c1cd9553426bc649616d5,null,null,"<p style=""font-size: 60px; font-family: BACS"">CDEmYtcB</p>",,,,,,,,,,
html-keyboard-response,428,556806,0.0-18.0-0.15,6163faf9d9ac4586fe776568,650c16f0f2faf8d7a0d14c09,651c1cd9553426bc649616d5,null,null,"<p style=""font-size: 60px; font-family: BACS"">thbOMEKBO</p>",,,,,,,,,,
html-keyboard-response,429,557808,0.0-18.0-0.16,6163faf9d9ac4586fe776568,650c16f0f2faf8d7a0d14c09,651c1cd9553426bc649616d5,null,null,"<p style=""font-size: 60px; font-family: BACS"">GLluAYaOk</p>",,,,,,,,,,
html-keyboard-response,430,558818,0.0-18.0-0.17,6163faf9d9ac4586fe776568,650c16f0f2faf8d7a0d14c09,651c1cd9553426bc649616d5,null,null,"<p style=""font-size: 60px; font-family: BACS"">tDPRkTbk</p>",,,,,,,,,,
html-keyboard-response,431,559820,0.0-18.0-0.18,6163faf9d9ac4586fe776568,650c16f0f2faf8d7a0d14c09,651c1cd9553426bc649616d5,null,null,"<p style=""font-size: 60px; font-family: BACS"">dOYmltcB</p>",,,,,,,,,,
html-keyboard-response,432,560833,0.0-18.0-0.19,6163faf9d9ac4586fe776568,650c16f0f2faf8d7a0d14c09,651c1cd9553426bc649616d5,null,null,"<p style=""font-size: 60px; font-family: BACS"">vmuLluUmb</p>",,,,,,,,,,
html-keyboard-response,433,561849,0.0-18.0-0.20,6163faf9d9ac4586fe776568,650c16f0f2faf8d7a0d14c09,651c1cd9553426bc649616d5,null,null,"<p style=""font-size: 60px; font-family: BACS"">AlTdtcB</p>",,,,,,,,,,
html-keyboard-response,434,562850,0.0-18.0-0.21,6163faf9d9ac4586fe776568,650c16f0f2faf8d7a0d14c09,651c1cd9553426bc649616d5,null,null,"<p style=""font-size: 60px; font-family: BACS"">GLluAuUmb</p>",,,,,,,,,,
html-keyboard-response,435,563865,0.0-18.0-0.22,6163faf9d9ac4586fe776568,650c16f0f2faf8d7a0d14c09,651c1cd9553426bc649616d5,null,null,"<p style=""font-size: 60px; font-family: BACS"">tDPRkAkd</p>",,,,,,,,,,
html-keyboard-response,436,564880,0.0-18.0-0.23,6163faf9d9ac4586fe776568,650c16f0f2faf8d7a0d14c09,651c1cd9553426bc649616d5,null,null,"<p style=""font-size: 60px; font-family: BACS"">vmuLlrAJu</p>",,,,,,,,,,
html-keyboard-response,437,565884,0.0-18.0-0.24,6163faf9d9ac4586fe776568,650c16f0f2faf8d7a0d14c09,651c1cd9553426bc649616d5,null,null,"<p style=""font-size: 60px; font-family: BACS"">blMkTbk</p>",,,,,,,,,,
html-keyboard-response,438,566898,0.0-18.0-0.25,6163faf9d9ac4586fe776568,650c16f0f2faf8d7a0d14c09,651c1cd9553426bc649616d5,null,null,"<p style=""font-size: 60px; font-family: BACS"">uQkrdYaOk</p>",,,,,,,,,,
html-keyboard-response,439,567913,0.0-18.0-0.26,6163faf9d9ac4586fe776568,650c16f0f2faf8d7a0d14c09,651c1cd9553426bc649616d5,null,null,"<p style=""font-size: 60px; font-family: BACS"">vQdOrAJu</p>",,,,,,,,,,
html-keyboard-response,440,568915,0.0-18.0-0.27,6163faf9d9ac4586fe776568,650c16f0f2faf8d7a0d14c09,651c1cd9553426bc649616d5,null,null,"<p style=""font-size: 60px; font-family: BACS"">LvuOGuUmb</p>",,,,,,,,,,
html-keyboard-response,441,569928,0.0-18.0-0.28,6163faf9d9ac4586fe776568,650c16f0f2faf8d7a0d14c09,651c1cd9553426bc649616d5,null,null,"<p style=""font-size: 60px; font-family: BACS"">rvAJYaOk</p>",,,,,,,,,,
html-keyboard-response,442,570941,0.0-18.0-0.29,6163faf9d9ac4586fe776568,650c16f0f2faf8d7a0d14c09,651c1cd9553426bc649616d5,null,null,"<p style=""font-size: 60px; font-family: BACS"">mZUrQZckv</p>",,,,,,,,,,
html-keyboard-response,443,571943,0.0-18.0-0.30,6163faf9d9ac4586fe776568,650c16f0f2faf8d7a0d14c09,651c1cd9553426bc649616d5,null,null,"<p style=""font-size: 60px; font-family: BACS"">TKDkcPK</p>",,,,,,,,,,
html-keyboard-response,444,572957,0.0-18.0-0.31,6163faf9d9ac4586fe776568,650c16f0f2faf8d7a0d14c09,651c1cd9553426bc649616d5,null,null,"<p style=""font-size: 60px; font-family: BACS"">CDEmYEKBO</p>",,,,,,,,,,
html-keyboard-response,445,573974,0.0-18.0-0.32,6163faf9d9ac4586fe776568,650c16f0f2faf8d7a0d14c09,651c1cd9553426bc649616d5,null,null,"<p style=""font-size: 60px; font-family: BACS"">YJkbrAJu</p>",,,,,,,,,,
html-keyboard-response,446,574976,0.0-18.0-0.33,6163faf9d9ac4586fe776568,650c16f0f2faf8d7a0d14c09,651c1cd9553426bc649616d5,null,null,"<p style=""font-size: 60px; font-family: BACS"">GabkuUmb</p>",,,,,,,,,,
html-keyboard-response,447,575977,0.0-18.0-0.34,6163faf9d9ac4586fe776568,650c16f0f2faf8d7a0d14c09,651c1cd9553426bc649616d5,null,null,"<p style=""font-size: 60px; font-family: BACS"">AlTdcPK</p>",,,,,,,,,,
html-keyboard-response,448,576987,0.0-18.0-0.35,6163faf9d9ac4586fe776568,650c16f0f2faf8d7a0d14c09,651c1cd9553426bc649616d5,null,null,"<p style=""font-size: 60px; font-family: BACS"">vQdOuUmb</p>",,,,,,,,,,
html-keyboard-response,449,578001,0.0-18.0-0.36,6163faf9d9ac4586fe776568,650c16f0f2faf8d7a0d14c09,651c1cd9553426bc649616d5,null,null,"<p style=""font-size: 60px; font-family: BACS"">uQkrdrAJu</p>",,,,,,,,,,
html-keyboard-response,450,579013,0.0-18.0-0.37,6163faf9d9ac4586fe776568,650c16f0f2faf8d7a0d14c09,651c1cd9553426bc649616d5,null,null,"<p style=""font-size: 60px; font-family: BACS"">aUZAZckv</p>",,,,,,,,,,
html-keyboard-response,451,580029,0.0-18.0-0.38,6163faf9d9ac4586fe776568,650c16f0f2faf8d7a0d14c09,651c1cd9553426bc649616d5,null,null,"<p style=""font-size: 60px; font-family: BACS"">kKRCTbk</p>",,,,,,,,,,
html-keyboard-response,452,581043,0.0-18.0-0.39,6163faf9d9ac4586fe776568,650c16f0f2faf8d7a0d14c09,651c1cd9553426bc649616d5,null,null,"<p style=""font-size: 60px; font-family: BACS"">aUZAuvJ</p>",,,,,,,,,,
html-keyboard-response,453,582052,0.0-18.0-0.40,6163faf9d9ac4586fe776568,650c16f0f2faf8d7a0d14c09,651c1cd9553426bc649616d5,null,null,"<p style=""font-size: 60px; font-family: BACS"">GabkZckv</p>",,,,,,,,,,
html-keyboard-response,454,583068,0.0-18.0-0.41,6163faf9d9ac4586fe776568,650c16f0f2faf8d7a0d14c09,651c1cd9553426bc649616d5,null,null,"<p style=""font-size: 60px; font-family: BACS"">mZUrQuvJ</p>",,,,,,,,,,
html-keyboard-response,455,584083,0.0-18.0-0.42,6163faf9d9ac4586fe776568,650c16f0f2faf8d7a0d14c09,651c1cd9553426bc649616d5,null,null,"<p style=""font-size: 60px; font-family: BACS"">TKDkTbk</p>",,,,,,,,,,
html-keyboard-response,456,585086,0.0-18.0-0.43,6163faf9d9ac4586fe776568,650c16f0f2faf8d7a0d14c09,651c1cd9553426bc649616d5,null,null,"<p style=""font-size: 60px; font-family: BACS"">tDPRkcPK</p>",,,,,,,,,,
html-keyboard-response,457,586097,0.0-18.0-0.44,6163faf9d9ac4586fe776568,650c16f0f2faf8d7a0d14c09,651c1cd9553426bc649616d5,null,null,"<p style=""font-size: 60px; font-family: BACS"">GabkYaOk</p>",,,,,,,,,,
html-keyboard-response,458,587111,0.0-18.0-0.45,6163faf9d9ac4586fe776568,650c16f0f2faf8d7a0d14c09,651c1cd9553426bc649616d5,null,null,"<p style=""font-size: 60px; font-family: BACS"">YJkbuvJ</p>",,,,,,,,,,
html-keyboard-response,459,588117,0.0-18.0-0.46,6163faf9d9ac4586fe776568,650c16f0f2faf8d7a0d14c09,651c1cd9553426bc649616d5,null,null,"<p style=""font-size: 60px; font-family: BACS"">dOYmlAkd</p>",,,,,,,,,,
html-keyboard-response,460,589128,0.0-18.0-0.47,6163faf9d9ac4586fe776568,650c16f0f2faf8d7a0d14c09,651c1cd9553426bc649616d5,null,null,"<p style=""font-size: 60px; font-family: BACS"">uQkrduUmb</p>",,,,,,,,,,
html-keyboard-response,461,590143,0.0-18.0-0.48,6163faf9d9ac4586fe776568,650c16f0f2faf8d7a0d14c09,651c1cd9553426bc649616d5,null,null,"<p style=""font-size: 60px; font-family: BACS"">mZUrQYaOk</p>",,,,,,,,,,
html-keyboard-response,462,591157,0.0-18.0-0.49,6163faf9d9ac4586fe776568,650c16f0f2faf8d7a0d14c09,651c1cd9553426bc649616d5,null,null,"<p style=""font-size: 60px; font-family: BACS"">GabkuvJ</p>",,,,,,,,,,
html-keyboard-response,463,592169,0.0-18.0-0.50,6163faf9d9ac4586fe776568,650c16f0f2faf8d7a0d14c09,651c1cd9553426bc649616d5,null,null,"<p style=""font-size: 60px; font-family: BACS"">CDEmYAkd</p>",,,,,,,,,,
html-keyboard-response,464,593174,0.0-18.0-0.51,6163faf9d9ac4586fe776568,650c16f0f2faf8d7a0d14c09,651c1cd9553426bc649616d5,null,null,"<p style=""font-size: 60px; font-family: BACS"">vmuLluvJ</p>",,,,,,,,,,
html-keyboard-response,465,594186,0.0-18.0-0.52,6163faf9d9ac4586fe776568,650c16f0f2faf8d7a0d14c09,651c1cd9553426bc649616d5,null,null,"<p style=""font-size: 60px; font-family: BACS"">TdTDtcB</p>",,,,,,,,,,
