"trial_type","trial_index","time_elapsed","internal_node_id","subject_id","study_id","session_id","rt","response","stimulus","success","item","task","correct_response","testing_condition","correct","target","confound","name"
"pavlovia","0","984","0.0-0.0","61086c2bfda98ba5d75b9db4","64e77d7b61f440b60e28659d","64eca8decf62de62fc431f23","","","","","","","","","","","",""
"survey-html-form","1","11853","0.0-1.0","61086c2bfda98ba5d75b9db4","64e77d7b61f440b60e28659d","64eca8decf62de62fc431f23","10866","{""ID"":""61086c2bfda98ba5d75b9db4""}","","","","","","","","","",""
"html-keyboard-response","2","191924","0.0-2.0","61086c2bfda98ba5d75b9db4","64e77d7b61f440b60e28659d","64eca8decf62de62fc431f23","180067"," ","<p style=""font-size: 15px;"">Before beginning, we ask that you read the consent information and confirm your agreement to participate in the experiment.</p>
      <p style=""font-size: 15px;""> We ask that you remember that this is a research project and that your participation is entirely voluntary. You can stop your participation at any time, without needing to provide any explanation. The study we're asking you to participate in aims at examining how readers process written words. You will be engaged in a session of apprximately 20 minutes, followed by a brief questionnaire. You will have the opportunity to take a few breaks during the experiment. You will be paid £4 for your participation, corresponding to a rate of £8/hour. While this experiment looks at cognitive faculties, this experiment doesn't constitute clinical proof of eventual pathologies.</p>
      <p style=""font-size: 15px;"">All of the information collected thanks to yours and others' participation will be held in a secure password-protected server, and will not be shared with anyone not authorised to view it. Your personal information will be kept with an arbitrary participant ID. Thanks to this data anonymity process, any researcher analysing the data won't be able to track the information back to a specific participant. Therefore, this process will make identifying you impossibile, even when results from the study will be published in scientific reviews, presented at congresses, or at any other public forum. More generally, the collected data will be treated in accordance with the laws on privacy and conformity to the Legislative Degree n. 196 ""Code regarding the protection of personal data"" of the 30th of June 2003 and to the European Regulation 2016/670 (General Data Protection Regulation - GDPR). The Data Protection Officer is Avv. Valentina Carollo, who can be contacted at the following email addresses: <a href=""mailto:dpo@sissa.it"">dpo@sissa.it</a> or <a href=""mailto:rpd@sissa.it"">rpd@sissa.it</a> - PEC: <a href=""mailto:protocollo@pec.sissa.it"">protocollo@pec.sissa.it</a>.</p>
      <p style=""font-size: 15px;""> Before expressing your consent to participate, we would like to remind you again that in case you need explanations on any aspect of the experimental procedure, the researcher is at your disposition (<a href=""mailto:aliebelt@sissa.it"">aliebelt@sissa.it</a>, <a href=""mailto:davide.crepaldi@sissa.it"">davide.crepaldi@sissa.it</a>).</p>
      <p style=""font-size: 15px;"">If you would like to download the informed consent form, you can do so here: <a href=""BASL-Informed_Consent.pdf"" download>informed consent form</a>.</p>
      <p style=""font-size: 15px;"">We ask that you press the spacebar to proceed to the consent section.</p>","","","","","","","","",""
"survey-html-form","3","266537","0.0-3.0","61086c2bfda98ba5d75b9db4","64e77d7b61f440b60e28659d","64eca8decf62de62fc431f23","74611","{""consent1"":""YES"",""consent2"":""YES"",""consent3"":""YES"",""consent4"":""YES"",""consent5"":""YES"",""consent6"":""YES""}","","","","","","","","","",""
"fullscreen","4","284466","0.0-4.0","61086c2bfda98ba5d75b9db4","64e77d7b61f440b60e28659d","64eca8decf62de62fc431f23","","","","true","","","","","","","",""
"html-keyboard-response","5","323963","0.0-5.0","61086c2bfda98ba5d75b9db4","64e77d7b61f440b60e28659d","64eca8decf62de62fc431f23","39496"," ","<p>Welcome, and thank you very much for your time!</p>
      <p>In this experiment, you'll be a language expert who's been asked to take a look at words that Earth has received in its first communication with aliens. Your task, in this first part of the experiment, is to pay close attention to the words you'll be shown; later, world leaders will ask you questions on what you saw. The words will be shown to you quite quickly; it seems that the aliens were in a hurry :-)</p>
      <p>Press the spacebar to continue.<p>","","","","","","","","",""
"html-keyboard-response","6","382604","0.0-6.0","61086c2bfda98ba5d75b9db4","64e77d7b61f440b60e28659d","64eca8decf62de62fc431f23","58640"," ","<p>Here is an example of the words you'll see:</p>
      <img src='esempio.png' height='400px'>
      <p>When you're ready to begin, press the spacebar.</p></div>","","","","","","","","",""
"html-keyboard-response","7","383613","0.0-7.0-0.0","61086c2bfda98ba5d75b9db4","64e77d7b61f440b60e28659d","64eca8decf62de62fc431f23","null","null","<p style=""font-size: 60px; font-family: BACS"">LGkAQONk</p>","","","","","","","","",""
"html-keyboard-response","8","384615","0.0-7.0-0.1","61086c2bfda98ba5d75b9db4","64e77d7b61f440b60e28659d","64eca8decf62de62fc431f23","null","null","<p style=""font-size: 60px; font-family: BACS"">NaAQdOcN</p>","","","","","","","","",""
"html-keyboard-response","9","385617","0.0-7.0-0.2","61086c2bfda98ba5d75b9db4","64e77d7b61f440b60e28659d","64eca8decf62de62fc431f23","null","null","<p style=""font-size: 60px; font-family: BACS"">BECkPMYm</p>","","","","","","","","",""
"html-keyboard-response","10","386618","0.0-7.0-0.3","61086c2bfda98ba5d75b9db4","64e77d7b61f440b60e28659d","64eca8decf62de62fc431f23","null","null","<p style=""font-size: 60px; font-family: BACS"">uvaUrZYd</p>","","","","","","","","",""
"html-keyboard-response","11","387633","0.0-7.0-0.4","61086c2bfda98ba5d75b9db4","64e77d7b61f440b60e28659d","64eca8decf62de62fc431f23","null","null","<p style=""font-size: 60px; font-family: BACS"">OcYMDOk</p>","","","","","","","","",""
"html-keyboard-response","12","388656","0.0-7.0-0.5","61086c2bfda98ba5d75b9db4","64e77d7b61f440b60e28659d","64eca8decf62de62fc431f23","null","null","<p style=""font-size: 60px; font-family: BACS"">adYrcrZYd</p>","","","","","","","","",""
"html-keyboard-response","13","389658","0.0-7.0-0.6","61086c2bfda98ba5d75b9db4","64e77d7b61f440b60e28659d","64eca8decf62de62fc431f23","null","null","<p style=""font-size: 60px; font-family: BACS"">BECkPMd</p>","","","","","","","","",""
"html-keyboard-response","14","390659","0.0-7.0-0.7","61086c2bfda98ba5d75b9db4","64e77d7b61f440b60e28659d","64eca8decf62de62fc431f23","null","null","<p style=""font-size: 60px; font-family: BACS"">MhKdPMYm</p>","","","","","","","","",""
"html-keyboard-response","15","391661","0.0-7.0-0.8","61086c2bfda98ba5d75b9db4","64e77d7b61f440b60e28659d","64eca8decf62de62fc431f23","null","null","<p style=""font-size: 60px; font-family: BACS"">DlDdCKOb</p>","","","","","","","","",""
"html-keyboard-response","16","392662","0.0-7.0-0.9","61086c2bfda98ba5d75b9db4","64e77d7b61f440b60e28659d","64eca8decf62de62fc431f23","null","null","<p style=""font-size: 60px; font-family: BACS"">DRPkYPMYm</p>","","","","","","","","",""
"html-keyboard-response","17","393664","0.0-7.0-0.10","61086c2bfda98ba5d75b9db4","64e77d7b61f440b60e28659d","64eca8decf62de62fc431f23","null","null","<p style=""font-size: 60px; font-family: BACS"">JdGmrZYd</p>","","","","","","","","",""
"html-keyboard-response","18","394666","0.0-7.0-0.11","61086c2bfda98ba5d75b9db4","64e77d7b61f440b60e28659d","64eca8decf62de62fc431f23","null","null","<p style=""font-size: 60px; font-family: BACS"">JrGvkam</p>","","","","","","","","",""
"html-keyboard-response","19","395668","0.0-7.0-0.12","61086c2bfda98ba5d75b9db4","64e77d7b61f440b60e28659d","64eca8decf62de62fc431f23","null","null","<p style=""font-size: 60px; font-family: BACS"">bmdABTmTm</p>","","","","","","","","",""
"html-keyboard-response","20","396669","0.0-7.0-0.13","61086c2bfda98ba5d75b9db4","64e77d7b61f440b60e28659d","64eca8decf62de62fc431f23","null","null","<p style=""font-size: 60px; font-family: BACS"">BECkCKOb</p>","","","","","","","","",""
"html-keyboard-response","21","397671","0.0-7.0-0.14","61086c2bfda98ba5d75b9db4","64e77d7b61f440b60e28659d","64eca8decf62de62fc431f23","null","null","<p style=""font-size: 60px; font-family: BACS"">ALGZOcN</p>","","","","","","","","",""
"html-keyboard-response","22","398672","0.0-7.0-0.15","61086c2bfda98ba5d75b9db4","64e77d7b61f440b60e28659d","64eca8decf62de62fc431f23","null","null","<p style=""font-size: 60px; font-family: BACS"">cDOEBPMd</p>","","","","","","","","",""
"html-keyboard-response","23","399674","0.0-7.0-0.16","61086c2bfda98ba5d75b9db4","64e77d7b61f440b60e28659d","64eca8decf62de62fc431f23","null","null","<p style=""font-size: 60px; font-family: BACS"">ALGZkam</p>","","","","","","","","",""
"html-keyboard-response","24","400677","0.0-7.0-0.17","61086c2bfda98ba5d75b9db4","64e77d7b61f440b60e28659d","64eca8decf62de62fc431f23","null","null","<p style=""font-size: 60px; font-family: BACS"">AlTdPMYm</p>","","","","","","","","",""
"html-keyboard-response","25","401678","0.0-7.0-0.18","61086c2bfda98ba5d75b9db4","64e77d7b61f440b60e28659d","64eca8decf62de62fc431f23","null","null","<p style=""font-size: 60px; font-family: BACS"">JrGvQONk</p>","","","","","","","","",""
"html-keyboard-response","26","402680","0.0-7.0-0.19","61086c2bfda98ba5d75b9db4","64e77d7b61f440b60e28659d","64eca8decf62de62fc431f23","null","null","<p style=""font-size: 60px; font-family: BACS"">MhKdDOk</p>","","","","","","","","",""
"html-keyboard-response","27","403696","0.0-7.0-0.20","61086c2bfda98ba5d75b9db4","64e77d7b61f440b60e28659d","64eca8decf62de62fc431f23","null","null","<p style=""font-size: 60px; font-family: BACS"">ALGZQONk</p>","","","","","","","","",""
"html-keyboard-response","28","404699","0.0-7.0-0.21","61086c2bfda98ba5d75b9db4","64e77d7b61f440b60e28659d","64eca8decf62de62fc431f23","null","null","<p style=""font-size: 60px; font-family: BACS"">AlTdDOk</p>","","","","","","","","",""
"html-keyboard-response","29","405700","0.0-7.0-0.22","61086c2bfda98ba5d75b9db4","64e77d7b61f440b60e28659d","64eca8decf62de62fc431f23","null","null","<p style=""font-size: 60px; font-family: BACS"">OLJblQONk</p>","","","","","","","","",""
"html-keyboard-response","30","406701","0.0-7.0-0.23","61086c2bfda98ba5d75b9db4","64e77d7b61f440b60e28659d","64eca8decf62de62fc431f23","null","null","<p style=""font-size: 60px; font-family: BACS"">DCmhCKOb</p>","","","","","","","","",""
"html-keyboard-response","31","407703","0.0-7.0-0.24","61086c2bfda98ba5d75b9db4","64e77d7b61f440b60e28659d","64eca8decf62de62fc431f23","null","null","<p style=""font-size: 60px; font-family: BACS"">ALGZOJlN</p>","","","","","","","","",""
"html-keyboard-response","32","408706","0.0-7.0-0.25","61086c2bfda98ba5d75b9db4","64e77d7b61f440b60e28659d","64eca8decf62de62fc431f23","null","null","<p style=""font-size: 60px; font-family: BACS"">OcYMPMd</p>","","","","","","","","",""
"html-keyboard-response","33","409708","0.0-7.0-0.26","61086c2bfda98ba5d75b9db4","64e77d7b61f440b60e28659d","64eca8decf62de62fc431f23","null","null","<p style=""font-size: 60px; font-family: BACS"">adYrckam</p>","","","","","","","","",""
"html-keyboard-response","34","410710","0.0-7.0-0.27","61086c2bfda98ba5d75b9db4","64e77d7b61f440b60e28659d","64eca8decf62de62fc431f23","null","null","<p style=""font-size: 60px; font-family: BACS"">DlDdPMYm</p>","","","","","","","","",""
"html-keyboard-response","35","411712","0.0-7.0-0.28","61086c2bfda98ba5d75b9db4","64e77d7b61f440b60e28659d","64eca8decf62de62fc431f23","null","null","<p style=""font-size: 60px; font-family: BACS"">uvaUkam</p>","","","","","","","","",""
"html-keyboard-response","36","412714","0.0-7.0-0.29","61086c2bfda98ba5d75b9db4","64e77d7b61f440b60e28659d","64eca8decf62de62fc431f23","null","null","<p style=""font-size: 60px; font-family: BACS"">NaAQdrZYd</p>","","","","","","","","",""
"html-keyboard-response","37","413715","0.0-7.0-0.30","61086c2bfda98ba5d75b9db4","64e77d7b61f440b60e28659d","64eca8decf62de62fc431f23","null","null","<p style=""font-size: 60px; font-family: BACS"">AlTdCKOb</p>","","","","","","","","",""
"html-keyboard-response","38","414716","0.0-7.0-0.31","61086c2bfda98ba5d75b9db4","64e77d7b61f440b60e28659d","64eca8decf62de62fc431f23","null","null","<p style=""font-size: 60px; font-family: BACS"">cDOEBPMYm</p>","","","","","","","","",""
"html-keyboard-response","39","415732","0.0-7.0-0.32","61086c2bfda98ba5d75b9db4","64e77d7b61f440b60e28659d","64eca8decf62de62fc431f23","null","null","<p style=""font-size: 60px; font-family: BACS"">OLJblrZYd</p>","","","","","","","","",""
"html-keyboard-response","40","416734","0.0-7.0-0.33","61086c2bfda98ba5d75b9db4","64e77d7b61f440b60e28659d","64eca8decf62de62fc431f23","null","null","<p style=""font-size: 60px; font-family: BACS"">cDOEBDOk</p>","","","","","","","","",""
"html-keyboard-response","41","417751","0.0-7.0-0.34","61086c2bfda98ba5d75b9db4","64e77d7b61f440b60e28659d","64eca8decf62de62fc431f23","null","null","<p style=""font-size: 60px; font-family: BACS"">mBbKPMd</p>","","","","","","","","",""
"html-keyboard-response","42","418752","0.0-7.0-0.35","61086c2bfda98ba5d75b9db4","64e77d7b61f440b60e28659d","64eca8decf62de62fc431f23","null","null","<p style=""font-size: 60px; font-family: BACS"">LGkAOcN</p>","","","","","","","","",""
"html-keyboard-response","43","419754","0.0-7.0-0.36","61086c2bfda98ba5d75b9db4","64e77d7b61f440b60e28659d","64eca8decf62de62fc431f23","null","null","<p style=""font-size: 60px; font-family: BACS"">AlTdTmTm</p>","","","","","","","","",""
"html-keyboard-response","44","420755","0.0-7.0-0.37","61086c2bfda98ba5d75b9db4","64e77d7b61f440b60e28659d","64eca8decf62de62fc431f23","null","null","<p style=""font-size: 60px; font-family: BACS"">JdGmOcN</p>","","","","","","","","",""
"html-keyboard-response","45","421757","0.0-7.0-0.38","61086c2bfda98ba5d75b9db4","64e77d7b61f440b60e28659d","64eca8decf62de62fc431f23","null","null","<p style=""font-size: 60px; font-family: BACS"">DCmhTmTm</p>","","","","","","","","",""
"html-keyboard-response","46","422759","0.0-7.0-0.39","61086c2bfda98ba5d75b9db4","64e77d7b61f440b60e28659d","64eca8decf62de62fc431f23","null","null","<p style=""font-size: 60px; font-family: BACS"">rvOvUQONk</p>","","","","","","","","",""
"html-keyboard-response","47","423761","0.0-7.0-0.40","61086c2bfda98ba5d75b9db4","64e77d7b61f440b60e28659d","64eca8decf62de62fc431f23","null","null","<p style=""font-size: 60px; font-family: BACS"">DRPkYPMd</p>","","","","","","","","",""
"html-keyboard-response","48","424762","0.0-7.0-0.41","61086c2bfda98ba5d75b9db4","64e77d7b61f440b60e28659d","64eca8decf62de62fc431f23","null","null","<p style=""font-size: 60px; font-family: BACS"">MhKdCKOb</p>","","","","","","","","",""
"html-keyboard-response","49","425763","0.0-7.0-0.42","61086c2bfda98ba5d75b9db4","64e77d7b61f440b60e28659d","64eca8decf62de62fc431f23","null","null","<p style=""font-size: 60px; font-family: BACS"">cDOEBTmTm</p>","","","","","","","","",""
"html-keyboard-response","50","426764","0.0-7.0-0.43","61086c2bfda98ba5d75b9db4","64e77d7b61f440b60e28659d","64eca8decf62de62fc431f23","null","null","<p style=""font-size: 60px; font-family: BACS"">bmdABPMYm</p>","","","","","","","","",""
"html-keyboard-response","51","427765","0.0-7.0-0.44","61086c2bfda98ba5d75b9db4","64e77d7b61f440b60e28659d","64eca8decf62de62fc431f23","null","null","<p style=""font-size: 60px; font-family: BACS"">LGkAOJlN</p>","","","","","","","","",""
"html-keyboard-response","52","428766","0.0-7.0-0.45","61086c2bfda98ba5d75b9db4","64e77d7b61f440b60e28659d","64eca8decf62de62fc431f23","null","null","<p style=""font-size: 60px; font-family: BACS"">OcYMTmTm</p>","","","","","","","","",""
"html-keyboard-response","53","429769","0.0-7.0-0.46","61086c2bfda98ba5d75b9db4","64e77d7b61f440b60e28659d","64eca8decf62de62fc431f23","null","null","<p style=""font-size: 60px; font-family: BACS"">JdGmOJlN</p>","","","","","","","","",""
"html-keyboard-response","54","430771","0.0-7.0-0.47","61086c2bfda98ba5d75b9db4","64e77d7b61f440b60e28659d","64eca8decf62de62fc431f23","null","null","<p style=""font-size: 60px; font-family: BACS"">OLJblkam</p>","","","","","","","","",""
"html-keyboard-response","55","431787","0.0-7.0-0.48","61086c2bfda98ba5d75b9db4","64e77d7b61f440b60e28659d","64eca8decf62de62fc431f23","null","null","<p style=""font-size: 60px; font-family: BACS"">DCmhPMd</p>","","","","","","","","",""
"html-keyboard-response","56","432790","0.0-7.0-0.49","61086c2bfda98ba5d75b9db4","64e77d7b61f440b60e28659d","64eca8decf62de62fc431f23","null","null","<p style=""font-size: 60px; font-family: BACS"">rGUAYOcN</p>","","","","","","","","",""
"html-keyboard-response","57","433791","0.0-7.0-0.50","61086c2bfda98ba5d75b9db4","64e77d7b61f440b60e28659d","64eca8decf62de62fc431f23","null","null","<p style=""font-size: 60px; font-family: BACS"">MhKdPMd</p>","","","","","","","","",""
"html-keyboard-response","58","434794","0.0-7.0-0.51","61086c2bfda98ba5d75b9db4","64e77d7b61f440b60e28659d","64eca8decf62de62fc431f23","null","null","<p style=""font-size: 60px; font-family: BACS"">DlDdDOk</p>","","","","","","","","",""
"html-keyboard-response","59","435795","0.0-7.0-0.52","61086c2bfda98ba5d75b9db4","64e77d7b61f440b60e28659d","64eca8decf62de62fc431f23","null","null","<p style=""font-size: 60px; font-family: BACS"">JrGvrZYd</p>","","","","","","","","",""
"html-keyboard-response","60","436796","0.0-7.0-0.53","61086c2bfda98ba5d75b9db4","64e77d7b61f440b60e28659d","64eca8decf62de62fc431f23","null","null","<p style=""font-size: 60px; font-family: BACS"">NaAQdOJlN</p>","","","","","","","","",""
"html-keyboard-response","61","437798","0.0-7.0-0.54","61086c2bfda98ba5d75b9db4","64e77d7b61f440b60e28659d","64eca8decf62de62fc431f23","null","null","<p style=""font-size: 60px; font-family: BACS"">adYrcOcN</p>","","","","","","","","",""
"html-keyboard-response","62","438800","0.0-7.0-0.55","61086c2bfda98ba5d75b9db4","64e77d7b61f440b60e28659d","64eca8decf62de62fc431f23","null","null","<p style=""font-size: 60px; font-family: BACS"">OcYMCKOb</p>","","","","","","","","",""
"html-keyboard-response","63","439801","0.0-7.0-0.56","61086c2bfda98ba5d75b9db4","64e77d7b61f440b60e28659d","64eca8decf62de62fc431f23","null","null","<p style=""font-size: 60px; font-family: BACS"">OLJblOcN</p>","","","","","","","","",""
"html-keyboard-response","64","440803","0.0-7.0-0.57","61086c2bfda98ba5d75b9db4","64e77d7b61f440b60e28659d","64eca8decf62de62fc431f23","null","null","<p style=""font-size: 60px; font-family: BACS"">DRPkYTmTm</p>","","","","","","","","",""
"html-keyboard-response","65","441805","0.0-7.0-0.58","61086c2bfda98ba5d75b9db4","64e77d7b61f440b60e28659d","64eca8decf62de62fc431f23","null","null","<p style=""font-size: 60px; font-family: BACS"">LGkArZYd</p>","","","","","","","","",""
"html-keyboard-response","66","442807","0.0-7.0-0.59","61086c2bfda98ba5d75b9db4","64e77d7b61f440b60e28659d","64eca8decf62de62fc431f23","null","null","<p style=""font-size: 60px; font-family: BACS"">uvaUOJlN</p>","","","","","","","","",""
"html-keyboard-response","67","443808","0.0-7.0-0.60","61086c2bfda98ba5d75b9db4","64e77d7b61f440b60e28659d","64eca8decf62de62fc431f23","null","null","<p style=""font-size: 60px; font-family: BACS"">bmdABPMd</p>","","","","","","","","",""
"html-keyboard-response","68","444823","0.0-7.0-0.61","61086c2bfda98ba5d75b9db4","64e77d7b61f440b60e28659d","64eca8decf62de62fc431f23","null","null","<p style=""font-size: 60px; font-family: BACS"">DCmhDOk</p>","","","","","","","","",""
"html-keyboard-response","69","445845","0.0-7.0-0.62","61086c2bfda98ba5d75b9db4","64e77d7b61f440b60e28659d","64eca8decf62de62fc431f23","null","null","<p style=""font-size: 60px; font-family: BACS"">rGUAYOJlN</p>","","","","","","","","",""
"html-keyboard-response","70","446862","0.0-7.0-0.63","61086c2bfda98ba5d75b9db4","64e77d7b61f440b60e28659d","64eca8decf62de62fc431f23","null","null","<p style=""font-size: 60px; font-family: BACS"">adYrcQONk</p>","","","","","","","","",""
"html-keyboard-response","71","447863","0.0-7.0-0.64","61086c2bfda98ba5d75b9db4","64e77d7b61f440b60e28659d","64eca8decf62de62fc431f23","null","null","<p style=""font-size: 60px; font-family: BACS"">rvOvUOcN</p>","","","","","","","","",""
"html-keyboard-response","72","448865","0.0-7.0-0.65","61086c2bfda98ba5d75b9db4","64e77d7b61f440b60e28659d","64eca8decf62de62fc431f23","null","null","<p style=""font-size: 60px; font-family: BACS"">DlDdTmTm</p>","","","","","","","","",""
"html-keyboard-response","73","449868","0.0-7.0-0.66","61086c2bfda98ba5d75b9db4","64e77d7b61f440b60e28659d","64eca8decf62de62fc431f23","null","null","<p style=""font-size: 60px; font-family: BACS"">rGUAYQONk</p>","","","","","","","","",""
"html-keyboard-response","74","450869","0.0-7.0-0.67","61086c2bfda98ba5d75b9db4","64e77d7b61f440b60e28659d","64eca8decf62de62fc431f23","null","null","<p style=""font-size: 60px; font-family: BACS"">NaAQdkam</p>","","","","","","","","",""
"html-keyboard-response","75","451871","0.0-7.0-0.68","61086c2bfda98ba5d75b9db4","64e77d7b61f440b60e28659d","64eca8decf62de62fc431f23","null","null","<p style=""font-size: 60px; font-family: BACS"">uvaUQONk</p>","","","","","","","","",""
"html-keyboard-response","76","452873","0.0-7.0-0.69","61086c2bfda98ba5d75b9db4","64e77d7b61f440b60e28659d","64eca8decf62de62fc431f23","null","null","<p style=""font-size: 60px; font-family: BACS"">mBbKCKOb</p>","","","","","","","","",""
"html-keyboard-response","77","453876","0.0-7.0-0.70","61086c2bfda98ba5d75b9db4","64e77d7b61f440b60e28659d","64eca8decf62de62fc431f23","null","null","<p style=""font-size: 60px; font-family: BACS"">rvOvUOJlN</p>","","","","","","","","",""
"html-keyboard-response","78","454891","0.0-7.0-0.71","61086c2bfda98ba5d75b9db4","64e77d7b61f440b60e28659d","64eca8decf62de62fc431f23","null","null","<p style=""font-size: 60px; font-family: BACS"">rGUAYrZYd</p>","","","","","","","","",""
"html-keyboard-response","79","455893","0.0-7.0-0.72","61086c2bfda98ba5d75b9db4","64e77d7b61f440b60e28659d","64eca8decf62de62fc431f23","null","null","<p style=""font-size: 60px; font-family: BACS"">mBbKTmTm</p>","","","","","","","","",""
"html-keyboard-response","80","456894","0.0-7.0-0.73","61086c2bfda98ba5d75b9db4","64e77d7b61f440b60e28659d","64eca8decf62de62fc431f23","null","null","<p style=""font-size: 60px; font-family: BACS"">JrGvOJlN</p>","","","","","","","","",""
"html-keyboard-response","81","457895","0.0-7.0-0.74","61086c2bfda98ba5d75b9db4","64e77d7b61f440b60e28659d","64eca8decf62de62fc431f23","null","null","<p style=""font-size: 60px; font-family: BACS"">rvOvUkam</p>","","","","","","","","",""
"html-keyboard-response","82","458897","0.0-7.0-0.75","61086c2bfda98ba5d75b9db4","64e77d7b61f440b60e28659d","64eca8decf62de62fc431f23","null","null","<p style=""font-size: 60px; font-family: BACS"">mBbKPMYm</p>","","","","","","","","",""
"html-keyboard-response","83","459898","0.0-7.0-0.76","61086c2bfda98ba5d75b9db4","64e77d7b61f440b60e28659d","64eca8decf62de62fc431f23","null","null","<p style=""font-size: 60px; font-family: BACS"">JdGmkam</p>","","","","","","","","",""
"html-keyboard-response","84","460900","0.0-7.0-0.77","61086c2bfda98ba5d75b9db4","64e77d7b61f440b60e28659d","64eca8decf62de62fc431f23","null","null","<p style=""font-size: 60px; font-family: BACS"">BECkDOk</p>","","","","","","","","",""
"html-keyboard-response","85","461908","0.0-7.0-0.78","61086c2bfda98ba5d75b9db4","64e77d7b61f440b60e28659d","64eca8decf62de62fc431f23","null","null","<p style=""font-size: 60px; font-family: BACS"">bmdABCKOb</p>","","","","","","","","",""
"html-keyboard-response","86","462924","0.0-7.0-0.79","61086c2bfda98ba5d75b9db4","64e77d7b61f440b60e28659d","64eca8decf62de62fc431f23","null","null","<p style=""font-size: 60px; font-family: BACS"">DRPkYDOk</p>","","","","","","","","",""
"html-keyboard-response","87","479403","0.0-8.0","61086c2bfda98ba5d75b9db4","64e77d7b61f440b60e28659d","64eca8decf62de62fc431f23","16478"," ","<p>Great, you've seen the first block of words. You may now take a short break.</p>
      <p>Press the spacebar when you're ready to continue.</p>","","","","","","","","",""
"html-keyboard-response","88","480409","0.0-9.0-0.0","61086c2bfda98ba5d75b9db4","64e77d7b61f440b60e28659d","64eca8decf62de62fc431f23","null","null","<p style=""font-size: 60px; font-family: BACS"">adYrckam</p>","","","","","","","","",""
"html-keyboard-response","89","481411","0.0-9.0-0.1","61086c2bfda98ba5d75b9db4","64e77d7b61f440b60e28659d","64eca8decf62de62fc431f23","null","null","<p style=""font-size: 60px; font-family: BACS"">NaAQdrZYd</p>","","","","","","","","",""
"html-keyboard-response","90","482413","0.0-9.0-0.2","61086c2bfda98ba5d75b9db4","64e77d7b61f440b60e28659d","64eca8decf62de62fc431f23","null","null","<p style=""font-size: 60px; font-family: BACS"">OLJblOcN</p>","","","","","","","","",""
"html-keyboard-response","91","483414","0.0-9.0-0.3","61086c2bfda98ba5d75b9db4","64e77d7b61f440b60e28659d","64eca8decf62de62fc431f23","null","null","<p style=""font-size: 60px; font-family: BACS"">DlDdDOk</p>","","","","","","","","",""
"html-keyboard-response","92","484416","0.0-9.0-0.4","61086c2bfda98ba5d75b9db4","64e77d7b61f440b60e28659d","64eca8decf62de62fc431f23","null","null","<p style=""font-size: 60px; font-family: BACS"">ALGZOJlN</p>","","","","","","","","",""
"html-keyboard-response","93","485418","0.0-9.0-0.5","61086c2bfda98ba5d75b9db4","64e77d7b61f440b60e28659d","64eca8decf62de62fc431f23","null","null","<p style=""font-size: 60px; font-family: BACS"">AlTdCKOb</p>","","","","","","","","",""
"html-keyboard-response","94","486433","0.0-9.0-0.6","61086c2bfda98ba5d75b9db4","64e77d7b61f440b60e28659d","64eca8decf62de62fc431f23","null","null","<p style=""font-size: 60px; font-family: BACS"">MhKdDOk</p>","","","","","","","","",""
"html-keyboard-response","95","487435","0.0-9.0-0.7","61086c2bfda98ba5d75b9db4","64e77d7b61f440b60e28659d","64eca8decf62de62fc431f23","null","null","<p style=""font-size: 60px; font-family: BACS"">adYrcQONk</p>","","","","","","","","",""
"html-keyboard-response","96","488437","0.0-9.0-0.8","61086c2bfda98ba5d75b9db4","64e77d7b61f440b60e28659d","64eca8decf62de62fc431f23","null","null","<p style=""font-size: 60px; font-family: BACS"">MhKdPMd</p>","","","","","","","","",""
"html-keyboard-response","97","489439","0.0-9.0-0.9","61086c2bfda98ba5d75b9db4","64e77d7b61f440b60e28659d","64eca8decf62de62fc431f23","null","null","<p style=""font-size: 60px; font-family: BACS"">JrGvQONk</p>","","","","","","","","",""
"html-keyboard-response","98","490442","0.0-9.0-0.10","61086c2bfda98ba5d75b9db4","64e77d7b61f440b60e28659d","64eca8decf62de62fc431f23","null","null","<p style=""font-size: 60px; font-family: BACS"">LGkArZYd</p>","","","","","","","","",""
"html-keyboard-response","99","491443","0.0-9.0-0.11","61086c2bfda98ba5d75b9db4","64e77d7b61f440b60e28659d","64eca8decf62de62fc431f23","null","null","<p style=""font-size: 60px; font-family: BACS"">BECkPMd</p>","","","","","","","","",""
"html-keyboard-response","100","492445","0.0-9.0-0.12","61086c2bfda98ba5d75b9db4","64e77d7b61f440b60e28659d","64eca8decf62de62fc431f23","null","null","<p style=""font-size: 60px; font-family: BACS"">DRPkYTmTm</p>","","","","","","","","",""
"html-keyboard-response","101","493469","0.0-9.0-0.13","61086c2bfda98ba5d75b9db4","64e77d7b61f440b60e28659d","64eca8decf62de62fc431f23","null","null","<p style=""font-size: 60px; font-family: BACS"">NaAQdOJlN</p>","","","","","","","","",""
"html-keyboard-response","102","494470","0.0-9.0-0.14","61086c2bfda98ba5d75b9db4","64e77d7b61f440b60e28659d","64eca8decf62de62fc431f23","null","null","<p style=""font-size: 60px; font-family: BACS"">rvOvUkam</p>","","","","","","","","",""
"html-keyboard-response","103","495486","0.0-9.0-0.15","61086c2bfda98ba5d75b9db4","64e77d7b61f440b60e28659d","64eca8decf62de62fc431f23","null","null","<p style=""font-size: 60px; font-family: BACS"">JdGmrZYd</p>","","","","","","","","",""
"html-keyboard-response","104","496488","0.0-9.0-0.16","61086c2bfda98ba5d75b9db4","64e77d7b61f440b60e28659d","64eca8decf62de62fc431f23","null","null","<p style=""font-size: 60px; font-family: BACS"">LGkAOcN</p>","","","","","","","","",""
"html-keyboard-response","105","497489","0.0-9.0-0.17","61086c2bfda98ba5d75b9db4","64e77d7b61f440b60e28659d","64eca8decf62de62fc431f23","null","null","<p style=""font-size: 60px; font-family: BACS"">cDOEBPMYm</p>","","","","","","","","",""
"html-keyboard-response","106","498490","0.0-9.0-0.18","61086c2bfda98ba5d75b9db4","64e77d7b61f440b60e28659d","64eca8decf62de62fc431f23","null","null","<p style=""font-size: 60px; font-family: BACS"">LGkAQONk</p>","","","","","","","","",""
"html-keyboard-response","107","499492","0.0-9.0-0.19","61086c2bfda98ba5d75b9db4","64e77d7b61f440b60e28659d","64eca8decf62de62fc431f23","null","null","<p style=""font-size: 60px; font-family: BACS"">adYrcrZYd</p>","","","","","","","","",""
"html-keyboard-response","108","500495","0.0-9.0-0.20","61086c2bfda98ba5d75b9db4","64e77d7b61f440b60e28659d","64eca8decf62de62fc431f23","null","null","<p style=""font-size: 60px; font-family: BACS"">uvaUkam</p>","","","","","","","","",""
"html-keyboard-response","109","501497","0.0-9.0-0.21","61086c2bfda98ba5d75b9db4","64e77d7b61f440b60e28659d","64eca8decf62de62fc431f23","null","null","<p style=""font-size: 60px; font-family: BACS"">adYrcOcN</p>","","","","","","","","",""
"html-keyboard-response","110","502499","0.0-9.0-0.22","61086c2bfda98ba5d75b9db4","64e77d7b61f440b60e28659d","64eca8decf62de62fc431f23","null","null","<p style=""font-size: 60px; font-family: BACS"">DCmhDOk</p>","","","","","","","","",""
"html-keyboard-response","111","503500","0.0-9.0-0.23","61086c2bfda98ba5d75b9db4","64e77d7b61f440b60e28659d","64eca8decf62de62fc431f23","null","null","<p style=""font-size: 60px; font-family: BACS"">BECkCKOb</p>","","","","","","","","",""
"html-keyboard-response","112","504501","0.0-9.0-0.24","61086c2bfda98ba5d75b9db4","64e77d7b61f440b60e28659d","64eca8decf62de62fc431f23","null","null","<p style=""font-size: 60px; font-family: BACS"">mBbKPMYm</p>","","","","","","","","",""
"html-keyboard-response","113","505502","0.0-9.0-0.25","61086c2bfda98ba5d75b9db4","64e77d7b61f440b60e28659d","64eca8decf62de62fc431f23","null","null","<p style=""font-size: 60px; font-family: BACS"">LGkAOJlN</p>","","","","","","","","",""
"html-keyboard-response","114","506503","0.0-9.0-0.26","61086c2bfda98ba5d75b9db4","64e77d7b61f440b60e28659d","64eca8decf62de62fc431f23","null","null","<p style=""font-size: 60px; font-family: BACS"">AlTdTmTm</p>","","","","","","","","",""
"html-keyboard-response","115","507505","0.0-9.0-0.27","61086c2bfda98ba5d75b9db4","64e77d7b61f440b60e28659d","64eca8decf62de62fc431f23","null","null","<p style=""font-size: 60px; font-family: BACS"">BECkPMYm</p>","","","","","","","","",""
"html-keyboard-response","116","508507","0.0-9.0-0.28","61086c2bfda98ba5d75b9db4","64e77d7b61f440b60e28659d","64eca8decf62de62fc431f23","null","null","<p style=""font-size: 60px; font-family: BACS"">DCmhCKOb</p>","","","","","","","","",""
"html-keyboard-response","117","509509","0.0-9.0-0.29","61086c2bfda98ba5d75b9db4","64e77d7b61f440b60e28659d","64eca8decf62de62fc431f23","null","null","<p style=""font-size: 60px; font-family: BACS"">bmdABTmTm</p>","","","","","","","","",""
"html-keyboard-response","118","510510","0.0-9.0-0.30","61086c2bfda98ba5d75b9db4","64e77d7b61f440b60e28659d","64eca8decf62de62fc431f23","null","null","<p style=""font-size: 60px; font-family: BACS"">rvOvUQONk</p>","","","","","","","","",""
"html-keyboard-response","119","511512","0.0-9.0-0.31","61086c2bfda98ba5d75b9db4","64e77d7b61f440b60e28659d","64eca8decf62de62fc431f23","null","null","<p style=""font-size: 60px; font-family: BACS"">OLJblrZYd</p>","","","","","","","","",""
"html-keyboard-response","120","512514","0.0-9.0-0.32","61086c2bfda98ba5d75b9db4","64e77d7b61f440b60e28659d","64eca8decf62de62fc431f23","null","null","<p style=""font-size: 60px; font-family: BACS"">rGUAYOJlN</p>","","","","","","","","",""
"html-keyboard-response","121","513516","0.0-9.0-0.33","61086c2bfda98ba5d75b9db4","64e77d7b61f440b60e28659d","64eca8decf62de62fc431f23","null","null","<p style=""font-size: 60px; font-family: BACS"">rvOvUOcN</p>","","","","","","","","",""
"html-keyboard-response","122","514533","0.0-9.0-0.34","61086c2bfda98ba5d75b9db4","64e77d7b61f440b60e28659d","64eca8decf62de62fc431f23","null","null","<p style=""font-size: 60px; font-family: BACS"">DlDdCKOb</p>","","","","","","","","",""
"html-keyboard-response","123","515535","0.0-9.0-0.35","61086c2bfda98ba5d75b9db4","64e77d7b61f440b60e28659d","64eca8decf62de62fc431f23","null","null","<p style=""font-size: 60px; font-family: BACS"">OcYMTmTm</p>","","","","","","","","",""
"html-keyboard-response","124","516536","0.0-9.0-0.36","61086c2bfda98ba5d75b9db4","64e77d7b61f440b60e28659d","64eca8decf62de62fc431f23","null","null","<p style=""font-size: 60px; font-family: BACS"">rvOvUOJlN</p>","","","","","","","","",""
"html-keyboard-response","125","517537","0.0-9.0-0.37","61086c2bfda98ba5d75b9db4","64e77d7b61f440b60e28659d","64eca8decf62de62fc431f23","null","null","<p style=""font-size: 60px; font-family: BACS"">MhKdCKOb</p>","","","","","","","","",""
"html-keyboard-response","126","518539","0.0-9.0-0.38","61086c2bfda98ba5d75b9db4","64e77d7b61f440b60e28659d","64eca8decf62de62fc431f23","null","null","<p style=""font-size: 60px; font-family: BACS"">uvaUOJlN</p>","","","","","","","","",""
"html-keyboard-response","127","519540","0.0-9.0-0.39","61086c2bfda98ba5d75b9db4","64e77d7b61f440b60e28659d","64eca8decf62de62fc431f23","null","null","<p style=""font-size: 60px; font-family: BACS"">DlDdPMYm</p>","","","","","","","","",""
"html-keyboard-response","128","520542","0.0-9.0-0.40","61086c2bfda98ba5d75b9db4","64e77d7b61f440b60e28659d","64eca8decf62de62fc431f23","null","null","<p style=""font-size: 60px; font-family: BACS"">DRPkYPMd</p>","","","","","","","","",""
"html-keyboard-response","129","521544","0.0-9.0-0.41","61086c2bfda98ba5d75b9db4","64e77d7b61f440b60e28659d","64eca8decf62de62fc431f23","null","null","<p style=""font-size: 60px; font-family: BACS"">JrGvkam</p>","","","","","","","","",""
"html-keyboard-response","130","522546","0.0-9.0-0.42","61086c2bfda98ba5d75b9db4","64e77d7b61f440b60e28659d","64eca8decf62de62fc431f23","null","null","<p style=""font-size: 60px; font-family: BACS"">uvaUrZYd</p>","","","","","","","","",""
"html-keyboard-response","131","523563","0.0-9.0-0.43","61086c2bfda98ba5d75b9db4","64e77d7b61f440b60e28659d","64eca8decf62de62fc431f23","null","null","<p style=""font-size: 60px; font-family: BACS"">bmdABPMd</p>","","","","","","","","",""
"html-keyboard-response","132","524578","0.0-9.0-0.44","61086c2bfda98ba5d75b9db4","64e77d7b61f440b60e28659d","64eca8decf62de62fc431f23","null","null","<p style=""font-size: 60px; font-family: BACS"">JdGmkam</p>","","","","","","","","",""
"html-keyboard-response","133","525594","0.0-9.0-0.45","61086c2bfda98ba5d75b9db4","64e77d7b61f440b60e28659d","64eca8decf62de62fc431f23","null","null","<p style=""font-size: 60px; font-family: BACS"">bmdABCKOb</p>","","","","","","","","",""
"html-keyboard-response","134","526595","0.0-9.0-0.46","61086c2bfda98ba5d75b9db4","64e77d7b61f440b60e28659d","64eca8decf62de62fc431f23","null","null","<p style=""font-size: 60px; font-family: BACS"">AlTdDOk</p>","","","","","","","","",""
"html-keyboard-response","135","527604","0.0-9.0-0.47","61086c2bfda98ba5d75b9db4","64e77d7b61f440b60e28659d","64eca8decf62de62fc431f23","null","null","<p style=""font-size: 60px; font-family: BACS"">JrGvrZYd</p>","","","","","","","","",""
"html-keyboard-response","136","528622","0.0-9.0-0.48","61086c2bfda98ba5d75b9db4","64e77d7b61f440b60e28659d","64eca8decf62de62fc431f23","null","null","<p style=""font-size: 60px; font-family: BACS"">OcYMPMd</p>","","","","","","","","",""
"html-keyboard-response","137","529624","0.0-9.0-0.49","61086c2bfda98ba5d75b9db4","64e77d7b61f440b60e28659d","64eca8decf62de62fc431f23","null","null","<p style=""font-size: 60px; font-family: BACS"">ALGZQONk</p>","","","","","","","","",""
"html-keyboard-response","138","530625","0.0-9.0-0.50","61086c2bfda98ba5d75b9db4","64e77d7b61f440b60e28659d","64eca8decf62de62fc431f23","null","null","<p style=""font-size: 60px; font-family: BACS"">mBbKPMd</p>","","","","","","","","",""
"html-keyboard-response","139","531627","0.0-9.0-0.51","61086c2bfda98ba5d75b9db4","64e77d7b61f440b60e28659d","64eca8decf62de62fc431f23","null","null","<p style=""font-size: 60px; font-family: BACS"">NaAQdkam</p>","","","","","","","","",""
"html-keyboard-response","140","532629","0.0-9.0-0.52","61086c2bfda98ba5d75b9db4","64e77d7b61f440b60e28659d","64eca8decf62de62fc431f23","null","null","<p style=""font-size: 60px; font-family: BACS"">MhKdPMYm</p>","","","","","","","","",""
"html-keyboard-response","141","533631","0.0-9.0-0.53","61086c2bfda98ba5d75b9db4","64e77d7b61f440b60e28659d","64eca8decf62de62fc431f23","null","null","<p style=""font-size: 60px; font-family: BACS"">rGUAYOcN</p>","","","","","","","","",""
"html-keyboard-response","142","534646","0.0-9.0-0.54","61086c2bfda98ba5d75b9db4","64e77d7b61f440b60e28659d","64eca8decf62de62fc431f23","null","null","<p style=""font-size: 60px; font-family: BACS"">DRPkYDOk</p>","","","","","","","","",""
"html-keyboard-response","143","535648","0.0-9.0-0.55","61086c2bfda98ba5d75b9db4","64e77d7b61f440b60e28659d","64eca8decf62de62fc431f23","null","null","<p style=""font-size: 60px; font-family: BACS"">ALGZkam</p>","","","","","","","","",""
"html-keyboard-response","144","536664","0.0-9.0-0.56","61086c2bfda98ba5d75b9db4","64e77d7b61f440b60e28659d","64eca8decf62de62fc431f23","null","null","<p style=""font-size: 60px; font-family: BACS"">JdGmOJlN</p>","","","","","","","","",""
"html-keyboard-response","145","537665","0.0-9.0-0.57","61086c2bfda98ba5d75b9db4","64e77d7b61f440b60e28659d","64eca8decf62de62fc431f23","null","null","<p style=""font-size: 60px; font-family: BACS"">OcYMCKOb</p>","","","","","","","","",""
"html-keyboard-response","146","538667","0.0-9.0-0.58","61086c2bfda98ba5d75b9db4","64e77d7b61f440b60e28659d","64eca8decf62de62fc431f23","null","null","<p style=""font-size: 60px; font-family: BACS"">rGUAYrZYd</p>","","","","","","","","",""
"html-keyboard-response","147","539669","0.0-9.0-0.59","61086c2bfda98ba5d75b9db4","64e77d7b61f440b60e28659d","64eca8decf62de62fc431f23","null","null","<p style=""font-size: 60px; font-family: BACS"">DRPkYPMYm</p>","","","","","","","","",""
"html-keyboard-response","148","540671","0.0-9.0-0.60","61086c2bfda98ba5d75b9db4","64e77d7b61f440b60e28659d","64eca8decf62de62fc431f23","null","null","<p style=""font-size: 60px; font-family: BACS"">ALGZOcN</p>","","","","","","","","",""
"html-keyboard-response","149","541672","0.0-9.0-0.61","61086c2bfda98ba5d75b9db4","64e77d7b61f440b60e28659d","64eca8decf62de62fc431f23","null","null","<p style=""font-size: 60px; font-family: BACS"">OLJblQONk</p>","","","","","","","","",""
"html-keyboard-response","150","542673","0.0-9.0-0.62","61086c2bfda98ba5d75b9db4","64e77d7b61f440b60e28659d","64eca8decf62de62fc431f23","null","null","<p style=""font-size: 60px; font-family: BACS"">cDOEBDOk</p>","","","","","","","","",""
"html-keyboard-response","151","543675","0.0-9.0-0.63","61086c2bfda98ba5d75b9db4","64e77d7b61f440b60e28659d","64eca8decf62de62fc431f23","null","null","<p style=""font-size: 60px; font-family: BACS"">bmdABPMYm</p>","","","","","","","","",""
"html-keyboard-response","152","544677","0.0-9.0-0.64","61086c2bfda98ba5d75b9db4","64e77d7b61f440b60e28659d","64eca8decf62de62fc431f23","null","null","<p style=""font-size: 60px; font-family: BACS"">BECkDOk</p>","","","","","","","","",""
"html-keyboard-response","153","545693","0.0-9.0-0.65","61086c2bfda98ba5d75b9db4","64e77d7b61f440b60e28659d","64eca8decf62de62fc431f23","null","null","<p style=""font-size: 60px; font-family: BACS"">rGUAYQONk</p>","","","","","","","","",""
"html-keyboard-response","154","546694","0.0-9.0-0.66","61086c2bfda98ba5d75b9db4","64e77d7b61f440b60e28659d","64eca8decf62de62fc431f23","null","null","<p style=""font-size: 60px; font-family: BACS"">DlDdTmTm</p>","","","","","","","","",""
"html-keyboard-response","155","547696","0.0-9.0-0.67","61086c2bfda98ba5d75b9db4","64e77d7b61f440b60e28659d","64eca8decf62de62fc431f23","null","null","<p style=""font-size: 60px; font-family: BACS"">JdGmOcN</p>","","","","","","","","",""
"html-keyboard-response","156","548698","0.0-9.0-0.68","61086c2bfda98ba5d75b9db4","64e77d7b61f440b60e28659d","64eca8decf62de62fc431f23","null","null","<p style=""font-size: 60px; font-family: BACS"">OLJblkam</p>","","","","","","","","",""
"html-keyboard-response","157","549700","0.0-9.0-0.69","61086c2bfda98ba5d75b9db4","64e77d7b61f440b60e28659d","64eca8decf62de62fc431f23","null","null","<p style=""font-size: 60px; font-family: BACS"">cDOEBTmTm</p>","","","","","","","","",""
"html-keyboard-response","158","550701","0.0-9.0-0.70","61086c2bfda98ba5d75b9db4","64e77d7b61f440b60e28659d","64eca8decf62de62fc431f23","null","null","<p style=""font-size: 60px; font-family: BACS"">uvaUQONk</p>","","","","","","","","",""
"html-keyboard-response","159","551703","0.0-9.0-0.71","61086c2bfda98ba5d75b9db4","64e77d7b61f440b60e28659d","64eca8decf62de62fc431f23","null","null","<p style=""font-size: 60px; font-family: BACS"">mBbKCKOb</p>","","","","","","","","",""
"html-keyboard-response","160","552704","0.0-9.0-0.72","61086c2bfda98ba5d75b9db4","64e77d7b61f440b60e28659d","64eca8decf62de62fc431f23","null","null","<p style=""font-size: 60px; font-family: BACS"">JrGvOJlN</p>","","","","","","","","",""
"html-keyboard-response","161","553705","0.0-9.0-0.73","61086c2bfda98ba5d75b9db4","64e77d7b61f440b60e28659d","64eca8decf62de62fc431f23","null","null","<p style=""font-size: 60px; font-family: BACS"">mBbKTmTm</p>","","","","","","","","",""
"html-keyboard-response","162","554707","0.0-9.0-0.74","61086c2bfda98ba5d75b9db4","64e77d7b61f440b60e28659d","64eca8decf62de62fc431f23","null","null","<p style=""font-size: 60px; font-family: BACS"">OcYMDOk</p>","","","","","","","","",""
"html-keyboard-response","163","555709","0.0-9.0-0.75","61086c2bfda98ba5d75b9db4","64e77d7b61f440b60e28659d","64eca8decf62de62fc431f23","null","null","<p style=""font-size: 60px; font-family: BACS"">DCmhTmTm</p>","","","","","","","","",""
"html-keyboard-response","164","556710","0.0-9.0-0.76","61086c2bfda98ba5d75b9db4","64e77d7b61f440b60e28659d","64eca8decf62de62fc431f23","null","null","<p style=""font-size: 60px; font-family: BACS"">NaAQdOcN</p>","","","","","","","","",""
"html-keyboard-response","165","557712","0.0-9.0-0.77","61086c2bfda98ba5d75b9db4","64e77d7b61f440b60e28659d","64eca8decf62de62fc431f23","null","null","<p style=""font-size: 60px; font-family: BACS"">DCmhPMd</p>","","","","","","","","",""
"html-keyboard-response","166","558714","0.0-9.0-0.78","61086c2bfda98ba5d75b9db4","64e77d7b61f440b60e28659d","64eca8decf62de62fc431f23","null","null","<p style=""font-size: 60px; font-family: BACS"">AlTdPMYm</p>","","","","","","","","",""
"html-keyboard-response","167","559716","0.0-9.0-0.79","61086c2bfda98ba5d75b9db4","64e77d7b61f440b60e28659d","64eca8decf62de62fc431f23","null","null","<p style=""font-size: 60px; font-family: BACS"">cDOEBPMd</p>","","","","","","","","",""
"html-keyboard-response","168","581060","0.0-10.0","61086c2bfda98ba5d75b9db4","64e77d7b61f440b60e28659d","64eca8decf62de62fc431f23","21348"," ","<p>Great, you've seen the second block of words. You may now take a short break.</p>
      <p>Press the spacebar when you're ready to continue.</p>","","","","","","","","",""
"html-keyboard-response","169","582072","0.0-11.0-0.0","61086c2bfda98ba5d75b9db4","64e77d7b61f440b60e28659d","64eca8decf62de62fc431f23","null","null","<p style=""font-size: 60px; font-family: BACS"">AlTdPMYm</p>","","","","","","","","",""
"html-keyboard-response","170","583075","0.0-11.0-0.1","61086c2bfda98ba5d75b9db4","64e77d7b61f440b60e28659d","64eca8decf62de62fc431f23","null","null","<p style=""font-size: 60px; font-family: BACS"">rGUAYrZYd</p>","","","","","","","","",""
"html-keyboard-response","171","584076","0.0-11.0-0.2","61086c2bfda98ba5d75b9db4","64e77d7b61f440b60e28659d","64eca8decf62de62fc431f23","null","null","<p style=""font-size: 60px; font-family: BACS"">mBbKPMYm</p>","","","","","","","","",""
"html-keyboard-response","172","585078","0.0-11.0-0.3","61086c2bfda98ba5d75b9db4","64e77d7b61f440b60e28659d","64eca8decf62de62fc431f23","null","null","<p style=""font-size: 60px; font-family: BACS"">BECkPMd</p>","","","","","","","","",""
"html-keyboard-response","173","586079","0.0-11.0-0.4","61086c2bfda98ba5d75b9db4","64e77d7b61f440b60e28659d","64eca8decf62de62fc431f23","null","null","<p style=""font-size: 60px; font-family: BACS"">NaAQdOcN</p>","","","","","","","","",""
"html-keyboard-response","174","587095","0.0-11.0-0.5","61086c2bfda98ba5d75b9db4","64e77d7b61f440b60e28659d","64eca8decf62de62fc431f23","null","null","<p style=""font-size: 60px; font-family: BACS"">JrGvOJlN</p>","","","","","","","","",""
"html-keyboard-response","175","588097","0.0-11.0-0.6","61086c2bfda98ba5d75b9db4","64e77d7b61f440b60e28659d","64eca8decf62de62fc431f23","null","null","<p style=""font-size: 60px; font-family: BACS"">BECkPMYm</p>","","","","","","","","",""
"html-keyboard-response","176","589099","0.0-11.0-0.7","61086c2bfda98ba5d75b9db4","64e77d7b61f440b60e28659d","64eca8decf62de62fc431f23","null","null","<p style=""font-size: 60px; font-family: BACS"">DlDdTmTm</p>","","","","","","","","",""
"html-keyboard-response","177","590101","0.0-11.0-0.8","61086c2bfda98ba5d75b9db4","64e77d7b61f440b60e28659d","64eca8decf62de62fc431f23","null","null","<p style=""font-size: 60px; font-family: BACS"">mBbKCKOb</p>","","","","","","","","",""
"html-keyboard-response","178","591103","0.0-11.0-0.9","61086c2bfda98ba5d75b9db4","64e77d7b61f440b60e28659d","64eca8decf62de62fc431f23","null","null","<p style=""font-size: 60px; font-family: BACS"">JdGmOJlN</p>","","","","","","","","",""
"html-keyboard-response","179","592105","0.0-11.0-0.10","61086c2bfda98ba5d75b9db4","64e77d7b61f440b60e28659d","64eca8decf62de62fc431f23","null","null","<p style=""font-size: 60px; font-family: BACS"">uvaUrZYd</p>","","","","","","","","",""
"html-keyboard-response","180","593121","0.0-11.0-0.11","61086c2bfda98ba5d75b9db4","64e77d7b61f440b60e28659d","64eca8decf62de62fc431f23","null","null","<p style=""font-size: 60px; font-family: BACS"">AlTdDOk</p>","","","","","","","","",""
"html-keyboard-response","181","594123","0.0-11.0-0.12","61086c2bfda98ba5d75b9db4","64e77d7b61f440b60e28659d","64eca8decf62de62fc431f23","null","null","<p style=""font-size: 60px; font-family: BACS"">ALGZOcN</p>","","","","","","","","",""
"html-keyboard-response","182","595125","0.0-11.0-0.13","61086c2bfda98ba5d75b9db4","64e77d7b61f440b60e28659d","64eca8decf62de62fc431f23","null","null","<p style=""font-size: 60px; font-family: BACS"">mBbKTmTm</p>","","","","","","","","",""
"html-keyboard-response","183","596127","0.0-11.0-0.14","61086c2bfda98ba5d75b9db4","64e77d7b61f440b60e28659d","64eca8decf62de62fc431f23","null","null","<p style=""font-size: 60px; font-family: BACS"">OcYMCKOb</p>","","","","","","","","",""
"html-keyboard-response","184","597128","0.0-11.0-0.15","61086c2bfda98ba5d75b9db4","64e77d7b61f440b60e28659d","64eca8decf62de62fc431f23","null","null","<p style=""font-size: 60px; font-family: BACS"">JdGmrZYd</p>","","","","","","","","",""
"html-keyboard-response","185","598130","0.0-11.0-0.16","61086c2bfda98ba5d75b9db4","64e77d7b61f440b60e28659d","64eca8decf62de62fc431f23","null","null","<p style=""font-size: 60px; font-family: BACS"">rGUAYOJlN</p>","","","","","","","","",""
"html-keyboard-response","186","599145","0.0-11.0-0.17","61086c2bfda98ba5d75b9db4","64e77d7b61f440b60e28659d","64eca8decf62de62fc431f23","null","null","<p style=""font-size: 60px; font-family: BACS"">DlDdPMYm</p>","","","","","","","","",""
"html-keyboard-response","187","600160","0.0-11.0-0.18","61086c2bfda98ba5d75b9db4","64e77d7b61f440b60e28659d","64eca8decf62de62fc431f23","null","null","<p style=""font-size: 60px; font-family: BACS"">LGkAOcN</p>","","","","","","","","",""
"html-keyboard-response","188","601163","0.0-11.0-0.19","61086c2bfda98ba5d75b9db4","64e77d7b61f440b60e28659d","64eca8decf62de62fc431f23","null","null","<p style=""font-size: 60px; font-family: BACS"">adYrckam</p>","","","","","","","","",""
"html-keyboard-response","189","602165","0.0-11.0-0.20","61086c2bfda98ba5d75b9db4","64e77d7b61f440b60e28659d","64eca8decf62de62fc431f23","null","null","<p style=""font-size: 60px; font-family: BACS"">mBbKPMd</p>","","","","","","","","",""
"html-keyboard-response","190","603168","0.0-11.0-0.21","61086c2bfda98ba5d75b9db4","64e77d7b61f440b60e28659d","64eca8decf62de62fc431f23","null","null","<p style=""font-size: 60px; font-family: BACS"">rvOvUOcN</p>","","","","","","","","",""
"html-keyboard-response","191","604169","0.0-11.0-0.22","61086c2bfda98ba5d75b9db4","64e77d7b61f440b60e28659d","64eca8decf62de62fc431f23","null","null","<p style=""font-size: 60px; font-family: BACS"">adYrcrZYd</p>","","","","","","","","",""
"html-keyboard-response","192","605172","0.0-11.0-0.23","61086c2bfda98ba5d75b9db4","64e77d7b61f440b60e28659d","64eca8decf62de62fc431f23","null","null","<p style=""font-size: 60px; font-family: BACS"">NaAQdOJlN</p>","","","","","","","","",""
"html-keyboard-response","193","606173","0.0-11.0-0.24","61086c2bfda98ba5d75b9db4","64e77d7b61f440b60e28659d","64eca8decf62de62fc431f23","null","null","<p style=""font-size: 60px; font-family: BACS"">BECkCKOb</p>","","","","","","","","",""
"html-keyboard-response","194","607176","0.0-11.0-0.25","61086c2bfda98ba5d75b9db4","64e77d7b61f440b60e28659d","64eca8decf62de62fc431f23","null","null","<p style=""font-size: 60px; font-family: BACS"">ALGZQONk</p>","","","","","","","","",""
"html-keyboard-response","195","608192","0.0-11.0-0.26","61086c2bfda98ba5d75b9db4","64e77d7b61f440b60e28659d","64eca8decf62de62fc431f23","null","null","<p style=""font-size: 60px; font-family: BACS"">JdGmkam</p>","","","","","","","","",""
"html-keyboard-response","196","609214","0.0-11.0-0.27","61086c2bfda98ba5d75b9db4","64e77d7b61f440b60e28659d","64eca8decf62de62fc431f23","null","null","<p style=""font-size: 60px; font-family: BACS"">LGkAOJlN</p>","","","","","","","","",""
"html-keyboard-response","197","610215","0.0-11.0-0.28","61086c2bfda98ba5d75b9db4","64e77d7b61f440b60e28659d","64eca8decf62de62fc431f23","null","null","<p style=""font-size: 60px; font-family: BACS"">cDOEBTmTm</p>","","","","","","","","",""
"html-keyboard-response","198","611217","0.0-11.0-0.29","61086c2bfda98ba5d75b9db4","64e77d7b61f440b60e28659d","64eca8decf62de62fc431f23","null","null","<p style=""font-size: 60px; font-family: BACS"">MhKdPMYm</p>","","","","","","","","",""
"html-keyboard-response","199","612218","0.0-11.0-0.30","61086c2bfda98ba5d75b9db4","64e77d7b61f440b60e28659d","64eca8decf62de62fc431f23","null","null","<p style=""font-size: 60px; font-family: BACS"">BECkDOk</p>","","","","","","","","",""
"html-keyboard-response","200","613220","0.0-11.0-0.31","61086c2bfda98ba5d75b9db4","64e77d7b61f440b60e28659d","64eca8decf62de62fc431f23","null","null","<p style=""font-size: 60px; font-family: BACS"">DRPkYTmTm</p>","","","","","","","","",""
"html-keyboard-response","201","614222","0.0-11.0-0.32","61086c2bfda98ba5d75b9db4","64e77d7b61f440b60e28659d","64eca8decf62de62fc431f23","null","null","<p style=""font-size: 60px; font-family: BACS"">JrGvQONk</p>","","","","","","","","",""
"html-keyboard-response","202","615224","0.0-11.0-0.33","61086c2bfda98ba5d75b9db4","64e77d7b61f440b60e28659d","64eca8decf62de62fc431f23","null","null","<p style=""font-size: 60px; font-family: BACS"">adYrcOcN</p>","","","","","","","","",""
"html-keyboard-response","203","616225","0.0-11.0-0.34","61086c2bfda98ba5d75b9db4","64e77d7b61f440b60e28659d","64eca8decf62de62fc431f23","null","null","<p style=""font-size: 60px; font-family: BACS"">rvOvUQONk</p>","","","","","","","","",""
"html-keyboard-response","204","617227","0.0-11.0-0.35","61086c2bfda98ba5d75b9db4","64e77d7b61f440b60e28659d","64eca8decf62de62fc431f23","null","null","<p style=""font-size: 60px; font-family: BACS"">JrGvrZYd</p>","","","","","","","","",""
"html-keyboard-response","205","618228","0.0-11.0-0.36","61086c2bfda98ba5d75b9db4","64e77d7b61f440b60e28659d","64eca8decf62de62fc431f23","null","null","<p style=""font-size: 60px; font-family: BACS"">DCmhDOk</p>","","","","","","","","",""
"html-keyboard-response","206","619245","0.0-11.0-0.37","61086c2bfda98ba5d75b9db4","64e77d7b61f440b60e28659d","64eca8decf62de62fc431f23","null","null","<p style=""font-size: 60px; font-family: BACS"">ALGZkam</p>","","","","","","","","",""
"html-keyboard-response","207","620246","0.0-11.0-0.38","61086c2bfda98ba5d75b9db4","64e77d7b61f440b60e28659d","64eca8decf62de62fc431f23","null","null","<p style=""font-size: 60px; font-family: BACS"">DCmhPMd</p>","","","","","","","","",""
"html-keyboard-response","208","621247","0.0-11.0-0.39","61086c2bfda98ba5d75b9db4","64e77d7b61f440b60e28659d","64eca8decf62de62fc431f23","null","null","<p style=""font-size: 60px; font-family: BACS"">LGkArZYd</p>","","","","","","","","",""
"html-keyboard-response","209","622249","0.0-11.0-0.40","61086c2bfda98ba5d75b9db4","64e77d7b61f440b60e28659d","64eca8decf62de62fc431f23","null","null","<p style=""font-size: 60px; font-family: BACS"">uvaUQONk</p>","","","","","","","","",""
"html-keyboard-response","210","623251","0.0-11.0-0.41","61086c2bfda98ba5d75b9db4","64e77d7b61f440b60e28659d","64eca8decf62de62fc431f23","null","null","<p style=""font-size: 60px; font-family: BACS"">DlDdDOk</p>","","","","","","","","",""
"html-keyboard-response","211","624253","0.0-11.0-0.42","61086c2bfda98ba5d75b9db4","64e77d7b61f440b60e28659d","64eca8decf62de62fc431f23","null","null","<p style=""font-size: 60px; font-family: BACS"">rGUAYQONk</p>","","","","","","","","",""
"html-keyboard-response","212","625254","0.0-11.0-0.43","61086c2bfda98ba5d75b9db4","64e77d7b61f440b60e28659d","64eca8decf62de62fc431f23","null","null","<p style=""font-size: 60px; font-family: BACS"">NaAQdrZYd</p>","","","","","","","","",""
"html-keyboard-response","213","626256","0.0-11.0-0.44","61086c2bfda98ba5d75b9db4","64e77d7b61f440b60e28659d","64eca8decf62de62fc431f23","null","null","<p style=""font-size: 60px; font-family: BACS"">JrGvkam</p>","","","","","","","","",""
"html-keyboard-response","214","627257","0.0-11.0-0.45","61086c2bfda98ba5d75b9db4","64e77d7b61f440b60e28659d","64eca8decf62de62fc431f23","null","null","<p style=""font-size: 60px; font-family: BACS"">DCmhTmTm</p>","","","","","","","","",""
"html-keyboard-response","215","628259","0.0-11.0-0.46","61086c2bfda98ba5d75b9db4","64e77d7b61f440b60e28659d","64eca8decf62de62fc431f23","null","null","<p style=""font-size: 60px; font-family: BACS"">JdGmOcN</p>","","","","","","","","",""
"html-keyboard-response","216","629261","0.0-11.0-0.47","61086c2bfda98ba5d75b9db4","64e77d7b61f440b60e28659d","64eca8decf62de62fc431f23","null","null","<p style=""font-size: 60px; font-family: BACS"">adYrcQONk</p>","","","","","","","","",""
"html-keyboard-response","217","630263","0.0-11.0-0.48","61086c2bfda98ba5d75b9db4","64e77d7b61f440b60e28659d","64eca8decf62de62fc431f23","null","null","<p style=""font-size: 60px; font-family: BACS"">OLJblkam</p>","","","","","","","","",""
"html-keyboard-response","218","631264","0.0-11.0-0.49","61086c2bfda98ba5d75b9db4","64e77d7b61f440b60e28659d","64eca8decf62de62fc431f23","null","null","<p style=""font-size: 60px; font-family: BACS"">MhKdDOk</p>","","","","","","","","",""
"html-keyboard-response","219","632266","0.0-11.0-0.50","61086c2bfda98ba5d75b9db4","64e77d7b61f440b60e28659d","64eca8decf62de62fc431f23","null","null","<p style=""font-size: 60px; font-family: BACS"">cDOEBPMYm</p>","","","","","","","","",""
"html-keyboard-response","220","633268","0.0-11.0-0.51","61086c2bfda98ba5d75b9db4","64e77d7b61f440b60e28659d","64eca8decf62de62fc431f23","null","null","<p style=""font-size: 60px; font-family: BACS"">OcYMDOk</p>","","","","","","","","",""
"html-keyboard-response","221","634270","0.0-11.0-0.52","61086c2bfda98ba5d75b9db4","64e77d7b61f440b60e28659d","64eca8decf62de62fc431f23","null","null","<p style=""font-size: 60px; font-family: BACS"">uvaUOJlN</p>","","","","","","","","",""
"html-keyboard-response","222","635273","0.0-11.0-0.53","61086c2bfda98ba5d75b9db4","64e77d7b61f440b60e28659d","64eca8decf62de62fc431f23","null","null","<p style=""font-size: 60px; font-family: BACS"">cDOEBDOk</p>","","","","","","","","",""
"html-keyboard-response","223","636274","0.0-11.0-0.54","61086c2bfda98ba5d75b9db4","64e77d7b61f440b60e28659d","64eca8decf62de62fc431f23","null","null","<p style=""font-size: 60px; font-family: BACS"">MhKdPMd</p>","","","","","","","","",""
"html-keyboard-response","224","637275","0.0-11.0-0.55","61086c2bfda98ba5d75b9db4","64e77d7b61f440b60e28659d","64eca8decf62de62fc431f23","null","null","<p style=""font-size: 60px; font-family: BACS"">DRPkYPMYm</p>","","","","","","","","",""
"html-keyboard-response","225","638291","0.0-11.0-0.56","61086c2bfda98ba5d75b9db4","64e77d7b61f440b60e28659d","64eca8decf62de62fc431f23","null","null","<p style=""font-size: 60px; font-family: BACS"">OLJblQONk</p>","","","","","","","","",""
"html-keyboard-response","226","639293","0.0-11.0-0.57","61086c2bfda98ba5d75b9db4","64e77d7b61f440b60e28659d","64eca8decf62de62fc431f23","null","null","<p style=""font-size: 60px; font-family: BACS"">rvOvUOJlN</p>","","","","","","","","",""
"html-keyboard-response","227","640295","0.0-11.0-0.58","61086c2bfda98ba5d75b9db4","64e77d7b61f440b60e28659d","64eca8decf62de62fc431f23","null","null","<p style=""font-size: 60px; font-family: BACS"">DlDdCKOb</p>","","","","","","","","",""
"html-keyboard-response","228","641302","0.0-11.0-0.59","61086c2bfda98ba5d75b9db4","64e77d7b61f440b60e28659d","64eca8decf62de62fc431f23","null","null","<p style=""font-size: 60px; font-family: BACS"">OcYMPMd</p>","","","","","","","","",""
"html-keyboard-response","229","642304","0.0-11.0-0.60","61086c2bfda98ba5d75b9db4","64e77d7b61f440b60e28659d","64eca8decf62de62fc431f23","null","null","<p style=""font-size: 60px; font-family: BACS"">AlTdCKOb</p>","","","","","","","","",""
"html-keyboard-response","230","643306","0.0-11.0-0.61","61086c2bfda98ba5d75b9db4","64e77d7b61f440b60e28659d","64eca8decf62de62fc431f23","null","null","<p style=""font-size: 60px; font-family: BACS"">rGUAYOcN</p>","","","","","","","","",""
"html-keyboard-response","231","644307","0.0-11.0-0.62","61086c2bfda98ba5d75b9db4","64e77d7b61f440b60e28659d","64eca8decf62de62fc431f23","null","null","<p style=""font-size: 60px; font-family: BACS"">DRPkYDOk</p>","","","","","","","","",""
"html-keyboard-response","232","645309","0.0-11.0-0.63","61086c2bfda98ba5d75b9db4","64e77d7b61f440b60e28659d","64eca8decf62de62fc431f23","null","null","<p style=""font-size: 60px; font-family: BACS"">AlTdTmTm</p>","","","","","","","","",""
"html-keyboard-response","233","646310","0.0-11.0-0.64","61086c2bfda98ba5d75b9db4","64e77d7b61f440b60e28659d","64eca8decf62de62fc431f23","null","null","<p style=""font-size: 60px; font-family: BACS"">uvaUkam</p>","","","","","","","","",""
"html-keyboard-response","234","647326","0.0-11.0-0.65","61086c2bfda98ba5d75b9db4","64e77d7b61f440b60e28659d","64eca8decf62de62fc431f23","null","null","<p style=""font-size: 60px; font-family: BACS"">bmdABPMd</p>","","","","","","","","",""
"html-keyboard-response","235","648327","0.0-11.0-0.66","61086c2bfda98ba5d75b9db4","64e77d7b61f440b60e28659d","64eca8decf62de62fc431f23","null","null","<p style=""font-size: 60px; font-family: BACS"">LGkAQONk</p>","","","","","","","","",""
"html-keyboard-response","236","649329","0.0-11.0-0.67","61086c2bfda98ba5d75b9db4","64e77d7b61f440b60e28659d","64eca8decf62de62fc431f23","null","null","<p style=""font-size: 60px; font-family: BACS"">bmdABTmTm</p>","","","","","","","","",""
"html-keyboard-response","237","650330","0.0-11.0-0.68","61086c2bfda98ba5d75b9db4","64e77d7b61f440b60e28659d","64eca8decf62de62fc431f23","null","null","<p style=""font-size: 60px; font-family: BACS"">cDOEBPMd</p>","","","","","","","","",""
"html-keyboard-response","238","651332","0.0-11.0-0.69","61086c2bfda98ba5d75b9db4","64e77d7b61f440b60e28659d","64eca8decf62de62fc431f23","null","null","<p style=""font-size: 60px; font-family: BACS"">bmdABPMYm</p>","","","","","","","","",""
"html-keyboard-response","239","652333","0.0-11.0-0.70","61086c2bfda98ba5d75b9db4","64e77d7b61f440b60e28659d","64eca8decf62de62fc431f23","null","null","<p style=""font-size: 60px; font-family: BACS"">DCmhCKOb</p>","","","","","","","","",""
"html-keyboard-response","240","653335","0.0-11.0-0.71","61086c2bfda98ba5d75b9db4","64e77d7b61f440b60e28659d","64eca8decf62de62fc431f23","null","null","<p style=""font-size: 60px; font-family: BACS"">rvOvUkam</p>","","","","","","","","",""
"html-keyboard-response","241","654336","0.0-11.0-0.72","61086c2bfda98ba5d75b9db4","64e77d7b61f440b60e28659d","64eca8decf62de62fc431f23","null","null","<p style=""font-size: 60px; font-family: BACS"">OcYMTmTm</p>","","","","","","","","",""
"html-keyboard-response","242","655338","0.0-11.0-0.73","61086c2bfda98ba5d75b9db4","64e77d7b61f440b60e28659d","64eca8decf62de62fc431f23","null","null","<p style=""font-size: 60px; font-family: BACS"">NaAQdkam</p>","","","","","","","","",""
"html-keyboard-response","243","656339","0.0-11.0-0.74","61086c2bfda98ba5d75b9db4","64e77d7b61f440b60e28659d","64eca8decf62de62fc431f23","null","null","<p style=""font-size: 60px; font-family: BACS"">OLJblOcN</p>","","","","","","","","",""
"html-keyboard-response","244","657340","0.0-11.0-0.75","61086c2bfda98ba5d75b9db4","64e77d7b61f440b60e28659d","64eca8decf62de62fc431f23","null","null","<p style=""font-size: 60px; font-family: BACS"">bmdABCKOb</p>","","","","","","","","",""
"html-keyboard-response","245","658356","0.0-11.0-0.76","61086c2bfda98ba5d75b9db4","64e77d7b61f440b60e28659d","64eca8decf62de62fc431f23","null","null","<p style=""font-size: 60px; font-family: BACS"">DRPkYPMd</p>","","","","","","","","",""
"html-keyboard-response","246","659372","0.0-11.0-0.77","61086c2bfda98ba5d75b9db4","64e77d7b61f440b60e28659d","64eca8decf62de62fc431f23","null","null","<p style=""font-size: 60px; font-family: BACS"">ALGZOJlN</p>","","","","","","","","",""
"html-keyboard-response","247","660373","0.0-11.0-0.78","61086c2bfda98ba5d75b9db4","64e77d7b61f440b60e28659d","64eca8decf62de62fc431f23","null","null","<p style=""font-size: 60px; font-family: BACS"">OLJblrZYd</p>","","","","","","","","",""
"html-keyboard-response","248","661375","0.0-11.0-0.79","61086c2bfda98ba5d75b9db4","64e77d7b61f440b60e28659d","64eca8decf62de62fc431f23","null","null","<p style=""font-size: 60px; font-family: BACS"">MhKdCKOb</p>","","","","","","","","",""
"html-keyboard-response","249","701403","0.0-12.0","61086c2bfda98ba5d75b9db4","64e77d7b61f440b60e28659d","64eca8decf62de62fc431f23","40030"," ","<p>Great, you've seen the third block of words. You may now take a short break.</p>
      <p>Press the spacebar when you're ready to continue.</p>","","","","","","","","",""
"html-keyboard-response","250","702419","0.0-13.0-0.0","61086c2bfda98ba5d75b9db4","64e77d7b61f440b60e28659d","64eca8decf62de62fc431f23","null","null","<p style=""font-size: 60px; font-family: BACS"">DCmhPMd</p>","","","","","","","","",""
"html-keyboard-response","251","703420","0.0-13.0-0.1","61086c2bfda98ba5d75b9db4","64e77d7b61f440b60e28659d","64eca8decf62de62fc431f23","null","null","<p style=""font-size: 60px; font-family: BACS"">NaAQdOJlN</p>","","","","","","","","",""
"html-keyboard-response","252","704422","0.0-13.0-0.2","61086c2bfda98ba5d75b9db4","64e77d7b61f440b60e28659d","64eca8decf62de62fc431f23","null","null","<p style=""font-size: 60px; font-family: BACS"">rGUAYQONk</p>","","","","","","","","",""
"html-keyboard-response","253","705425","0.0-13.0-0.3","61086c2bfda98ba5d75b9db4","64e77d7b61f440b60e28659d","64eca8decf62de62fc431f23","null","null","<p style=""font-size: 60px; font-family: BACS"">OLJblOcN</p>","","","","","","","","",""
"html-keyboard-response","254","706427","0.0-13.0-0.4","61086c2bfda98ba5d75b9db4","64e77d7b61f440b60e28659d","64eca8decf62de62fc431f23","null","null","<p style=""font-size: 60px; font-family: BACS"">mBbKTmTm</p>","","","","","","","","",""
"html-keyboard-response","255","707429","0.0-13.0-0.5","61086c2bfda98ba5d75b9db4","64e77d7b61f440b60e28659d","64eca8decf62de62fc431f23","null","null","<p style=""font-size: 60px; font-family: BACS"">bmdABPMYm</p>","","","","","","","","",""
"html-keyboard-response","256","708445","0.0-13.0-0.6","61086c2bfda98ba5d75b9db4","64e77d7b61f440b60e28659d","64eca8decf62de62fc431f23","null","null","<p style=""font-size: 60px; font-family: BACS"">uvaUkam</p>","","","","","","","","",""
"html-keyboard-response","257","709447","0.0-13.0-0.7","61086c2bfda98ba5d75b9db4","64e77d7b61f440b60e28659d","64eca8decf62de62fc431f23","null","null","<p style=""font-size: 60px; font-family: BACS"">bmdABTmTm</p>","","","","","","","","",""
"html-keyboard-response","258","710448","0.0-13.0-0.8","61086c2bfda98ba5d75b9db4","64e77d7b61f440b60e28659d","64eca8decf62de62fc431f23","null","null","<p style=""font-size: 60px; font-family: BACS"">rvOvUOcN</p>","","","","","","","","",""
"html-keyboard-response","259","711465","0.0-13.0-0.9","61086c2bfda98ba5d75b9db4","64e77d7b61f440b60e28659d","64eca8decf62de62fc431f23","null","null","<p style=""font-size: 60px; font-family: BACS"">BECkDOk</p>","","","","","","","","",""
"html-keyboard-response","260","712466","0.0-13.0-0.10","61086c2bfda98ba5d75b9db4","64e77d7b61f440b60e28659d","64eca8decf62de62fc431f23","null","null","<p style=""font-size: 60px; font-family: BACS"">ALGZkam</p>","","","","","","","","",""
"html-keyboard-response","261","713468","0.0-13.0-0.11","61086c2bfda98ba5d75b9db4","64e77d7b61f440b60e28659d","64eca8decf62de62fc431f23","null","null","<p style=""font-size: 60px; font-family: BACS"">LGkAOJlN</p>","","","","","","","","",""
"html-keyboard-response","262","714470","0.0-13.0-0.12","61086c2bfda98ba5d75b9db4","64e77d7b61f440b60e28659d","64eca8decf62de62fc431f23","null","null","<p style=""font-size: 60px; font-family: BACS"">MhKdPMd</p>","","","","","","","","",""
"html-keyboard-response","263","715472","0.0-13.0-0.13","61086c2bfda98ba5d75b9db4","64e77d7b61f440b60e28659d","64eca8decf62de62fc431f23","null","null","<p style=""font-size: 60px; font-family: BACS"">DlDdTmTm</p>","","","","","","","","",""
"html-keyboard-response","264","716474","0.0-13.0-0.14","61086c2bfda98ba5d75b9db4","64e77d7b61f440b60e28659d","64eca8decf62de62fc431f23","null","null","<p style=""font-size: 60px; font-family: BACS"">OcYMPMd</p>","","","","","","","","",""
"html-keyboard-response","265","717475","0.0-13.0-0.15","61086c2bfda98ba5d75b9db4","64e77d7b61f440b60e28659d","64eca8decf62de62fc431f23","null","null","<p style=""font-size: 60px; font-family: BACS"">adYrcrZYd</p>","","","","","","","","",""
"html-keyboard-response","266","718476","0.0-13.0-0.16","61086c2bfda98ba5d75b9db4","64e77d7b61f440b60e28659d","64eca8decf62de62fc431f23","null","null","<p style=""font-size: 60px; font-family: BACS"">AlTdDOk</p>","","","","","","","","",""
"html-keyboard-response","267","719478","0.0-13.0-0.17","61086c2bfda98ba5d75b9db4","64e77d7b61f440b60e28659d","64eca8decf62de62fc431f23","null","null","<p style=""font-size: 60px; font-family: BACS"">ALGZOcN</p>","","","","","","","","",""
"html-keyboard-response","268","720479","0.0-13.0-0.18","61086c2bfda98ba5d75b9db4","64e77d7b61f440b60e28659d","64eca8decf62de62fc431f23","null","null","<p style=""font-size: 60px; font-family: BACS"">uvaUrZYd</p>","","","","","","","","",""
"html-keyboard-response","269","721480","0.0-13.0-0.19","61086c2bfda98ba5d75b9db4","64e77d7b61f440b60e28659d","64eca8decf62de62fc431f23","null","null","<p style=""font-size: 60px; font-family: BACS"">rvOvUQONk</p>","","","","","","","","",""
"html-keyboard-response","270","722483","0.0-13.0-0.20","61086c2bfda98ba5d75b9db4","64e77d7b61f440b60e28659d","64eca8decf62de62fc431f23","null","null","<p style=""font-size: 60px; font-family: BACS"">MhKdCKOb</p>","","","","","","","","",""
"html-keyboard-response","271","723484","0.0-13.0-0.21","61086c2bfda98ba5d75b9db4","64e77d7b61f440b60e28659d","64eca8decf62de62fc431f23","null","null","<p style=""font-size: 60px; font-family: BACS"">BECkPMd</p>","","","","","","","","",""
"html-keyboard-response","272","724487","0.0-13.0-0.22","61086c2bfda98ba5d75b9db4","64e77d7b61f440b60e28659d","64eca8decf62de62fc431f23","null","null","<p style=""font-size: 60px; font-family: BACS"">DRPkYDOk</p>","","","","","","","","",""
"html-keyboard-response","273","725489","0.0-13.0-0.23","61086c2bfda98ba5d75b9db4","64e77d7b61f440b60e28659d","64eca8decf62de62fc431f23","null","null","<p style=""font-size: 60px; font-family: BACS"">NaAQdOcN</p>","","","","","","","","",""
"html-keyboard-response","274","726490","0.0-13.0-0.24","61086c2bfda98ba5d75b9db4","64e77d7b61f440b60e28659d","64eca8decf62de62fc431f23","null","null","<p style=""font-size: 60px; font-family: BACS"">adYrckam</p>","","","","","","","","",""
"html-keyboard-response","275","727491","0.0-13.0-0.25","61086c2bfda98ba5d75b9db4","64e77d7b61f440b60e28659d","64eca8decf62de62fc431f23","null","null","<p style=""font-size: 60px; font-family: BACS"">uvaUOJlN</p>","","","","","","","","",""
"html-keyboard-response","276","728493","0.0-13.0-0.26","61086c2bfda98ba5d75b9db4","64e77d7b61f440b60e28659d","64eca8decf62de62fc431f23","null","null","<p style=""font-size: 60px; font-family: BACS"">DCmhCKOb</p>","","","","","","","","",""
"html-keyboard-response","277","729495","0.0-13.0-0.27","61086c2bfda98ba5d75b9db4","64e77d7b61f440b60e28659d","64eca8decf62de62fc431f23","null","null","<p style=""font-size: 60px; font-family: BACS"">mBbKPMd</p>","","","","","","","","",""
"html-keyboard-response","278","730497","0.0-13.0-0.28","61086c2bfda98ba5d75b9db4","64e77d7b61f440b60e28659d","64eca8decf62de62fc431f23","null","null","<p style=""font-size: 60px; font-family: BACS"">JrGvOJlN</p>","","","","","","","","",""
"html-keyboard-response","279","731513","0.0-13.0-0.29","61086c2bfda98ba5d75b9db4","64e77d7b61f440b60e28659d","64eca8decf62de62fc431f23","null","null","<p style=""font-size: 60px; font-family: BACS"">JdGmkam</p>","","","","","","","","",""
"html-keyboard-response","280","732515","0.0-13.0-0.30","61086c2bfda98ba5d75b9db4","64e77d7b61f440b60e28659d","64eca8decf62de62fc431f23","null","null","<p style=""font-size: 60px; font-family: BACS"">rGUAYOcN</p>","","","","","","","","",""
"html-keyboard-response","281","733518","0.0-13.0-0.31","61086c2bfda98ba5d75b9db4","64e77d7b61f440b60e28659d","64eca8decf62de62fc431f23","null","null","<p style=""font-size: 60px; font-family: BACS"">LGkAQONk</p>","","","","","","","","",""
"html-keyboard-response","282","734519","0.0-13.0-0.32","61086c2bfda98ba5d75b9db4","64e77d7b61f440b60e28659d","64eca8decf62de62fc431f23","null","null","<p style=""font-size: 60px; font-family: BACS"">cDOEBTmTm</p>","","","","","","","","",""
"html-keyboard-response","283","735521","0.0-13.0-0.33","61086c2bfda98ba5d75b9db4","64e77d7b61f440b60e28659d","64eca8decf62de62fc431f23","null","null","<p style=""font-size: 60px; font-family: BACS"">JdGmOcN</p>","","","","","","","","",""
"html-keyboard-response","284","736522","0.0-13.0-0.34","61086c2bfda98ba5d75b9db4","64e77d7b61f440b60e28659d","64eca8decf62de62fc431f23","null","null","<p style=""font-size: 60px; font-family: BACS"">MhKdDOk</p>","","","","","","","","",""
"html-keyboard-response","285","737525","0.0-13.0-0.35","61086c2bfda98ba5d75b9db4","64e77d7b61f440b60e28659d","64eca8decf62de62fc431f23","null","null","<p style=""font-size: 60px; font-family: BACS"">DRPkYTmTm</p>","","","","","","","","",""
"html-keyboard-response","286","738541","0.0-13.0-0.36","61086c2bfda98ba5d75b9db4","64e77d7b61f440b60e28659d","64eca8decf62de62fc431f23","null","null","<p style=""font-size: 60px; font-family: BACS"">cDOEBDOk</p>","","","","","","","","",""
"html-keyboard-response","287","739557","0.0-13.0-0.37","61086c2bfda98ba5d75b9db4","64e77d7b61f440b60e28659d","64eca8decf62de62fc431f23","null","null","<p style=""font-size: 60px; font-family: BACS"">uvaUQONk</p>","","","","","","","","",""
"html-keyboard-response","288","740558","0.0-13.0-0.38","61086c2bfda98ba5d75b9db4","64e77d7b61f440b60e28659d","64eca8decf62de62fc431f23","null","null","<p style=""font-size: 60px; font-family: BACS"">JdGmOJlN</p>","","","","","","","","",""
"html-keyboard-response","289","741559","0.0-13.0-0.39","61086c2bfda98ba5d75b9db4","64e77d7b61f440b60e28659d","64eca8decf62de62fc431f23","null","null","<p style=""font-size: 60px; font-family: BACS"">DCmhDOk</p>","","","","","","","","",""
"html-keyboard-response","290","742560","0.0-13.0-0.40","61086c2bfda98ba5d75b9db4","64e77d7b61f440b60e28659d","64eca8decf62de62fc431f23","null","null","<p style=""font-size: 60px; font-family: BACS"">OLJblQONk</p>","","","","","","","","",""
"html-keyboard-response","291","743562","0.0-13.0-0.41","61086c2bfda98ba5d75b9db4","64e77d7b61f440b60e28659d","64eca8decf62de62fc431f23","null","null","<p style=""font-size: 60px; font-family: BACS"">MhKdPMYm</p>","","","","","","","","",""
"html-keyboard-response","292","744564","0.0-13.0-0.42","61086c2bfda98ba5d75b9db4","64e77d7b61f440b60e28659d","64eca8decf62de62fc431f23","null","null","<p style=""font-size: 60px; font-family: BACS"">bmdABCKOb</p>","","","","","","","","",""
"html-keyboard-response","293","745565","0.0-13.0-0.43","61086c2bfda98ba5d75b9db4","64e77d7b61f440b60e28659d","64eca8decf62de62fc431f23","null","null","<p style=""font-size: 60px; font-family: BACS"">NaAQdkam</p>","","","","","","","","",""
"html-keyboard-response","294","746567","0.0-13.0-0.44","61086c2bfda98ba5d75b9db4","64e77d7b61f440b60e28659d","64eca8decf62de62fc431f23","null","null","<p style=""font-size: 60px; font-family: BACS"">JdGmrZYd</p>","","","","","","","","",""
"html-keyboard-response","295","747568","0.0-13.0-0.45","61086c2bfda98ba5d75b9db4","64e77d7b61f440b60e28659d","64eca8decf62de62fc431f23","null","null","<p style=""font-size: 60px; font-family: BACS"">rGUAYOJlN</p>","","","","","","","","",""
"html-keyboard-response","296","748571","0.0-13.0-0.46","61086c2bfda98ba5d75b9db4","64e77d7b61f440b60e28659d","64eca8decf62de62fc431f23","null","null","<p style=""font-size: 60px; font-family: BACS"">cDOEBPMYm</p>","","","","","","","","",""
"html-keyboard-response","297","749593","0.0-13.0-0.47","61086c2bfda98ba5d75b9db4","64e77d7b61f440b60e28659d","64eca8decf62de62fc431f23","null","null","<p style=""font-size: 60px; font-family: BACS"">OcYMDOk</p>","","","","","","","","",""
"html-keyboard-response","298","750611","0.0-13.0-0.48","61086c2bfda98ba5d75b9db4","64e77d7b61f440b60e28659d","64eca8decf62de62fc431f23","null","null","<p style=""font-size: 60px; font-family: BACS"">DlDdPMYm</p>","","","","","","","","",""
"html-keyboard-response","299","751612","0.0-13.0-0.49","61086c2bfda98ba5d75b9db4","64e77d7b61f440b60e28659d","64eca8decf62de62fc431f23","null","null","<p style=""font-size: 60px; font-family: BACS"">OcYMCKOb</p>","","","","","","","","",""
"html-keyboard-response","300","752614","0.0-13.0-0.50","61086c2bfda98ba5d75b9db4","64e77d7b61f440b60e28659d","64eca8decf62de62fc431f23","null","null","<p style=""font-size: 60px; font-family: BACS"">OLJblrZYd</p>","","","","","","","","",""
"html-keyboard-response","301","753616","0.0-13.0-0.51","61086c2bfda98ba5d75b9db4","64e77d7b61f440b60e28659d","64eca8decf62de62fc431f23","null","null","<p style=""font-size: 60px; font-family: BACS"">BECkCKOb</p>","","","","","","","","",""
"html-keyboard-response","302","754618","0.0-13.0-0.52","61086c2bfda98ba5d75b9db4","64e77d7b61f440b60e28659d","64eca8decf62de62fc431f23","null","null","<p style=""font-size: 60px; font-family: BACS"">JrGvkam</p>","","","","","","","","",""
"html-keyboard-response","303","755619","0.0-13.0-0.53","61086c2bfda98ba5d75b9db4","64e77d7b61f440b60e28659d","64eca8decf62de62fc431f23","null","null","<p style=""font-size: 60px; font-family: BACS"">DlDdDOk</p>","","","","","","","","",""
"html-keyboard-response","304","756620","0.0-13.0-0.54","61086c2bfda98ba5d75b9db4","64e77d7b61f440b60e28659d","64eca8decf62de62fc431f23","null","null","<p style=""font-size: 60px; font-family: BACS"">NaAQdrZYd</p>","","","","","","","","",""
"html-keyboard-response","305","757624","0.0-13.0-0.55","61086c2bfda98ba5d75b9db4","64e77d7b61f440b60e28659d","64eca8decf62de62fc431f23","null","null","<p style=""font-size: 60px; font-family: BACS"">DlDdCKOb</p>","","","","","","","","",""
"html-keyboard-response","306","758638","0.0-13.0-0.56","61086c2bfda98ba5d75b9db4","64e77d7b61f440b60e28659d","64eca8decf62de62fc431f23","null","null","<p style=""font-size: 60px; font-family: BACS"">ALGZQONk</p>","","","","","","","","",""
"html-keyboard-response","307","759640","0.0-13.0-0.57","61086c2bfda98ba5d75b9db4","64e77d7b61f440b60e28659d","64eca8decf62de62fc431f23","null","null","<p style=""font-size: 60px; font-family: BACS"">OLJblkam</p>","","","","","","","","",""
"html-keyboard-response","308","760655","0.0-13.0-0.58","61086c2bfda98ba5d75b9db4","64e77d7b61f440b60e28659d","64eca8decf62de62fc431f23","null","null","<p style=""font-size: 60px; font-family: BACS"">JrGvrZYd</p>","","","","","","","","",""
"html-keyboard-response","309","761673","0.0-13.0-0.59","61086c2bfda98ba5d75b9db4","64e77d7b61f440b60e28659d","64eca8decf62de62fc431f23","null","null","<p style=""font-size: 60px; font-family: BACS"">mBbKCKOb</p>","","","","","","","","",""
"html-keyboard-response","310","762689","0.0-13.0-0.60","61086c2bfda98ba5d75b9db4","64e77d7b61f440b60e28659d","64eca8decf62de62fc431f23","null","null","<p style=""font-size: 60px; font-family: BACS"">DRPkYPMd</p>","","","","","","","","",""
"html-keyboard-response","311","763692","0.0-13.0-0.61","61086c2bfda98ba5d75b9db4","64e77d7b61f440b60e28659d","64eca8decf62de62fc431f23","null","null","<p style=""font-size: 60px; font-family: BACS"">adYrcOcN</p>","","","","","","","","",""
"html-keyboard-response","312","764693","0.0-13.0-0.62","61086c2bfda98ba5d75b9db4","64e77d7b61f440b60e28659d","64eca8decf62de62fc431f23","null","null","<p style=""font-size: 60px; font-family: BACS"">JrGvQONk</p>","","","","","","","","",""
"html-keyboard-response","313","765695","0.0-13.0-0.63","61086c2bfda98ba5d75b9db4","64e77d7b61f440b60e28659d","64eca8decf62de62fc431f23","null","null","<p style=""font-size: 60px; font-family: BACS"">LGkAOcN</p>","","","","","","","","",""
"html-keyboard-response","314","766697","0.0-13.0-0.64","61086c2bfda98ba5d75b9db4","64e77d7b61f440b60e28659d","64eca8decf62de62fc431f23","null","null","<p style=""font-size: 60px; font-family: BACS"">BECkPMYm</p>","","","","","","","","",""
"html-keyboard-response","315","767699","0.0-13.0-0.65","61086c2bfda98ba5d75b9db4","64e77d7b61f440b60e28659d","64eca8decf62de62fc431f23","null","null","<p style=""font-size: 60px; font-family: BACS"">rvOvUkam</p>","","","","","","","","",""
"html-keyboard-response","316","768701","0.0-13.0-0.66","61086c2bfda98ba5d75b9db4","64e77d7b61f440b60e28659d","64eca8decf62de62fc431f23","null","null","<p style=""font-size: 60px; font-family: BACS"">bmdABPMd</p>","","","","","","","","",""
"html-keyboard-response","317","769703","0.0-13.0-0.67","61086c2bfda98ba5d75b9db4","64e77d7b61f440b60e28659d","64eca8decf62de62fc431f23","null","null","<p style=""font-size: 60px; font-family: BACS"">AlTdPMYm</p>","","","","","","","","",""
"html-keyboard-response","318","770705","0.0-13.0-0.68","61086c2bfda98ba5d75b9db4","64e77d7b61f440b60e28659d","64eca8decf62de62fc431f23","null","null","<p style=""font-size: 60px; font-family: BACS"">cDOEBPMd</p>","","","","","","","","",""
"html-keyboard-response","319","771706","0.0-13.0-0.69","61086c2bfda98ba5d75b9db4","64e77d7b61f440b60e28659d","64eca8decf62de62fc431f23","null","null","<p style=""font-size: 60px; font-family: BACS"">rvOvUOJlN</p>","","","","","","","","",""
"html-keyboard-response","320","772708","0.0-13.0-0.70","61086c2bfda98ba5d75b9db4","64e77d7b61f440b60e28659d","64eca8decf62de62fc431f23","null","null","<p style=""font-size: 60px; font-family: BACS"">adYrcQONk</p>","","","","","","","","",""
"html-keyboard-response","321","773709","0.0-13.0-0.71","61086c2bfda98ba5d75b9db4","64e77d7b61f440b60e28659d","64eca8decf62de62fc431f23","null","null","<p style=""font-size: 60px; font-family: BACS"">mBbKPMYm</p>","","","","","","","","",""
"html-keyboard-response","322","774711","0.0-13.0-0.72","61086c2bfda98ba5d75b9db4","64e77d7b61f440b60e28659d","64eca8decf62de62fc431f23","null","null","<p style=""font-size: 60px; font-family: BACS"">AlTdTmTm</p>","","","","","","","","",""
"html-keyboard-response","323","775712","0.0-13.0-0.73","61086c2bfda98ba5d75b9db4","64e77d7b61f440b60e28659d","64eca8decf62de62fc431f23","null","null","<p style=""font-size: 60px; font-family: BACS"">LGkArZYd</p>","","","","","","","","",""
"html-keyboard-response","324","776715","0.0-13.0-0.74","61086c2bfda98ba5d75b9db4","64e77d7b61f440b60e28659d","64eca8decf62de62fc431f23","null","null","<p style=""font-size: 60px; font-family: BACS"">AlTdCKOb</p>","","","","","","","","",""
"html-keyboard-response","325","777716","0.0-13.0-0.75","61086c2bfda98ba5d75b9db4","64e77d7b61f440b60e28659d","64eca8decf62de62fc431f23","null","null","<p style=""font-size: 60px; font-family: BACS"">DCmhTmTm</p>","","","","","","","","",""
"html-keyboard-response","326","778718","0.0-13.0-0.76","61086c2bfda98ba5d75b9db4","64e77d7b61f440b60e28659d","64eca8decf62de62fc431f23","null","null","<p style=""font-size: 60px; font-family: BACS"">rGUAYrZYd</p>","","","","","","","","",""
"html-keyboard-response","327","779741","0.0-13.0-0.77","61086c2bfda98ba5d75b9db4","64e77d7b61f440b60e28659d","64eca8decf62de62fc431f23","null","null","<p style=""font-size: 60px; font-family: BACS"">ALGZOJlN</p>","","","","","","","","",""
"html-keyboard-response","328","780743","0.0-13.0-0.78","61086c2bfda98ba5d75b9db4","64e77d7b61f440b60e28659d","64eca8decf62de62fc431f23","null","null","<p style=""font-size: 60px; font-family: BACS"">DRPkYPMYm</p>","","","","","","","","",""
"html-keyboard-response","329","781745","0.0-13.0-0.79","61086c2bfda98ba5d75b9db4","64e77d7b61f440b60e28659d","64eca8decf62de62fc431f23","null","null","<p style=""font-size: 60px; font-family: BACS"">OcYMTmTm</p>","","","","","","","","",""
"html-keyboard-response","330","785383","0.0-14.0","61086c2bfda98ba5d75b9db4","64e77d7b61f440b60e28659d","64eca8decf62de62fc431f23","3638"," ","<p>Great, you've seen the fourth block of words. You may now take a short break.</p>
      <p>Press the spacebar when you're ready to continue.</p>","","","","","","","","",""
"html-keyboard-response","331","786398","0.0-15.0-0.0","61086c2bfda98ba5d75b9db4","64e77d7b61f440b60e28659d","64eca8decf62de62fc431f23","null","null","<p style=""font-size: 60px; font-family: BACS"">DRPkYDOk</p>","","","","","","","","",""
"html-keyboard-response","332","787401","0.0-15.0-0.1","61086c2bfda98ba5d75b9db4","64e77d7b61f440b60e28659d","64eca8decf62de62fc431f23","null","null","<p style=""font-size: 60px; font-family: BACS"">DRPkYDOk</p>","","","","","","","","",""
"html-keyboard-response","333","788403","0.0-15.0-0.2","61086c2bfda98ba5d75b9db4","64e77d7b61f440b60e28659d","64eca8decf62de62fc431f23","null","null","<p style=""font-size: 60px; font-family: BACS"">DRPkYDOk</p>","","","","","","","","",""
"html-keyboard-response","334","789404","0.0-15.0-0.3","61086c2bfda98ba5d75b9db4","64e77d7b61f440b60e28659d","64eca8decf62de62fc431f23","null","null","<p style=""font-size: 60px; font-family: BACS"">DRPkYDOk</p>","","","","","","","","",""
"html-keyboard-response","335","790405","0.0-15.0-0.4","61086c2bfda98ba5d75b9db4","64e77d7b61f440b60e28659d","64eca8decf62de62fc431f23","null","null","<p style=""font-size: 60px; font-family: BACS"">DRPkYDOk</p>","","","","","","","","",""
"html-keyboard-response","336","791407","0.0-15.0-0.5","61086c2bfda98ba5d75b9db4","64e77d7b61f440b60e28659d","64eca8decf62de62fc431f23","null","null","<p style=""font-size: 60px; font-family: BACS"">DRPkYDOk</p>","","","","","","","","",""
"html-keyboard-response","337","792409","0.0-15.0-0.6","61086c2bfda98ba5d75b9db4","64e77d7b61f440b60e28659d","64eca8decf62de62fc431f23","null","null","<p style=""font-size: 60px; font-family: BACS"">DRPkYDOk</p>","","","","","","","","",""
"html-keyboard-response","338","793411","0.0-15.0-0.7","61086c2bfda98ba5d75b9db4","64e77d7b61f440b60e28659d","64eca8decf62de62fc431f23","null","null","<p style=""font-size: 60px; font-family: BACS"">DRPkYDOk</p>","","","","","","","","",""
"html-keyboard-response","339","794412","0.0-15.0-0.8","61086c2bfda98ba5d75b9db4","64e77d7b61f440b60e28659d","64eca8decf62de62fc431f23","null","null","<p style=""font-size: 60px; font-family: BACS"">DRPkYDOk</p>","","","","","","","","",""
"html-keyboard-response","340","795414","0.0-15.0-0.9","61086c2bfda98ba5d75b9db4","64e77d7b61f440b60e28659d","64eca8decf62de62fc431f23","null","null","<p style=""font-size: 60px; font-family: BACS"">DRPkYDOk</p>","","","","","","","","",""
"html-keyboard-response","341","796415","0.0-15.0-0.10","61086c2bfda98ba5d75b9db4","64e77d7b61f440b60e28659d","64eca8decf62de62fc431f23","null","null","<p style=""font-size: 60px; font-family: BACS"">DRPkYDOk</p>","","","","","","","","",""
"html-keyboard-response","342","797416","0.0-15.0-0.11","61086c2bfda98ba5d75b9db4","64e77d7b61f440b60e28659d","64eca8decf62de62fc431f23","null","null","<p style=""font-size: 60px; font-family: BACS"">DRPkYDOk</p>","","","","","","","","",""
"html-keyboard-response","343","798418","0.0-15.0-0.12","61086c2bfda98ba5d75b9db4","64e77d7b61f440b60e28659d","64eca8decf62de62fc431f23","null","null","<p style=""font-size: 60px; font-family: BACS"">DRPkYDOk</p>","","","","","","","","",""
"html-keyboard-response","344","799434","0.0-15.0-0.13","61086c2bfda98ba5d75b9db4","64e77d7b61f440b60e28659d","64eca8decf62de62fc431f23","null","null","<p style=""font-size: 60px; font-family: BACS"">DRPkYDOk</p>","","","","","","","","",""
"html-keyboard-response","345","800449","0.0-15.0-0.14","61086c2bfda98ba5d75b9db4","64e77d7b61f440b60e28659d","64eca8decf62de62fc431f23","null","null","<p style=""font-size: 60px; font-family: BACS"">DRPkYDOk</p>","","","","","","","","",""
"html-keyboard-response","346","801451","0.0-15.0-0.15","61086c2bfda98ba5d75b9db4","64e77d7b61f440b60e28659d","64eca8decf62de62fc431f23","null","null","<p style=""font-size: 60px; font-family: BACS"">DRPkYDOk</p>","","","","","","","","",""
"html-keyboard-response","347","802452","0.0-15.0-0.16","61086c2bfda98ba5d75b9db4","64e77d7b61f440b60e28659d","64eca8decf62de62fc431f23","null","null","<p style=""font-size: 60px; font-family: BACS"">DRPkYDOk</p>","","","","","","","","",""
"html-keyboard-response","348","803454","0.0-15.0-0.17","61086c2bfda98ba5d75b9db4","64e77d7b61f440b60e28659d","64eca8decf62de62fc431f23","null","null","<p style=""font-size: 60px; font-family: BACS"">DRPkYDOk</p>","","","","","","","","",""
"html-keyboard-response","349","804456","0.0-15.0-0.18","61086c2bfda98ba5d75b9db4","64e77d7b61f440b60e28659d","64eca8decf62de62fc431f23","null","null","<p style=""font-size: 60px; font-family: BACS"">DRPkYDOk</p>","","","","","","","","",""
"html-keyboard-response","350","805458","0.0-15.0-0.19","61086c2bfda98ba5d75b9db4","64e77d7b61f440b60e28659d","64eca8decf62de62fc431f23","null","null","<p style=""font-size: 60px; font-family: BACS"">DRPkYDOk</p>","","","","","","","","",""
"html-keyboard-response","351","806460","0.0-15.0-0.20","61086c2bfda98ba5d75b9db4","64e77d7b61f440b60e28659d","64eca8decf62de62fc431f23","null","null","<p style=""font-size: 60px; font-family: BACS"">DRPkYDOk</p>","","","","","","","","",""
"html-keyboard-response","352","807463","0.0-15.0-0.21","61086c2bfda98ba5d75b9db4","64e77d7b61f440b60e28659d","64eca8decf62de62fc431f23","null","null","<p style=""font-size: 60px; font-family: BACS"">DRPkYDOk</p>","","","","","","","","",""
"html-keyboard-response","353","808464","0.0-15.0-0.22","61086c2bfda98ba5d75b9db4","64e77d7b61f440b60e28659d","64eca8decf62de62fc431f23","null","null","<p style=""font-size: 60px; font-family: BACS"">DRPkYDOk</p>","","","","","","","","",""
"html-keyboard-response","354","809465","0.0-15.0-0.23","61086c2bfda98ba5d75b9db4","64e77d7b61f440b60e28659d","64eca8decf62de62fc431f23","null","null","<p style=""font-size: 60px; font-family: BACS"">DRPkYDOk</p>","","","","","","","","",""
"html-keyboard-response","355","810467","0.0-15.0-0.24","61086c2bfda98ba5d75b9db4","64e77d7b61f440b60e28659d","64eca8decf62de62fc431f23","null","null","<p style=""font-size: 60px; font-family: BACS"">DRPkYDOk</p>","","","","","","","","",""
"html-keyboard-response","356","811468","0.0-15.0-0.25","61086c2bfda98ba5d75b9db4","64e77d7b61f440b60e28659d","64eca8decf62de62fc431f23","null","null","<p style=""font-size: 60px; font-family: BACS"">DRPkYDOk</p>","","","","","","","","",""
"html-keyboard-response","357","812470","0.0-15.0-0.26","61086c2bfda98ba5d75b9db4","64e77d7b61f440b60e28659d","64eca8decf62de62fc431f23","null","null","<p style=""font-size: 60px; font-family: BACS"">DRPkYDOk</p>","","","","","","","","",""
"html-keyboard-response","358","813471","0.0-15.0-0.27","61086c2bfda98ba5d75b9db4","64e77d7b61f440b60e28659d","64eca8decf62de62fc431f23","null","null","<p style=""font-size: 60px; font-family: BACS"">DRPkYDOk</p>","","","","","","","","",""
"html-keyboard-response","359","814473","0.0-15.0-0.28","61086c2bfda98ba5d75b9db4","64e77d7b61f440b60e28659d","64eca8decf62de62fc431f23","null","null","<p style=""font-size: 60px; font-family: BACS"">DRPkYDOk</p>","","","","","","","","",""
"html-keyboard-response","360","815475","0.0-15.0-0.29","61086c2bfda98ba5d75b9db4","64e77d7b61f440b60e28659d","64eca8decf62de62fc431f23","null","null","<p style=""font-size: 60px; font-family: BACS"">DRPkYDOk</p>","","","","","","","","",""
"html-keyboard-response","361","816476","0.0-15.0-0.30","61086c2bfda98ba5d75b9db4","64e77d7b61f440b60e28659d","64eca8decf62de62fc431f23","null","null","<p style=""font-size: 60px; font-family: BACS"">DRPkYDOk</p>","","","","","","","","",""
"html-keyboard-response","362","817478","0.0-15.0-0.31","61086c2bfda98ba5d75b9db4","64e77d7b61f440b60e28659d","64eca8decf62de62fc431f23","null","null","<p style=""font-size: 60px; font-family: BACS"">DRPkYDOk</p>","","","","","","","","",""
"html-keyboard-response","363","818479","0.0-15.0-0.32","61086c2bfda98ba5d75b9db4","64e77d7b61f440b60e28659d","64eca8decf62de62fc431f23","null","null","<p style=""font-size: 60px; font-family: BACS"">DRPkYDOk</p>","","","","","","","","",""
"html-keyboard-response","364","819501","0.0-15.0-0.33","61086c2bfda98ba5d75b9db4","64e77d7b61f440b60e28659d","64eca8decf62de62fc431f23","null","null","<p style=""font-size: 60px; font-family: BACS"">DRPkYDOk</p>","","","","","","","","",""
"html-keyboard-response","365","820504","0.0-15.0-0.34","61086c2bfda98ba5d75b9db4","64e77d7b61f440b60e28659d","64eca8decf62de62fc431f23","null","null","<p style=""font-size: 60px; font-family: BACS"">DRPkYDOk</p>","","","","","","","","",""
"html-keyboard-response","366","821505","0.0-15.0-0.35","61086c2bfda98ba5d75b9db4","64e77d7b61f440b60e28659d","64eca8decf62de62fc431f23","null","null","<p style=""font-size: 60px; font-family: BACS"">DRPkYDOk</p>","","","","","","","","",""
"html-keyboard-response","367","822507","0.0-15.0-0.36","61086c2bfda98ba5d75b9db4","64e77d7b61f440b60e28659d","64eca8decf62de62fc431f23","null","null","<p style=""font-size: 60px; font-family: BACS"">DRPkYDOk</p>","","","","","","","","",""
"html-keyboard-response","368","823509","0.0-15.0-0.37","61086c2bfda98ba5d75b9db4","64e77d7b61f440b60e28659d","64eca8decf62de62fc431f23","null","null","<p style=""font-size: 60px; font-family: BACS"">DRPkYDOk</p>","","","","","","","","",""
"html-keyboard-response","369","824510","0.0-15.0-0.38","61086c2bfda98ba5d75b9db4","64e77d7b61f440b60e28659d","64eca8decf62de62fc431f23","null","null","<p style=""font-size: 60px; font-family: BACS"">DRPkYDOk</p>","","","","","","","","",""
"html-keyboard-response","370","825512","0.0-15.0-0.39","61086c2bfda98ba5d75b9db4","64e77d7b61f440b60e28659d","64eca8decf62de62fc431f23","null","null","<p style=""font-size: 60px; font-family: BACS"">DRPkYDOk</p>","","","","","","","","",""
"html-keyboard-response","371","826513","0.0-15.0-0.40","61086c2bfda98ba5d75b9db4","64e77d7b61f440b60e28659d","64eca8decf62de62fc431f23","null","null","<p style=""font-size: 60px; font-family: BACS"">DRPkYDOk</p>","","","","","","","","",""
"html-keyboard-response","372","827515","0.0-15.0-0.41","61086c2bfda98ba5d75b9db4","64e77d7b61f440b60e28659d","64eca8decf62de62fc431f23","null","null","<p style=""font-size: 60px; font-family: BACS"">DRPkYDOk</p>","","","","","","","","",""
"html-keyboard-response","373","828517","0.0-15.0-0.42","61086c2bfda98ba5d75b9db4","64e77d7b61f440b60e28659d","64eca8decf62de62fc431f23","null","null","<p style=""font-size: 60px; font-family: BACS"">DRPkYDOk</p>","","","","","","","","",""
"html-keyboard-response","374","829519","0.0-15.0-0.43","61086c2bfda98ba5d75b9db4","64e77d7b61f440b60e28659d","64eca8decf62de62fc431f23","null","null","<p style=""font-size: 60px; font-family: BACS"">DRPkYDOk</p>","","","","","","","","",""
"html-keyboard-response","375","830520","0.0-15.0-0.44","61086c2bfda98ba5d75b9db4","64e77d7b61f440b60e28659d","64eca8decf62de62fc431f23","null","null","<p style=""font-size: 60px; font-family: BACS"">DRPkYDOk</p>","","","","","","","","",""
"html-keyboard-response","376","831522","0.0-15.0-0.45","61086c2bfda98ba5d75b9db4","64e77d7b61f440b60e28659d","64eca8decf62de62fc431f23","null","null","<p style=""font-size: 60px; font-family: BACS"">DRPkYDOk</p>","","","","","","","","",""
"html-keyboard-response","377","832524","0.0-15.0-0.46","61086c2bfda98ba5d75b9db4","64e77d7b61f440b60e28659d","64eca8decf62de62fc431f23","null","null","<p style=""font-size: 60px; font-family: BACS"">DRPkYDOk</p>","","","","","","","","",""
"html-keyboard-response","378","833526","0.0-15.0-0.47","61086c2bfda98ba5d75b9db4","64e77d7b61f440b60e28659d","64eca8decf62de62fc431f23","null","null","<p style=""font-size: 60px; font-family: BACS"">DRPkYDOk</p>","","","","","","","","",""
"html-keyboard-response","379","834528","0.0-15.0-0.48","61086c2bfda98ba5d75b9db4","64e77d7b61f440b60e28659d","64eca8decf62de62fc431f23","null","null","<p style=""font-size: 60px; font-family: BACS"">DRPkYDOk</p>","","","","","","","","",""
"html-keyboard-response","380","835530","0.0-15.0-0.49","61086c2bfda98ba5d75b9db4","64e77d7b61f440b60e28659d","64eca8decf62de62fc431f23","null","null","<p style=""font-size: 60px; font-family: BACS"">DRPkYDOk</p>","","","","","","","","",""
"html-keyboard-response","381","836531","0.0-15.0-0.50","61086c2bfda98ba5d75b9db4","64e77d7b61f440b60e28659d","64eca8decf62de62fc431f23","null","null","<p style=""font-size: 60px; font-family: BACS"">DRPkYDOk</p>","","","","","","","","",""
"html-keyboard-response","382","837547","0.0-15.0-0.51","61086c2bfda98ba5d75b9db4","64e77d7b61f440b60e28659d","64eca8decf62de62fc431f23","null","null","<p style=""font-size: 60px; font-family: BACS"">DRPkYDOk</p>","","","","","","","","",""
"html-keyboard-response","383","838563","0.0-15.0-0.52","61086c2bfda98ba5d75b9db4","64e77d7b61f440b60e28659d","64eca8decf62de62fc431f23","null","null","<p style=""font-size: 60px; font-family: BACS"">DRPkYDOk</p>","","","","","","","","",""
"html-keyboard-response","384","839565","0.0-15.0-0.53","61086c2bfda98ba5d75b9db4","64e77d7b61f440b60e28659d","64eca8decf62de62fc431f23","null","null","<p style=""font-size: 60px; font-family: BACS"">DRPkYDOk</p>","","","","","","","","",""
"html-keyboard-response","385","840565","0.0-15.0-0.54","61086c2bfda98ba5d75b9db4","64e77d7b61f440b60e28659d","64eca8decf62de62fc431f23","null","null","<p style=""font-size: 60px; font-family: BACS"">DRPkYDOk</p>","","","","","","","","",""
"html-keyboard-response","386","841567","0.0-15.0-0.55","61086c2bfda98ba5d75b9db4","64e77d7b61f440b60e28659d","64eca8decf62de62fc431f23","null","null","<p style=""font-size: 60px; font-family: BACS"">DRPkYDOk</p>","","","","","","","","",""
"html-keyboard-response","387","842570","0.0-15.0-0.56","61086c2bfda98ba5d75b9db4","64e77d7b61f440b60e28659d","64eca8decf62de62fc431f23","null","null","<p style=""font-size: 60px; font-family: BACS"">DRPkYDOk</p>","","","","","","","","",""
"html-keyboard-response","388","843572","0.0-15.0-0.57","61086c2bfda98ba5d75b9db4","64e77d7b61f440b60e28659d","64eca8decf62de62fc431f23","null","null","<p style=""font-size: 60px; font-family: BACS"">DRPkYDOk</p>","","","","","","","","",""
"html-keyboard-response","389","844573","0.0-15.0-0.58","61086c2bfda98ba5d75b9db4","64e77d7b61f440b60e28659d","64eca8decf62de62fc431f23","null","null","<p style=""font-size: 60px; font-family: BACS"">DRPkYDOk</p>","","","","","","","","",""
"html-keyboard-response","390","845575","0.0-15.0-0.59","61086c2bfda98ba5d75b9db4","64e77d7b61f440b60e28659d","64eca8decf62de62fc431f23","null","null","<p style=""font-size: 60px; font-family: BACS"">DRPkYDOk</p>","","","","","","","","",""
"html-keyboard-response","391","846576","0.0-15.0-0.60","61086c2bfda98ba5d75b9db4","64e77d7b61f440b60e28659d","64eca8decf62de62fc431f23","null","null","<p style=""font-size: 60px; font-family: BACS"">DRPkYDOk</p>","","","","","","","","",""
"html-keyboard-response","392","847578","0.0-15.0-0.61","61086c2bfda98ba5d75b9db4","64e77d7b61f440b60e28659d","64eca8decf62de62fc431f23","null","null","<p style=""font-size: 60px; font-family: BACS"">DRPkYDOk</p>","","","","","","","","",""
"html-keyboard-response","393","848594","0.0-15.0-0.62","61086c2bfda98ba5d75b9db4","64e77d7b61f440b60e28659d","64eca8decf62de62fc431f23","null","null","<p style=""font-size: 60px; font-family: BACS"">DRPkYDOk</p>","","","","","","","","",""
"html-keyboard-response","394","849596","0.0-15.0-0.63","61086c2bfda98ba5d75b9db4","64e77d7b61f440b60e28659d","64eca8decf62de62fc431f23","null","null","<p style=""font-size: 60px; font-family: BACS"">DRPkYDOk</p>","","","","","","","","",""
"html-keyboard-response","395","850598","0.0-15.0-0.64","61086c2bfda98ba5d75b9db4","64e77d7b61f440b60e28659d","64eca8decf62de62fc431f23","null","null","<p style=""font-size: 60px; font-family: BACS"">DRPkYDOk</p>","","","","","","","","",""
"html-keyboard-response","396","851600","0.0-15.0-0.65","61086c2bfda98ba5d75b9db4","64e77d7b61f440b60e28659d","64eca8decf62de62fc431f23","null","null","<p style=""font-size: 60px; font-family: BACS"">DRPkYDOk</p>","","","","","","","","",""
"html-keyboard-response","397","852601","0.0-15.0-0.66","61086c2bfda98ba5d75b9db4","64e77d7b61f440b60e28659d","64eca8decf62de62fc431f23","null","null","<p style=""font-size: 60px; font-family: BACS"">DRPkYDOk</p>","","","","","","","","",""
"html-keyboard-response","398","853603","0.0-15.0-0.67","61086c2bfda98ba5d75b9db4","64e77d7b61f440b60e28659d","64eca8decf62de62fc431f23","null","null","<p style=""font-size: 60px; font-family: BACS"">DRPkYDOk</p>","","","","","","","","",""
