"trial_type","trial_index","time_elapsed","internal_node_id","subject_id","study_id","session_id","rt","response","stimulus","success","item","task","correct_response","testing_condition","correct","target","confound","name"
"pavlovia","0","1965","0.0-0.0","648b962b8fdb1fa686213ac1","64e77d7b61f440b60e28659d","64ecad81b8f7e141b27cbb2d","","","","","","","","","","","",""
"survey-html-form","1","23000","0.0-1.0","648b962b8fdb1fa686213ac1","64e77d7b61f440b60e28659d","64ecad81b8f7e141b27cbb2d","21031","{""ID"":""648b962b8fdb1fa686213ac1""}","","","","","","","","","",""
"html-keyboard-response","2","89404","0.0-2.0","648b962b8fdb1fa686213ac1","64e77d7b61f440b60e28659d","64ecad81b8f7e141b27cbb2d","66401"," ","<p style=""font-size: 15px;"">Before beginning, we ask that you read the consent information and confirm your agreement to participate in the experiment.</p>
      <p style=""font-size: 15px;""> We ask that you remember that this is a research project and that your participation is entirely voluntary. You can stop your participation at any time, without needing to provide any explanation. The study we're asking you to participate in aims at examining how readers process written words. You will be engaged in a session of apprximately 20 minutes, followed by a brief questionnaire. You will have the opportunity to take a few breaks during the experiment. You will be paid £4 for your participation, corresponding to a rate of £8/hour. While this experiment looks at cognitive faculties, this experiment doesn't constitute clinical proof of eventual pathologies.</p>
      <p style=""font-size: 15px;"">All of the information collected thanks to yours and others' participation will be held in a secure password-protected server, and will not be shared with anyone not authorised to view it. Your personal information will be kept with an arbitrary participant ID. Thanks to this data anonymity process, any researcher analysing the data won't be able to track the information back to a specific participant. Therefore, this process will make identifying you impossibile, even when results from the study will be published in scientific reviews, presented at congresses, or at any other public forum. More generally, the collected data will be treated in accordance with the laws on privacy and conformity to the Legislative Degree n. 196 ""Code regarding the protection of personal data"" of the 30th of June 2003 and to the European Regulation 2016/670 (General Data Protection Regulation - GDPR). The Data Protection Officer is Avv. Valentina Carollo, who can be contacted at the following email addresses: <a href=""mailto:dpo@sissa.it"">dpo@sissa.it</a> or <a href=""mailto:rpd@sissa.it"">rpd@sissa.it</a> - PEC: <a href=""mailto:protocollo@pec.sissa.it"">protocollo@pec.sissa.it</a>.</p>
      <p style=""font-size: 15px;""> Before expressing your consent to participate, we would like to remind you again that in case you need explanations on any aspect of the experimental procedure, the researcher is at your disposition (<a href=""mailto:aliebelt@sissa.it"">aliebelt@sissa.it</a>, <a href=""mailto:davide.crepaldi@sissa.it"">davide.crepaldi@sissa.it</a>).</p>
      <p style=""font-size: 15px;"">If you would like to download the informed consent form, you can do so here: <a href=""BASL-Informed_Consent.pdf"" download>informed consent form</a>.</p>
      <p style=""font-size: 15px;"">We ask that you press the spacebar to proceed to the consent section.</p>","","","","","","","","",""
"survey-html-form","3","110139","0.0-3.0","648b962b8fdb1fa686213ac1","64e77d7b61f440b60e28659d","64ecad81b8f7e141b27cbb2d","20734","{""consent1"":""YES"",""consent2"":""YES"",""consent3"":""YES"",""consent4"":""YES"",""consent5"":""YES"",""consent6"":""YES""}","","","","","","","","","",""
"fullscreen","4","119718","0.0-4.0","648b962b8fdb1fa686213ac1","64e77d7b61f440b60e28659d","64ecad81b8f7e141b27cbb2d","","","","true","","","","","","","",""
"html-keyboard-response","5","147243","0.0-5.0","648b962b8fdb1fa686213ac1","64e77d7b61f440b60e28659d","64ecad81b8f7e141b27cbb2d","27523"," ","<p>Welcome, and thank you very much for your time!</p>
      <p>In this experiment, you'll be a language expert who's been asked to take a look at words that Earth has received in its first communication with aliens. Your task, in this first part of the experiment, is to pay close attention to the words you'll be shown; later, world leaders will ask you questions on what you saw. The words will be shown to you quite quickly; it seems that the aliens were in a hurry :-)</p>
      <p>Press the spacebar to continue.<p>","","","","","","","","",""
"html-keyboard-response","6","162745","0.0-6.0","648b962b8fdb1fa686213ac1","64e77d7b61f440b60e28659d","64ecad81b8f7e141b27cbb2d","15501"," ","<p>Here is an example of the words you'll see:</p>
      <img src='esempio.png' height='400px'>
      <p>When you're ready to begin, press the spacebar.</p></div>","","","","","","","","",""
"html-keyboard-response","7","163750","0.0-7.0-0.0","648b962b8fdb1fa686213ac1","64e77d7b61f440b60e28659d","64ecad81b8f7e141b27cbb2d","null","null","<p style=""font-size: 60px; font-family: BACS"">JNkaZAUu</p>","","","","","","","","",""
"html-keyboard-response","8","164758","0.0-7.0-0.1","648b962b8fdb1fa686213ac1","64e77d7b61f440b60e28659d","64ecad81b8f7e141b27cbb2d","null","null","<p style=""font-size: 60px; font-family: BACS"">lBKtBCAd</p>","","","","","","","","",""
"html-keyboard-response","9","165766","0.0-7.0-0.2","648b962b8fdb1fa686213ac1","64e77d7b61f440b60e28659d","64ecad81b8f7e141b27cbb2d","null","null","<p style=""font-size: 60px; font-family: BACS"">OCmkMAB</p>","","","","","","","","",""
"html-keyboard-response","10","166770","0.0-7.0-0.3","648b962b8fdb1fa686213ac1","64e77d7b61f440b60e28659d","64ecad81b8f7e141b27cbb2d","null","null","<p style=""font-size: 60px; font-family: BACS"">OYuvbJud</p>","","","","","","","","",""
"html-keyboard-response","11","167771","0.0-7.0-0.4","648b962b8fdb1fa686213ac1","64e77d7b61f440b60e28659d","64ecad81b8f7e141b27cbb2d","null","null","<p style=""font-size: 60px; font-family: BACS"">ZcGdNdYAJ</p>","","","","","","","","",""
"html-keyboard-response","12","168774","0.0-7.0-0.5","648b962b8fdb1fa686213ac1","64e77d7b61f440b60e28659d","64ecad81b8f7e141b27cbb2d","null","null","<p style=""font-size: 60px; font-family: BACS"">TbKMEBCAd</p>","","","","","","","","",""
"html-keyboard-response","13","169777","0.0-7.0-0.6","648b962b8fdb1fa686213ac1","64e77d7b61f440b60e28659d","64ecad81b8f7e141b27cbb2d","null","null","<p style=""font-size: 60px; font-family: BACS"">OYuvbuZc</p>","","","","","","","","",""
"html-keyboard-response","14","170781","0.0-7.0-0.7","648b962b8fdb1fa686213ac1","64e77d7b61f440b60e28659d","64ecad81b8f7e141b27cbb2d","null","null","<p style=""font-size: 60px; font-family: BACS"">TbKMEBRDh</p>","","","","","","","","",""
"html-keyboard-response","15","171788","0.0-7.0-0.8","648b962b8fdb1fa686213ac1","64e77d7b61f440b60e28659d","64ecad81b8f7e141b27cbb2d","null","null","<p style=""font-size: 60px; font-family: BACS"">hkRKBCD</p>","","","","","","","","",""
"html-keyboard-response","16","172806","0.0-7.0-0.9","648b962b8fdb1fa686213ac1","64e77d7b61f440b60e28659d","64ecad81b8f7e141b27cbb2d","null","null","<p style=""font-size: 60px; font-family: BACS"">TbKMEYDE</p>","","","","","","","","",""
"html-keyboard-response","17","173808","0.0-7.0-0.10","648b962b8fdb1fa686213ac1","64e77d7b61f440b60e28659d","64ecad81b8f7e141b27cbb2d","null","null","<p style=""font-size: 60px; font-family: BACS"">AlUYZvkL</p>","","","","","","","","",""
"html-keyboard-response","18","174811","0.0-7.0-0.11","648b962b8fdb1fa686213ac1","64e77d7b61f440b60e28659d","64ecad81b8f7e141b27cbb2d","null","null","<p style=""font-size: 60px; font-family: BACS"">rvOvUdYAJ</p>","","","","","","","","",""
"html-keyboard-response","19","175815","0.0-7.0-0.12","648b962b8fdb1fa686213ac1","64e77d7b61f440b60e28659d","64ecad81b8f7e141b27cbb2d","null","null","<p style=""font-size: 60px; font-family: BACS"">KBKBEBRDh</p>","","","","","","","","",""
"html-keyboard-response","20","176816","0.0-7.0-0.13","648b962b8fdb1fa686213ac1","64e77d7b61f440b60e28659d","64ecad81b8f7e141b27cbb2d","null","null","<p style=""font-size: 60px; font-family: BACS"">KABABCD</p>","","","","","","","","",""
"html-keyboard-response","21","177819","0.0-7.0-0.14","648b962b8fdb1fa686213ac1","64e77d7b61f440b60e28659d","64ecad81b8f7e141b27cbb2d","null","null","<p style=""font-size: 60px; font-family: BACS"">hkRKBCAd</p>","","","","","","","","",""
"html-keyboard-response","22","178822","0.0-7.0-0.15","648b962b8fdb1fa686213ac1","64e77d7b61f440b60e28659d","64ecad81b8f7e141b27cbb2d","null","null","<p style=""font-size: 60px; font-family: BACS"">AlTdYDE</p>","","","","","","","","",""
"html-keyboard-response","23","179846","0.0-7.0-0.16","648b962b8fdb1fa686213ac1","64e77d7b61f440b60e28659d","64ecad81b8f7e141b27cbb2d","null","null","<p style=""font-size: 60px; font-family: BACS"">hlkTBRDh</p>","","","","","","","","",""
"html-keyboard-response","24","180848","0.0-7.0-0.17","648b962b8fdb1fa686213ac1","64e77d7b61f440b60e28659d","64ecad81b8f7e141b27cbb2d","null","null","<p style=""font-size: 60px; font-family: BACS"">ckLALuZc</p>","","","","","","","","",""
"html-keyboard-response","25","181851","0.0-7.0-0.18","648b962b8fdb1fa686213ac1","64e77d7b61f440b60e28659d","64ecad81b8f7e141b27cbb2d","null","null","<p style=""font-size: 60px; font-family: BACS"">AlUYdYAJ</p>","","","","","","","","",""
"html-keyboard-response","26","182853","0.0-7.0-0.19","648b962b8fdb1fa686213ac1","64e77d7b61f440b60e28659d","64ecad81b8f7e141b27cbb2d","null","null","<p style=""font-size: 60px; font-family: BACS"">lKdbcBCD</p>","","","","","","","","",""
"html-keyboard-response","27","183856","0.0-7.0-0.20","648b962b8fdb1fa686213ac1","64e77d7b61f440b60e28659d","64ecad81b8f7e141b27cbb2d","null","null","<p style=""font-size: 60px; font-family: BACS"">OCmkYDE</p>","","","","","","","","",""
"html-keyboard-response","28","184859","0.0-7.0-0.21","648b962b8fdb1fa686213ac1","64e77d7b61f440b60e28659d","64ecad81b8f7e141b27cbb2d","null","null","<p style=""font-size: 60px; font-family: BACS"">AmQOYuZc</p>","","","","","","","","",""
"html-keyboard-response","29","185862","0.0-7.0-0.22","648b962b8fdb1fa686213ac1","64e77d7b61f440b60e28659d","64ecad81b8f7e141b27cbb2d","null","null","<p style=""font-size: 60px; font-family: BACS"">htmhCBCD</p>","","","","","","","","",""
"html-keyboard-response","30","186865","0.0-7.0-0.23","648b962b8fdb1fa686213ac1","64e77d7b61f440b60e28659d","64ecad81b8f7e141b27cbb2d","null","null","<p style=""font-size: 60px; font-family: BACS"">uvaUJud</p>","","","","","","","","",""
"html-keyboard-response","31","187867","0.0-7.0-0.24","648b962b8fdb1fa686213ac1","64e77d7b61f440b60e28659d","64ecad81b8f7e141b27cbb2d","null","null","<p style=""font-size: 60px; font-family: BACS"">KBKBEYDE</p>","","","","","","","","",""
"html-keyboard-response","32","188870","0.0-7.0-0.25","648b962b8fdb1fa686213ac1","64e77d7b61f440b60e28659d","64ecad81b8f7e141b27cbb2d","null","null","<p style=""font-size: 60px; font-family: BACS"">dmZvmuZc</p>","","","","","","","","",""
"html-keyboard-response","33","189873","0.0-7.0-0.26","648b962b8fdb1fa686213ac1","64e77d7b61f440b60e28659d","64ecad81b8f7e141b27cbb2d","null","null","<p style=""font-size: 60px; font-family: BACS"">OCmkBCAd</p>","","","","","","","","",""
"html-keyboard-response","34","190874","0.0-7.0-0.27","648b962b8fdb1fa686213ac1","64e77d7b61f440b60e28659d","64ecad81b8f7e141b27cbb2d","null","null","<p style=""font-size: 60px; font-family: BACS"">ckLALJud</p>","","","","","","","","",""
"html-keyboard-response","35","191878","0.0-7.0-0.28","648b962b8fdb1fa686213ac1","64e77d7b61f440b60e28659d","64ecad81b8f7e141b27cbb2d","null","null","<p style=""font-size: 60px; font-family: BACS"">htmhCBCAd</p>","","","","","","","","",""
"html-keyboard-response","36","192891","0.0-7.0-0.29","648b962b8fdb1fa686213ac1","64e77d7b61f440b60e28659d","64ecad81b8f7e141b27cbb2d","null","null","<p style=""font-size: 60px; font-family: BACS"">ckLALZAUu</p>","","","","","","","","",""
"html-keyboard-response","37","193905","0.0-7.0-0.30","648b962b8fdb1fa686213ac1","64e77d7b61f440b60e28659d","64ecad81b8f7e141b27cbb2d","null","null","<p style=""font-size: 60px; font-family: BACS"">uvaUdYAJ</p>","","","","","","","","",""
"html-keyboard-response","38","194918","0.0-7.0-0.31","648b962b8fdb1fa686213ac1","64e77d7b61f440b60e28659d","64ecad81b8f7e141b27cbb2d","null","null","<p style=""font-size: 60px; font-family: BACS"">ZcGdNJud</p>","","","","","","","","",""
"html-keyboard-response","39","195931","0.0-7.0-0.32","648b962b8fdb1fa686213ac1","64e77d7b61f440b60e28659d","64ecad81b8f7e141b27cbb2d","null","null","<p style=""font-size: 60px; font-family: BACS"">OYuvbZvkL</p>","","","","","","","","",""
"html-keyboard-response","40","196933","0.0-7.0-0.33","648b962b8fdb1fa686213ac1","64e77d7b61f440b60e28659d","64ecad81b8f7e141b27cbb2d","null","null","<p style=""font-size: 60px; font-family: BACS"">AlTdBRDh</p>","","","","","","","","",""
"html-keyboard-response","41","197936","0.0-7.0-0.34","648b962b8fdb1fa686213ac1","64e77d7b61f440b60e28659d","64ecad81b8f7e141b27cbb2d","null","null","<p style=""font-size: 60px; font-family: BACS"">htmhCYDE</p>","","","","","","","","",""
"html-keyboard-response","42","198939","0.0-7.0-0.35","648b962b8fdb1fa686213ac1","64e77d7b61f440b60e28659d","64ecad81b8f7e141b27cbb2d","null","null","<p style=""font-size: 60px; font-family: BACS"">ZcGdNZAUu</p>","","","","","","","","",""
"html-keyboard-response","43","199942","0.0-7.0-0.36","648b962b8fdb1fa686213ac1","64e77d7b61f440b60e28659d","64ecad81b8f7e141b27cbb2d","null","null","<p style=""font-size: 60px; font-family: BACS"">aYQmdYAJ</p>","","","","","","","","",""
"html-keyboard-response","44","200945","0.0-7.0-0.37","648b962b8fdb1fa686213ac1","64e77d7b61f440b60e28659d","64ecad81b8f7e141b27cbb2d","null","null","<p style=""font-size: 60px; font-family: BACS"">AmQOYZvkL</p>","","","","","","","","",""
"html-keyboard-response","45","201948","0.0-7.0-0.38","648b962b8fdb1fa686213ac1","64e77d7b61f440b60e28659d","64ecad81b8f7e141b27cbb2d","null","null","<p style=""font-size: 60px; font-family: BACS"">hkRKBRDh</p>","","","","","","","","",""
"html-keyboard-response","46","202950","0.0-7.0-0.39","648b962b8fdb1fa686213ac1","64e77d7b61f440b60e28659d","64ecad81b8f7e141b27cbb2d","null","null","<p style=""font-size: 60px; font-family: BACS"">hlkTYDE</p>","","","","","","","","",""
"html-keyboard-response","47","203952","0.0-7.0-0.40","648b962b8fdb1fa686213ac1","64e77d7b61f440b60e28659d","64ecad81b8f7e141b27cbb2d","null","null","<p style=""font-size: 60px; font-family: BACS"">lBKtMAB</p>","","","","","","","","",""
"html-keyboard-response","48","204955","0.0-7.0-0.41","648b962b8fdb1fa686213ac1","64e77d7b61f440b60e28659d","64ecad81b8f7e141b27cbb2d","null","null","<p style=""font-size: 60px; font-family: BACS"">OYuvbdYAJ</p>","","","","","","","","",""
"html-keyboard-response","49","205959","0.0-7.0-0.42","648b962b8fdb1fa686213ac1","64e77d7b61f440b60e28659d","64ecad81b8f7e141b27cbb2d","null","null","<p style=""font-size: 60px; font-family: BACS"">hkRKMAB</p>","","","","","","","","",""
"html-keyboard-response","50","206961","0.0-7.0-0.43","648b962b8fdb1fa686213ac1","64e77d7b61f440b60e28659d","64ecad81b8f7e141b27cbb2d","null","null","<p style=""font-size: 60px; font-family: BACS"">lKdbcBRDh</p>","","","","","","","","",""
"html-keyboard-response","51","207964","0.0-7.0-0.44","648b962b8fdb1fa686213ac1","64e77d7b61f440b60e28659d","64ecad81b8f7e141b27cbb2d","null","null","<p style=""font-size: 60px; font-family: BACS"">AlTdMAB</p>","","","","","","","","",""
"html-keyboard-response","52","208966","0.0-7.0-0.45","648b962b8fdb1fa686213ac1","64e77d7b61f440b60e28659d","64ecad81b8f7e141b27cbb2d","null","null","<p style=""font-size: 60px; font-family: BACS"">lKdbcYDE</p>","","","","","","","","",""
"html-keyboard-response","53","209968","0.0-7.0-0.46","648b962b8fdb1fa686213ac1","64e77d7b61f440b60e28659d","64ecad81b8f7e141b27cbb2d","null","null","<p style=""font-size: 60px; font-family: BACS"">hlkTBCD</p>","","","","","","","","",""
"html-keyboard-response","54","210981","0.0-7.0-0.47","648b962b8fdb1fa686213ac1","64e77d7b61f440b60e28659d","64ecad81b8f7e141b27cbb2d","null","null","<p style=""font-size: 60px; font-family: BACS"">lBKtBRDh</p>","","","","","","","","",""
"html-keyboard-response","55","211994","0.0-7.0-0.48","648b962b8fdb1fa686213ac1","64e77d7b61f440b60e28659d","64ecad81b8f7e141b27cbb2d","null","null","<p style=""font-size: 60px; font-family: BACS"">JNkaJud</p>","","","","","","","","",""
"html-keyboard-response","56","212998","0.0-7.0-0.49","648b962b8fdb1fa686213ac1","64e77d7b61f440b60e28659d","64ecad81b8f7e141b27cbb2d","null","null","<p style=""font-size: 60px; font-family: BACS"">lBKtBCD</p>","","","","","","","","",""
"html-keyboard-response","57","214001","0.0-7.0-0.50","648b962b8fdb1fa686213ac1","64e77d7b61f440b60e28659d","64ecad81b8f7e141b27cbb2d","null","null","<p style=""font-size: 60px; font-family: BACS"">AlUYZAUu</p>","","","","","","","","",""
"html-keyboard-response","58","215003","0.0-7.0-0.51","648b962b8fdb1fa686213ac1","64e77d7b61f440b60e28659d","64ecad81b8f7e141b27cbb2d","null","null","<p style=""font-size: 60px; font-family: BACS"">lKdbcMAB</p>","","","","","","","","",""
"html-keyboard-response","59","216006","0.0-7.0-0.52","648b962b8fdb1fa686213ac1","64e77d7b61f440b60e28659d","64ecad81b8f7e141b27cbb2d","null","null","<p style=""font-size: 60px; font-family: BACS"">ZcGdNuZc</p>","","","","","","","","",""
"html-keyboard-response","60","217014","0.0-7.0-0.53","648b962b8fdb1fa686213ac1","64e77d7b61f440b60e28659d","64ecad81b8f7e141b27cbb2d","null","null","<p style=""font-size: 60px; font-family: BACS"">KBKBEMAB</p>","","","","","","","","",""
"html-keyboard-response","61","218033","0.0-7.0-0.54","648b962b8fdb1fa686213ac1","64e77d7b61f440b60e28659d","64ecad81b8f7e141b27cbb2d","null","null","<p style=""font-size: 60px; font-family: BACS"">AmQOYdYAJ</p>","","","","","","","","",""
"html-keyboard-response","62","219034","0.0-7.0-0.55","648b962b8fdb1fa686213ac1","64e77d7b61f440b60e28659d","64ecad81b8f7e141b27cbb2d","null","null","<p style=""font-size: 60px; font-family: BACS"">rvOvUZAUu</p>","","","","","","","","",""
"html-keyboard-response","63","220038","0.0-7.0-0.56","648b962b8fdb1fa686213ac1","64e77d7b61f440b60e28659d","64ecad81b8f7e141b27cbb2d","null","null","<p style=""font-size: 60px; font-family: BACS"">JNkauZc</p>","","","","","","","","",""
"html-keyboard-response","64","221046","0.0-7.0-0.57","648b962b8fdb1fa686213ac1","64e77d7b61f440b60e28659d","64ecad81b8f7e141b27cbb2d","null","null","<p style=""font-size: 60px; font-family: BACS"">rvOvUZvkL</p>","","","","","","","","",""
"html-keyboard-response","65","222048","0.0-7.0-0.58","648b962b8fdb1fa686213ac1","64e77d7b61f440b60e28659d","64ecad81b8f7e141b27cbb2d","null","null","<p style=""font-size: 60px; font-family: BACS"">aYQmuZc</p>","","","","","","","","",""
"html-keyboard-response","66","223067","0.0-7.0-0.59","648b962b8fdb1fa686213ac1","64e77d7b61f440b60e28659d","64ecad81b8f7e141b27cbb2d","null","null","<p style=""font-size: 60px; font-family: BACS"">ckLALZvkL</p>","","","","","","","","",""
"html-keyboard-response","67","224070","0.0-7.0-0.60","648b962b8fdb1fa686213ac1","64e77d7b61f440b60e28659d","64ecad81b8f7e141b27cbb2d","null","null","<p style=""font-size: 60px; font-family: BACS"">AlTdBCD</p>","","","","","","","","",""
"html-keyboard-response","68","225073","0.0-7.0-0.61","648b962b8fdb1fa686213ac1","64e77d7b61f440b60e28659d","64ecad81b8f7e141b27cbb2d","null","null","<p style=""font-size: 60px; font-family: BACS"">dmZvmZAUu</p>","","","","","","","","",""
"html-keyboard-response","69","226074","0.0-7.0-0.62","648b962b8fdb1fa686213ac1","64e77d7b61f440b60e28659d","64ecad81b8f7e141b27cbb2d","null","null","<p style=""font-size: 60px; font-family: BACS"">KABABCAd</p>","","","","","","","","",""
"html-keyboard-response","70","227089","0.0-7.0-0.63","648b962b8fdb1fa686213ac1","64e77d7b61f440b60e28659d","64ecad81b8f7e141b27cbb2d","null","null","<p style=""font-size: 60px; font-family: BACS"">htmhCMAB</p>","","","","","","","","",""
"html-keyboard-response","71","228102","0.0-7.0-0.64","648b962b8fdb1fa686213ac1","64e77d7b61f440b60e28659d","64ecad81b8f7e141b27cbb2d","null","null","<p style=""font-size: 60px; font-family: BACS"">dmZvmJud</p>","","","","","","","","",""
"html-keyboard-response","72","229104","0.0-7.0-0.65","648b962b8fdb1fa686213ac1","64e77d7b61f440b60e28659d","64ecad81b8f7e141b27cbb2d","null","null","<p style=""font-size: 60px; font-family: BACS"">uvaUZvkL</p>","","","","","","","","",""
"html-keyboard-response","73","230109","0.0-7.0-0.66","648b962b8fdb1fa686213ac1","64e77d7b61f440b60e28659d","64ecad81b8f7e141b27cbb2d","null","null","<p style=""font-size: 60px; font-family: BACS"">KBKBEBCAd</p>","","","","","","","","",""
"html-keyboard-response","74","231132","0.0-7.0-0.67","648b962b8fdb1fa686213ac1","64e77d7b61f440b60e28659d","64ecad81b8f7e141b27cbb2d","null","null","<p style=""font-size: 60px; font-family: BACS"">AmQOYZAUu</p>","","","","","","","","",""
"html-keyboard-response","75","232134","0.0-7.0-0.68","648b962b8fdb1fa686213ac1","64e77d7b61f440b60e28659d","64ecad81b8f7e141b27cbb2d","null","null","<p style=""font-size: 60px; font-family: BACS"">hlkTBCAd</p>","","","","","","","","",""
"html-keyboard-response","76","233137","0.0-7.0-0.69","648b962b8fdb1fa686213ac1","64e77d7b61f440b60e28659d","64ecad81b8f7e141b27cbb2d","null","null","<p style=""font-size: 60px; font-family: BACS"">aYQmZvkL</p>","","","","","","","","",""
"html-keyboard-response","77","234139","0.0-7.0-0.70","648b962b8fdb1fa686213ac1","64e77d7b61f440b60e28659d","64ecad81b8f7e141b27cbb2d","null","null","<p style=""font-size: 60px; font-family: BACS"">TbKMEMAB</p>","","","","","","","","",""
"html-keyboard-response","78","235153","0.0-7.0-0.71","648b962b8fdb1fa686213ac1","64e77d7b61f440b60e28659d","64ecad81b8f7e141b27cbb2d","null","null","<p style=""font-size: 60px; font-family: BACS"">aYQmJud</p>","","","","","","","","",""
"html-keyboard-response","79","236172","0.0-7.0-0.72","648b962b8fdb1fa686213ac1","64e77d7b61f440b60e28659d","64ecad81b8f7e141b27cbb2d","null","null","<p style=""font-size: 60px; font-family: BACS"">OCmkBCD</p>","","","","","","","","",""
"html-keyboard-response","80","237180","0.0-7.0-0.73","648b962b8fdb1fa686213ac1","64e77d7b61f440b60e28659d","64ecad81b8f7e141b27cbb2d","null","null","<p style=""font-size: 60px; font-family: BACS"">uvaUZAUu</p>","","","","","","","","",""
"html-keyboard-response","81","238199","0.0-7.0-0.74","648b962b8fdb1fa686213ac1","64e77d7b61f440b60e28659d","64ecad81b8f7e141b27cbb2d","null","null","<p style=""font-size: 60px; font-family: BACS"">rvOvUuZc</p>","","","","","","","","",""
"html-keyboard-response","82","239202","0.0-7.0-0.75","648b962b8fdb1fa686213ac1","64e77d7b61f440b60e28659d","64ecad81b8f7e141b27cbb2d","null","null","<p style=""font-size: 60px; font-family: BACS"">AlUYJud</p>","","","","","","","","",""
"html-keyboard-response","83","240208","0.0-7.0-0.76","648b962b8fdb1fa686213ac1","64e77d7b61f440b60e28659d","64ecad81b8f7e141b27cbb2d","null","null","<p style=""font-size: 60px; font-family: BACS"">KABABRDh</p>","","","","","","","","",""
"html-keyboard-response","84","241229","0.0-7.0-0.77","648b962b8fdb1fa686213ac1","64e77d7b61f440b60e28659d","64ecad81b8f7e141b27cbb2d","null","null","<p style=""font-size: 60px; font-family: BACS"">dmZvmdYAJ</p>","","","","","","","","",""
"html-keyboard-response","85","242235","0.0-7.0-0.78","648b962b8fdb1fa686213ac1","64e77d7b61f440b60e28659d","64ecad81b8f7e141b27cbb2d","null","null","<p style=""font-size: 60px; font-family: BACS"">JNkaZvkL</p>","","","","","","","","",""
"html-keyboard-response","86","243255","0.0-7.0-0.79","648b962b8fdb1fa686213ac1","64e77d7b61f440b60e28659d","64ecad81b8f7e141b27cbb2d","null","null","<p style=""font-size: 60px; font-family: BACS"">KABAYDE</p>","","","","","","","","",""
"html-keyboard-response","87","256889","0.0-8.0","648b962b8fdb1fa686213ac1","64e77d7b61f440b60e28659d","64ecad81b8f7e141b27cbb2d","13633"," ","<p>Great, you've seen the first block of words. You may now take a short break.</p>
      <p>Press the spacebar when you're ready to continue.</p>","","","","","","","","",""
"html-keyboard-response","88","257911","0.0-9.0-0.0","648b962b8fdb1fa686213ac1","64e77d7b61f440b60e28659d","64ecad81b8f7e141b27cbb2d","null","null","<p style=""font-size: 60px; font-family: BACS"">TbKMEMAB</p>","","","","","","","","",""
"html-keyboard-response","89","258918","0.0-9.0-0.1","648b962b8fdb1fa686213ac1","64e77d7b61f440b60e28659d","64ecad81b8f7e141b27cbb2d","null","null","<p style=""font-size: 60px; font-family: BACS"">lKdbcYDE</p>","","","","","","","","",""
"html-keyboard-response","90","259938","0.0-9.0-0.2","648b962b8fdb1fa686213ac1","64e77d7b61f440b60e28659d","64ecad81b8f7e141b27cbb2d","null","null","<p style=""font-size: 60px; font-family: BACS"">hkRKBRDh</p>","","","","","","","","",""
"html-keyboard-response","91","260940","0.0-9.0-0.3","648b962b8fdb1fa686213ac1","64e77d7b61f440b60e28659d","64ecad81b8f7e141b27cbb2d","null","null","<p style=""font-size: 60px; font-family: BACS"">hlkTYDE</p>","","","","","","","","",""
"html-keyboard-response","92","261943","0.0-9.0-0.4","648b962b8fdb1fa686213ac1","64e77d7b61f440b60e28659d","64ecad81b8f7e141b27cbb2d","null","null","<p style=""font-size: 60px; font-family: BACS"">lBKtBCAd</p>","","","","","","","","",""
"html-keyboard-response","93","262945","0.0-9.0-0.5","648b962b8fdb1fa686213ac1","64e77d7b61f440b60e28659d","64ecad81b8f7e141b27cbb2d","null","null","<p style=""font-size: 60px; font-family: BACS"">aYQmJud</p>","","","","","","","","",""
"html-keyboard-response","94","263948","0.0-9.0-0.6","648b962b8fdb1fa686213ac1","64e77d7b61f440b60e28659d","64ecad81b8f7e141b27cbb2d","null","null","<p style=""font-size: 60px; font-family: BACS"">AlTdMAB</p>","","","","","","","","",""
"html-keyboard-response","95","264952","0.0-9.0-0.7","648b962b8fdb1fa686213ac1","64e77d7b61f440b60e28659d","64ecad81b8f7e141b27cbb2d","null","null","<p style=""font-size: 60px; font-family: BACS"">rvOvUuZc</p>","","","","","","","","",""
"html-keyboard-response","96","265953","0.0-9.0-0.8","648b962b8fdb1fa686213ac1","64e77d7b61f440b60e28659d","64ecad81b8f7e141b27cbb2d","null","null","<p style=""font-size: 60px; font-family: BACS"">AlTdBCD</p>","","","","","","","","",""
"html-keyboard-response","97","266956","0.0-9.0-0.9","648b962b8fdb1fa686213ac1","64e77d7b61f440b60e28659d","64ecad81b8f7e141b27cbb2d","null","null","<p style=""font-size: 60px; font-family: BACS"">KABABRDh</p>","","","","","","","","",""
"html-keyboard-response","98","267969","0.0-9.0-0.10","648b962b8fdb1fa686213ac1","64e77d7b61f440b60e28659d","64ecad81b8f7e141b27cbb2d","null","null","<p style=""font-size: 60px; font-family: BACS"">ZcGdNZAUu</p>","","","","","","","","",""
"html-keyboard-response","99","268982","0.0-9.0-0.11","648b962b8fdb1fa686213ac1","64e77d7b61f440b60e28659d","64ecad81b8f7e141b27cbb2d","null","null","<p style=""font-size: 60px; font-family: BACS"">TbKMEBRDh</p>","","","","","","","","",""
"html-keyboard-response","100","269990","0.0-9.0-0.12","648b962b8fdb1fa686213ac1","64e77d7b61f440b60e28659d","64ecad81b8f7e141b27cbb2d","null","null","<p style=""font-size: 60px; font-family: BACS"">hkRKBCD</p>","","","","","","","","",""
"html-keyboard-response","101","271010","0.0-9.0-0.13","648b962b8fdb1fa686213ac1","64e77d7b61f440b60e28659d","64ecad81b8f7e141b27cbb2d","null","null","<p style=""font-size: 60px; font-family: BACS"">AmQOYZAUu</p>","","","","","","","","",""
"html-keyboard-response","102","272012","0.0-9.0-0.14","648b962b8fdb1fa686213ac1","64e77d7b61f440b60e28659d","64ecad81b8f7e141b27cbb2d","null","null","<p style=""font-size: 60px; font-family: BACS"">hkRKBCAd</p>","","","","","","","","",""
"html-keyboard-response","103","273015","0.0-9.0-0.15","648b962b8fdb1fa686213ac1","64e77d7b61f440b60e28659d","64ecad81b8f7e141b27cbb2d","null","null","<p style=""font-size: 60px; font-family: BACS"">ckLALZAUu</p>","","","","","","","","",""
"html-keyboard-response","104","274017","0.0-9.0-0.16","648b962b8fdb1fa686213ac1","64e77d7b61f440b60e28659d","64ecad81b8f7e141b27cbb2d","null","null","<p style=""font-size: 60px; font-family: BACS"">JNkauZc</p>","","","","","","","","",""
"html-keyboard-response","105","275020","0.0-9.0-0.17","648b962b8fdb1fa686213ac1","64e77d7b61f440b60e28659d","64ecad81b8f7e141b27cbb2d","null","null","<p style=""font-size: 60px; font-family: BACS"">OYuvbJud</p>","","","","","","","","",""
"html-keyboard-response","106","276023","0.0-9.0-0.18","648b962b8fdb1fa686213ac1","64e77d7b61f440b60e28659d","64ecad81b8f7e141b27cbb2d","null","null","<p style=""font-size: 60px; font-family: BACS"">KBKBEMAB</p>","","","","","","","","",""
"html-keyboard-response","107","277029","0.0-9.0-0.19","648b962b8fdb1fa686213ac1","64e77d7b61f440b60e28659d","64ecad81b8f7e141b27cbb2d","null","null","<p style=""font-size: 60px; font-family: BACS"">htmhCBCD</p>","","","","","","","","",""
"html-keyboard-response","108","278049","0.0-9.0-0.20","648b962b8fdb1fa686213ac1","64e77d7b61f440b60e28659d","64ecad81b8f7e141b27cbb2d","null","null","<p style=""font-size: 60px; font-family: BACS"">ZcGdNdYAJ</p>","","","","","","","","",""
"html-keyboard-response","109","279052","0.0-9.0-0.21","648b962b8fdb1fa686213ac1","64e77d7b61f440b60e28659d","64ecad81b8f7e141b27cbb2d","null","null","<p style=""font-size: 60px; font-family: BACS"">AmQOYuZc</p>","","","","","","","","",""
"html-keyboard-response","110","280055","0.0-9.0-0.22","648b962b8fdb1fa686213ac1","64e77d7b61f440b60e28659d","64ecad81b8f7e141b27cbb2d","null","null","<p style=""font-size: 60px; font-family: BACS"">rvOvUZAUu</p>","","","","","","","","",""
"html-keyboard-response","111","281057","0.0-9.0-0.23","648b962b8fdb1fa686213ac1","64e77d7b61f440b60e28659d","64ecad81b8f7e141b27cbb2d","null","null","<p style=""font-size: 60px; font-family: BACS"">AlTdBRDh</p>","","","","","","","","",""
"html-keyboard-response","112","282060","0.0-9.0-0.24","648b962b8fdb1fa686213ac1","64e77d7b61f440b60e28659d","64ecad81b8f7e141b27cbb2d","null","null","<p style=""font-size: 60px; font-family: BACS"">ckLALJud</p>","","","","","","","","",""
"html-keyboard-response","113","283063","0.0-9.0-0.25","648b962b8fdb1fa686213ac1","64e77d7b61f440b60e28659d","64ecad81b8f7e141b27cbb2d","null","null","<p style=""font-size: 60px; font-family: BACS"">KBKBEBRDh</p>","","","","","","","","",""
"html-keyboard-response","114","284065","0.0-9.0-0.26","648b962b8fdb1fa686213ac1","64e77d7b61f440b60e28659d","64ecad81b8f7e141b27cbb2d","null","null","<p style=""font-size: 60px; font-family: BACS"">lBKtMAB</p>","","","","","","","","",""
"html-keyboard-response","115","285068","0.0-9.0-0.27","648b962b8fdb1fa686213ac1","64e77d7b61f440b60e28659d","64ecad81b8f7e141b27cbb2d","null","null","<p style=""font-size: 60px; font-family: BACS"">lKdbcBRDh</p>","","","","","","","","",""
"html-keyboard-response","116","286081","0.0-9.0-0.28","648b962b8fdb1fa686213ac1","64e77d7b61f440b60e28659d","64ecad81b8f7e141b27cbb2d","null","null","<p style=""font-size: 60px; font-family: BACS"">AlUYZvkL</p>","","","","","","","","",""
"html-keyboard-response","117","287085","0.0-9.0-0.29","648b962b8fdb1fa686213ac1","64e77d7b61f440b60e28659d","64ecad81b8f7e141b27cbb2d","null","null","<p style=""font-size: 60px; font-family: BACS"">htmhCBCAd</p>","","","","","","","","",""
"html-keyboard-response","118","288097","0.0-9.0-0.30","648b962b8fdb1fa686213ac1","64e77d7b61f440b60e28659d","64ecad81b8f7e141b27cbb2d","null","null","<p style=""font-size: 60px; font-family: BACS"">dmZvmJud</p>","","","","","","","","",""
"html-keyboard-response","119","289099","0.0-9.0-0.31","648b962b8fdb1fa686213ac1","64e77d7b61f440b60e28659d","64ecad81b8f7e141b27cbb2d","null","null","<p style=""font-size: 60px; font-family: BACS"">uvaUZvkL</p>","","","","","","","","",""
"html-keyboard-response","120","290102","0.0-9.0-0.32","648b962b8fdb1fa686213ac1","64e77d7b61f440b60e28659d","64ecad81b8f7e141b27cbb2d","null","null","<p style=""font-size: 60px; font-family: BACS"">lKdbcMAB</p>","","","","","","","","",""
"html-keyboard-response","121","291106","0.0-9.0-0.33","648b962b8fdb1fa686213ac1","64e77d7b61f440b60e28659d","64ecad81b8f7e141b27cbb2d","null","null","<p style=""font-size: 60px; font-family: BACS"">lBKtBRDh</p>","","","","","","","","",""
"html-keyboard-response","122","292108","0.0-9.0-0.34","648b962b8fdb1fa686213ac1","64e77d7b61f440b60e28659d","64ecad81b8f7e141b27cbb2d","null","null","<p style=""font-size: 60px; font-family: BACS"">lKdbcBCD</p>","","","","","","","","",""
"html-keyboard-response","123","293111","0.0-9.0-0.35","648b962b8fdb1fa686213ac1","64e77d7b61f440b60e28659d","64ecad81b8f7e141b27cbb2d","null","null","<p style=""font-size: 60px; font-family: BACS"">rvOvUZvkL</p>","","","","","","","","",""
"html-keyboard-response","124","294114","0.0-9.0-0.36","648b962b8fdb1fa686213ac1","64e77d7b61f440b60e28659d","64ecad81b8f7e141b27cbb2d","null","null","<p style=""font-size: 60px; font-family: BACS"">aYQmdYAJ</p>","","","","","","","","",""
"html-keyboard-response","125","295117","0.0-9.0-0.37","648b962b8fdb1fa686213ac1","64e77d7b61f440b60e28659d","64ecad81b8f7e141b27cbb2d","null","null","<p style=""font-size: 60px; font-family: BACS"">dmZvmZAUu</p>","","","","","","","","",""
"html-keyboard-response","126","296118","0.0-9.0-0.38","648b962b8fdb1fa686213ac1","64e77d7b61f440b60e28659d","64ecad81b8f7e141b27cbb2d","null","null","<p style=""font-size: 60px; font-family: BACS"">OCmkMAB</p>","","","","","","","","",""
"html-keyboard-response","127","297122","0.0-9.0-0.39","648b962b8fdb1fa686213ac1","64e77d7b61f440b60e28659d","64ecad81b8f7e141b27cbb2d","null","null","<p style=""font-size: 60px; font-family: BACS"">htmhCYDE</p>","","","","","","","","",""
"html-keyboard-response","128","298126","0.0-9.0-0.40","648b962b8fdb1fa686213ac1","64e77d7b61f440b60e28659d","64ecad81b8f7e141b27cbb2d","null","null","<p style=""font-size: 60px; font-family: BACS"">AlUYJud</p>","","","","","","","","",""
"html-keyboard-response","129","299132","0.0-9.0-0.41","648b962b8fdb1fa686213ac1","64e77d7b61f440b60e28659d","64ecad81b8f7e141b27cbb2d","null","null","<p style=""font-size: 60px; font-family: BACS"">aYQmuZc</p>","","","","","","","","",""
"html-keyboard-response","130","300151","0.0-9.0-0.42","648b962b8fdb1fa686213ac1","64e77d7b61f440b60e28659d","64ecad81b8f7e141b27cbb2d","null","null","<p style=""font-size: 60px; font-family: BACS"">JNkaZAUu</p>","","","","","","","","",""
"html-keyboard-response","131","301154","0.0-9.0-0.43","648b962b8fdb1fa686213ac1","64e77d7b61f440b60e28659d","64ecad81b8f7e141b27cbb2d","null","null","<p style=""font-size: 60px; font-family: BACS"">OCmkYDE</p>","","","","","","","","",""
"html-keyboard-response","132","302156","0.0-9.0-0.44","648b962b8fdb1fa686213ac1","64e77d7b61f440b60e28659d","64ecad81b8f7e141b27cbb2d","null","null","<p style=""font-size: 60px; font-family: BACS"">uvaUdYAJ</p>","","","","","","","","",""
"html-keyboard-response","133","303159","0.0-9.0-0.45","648b962b8fdb1fa686213ac1","64e77d7b61f440b60e28659d","64ecad81b8f7e141b27cbb2d","null","null","<p style=""font-size: 60px; font-family: BACS"">ZcGdNuZc</p>","","","","","","","","",""
"html-keyboard-response","134","304162","0.0-9.0-0.46","648b962b8fdb1fa686213ac1","64e77d7b61f440b60e28659d","64ecad81b8f7e141b27cbb2d","null","null","<p style=""font-size: 60px; font-family: BACS"">TbKMEYDE</p>","","","","","","","","",""
"html-keyboard-response","135","305164","0.0-9.0-0.47","648b962b8fdb1fa686213ac1","64e77d7b61f440b60e28659d","64ecad81b8f7e141b27cbb2d","null","null","<p style=""font-size: 60px; font-family: BACS"">uvaUZAUu</p>","","","","","","","","",""
"html-keyboard-response","136","306167","0.0-9.0-0.48","648b962b8fdb1fa686213ac1","64e77d7b61f440b60e28659d","64ecad81b8f7e141b27cbb2d","null","null","<p style=""font-size: 60px; font-family: BACS"">OYuvbuZc</p>","","","","","","","","",""
"html-keyboard-response","137","307170","0.0-9.0-0.49","648b962b8fdb1fa686213ac1","64e77d7b61f440b60e28659d","64ecad81b8f7e141b27cbb2d","null","null","<p style=""font-size: 60px; font-family: BACS"">AmQOYZvkL</p>","","","","","","","","",""
"html-keyboard-response","138","308173","0.0-9.0-0.50","648b962b8fdb1fa686213ac1","64e77d7b61f440b60e28659d","64ecad81b8f7e141b27cbb2d","null","null","<p style=""font-size: 60px; font-family: BACS"">AlTdYDE</p>","","","","","","","","",""
"html-keyboard-response","139","309176","0.0-9.0-0.51","648b962b8fdb1fa686213ac1","64e77d7b61f440b60e28659d","64ecad81b8f7e141b27cbb2d","null","null","<p style=""font-size: 60px; font-family: BACS"">TbKMEBCAd</p>","","","","","","","","",""
"html-keyboard-response","140","310177","0.0-9.0-0.52","648b962b8fdb1fa686213ac1","64e77d7b61f440b60e28659d","64ecad81b8f7e141b27cbb2d","null","null","<p style=""font-size: 60px; font-family: BACS"">JNkaZvkL</p>","","","","","","","","",""
"html-keyboard-response","141","311180","0.0-9.0-0.53","648b962b8fdb1fa686213ac1","64e77d7b61f440b60e28659d","64ecad81b8f7e141b27cbb2d","null","null","<p style=""font-size: 60px; font-family: BACS"">hlkTBCD</p>","","","","","","","","",""
"html-keyboard-response","142","312183","0.0-9.0-0.54","648b962b8fdb1fa686213ac1","64e77d7b61f440b60e28659d","64ecad81b8f7e141b27cbb2d","null","null","<p style=""font-size: 60px; font-family: BACS"">JNkaJud</p>","","","","","","","","",""
"html-keyboard-response","143","313186","0.0-9.0-0.55","648b962b8fdb1fa686213ac1","64e77d7b61f440b60e28659d","64ecad81b8f7e141b27cbb2d","null","null","<p style=""font-size: 60px; font-family: BACS"">hkRKMAB</p>","","","","","","","","",""
"html-keyboard-response","144","314200","0.0-9.0-0.56","648b962b8fdb1fa686213ac1","64e77d7b61f440b60e28659d","64ecad81b8f7e141b27cbb2d","null","null","<p style=""font-size: 60px; font-family: BACS"">uvaUJud</p>","","","","","","","","",""
"html-keyboard-response","145","315210","0.0-9.0-0.57","648b962b8fdb1fa686213ac1","64e77d7b61f440b60e28659d","64ecad81b8f7e141b27cbb2d","null","null","<p style=""font-size: 60px; font-family: BACS"">KABABCAd</p>","","","","","","","","",""
"html-keyboard-response","146","316219","0.0-9.0-0.58","648b962b8fdb1fa686213ac1","64e77d7b61f440b60e28659d","64ecad81b8f7e141b27cbb2d","null","null","<p style=""font-size: 60px; font-family: BACS"">ckLALuZc</p>","","","","","","","","",""
"html-keyboard-response","147","317232","0.0-9.0-0.59","648b962b8fdb1fa686213ac1","64e77d7b61f440b60e28659d","64ecad81b8f7e141b27cbb2d","null","null","<p style=""font-size: 60px; font-family: BACS"">htmhCMAB</p>","","","","","","","","",""
"html-keyboard-response","148","318247","0.0-9.0-0.60","648b962b8fdb1fa686213ac1","64e77d7b61f440b60e28659d","64ecad81b8f7e141b27cbb2d","null","null","<p style=""font-size: 60px; font-family: BACS"">lBKtBCD</p>","","","","","","","","",""
"html-keyboard-response","149","319264","0.0-9.0-0.61","648b962b8fdb1fa686213ac1","64e77d7b61f440b60e28659d","64ecad81b8f7e141b27cbb2d","null","null","<p style=""font-size: 60px; font-family: BACS"">AmQOYdYAJ</p>","","","","","","","","",""
"html-keyboard-response","150","320278","0.0-9.0-0.62","648b962b8fdb1fa686213ac1","64e77d7b61f440b60e28659d","64ecad81b8f7e141b27cbb2d","null","null","<p style=""font-size: 60px; font-family: BACS"">ckLALZvkL</p>","","","","","","","","",""
"html-keyboard-response","151","321281","0.0-9.0-0.63","648b962b8fdb1fa686213ac1","64e77d7b61f440b60e28659d","64ecad81b8f7e141b27cbb2d","null","null","<p style=""font-size: 60px; font-family: BACS"">dmZvmdYAJ</p>","","","","","","","","",""
"html-keyboard-response","152","322294","0.0-9.0-0.64","648b962b8fdb1fa686213ac1","64e77d7b61f440b60e28659d","64ecad81b8f7e141b27cbb2d","null","null","<p style=""font-size: 60px; font-family: BACS"">KBKBEBCAd</p>","","","","","","","","",""
"html-keyboard-response","153","323308","0.0-9.0-0.65","648b962b8fdb1fa686213ac1","64e77d7b61f440b60e28659d","64ecad81b8f7e141b27cbb2d","null","null","<p style=""font-size: 60px; font-family: BACS"">KABABCD</p>","","","","","","","","",""
"html-keyboard-response","154","324310","0.0-9.0-0.66","648b962b8fdb1fa686213ac1","64e77d7b61f440b60e28659d","64ecad81b8f7e141b27cbb2d","null","null","<p style=""font-size: 60px; font-family: BACS"">rvOvUdYAJ</p>","","","","","","","","",""
"html-keyboard-response","155","325313","0.0-9.0-0.67","648b962b8fdb1fa686213ac1","64e77d7b61f440b60e28659d","64ecad81b8f7e141b27cbb2d","null","null","<p style=""font-size: 60px; font-family: BACS"">AlUYZAUu</p>","","","","","","","","",""
"html-keyboard-response","156","326315","0.0-9.0-0.68","648b962b8fdb1fa686213ac1","64e77d7b61f440b60e28659d","64ecad81b8f7e141b27cbb2d","null","null","<p style=""font-size: 60px; font-family: BACS"">KBKBEYDE</p>","","","","","","","","",""
"html-keyboard-response","157","327317","0.0-9.0-0.69","648b962b8fdb1fa686213ac1","64e77d7b61f440b60e28659d","64ecad81b8f7e141b27cbb2d","null","null","<p style=""font-size: 60px; font-family: BACS"">OCmkBCAd</p>","","","","","","","","",""
"html-keyboard-response","158","328321","0.0-9.0-0.70","648b962b8fdb1fa686213ac1","64e77d7b61f440b60e28659d","64ecad81b8f7e141b27cbb2d","null","null","<p style=""font-size: 60px; font-family: BACS"">aYQmZvkL</p>","","","","","","","","",""
"html-keyboard-response","159","329335","0.0-9.0-0.71","648b962b8fdb1fa686213ac1","64e77d7b61f440b60e28659d","64ecad81b8f7e141b27cbb2d","null","null","<p style=""font-size: 60px; font-family: BACS"">KABAYDE</p>","","","","","","","","",""
"html-keyboard-response","160","330348","0.0-9.0-0.72","648b962b8fdb1fa686213ac1","64e77d7b61f440b60e28659d","64ecad81b8f7e141b27cbb2d","null","null","<p style=""font-size: 60px; font-family: BACS"">dmZvmuZc</p>","","","","","","","","",""
"html-keyboard-response","161","331351","0.0-9.0-0.73","648b962b8fdb1fa686213ac1","64e77d7b61f440b60e28659d","64ecad81b8f7e141b27cbb2d","null","null","<p style=""font-size: 60px; font-family: BACS"">OYuvbZvkL</p>","","","","","","","","",""
"html-keyboard-response","162","332353","0.0-9.0-0.74","648b962b8fdb1fa686213ac1","64e77d7b61f440b60e28659d","64ecad81b8f7e141b27cbb2d","null","null","<p style=""font-size: 60px; font-family: BACS"">ZcGdNJud</p>","","","","","","","","",""
"html-keyboard-response","163","333356","0.0-9.0-0.75","648b962b8fdb1fa686213ac1","64e77d7b61f440b60e28659d","64ecad81b8f7e141b27cbb2d","null","null","<p style=""font-size: 60px; font-family: BACS"">hlkTBRDh</p>","","","","","","","","",""
"html-keyboard-response","164","334369","0.0-9.0-0.76","648b962b8fdb1fa686213ac1","64e77d7b61f440b60e28659d","64ecad81b8f7e141b27cbb2d","null","null","<p style=""font-size: 60px; font-family: BACS"">OYuvbdYAJ</p>","","","","","","","","",""
"html-keyboard-response","165","335383","0.0-9.0-0.77","648b962b8fdb1fa686213ac1","64e77d7b61f440b60e28659d","64ecad81b8f7e141b27cbb2d","null","null","<p style=""font-size: 60px; font-family: BACS"">hlkTBCAd</p>","","","","","","","","",""
"html-keyboard-response","166","336385","0.0-9.0-0.78","648b962b8fdb1fa686213ac1","64e77d7b61f440b60e28659d","64ecad81b8f7e141b27cbb2d","null","null","<p style=""font-size: 60px; font-family: BACS"">OCmkBCD</p>","","","","","","","","",""
"html-keyboard-response","167","337398","0.0-9.0-0.79","648b962b8fdb1fa686213ac1","64e77d7b61f440b60e28659d","64ecad81b8f7e141b27cbb2d","null","null","<p style=""font-size: 60px; font-family: BACS"">AlUYdYAJ</p>","","","","","","","","",""
"html-keyboard-response","168","344418","0.0-10.0","648b962b8fdb1fa686213ac1","64e77d7b61f440b60e28659d","64ecad81b8f7e141b27cbb2d","7019"," ","<p>Great, you've seen the second block of words. You may now take a short break.</p>
      <p>Press the spacebar when you're ready to continue.</p>","","","","","","","","",""
"html-keyboard-response","169","345430","0.0-11.0-0.0","648b962b8fdb1fa686213ac1","64e77d7b61f440b60e28659d","64ecad81b8f7e141b27cbb2d","null","null","<p style=""font-size: 60px; font-family: BACS"">KBKBEMAB</p>","","","","","","","","",""
"html-keyboard-response","170","346433","0.0-11.0-0.1","648b962b8fdb1fa686213ac1","64e77d7b61f440b60e28659d","64ecad81b8f7e141b27cbb2d","null","null","<p style=""font-size: 60px; font-family: BACS"">ckLALZAUu</p>","","","","","","","","",""
"html-keyboard-response","171","347436","0.0-11.0-0.2","648b962b8fdb1fa686213ac1","64e77d7b61f440b60e28659d","64ecad81b8f7e141b27cbb2d","null","null","<p style=""font-size: 60px; font-family: BACS"">uvaUdYAJ</p>","","","","","","","","",""
"html-keyboard-response","172","348443","0.0-11.0-0.3","648b962b8fdb1fa686213ac1","64e77d7b61f440b60e28659d","64ecad81b8f7e141b27cbb2d","null","null","<p style=""font-size: 60px; font-family: BACS"">lKdbcBCD</p>","","","","","","","","",""
"html-keyboard-response","173","349452","0.0-11.0-0.4","648b962b8fdb1fa686213ac1","64e77d7b61f440b60e28659d","64ecad81b8f7e141b27cbb2d","null","null","<p style=""font-size: 60px; font-family: BACS"">AmQOYdYAJ</p>","","","","","","","","",""
"html-keyboard-response","174","350465","0.0-11.0-0.5","648b962b8fdb1fa686213ac1","64e77d7b61f440b60e28659d","64ecad81b8f7e141b27cbb2d","null","null","<p style=""font-size: 60px; font-family: BACS"">rvOvUZvkL</p>","","","","","","","","",""
"html-keyboard-response","175","351468","0.0-11.0-0.6","648b962b8fdb1fa686213ac1","64e77d7b61f440b60e28659d","64ecad81b8f7e141b27cbb2d","null","null","<p style=""font-size: 60px; font-family: BACS"">ZcGdNdYAJ</p>","","","","","","","","",""
"html-keyboard-response","176","352471","0.0-11.0-0.7","648b962b8fdb1fa686213ac1","64e77d7b61f440b60e28659d","64ecad81b8f7e141b27cbb2d","null","null","<p style=""font-size: 60px; font-family: BACS"">lBKtBRDh</p>","","","","","","","","",""
"html-keyboard-response","177","353473","0.0-11.0-0.8","648b962b8fdb1fa686213ac1","64e77d7b61f440b60e28659d","64ecad81b8f7e141b27cbb2d","null","null","<p style=""font-size: 60px; font-family: BACS"">ckLALJud</p>","","","","","","","","",""
"html-keyboard-response","178","354476","0.0-11.0-0.9","648b962b8fdb1fa686213ac1","64e77d7b61f440b60e28659d","64ecad81b8f7e141b27cbb2d","null","null","<p style=""font-size: 60px; font-family: BACS"">hlkTBRDh</p>","","","","","","","","",""
"html-keyboard-response","179","355489","0.0-11.0-0.10","648b962b8fdb1fa686213ac1","64e77d7b61f440b60e28659d","64ecad81b8f7e141b27cbb2d","null","null","<p style=""font-size: 60px; font-family: BACS"">ckLALZvkL</p>","","","","","","","","",""
"html-keyboard-response","180","356502","0.0-11.0-0.11","648b962b8fdb1fa686213ac1","64e77d7b61f440b60e28659d","64ecad81b8f7e141b27cbb2d","null","null","<p style=""font-size: 60px; font-family: BACS"">lBKtMAB</p>","","","","","","","","",""
"html-keyboard-response","181","357504","0.0-11.0-0.12","648b962b8fdb1fa686213ac1","64e77d7b61f440b60e28659d","64ecad81b8f7e141b27cbb2d","null","null","<p style=""font-size: 60px; font-family: BACS"">aYQmJud</p>","","","","","","","","",""
"html-keyboard-response","182","358517","0.0-11.0-0.13","648b962b8fdb1fa686213ac1","64e77d7b61f440b60e28659d","64ecad81b8f7e141b27cbb2d","null","null","<p style=""font-size: 60px; font-family: BACS"">JNkaZvkL</p>","","","","","","","","",""
"html-keyboard-response","183","359531","0.0-11.0-0.14","648b962b8fdb1fa686213ac1","64e77d7b61f440b60e28659d","64ecad81b8f7e141b27cbb2d","null","null","<p style=""font-size: 60px; font-family: BACS"">htmhCMAB</p>","","","","","","","","",""
"html-keyboard-response","184","360532","0.0-11.0-0.15","648b962b8fdb1fa686213ac1","64e77d7b61f440b60e28659d","64ecad81b8f7e141b27cbb2d","null","null","<p style=""font-size: 60px; font-family: BACS"">OYuvbdYAJ</p>","","","","","","","","",""
"html-keyboard-response","185","361548","0.0-11.0-0.16","648b962b8fdb1fa686213ac1","64e77d7b61f440b60e28659d","64ecad81b8f7e141b27cbb2d","null","null","<p style=""font-size: 60px; font-family: BACS"">OCmkBCD</p>","","","","","","","","",""
"html-keyboard-response","186","362561","0.0-11.0-0.17","648b962b8fdb1fa686213ac1","64e77d7b61f440b60e28659d","64ecad81b8f7e141b27cbb2d","null","null","<p style=""font-size: 60px; font-family: BACS"">KABABRDh</p>","","","","","","","","",""
"html-keyboard-response","187","363564","0.0-11.0-0.18","648b962b8fdb1fa686213ac1","64e77d7b61f440b60e28659d","64ecad81b8f7e141b27cbb2d","null","null","<p style=""font-size: 60px; font-family: BACS"">uvaUJud</p>","","","","","","","","",""
"html-keyboard-response","188","364566","0.0-11.0-0.19","648b962b8fdb1fa686213ac1","64e77d7b61f440b60e28659d","64ecad81b8f7e141b27cbb2d","null","null","<p style=""font-size: 60px; font-family: BACS"">hlkTYDE</p>","","","","","","","","",""
"html-keyboard-response","189","365569","0.0-11.0-0.20","648b962b8fdb1fa686213ac1","64e77d7b61f440b60e28659d","64ecad81b8f7e141b27cbb2d","null","null","<p style=""font-size: 60px; font-family: BACS"">KABABCD</p>","","","","","","","","",""
"html-keyboard-response","190","366571","0.0-11.0-0.21","648b962b8fdb1fa686213ac1","64e77d7b61f440b60e28659d","64ecad81b8f7e141b27cbb2d","null","null","<p style=""font-size: 60px; font-family: BACS"">aYQmuZc</p>","","","","","","","","",""
"html-keyboard-response","191","367574","0.0-11.0-0.22","648b962b8fdb1fa686213ac1","64e77d7b61f440b60e28659d","64ecad81b8f7e141b27cbb2d","null","null","<p style=""font-size: 60px; font-family: BACS"">AlTdMAB</p>","","","","","","","","",""
"html-keyboard-response","192","368577","0.0-11.0-0.23","648b962b8fdb1fa686213ac1","64e77d7b61f440b60e28659d","64ecad81b8f7e141b27cbb2d","null","null","<p style=""font-size: 60px; font-family: BACS"">htmhCBCD</p>","","","","","","","","",""
"html-keyboard-response","193","369590","0.0-11.0-0.24","648b962b8fdb1fa686213ac1","64e77d7b61f440b60e28659d","64ecad81b8f7e141b27cbb2d","null","null","<p style=""font-size: 60px; font-family: BACS"">dmZvmuZc</p>","","","","","","","","",""
"html-keyboard-response","194","370593","0.0-11.0-0.25","648b962b8fdb1fa686213ac1","64e77d7b61f440b60e28659d","64ecad81b8f7e141b27cbb2d","null","null","<p style=""font-size: 60px; font-family: BACS"">hkRKMAB</p>","","","","","","","","",""
"html-keyboard-response","195","371606","0.0-11.0-0.26","648b962b8fdb1fa686213ac1","64e77d7b61f440b60e28659d","64ecad81b8f7e141b27cbb2d","null","null","<p style=""font-size: 60px; font-family: BACS"">AlUYdYAJ</p>","","","","","","","","",""
"html-keyboard-response","196","372609","0.0-11.0-0.27","648b962b8fdb1fa686213ac1","64e77d7b61f440b60e28659d","64ecad81b8f7e141b27cbb2d","null","null","<p style=""font-size: 60px; font-family: BACS"">ZcGdNZAUu</p>","","","","","","","","",""
"html-keyboard-response","197","373612","0.0-11.0-0.28","648b962b8fdb1fa686213ac1","64e77d7b61f440b60e28659d","64ecad81b8f7e141b27cbb2d","null","null","<p style=""font-size: 60px; font-family: BACS"">lKdbcBRDh</p>","","","","","","","","",""
"html-keyboard-response","198","374614","0.0-11.0-0.29","648b962b8fdb1fa686213ac1","64e77d7b61f440b60e28659d","64ecad81b8f7e141b27cbb2d","null","null","<p style=""font-size: 60px; font-family: BACS"">TbKMEMAB</p>","","","","","","","","",""
"html-keyboard-response","199","375617","0.0-11.0-0.30","648b962b8fdb1fa686213ac1","64e77d7b61f440b60e28659d","64ecad81b8f7e141b27cbb2d","null","null","<p style=""font-size: 60px; font-family: BACS"">aYQmdYAJ</p>","","","","","","","","",""
"html-keyboard-response","200","376619","0.0-11.0-0.31","648b962b8fdb1fa686213ac1","64e77d7b61f440b60e28659d","64ecad81b8f7e141b27cbb2d","null","null","<p style=""font-size: 60px; font-family: BACS"">lBKtBCAd</p>","","","","","","","","",""
"html-keyboard-response","201","377623","0.0-11.0-0.32","648b962b8fdb1fa686213ac1","64e77d7b61f440b60e28659d","64ecad81b8f7e141b27cbb2d","null","null","<p style=""font-size: 60px; font-family: BACS"">KABAYDE</p>","","","","","","","","",""
"html-keyboard-response","202","378635","0.0-11.0-0.33","648b962b8fdb1fa686213ac1","64e77d7b61f440b60e28659d","64ecad81b8f7e141b27cbb2d","null","null","<p style=""font-size: 60px; font-family: BACS"">AmQOYZvkL</p>","","","","","","","","",""
"html-keyboard-response","203","379649","0.0-11.0-0.34","648b962b8fdb1fa686213ac1","64e77d7b61f440b60e28659d","64ecad81b8f7e141b27cbb2d","null","null","<p style=""font-size: 60px; font-family: BACS"">JNkaJud</p>","","","","","","","","",""
"html-keyboard-response","204","380652","0.0-11.0-0.35","648b962b8fdb1fa686213ac1","64e77d7b61f440b60e28659d","64ecad81b8f7e141b27cbb2d","null","null","<p style=""font-size: 60px; font-family: BACS"">KBKBEYDE</p>","","","","","","","","",""
"html-keyboard-response","205","381665","0.0-11.0-0.36","648b962b8fdb1fa686213ac1","64e77d7b61f440b60e28659d","64ecad81b8f7e141b27cbb2d","null","null","<p style=""font-size: 60px; font-family: BACS"">dmZvmZAUu</p>","","","","","","","","",""
"html-keyboard-response","206","382678","0.0-11.0-0.37","648b962b8fdb1fa686213ac1","64e77d7b61f440b60e28659d","64ecad81b8f7e141b27cbb2d","null","null","<p style=""font-size: 60px; font-family: BACS"">rvOvUdYAJ</p>","","","","","","","","",""
"html-keyboard-response","207","383681","0.0-11.0-0.38","648b962b8fdb1fa686213ac1","64e77d7b61f440b60e28659d","64ecad81b8f7e141b27cbb2d","null","null","<p style=""font-size: 60px; font-family: BACS"">KBKBEBRDh</p>","","","","","","","","",""
"html-keyboard-response","208","384684","0.0-11.0-0.39","648b962b8fdb1fa686213ac1","64e77d7b61f440b60e28659d","64ecad81b8f7e141b27cbb2d","null","null","<p style=""font-size: 60px; font-family: BACS"">hlkTBCAd</p>","","","","","","","","",""
"html-keyboard-response","209","385697","0.0-11.0-0.40","648b962b8fdb1fa686213ac1","64e77d7b61f440b60e28659d","64ecad81b8f7e141b27cbb2d","null","null","<p style=""font-size: 60px; font-family: BACS"">OYuvbuZc</p>","","","","","","","","",""
"html-keyboard-response","210","386700","0.0-11.0-0.41","648b962b8fdb1fa686213ac1","64e77d7b61f440b60e28659d","64ecad81b8f7e141b27cbb2d","null","null","<p style=""font-size: 60px; font-family: BACS"">hkRKBCAd</p>","","","","","","","","",""
"html-keyboard-response","211","387702","0.0-11.0-0.42","648b962b8fdb1fa686213ac1","64e77d7b61f440b60e28659d","64ecad81b8f7e141b27cbb2d","null","null","<p style=""font-size: 60px; font-family: BACS"">uvaUZAUu</p>","","","","","","","","",""
"html-keyboard-response","212","388715","0.0-11.0-0.43","648b962b8fdb1fa686213ac1","64e77d7b61f440b60e28659d","64ecad81b8f7e141b27cbb2d","null","null","<p style=""font-size: 60px; font-family: BACS"">ZcGdNuZc</p>","","","","","","","","",""
"html-keyboard-response","213","389718","0.0-11.0-0.44","648b962b8fdb1fa686213ac1","64e77d7b61f440b60e28659d","64ecad81b8f7e141b27cbb2d","null","null","<p style=""font-size: 60px; font-family: BACS"">AlUYZvkL</p>","","","","","","","","",""
"html-keyboard-response","214","390721","0.0-11.0-0.45","648b962b8fdb1fa686213ac1","64e77d7b61f440b60e28659d","64ecad81b8f7e141b27cbb2d","null","null","<p style=""font-size: 60px; font-family: BACS"">hlkTBCD</p>","","","","","","","","",""
"html-keyboard-response","215","391724","0.0-11.0-0.46","648b962b8fdb1fa686213ac1","64e77d7b61f440b60e28659d","64ecad81b8f7e141b27cbb2d","null","null","<p style=""font-size: 60px; font-family: BACS"">OCmkYDE</p>","","","","","","","","",""
"html-keyboard-response","216","392726","0.0-11.0-0.47","648b962b8fdb1fa686213ac1","64e77d7b61f440b60e28659d","64ecad81b8f7e141b27cbb2d","null","null","<p style=""font-size: 60px; font-family: BACS"">dmZvmJud</p>","","","","","","","","",""
"html-keyboard-response","217","393734","0.0-11.0-0.48","648b962b8fdb1fa686213ac1","64e77d7b61f440b60e28659d","64ecad81b8f7e141b27cbb2d","null","null","<p style=""font-size: 60px; font-family: BACS"">rvOvUZAUu</p>","","","","","","","","",""
"html-keyboard-response","218","394753","0.0-11.0-0.49","648b962b8fdb1fa686213ac1","64e77d7b61f440b60e28659d","64ecad81b8f7e141b27cbb2d","null","null","<p style=""font-size: 60px; font-family: BACS"">htmhCBCAd</p>","","","","","","","","",""
"html-keyboard-response","219","395755","0.0-11.0-0.50","648b962b8fdb1fa686213ac1","64e77d7b61f440b60e28659d","64ecad81b8f7e141b27cbb2d","null","null","<p style=""font-size: 60px; font-family: BACS"">JNkaZAUu</p>","","","","","","","","",""
"html-keyboard-response","220","396769","0.0-11.0-0.51","648b962b8fdb1fa686213ac1","64e77d7b61f440b60e28659d","64ecad81b8f7e141b27cbb2d","null","null","<p style=""font-size: 60px; font-family: BACS"">ZcGdNJud</p>","","","","","","","","",""
"html-keyboard-response","221","397782","0.0-11.0-0.52","648b962b8fdb1fa686213ac1","64e77d7b61f440b60e28659d","64ecad81b8f7e141b27cbb2d","null","null","<p style=""font-size: 60px; font-family: BACS"">hkRKBCD</p>","","","","","","","","",""
"html-keyboard-response","222","398785","0.0-11.0-0.53","648b962b8fdb1fa686213ac1","64e77d7b61f440b60e28659d","64ecad81b8f7e141b27cbb2d","null","null","<p style=""font-size: 60px; font-family: BACS"">JNkauZc</p>","","","","","","","","",""
"html-keyboard-response","223","399787","0.0-11.0-0.54","648b962b8fdb1fa686213ac1","64e77d7b61f440b60e28659d","64ecad81b8f7e141b27cbb2d","null","null","<p style=""font-size: 60px; font-family: BACS"">AmQOYZAUu</p>","","","","","","","","",""
"html-keyboard-response","224","400801","0.0-11.0-0.55","648b962b8fdb1fa686213ac1","64e77d7b61f440b60e28659d","64ecad81b8f7e141b27cbb2d","null","null","<p style=""font-size: 60px; font-family: BACS"">OCmkBCAd</p>","","","","","","","","",""
"html-keyboard-response","225","401803","0.0-11.0-0.56","648b962b8fdb1fa686213ac1","64e77d7b61f440b60e28659d","64ecad81b8f7e141b27cbb2d","null","null","<p style=""font-size: 60px; font-family: BACS"">dmZvmdYAJ</p>","","","","","","","","",""
"html-keyboard-response","226","402817","0.0-11.0-0.57","648b962b8fdb1fa686213ac1","64e77d7b61f440b60e28659d","64ecad81b8f7e141b27cbb2d","null","null","<p style=""font-size: 60px; font-family: BACS"">ckLALuZc</p>","","","","","","","","",""
"html-keyboard-response","227","403819","0.0-11.0-0.58","648b962b8fdb1fa686213ac1","64e77d7b61f440b60e28659d","64ecad81b8f7e141b27cbb2d","null","null","<p style=""font-size: 60px; font-family: BACS"">AlTdYDE</p>","","","","","","","","",""
"html-keyboard-response","228","404822","0.0-11.0-0.59","648b962b8fdb1fa686213ac1","64e77d7b61f440b60e28659d","64ecad81b8f7e141b27cbb2d","null","null","<p style=""font-size: 60px; font-family: BACS"">uvaUZvkL</p>","","","","","","","","",""
"html-keyboard-response","229","405836","0.0-11.0-0.60","648b962b8fdb1fa686213ac1","64e77d7b61f440b60e28659d","64ecad81b8f7e141b27cbb2d","null","null","<p style=""font-size: 60px; font-family: BACS"">OCmkMAB</p>","","","","","","","","",""
"html-keyboard-response","230","406849","0.0-11.0-0.61","648b962b8fdb1fa686213ac1","64e77d7b61f440b60e28659d","64ecad81b8f7e141b27cbb2d","null","null","<p style=""font-size: 60px; font-family: BACS"">AlUYJud</p>","","","","","","","","",""
"html-keyboard-response","231","407851","0.0-11.0-0.62","648b962b8fdb1fa686213ac1","64e77d7b61f440b60e28659d","64ecad81b8f7e141b27cbb2d","null","null","<p style=""font-size: 60px; font-family: BACS"">KBKBEBCAd</p>","","","","","","","","",""
"html-keyboard-response","232","408865","0.0-11.0-0.63","648b962b8fdb1fa686213ac1","64e77d7b61f440b60e28659d","64ecad81b8f7e141b27cbb2d","null","null","<p style=""font-size: 60px; font-family: BACS"">OYuvbJud</p>","","","","","","","","",""
"html-keyboard-response","233","409867","0.0-11.0-0.64","648b962b8fdb1fa686213ac1","64e77d7b61f440b60e28659d","64ecad81b8f7e141b27cbb2d","null","null","<p style=""font-size: 60px; font-family: BACS"">hkRKBRDh</p>","","","","","","","","",""
"html-keyboard-response","234","410870","0.0-11.0-0.65","648b962b8fdb1fa686213ac1","64e77d7b61f440b60e28659d","64ecad81b8f7e141b27cbb2d","null","null","<p style=""font-size: 60px; font-family: BACS"">TbKMEYDE</p>","","","","","","","","",""
"html-keyboard-response","235","411873","0.0-11.0-0.66","648b962b8fdb1fa686213ac1","64e77d7b61f440b60e28659d","64ecad81b8f7e141b27cbb2d","null","null","<p style=""font-size: 60px; font-family: BACS"">AmQOYuZc</p>","","","","","","","","",""
"html-keyboard-response","236","412876","0.0-11.0-0.67","648b962b8fdb1fa686213ac1","64e77d7b61f440b60e28659d","64ecad81b8f7e141b27cbb2d","null","null","<p style=""font-size: 60px; font-family: BACS"">KABABCAd</p>","","","","","","","","",""
"html-keyboard-response","237","413878","0.0-11.0-0.68","648b962b8fdb1fa686213ac1","64e77d7b61f440b60e28659d","64ecad81b8f7e141b27cbb2d","null","null","<p style=""font-size: 60px; font-family: BACS"">AlTdBCD</p>","","","","","","","","",""
"html-keyboard-response","238","414881","0.0-11.0-0.69","648b962b8fdb1fa686213ac1","64e77d7b61f440b60e28659d","64ecad81b8f7e141b27cbb2d","null","null","<p style=""font-size: 60px; font-family: BACS"">TbKMEBRDh</p>","","","","","","","","",""
"html-keyboard-response","239","415884","0.0-11.0-0.70","648b962b8fdb1fa686213ac1","64e77d7b61f440b60e28659d","64ecad81b8f7e141b27cbb2d","null","null","<p style=""font-size: 60px; font-family: BACS"">rvOvUuZc</p>","","","","","","","","",""
"html-keyboard-response","240","416897","0.0-11.0-0.71","648b962b8fdb1fa686213ac1","64e77d7b61f440b60e28659d","64ecad81b8f7e141b27cbb2d","null","null","<p style=""font-size: 60px; font-family: BACS"">aYQmZvkL</p>","","","","","","","","",""
"html-keyboard-response","241","417899","0.0-11.0-0.72","648b962b8fdb1fa686213ac1","64e77d7b61f440b60e28659d","64ecad81b8f7e141b27cbb2d","null","null","<p style=""font-size: 60px; font-family: BACS"">TbKMEBCAd</p>","","","","","","","","",""
"html-keyboard-response","242","418902","0.0-11.0-0.73","648b962b8fdb1fa686213ac1","64e77d7b61f440b60e28659d","64ecad81b8f7e141b27cbb2d","null","null","<p style=""font-size: 60px; font-family: BACS"">AlTdBRDh</p>","","","","","","","","",""
"html-keyboard-response","243","419915","0.0-11.0-0.74","648b962b8fdb1fa686213ac1","64e77d7b61f440b60e28659d","64ecad81b8f7e141b27cbb2d","null","null","<p style=""font-size: 60px; font-family: BACS"">OYuvbZvkL</p>","","","","","","","","",""
"html-keyboard-response","244","420929","0.0-11.0-0.75","648b962b8fdb1fa686213ac1","64e77d7b61f440b60e28659d","64ecad81b8f7e141b27cbb2d","null","null","<p style=""font-size: 60px; font-family: BACS"">htmhCYDE</p>","","","","","","","","",""
"html-keyboard-response","245","421931","0.0-11.0-0.76","648b962b8fdb1fa686213ac1","64e77d7b61f440b60e28659d","64ecad81b8f7e141b27cbb2d","null","null","<p style=""font-size: 60px; font-family: BACS"">lKdbcMAB</p>","","","","","","","","",""
"html-keyboard-response","246","422934","0.0-11.0-0.77","648b962b8fdb1fa686213ac1","64e77d7b61f440b60e28659d","64ecad81b8f7e141b27cbb2d","null","null","<p style=""font-size: 60px; font-family: BACS"">lBKtBCD</p>","","","","","","","","",""
"html-keyboard-response","247","423937","0.0-11.0-0.78","648b962b8fdb1fa686213ac1","64e77d7b61f440b60e28659d","64ecad81b8f7e141b27cbb2d","null","null","<p style=""font-size: 60px; font-family: BACS"">AlUYZAUu</p>","","","","","","","","",""
"html-keyboard-response","248","424939","0.0-11.0-0.79","648b962b8fdb1fa686213ac1","64e77d7b61f440b60e28659d","64ecad81b8f7e141b27cbb2d","null","null","<p style=""font-size: 60px; font-family: BACS"">lKdbcYDE</p>","","","","","","","","",""
"html-keyboard-response","249","438961","0.0-12.0","648b962b8fdb1fa686213ac1","64e77d7b61f440b60e28659d","64ecad81b8f7e141b27cbb2d","14020"," ","<p>Great, you've seen the third block of words. You may now take a short break.</p>
      <p>Press the spacebar when you're ready to continue.</p>","","","","","","","","",""
"html-keyboard-response","250","439969","0.0-13.0-0.0","648b962b8fdb1fa686213ac1","64e77d7b61f440b60e28659d","64ecad81b8f7e141b27cbb2d","null","null","<p style=""font-size: 60px; font-family: BACS"">lKdbcBRDh</p>","","","","","","","","",""
"html-keyboard-response","251","440982","0.0-13.0-0.1","648b962b8fdb1fa686213ac1","64e77d7b61f440b60e28659d","64ecad81b8f7e141b27cbb2d","null","null","<p style=""font-size: 60px; font-family: BACS"">aYQmdYAJ</p>","","","","","","","","",""
"html-keyboard-response","252","441985","0.0-13.0-0.2","648b962b8fdb1fa686213ac1","64e77d7b61f440b60e28659d","64ecad81b8f7e141b27cbb2d","null","null","<p style=""font-size: 60px; font-family: BACS"">KBKBEMAB</p>","","","","","","","","",""
"html-keyboard-response","253","442987","0.0-13.0-0.3","648b962b8fdb1fa686213ac1","64e77d7b61f440b60e28659d","64ecad81b8f7e141b27cbb2d","null","null","<p style=""font-size: 60px; font-family: BACS"">aYQmZvkL</p>","","","","","","","","",""
"html-keyboard-response","254","443990","0.0-13.0-0.4","648b962b8fdb1fa686213ac1","64e77d7b61f440b60e28659d","64ecad81b8f7e141b27cbb2d","null","null","<p style=""font-size: 60px; font-family: BACS"">htmhCYDE</p>","","","","","","","","",""
"html-keyboard-response","255","445000","0.0-13.0-0.5","648b962b8fdb1fa686213ac1","64e77d7b61f440b60e28659d","64ecad81b8f7e141b27cbb2d","null","null","<p style=""font-size: 60px; font-family: BACS"">JNkaJud</p>","","","","","","","","",""
"html-keyboard-response","256","446004","0.0-13.0-0.6","648b962b8fdb1fa686213ac1","64e77d7b61f440b60e28659d","64ecad81b8f7e141b27cbb2d","null","null","<p style=""font-size: 60px; font-family: BACS"">aYQmuZc</p>","","","","","","","","",""
"html-keyboard-response","257","447019","0.0-13.0-0.7","648b962b8fdb1fa686213ac1","64e77d7b61f440b60e28659d","64ecad81b8f7e141b27cbb2d","null","null","<p style=""font-size: 60px; font-family: BACS"">hlkTBCAd</p>","","","","","","","","",""
"html-keyboard-response","258","448033","0.0-13.0-0.8","648b962b8fdb1fa686213ac1","64e77d7b61f440b60e28659d","64ecad81b8f7e141b27cbb2d","null","null","<p style=""font-size: 60px; font-family: BACS"">uvaUZAUu</p>","","","","","","","","",""
"html-keyboard-response","259","449036","0.0-13.0-0.9","648b962b8fdb1fa686213ac1","64e77d7b61f440b60e28659d","64ecad81b8f7e141b27cbb2d","null","null","<p style=""font-size: 60px; font-family: BACS"">KABABRDh</p>","","","","","","","","",""
"html-keyboard-response","260","450049","0.0-13.0-0.10","648b962b8fdb1fa686213ac1","64e77d7b61f440b60e28659d","64ecad81b8f7e141b27cbb2d","null","null","<p style=""font-size: 60px; font-family: BACS"">AmQOYdYAJ</p>","","","","","","","","",""
"html-keyboard-response","261","451051","0.0-13.0-0.11","648b962b8fdb1fa686213ac1","64e77d7b61f440b60e28659d","64ecad81b8f7e141b27cbb2d","null","null","<p style=""font-size: 60px; font-family: BACS"">rvOvUZAUu</p>","","","","","","","","",""
"html-keyboard-response","262","452065","0.0-13.0-0.12","648b962b8fdb1fa686213ac1","64e77d7b61f440b60e28659d","64ecad81b8f7e141b27cbb2d","null","null","<p style=""font-size: 60px; font-family: BACS"">AlUYJud</p>","","","","","","","","",""
"html-keyboard-response","263","453078","0.0-13.0-0.13","648b962b8fdb1fa686213ac1","64e77d7b61f440b60e28659d","64ecad81b8f7e141b27cbb2d","null","null","<p style=""font-size: 60px; font-family: BACS"">hkRKBCAd</p>","","","","","","","","",""
"html-keyboard-response","264","454081","0.0-13.0-0.14","648b962b8fdb1fa686213ac1","64e77d7b61f440b60e28659d","64ecad81b8f7e141b27cbb2d","null","null","<p style=""font-size: 60px; font-family: BACS"">dmZvmuZc</p>","","","","","","","","",""
"html-keyboard-response","265","455083","0.0-13.0-0.15","648b962b8fdb1fa686213ac1","64e77d7b61f440b60e28659d","64ecad81b8f7e141b27cbb2d","null","null","<p style=""font-size: 60px; font-family: BACS"">rvOvUZvkL</p>","","","","","","","","",""
"html-keyboard-response","266","456086","0.0-13.0-0.16","648b962b8fdb1fa686213ac1","64e77d7b61f440b60e28659d","64ecad81b8f7e141b27cbb2d","null","null","<p style=""font-size: 60px; font-family: BACS"">TbKMEYDE</p>","","","","","","","","",""
"html-keyboard-response","267","457089","0.0-13.0-0.17","648b962b8fdb1fa686213ac1","64e77d7b61f440b60e28659d","64ecad81b8f7e141b27cbb2d","null","null","<p style=""font-size: 60px; font-family: BACS"">dmZvmdYAJ</p>","","","","","","","","",""
"html-keyboard-response","268","458092","0.0-13.0-0.18","648b962b8fdb1fa686213ac1","64e77d7b61f440b60e28659d","64ecad81b8f7e141b27cbb2d","null","null","<p style=""font-size: 60px; font-family: BACS"">OYuvbZvkL</p>","","","","","","","","",""
"html-keyboard-response","269","459104","0.0-13.0-0.19","648b962b8fdb1fa686213ac1","64e77d7b61f440b60e28659d","64ecad81b8f7e141b27cbb2d","null","null","<p style=""font-size: 60px; font-family: BACS"">KBKBEBCAd</p>","","","","","","","","",""
"html-keyboard-response","270","460118","0.0-13.0-0.20","648b962b8fdb1fa686213ac1","64e77d7b61f440b60e28659d","64ecad81b8f7e141b27cbb2d","null","null","<p style=""font-size: 60px; font-family: BACS"">AlTdYDE</p>","","","","","","","","",""
"html-keyboard-response","271","461131","0.0-13.0-0.21","648b962b8fdb1fa686213ac1","64e77d7b61f440b60e28659d","64ecad81b8f7e141b27cbb2d","null","null","<p style=""font-size: 60px; font-family: BACS"">lBKtBCD</p>","","","","","","","","",""
"html-keyboard-response","272","462145","0.0-13.0-0.22","648b962b8fdb1fa686213ac1","64e77d7b61f440b60e28659d","64ecad81b8f7e141b27cbb2d","null","null","<p style=""font-size: 60px; font-family: BACS"">uvaUJud</p>","","","","","","","","",""
"html-keyboard-response","273","463148","0.0-13.0-0.23","648b962b8fdb1fa686213ac1","64e77d7b61f440b60e28659d","64ecad81b8f7e141b27cbb2d","null","null","<p style=""font-size: 60px; font-family: BACS"">rvOvUdYAJ</p>","","","","","","","","",""
"html-keyboard-response","274","464150","0.0-13.0-0.24","648b962b8fdb1fa686213ac1","64e77d7b61f440b60e28659d","64ecad81b8f7e141b27cbb2d","null","null","<p style=""font-size: 60px; font-family: BACS"">hkRKBCD</p>","","","","","","","","",""
"html-keyboard-response","275","465164","0.0-13.0-0.25","648b962b8fdb1fa686213ac1","64e77d7b61f440b60e28659d","64ecad81b8f7e141b27cbb2d","null","null","<p style=""font-size: 60px; font-family: BACS"">ZcGdNJud</p>","","","","","","","","",""
"html-keyboard-response","276","466166","0.0-13.0-0.26","648b962b8fdb1fa686213ac1","64e77d7b61f440b60e28659d","64ecad81b8f7e141b27cbb2d","null","null","<p style=""font-size: 60px; font-family: BACS"">lBKtBRDh</p>","","","","","","","","",""
"html-keyboard-response","277","467168","0.0-13.0-0.27","648b962b8fdb1fa686213ac1","64e77d7b61f440b60e28659d","64ecad81b8f7e141b27cbb2d","null","null","<p style=""font-size: 60px; font-family: BACS"">AmQOYuZc</p>","","","","","","","","",""
"html-keyboard-response","278","468182","0.0-13.0-0.28","648b962b8fdb1fa686213ac1","64e77d7b61f440b60e28659d","64ecad81b8f7e141b27cbb2d","null","null","<p style=""font-size: 60px; font-family: BACS"">dmZvmJud</p>","","","","","","","","",""
"html-keyboard-response","279","469185","0.0-13.0-0.29","648b962b8fdb1fa686213ac1","64e77d7b61f440b60e28659d","64ecad81b8f7e141b27cbb2d","null","null","<p style=""font-size: 60px; font-family: BACS"">OCmkYDE</p>","","","","","","","","",""
"html-keyboard-response","280","470197","0.0-13.0-0.30","648b962b8fdb1fa686213ac1","64e77d7b61f440b60e28659d","64ecad81b8f7e141b27cbb2d","null","null","<p style=""font-size: 60px; font-family: BACS"">hlkTBRDh</p>","","","","","","","","",""
"html-keyboard-response","281","471199","0.0-13.0-0.31","648b962b8fdb1fa686213ac1","64e77d7b61f440b60e28659d","64ecad81b8f7e141b27cbb2d","null","null","<p style=""font-size: 60px; font-family: BACS"">KBKBEYDE</p>","","","","","","","","",""
"html-keyboard-response","282","472203","0.0-13.0-0.32","648b962b8fdb1fa686213ac1","64e77d7b61f440b60e28659d","64ecad81b8f7e141b27cbb2d","null","null","<p style=""font-size: 60px; font-family: BACS"">JNkauZc</p>","","","","","","","","",""
"html-keyboard-response","283","473205","0.0-13.0-0.33","648b962b8fdb1fa686213ac1","64e77d7b61f440b60e28659d","64ecad81b8f7e141b27cbb2d","null","null","<p style=""font-size: 60px; font-family: BACS"">lKdbcBCD</p>","","","","","","","","",""
"html-keyboard-response","284","474208","0.0-13.0-0.34","648b962b8fdb1fa686213ac1","64e77d7b61f440b60e28659d","64ecad81b8f7e141b27cbb2d","null","null","<p style=""font-size: 60px; font-family: BACS"">rvOvUuZc</p>","","","","","","","","",""
"html-keyboard-response","285","475212","0.0-13.0-0.35","648b962b8fdb1fa686213ac1","64e77d7b61f440b60e28659d","64ecad81b8f7e141b27cbb2d","null","null","<p style=""font-size: 60px; font-family: BACS"">lKdbcYDE</p>","","","","","","","","",""
"html-keyboard-response","286","476225","0.0-13.0-0.36","648b962b8fdb1fa686213ac1","64e77d7b61f440b60e28659d","64ecad81b8f7e141b27cbb2d","null","null","<p style=""font-size: 60px; font-family: BACS"">ckLALuZc</p>","","","","","","","","",""
"html-keyboard-response","287","477239","0.0-13.0-0.37","648b962b8fdb1fa686213ac1","64e77d7b61f440b60e28659d","64ecad81b8f7e141b27cbb2d","null","null","<p style=""font-size: 60px; font-family: BACS"">AmQOYZvkL</p>","","","","","","","","",""
"html-keyboard-response","288","478252","0.0-13.0-0.38","648b962b8fdb1fa686213ac1","64e77d7b61f440b60e28659d","64ecad81b8f7e141b27cbb2d","null","null","<p style=""font-size: 60px; font-family: BACS"">hkRKMAB</p>","","","","","","","","",""
"html-keyboard-response","289","479254","0.0-13.0-0.39","648b962b8fdb1fa686213ac1","64e77d7b61f440b60e28659d","64ecad81b8f7e141b27cbb2d","null","null","<p style=""font-size: 60px; font-family: BACS"">TbKMEBCAd</p>","","","","","","","","",""
"html-keyboard-response","290","480257","0.0-13.0-0.40","648b962b8fdb1fa686213ac1","64e77d7b61f440b60e28659d","64ecad81b8f7e141b27cbb2d","null","null","<p style=""font-size: 60px; font-family: BACS"">ckLALJud</p>","","","","","","","","",""
"html-keyboard-response","291","481270","0.0-13.0-0.41","648b962b8fdb1fa686213ac1","64e77d7b61f440b60e28659d","64ecad81b8f7e141b27cbb2d","null","null","<p style=""font-size: 60px; font-family: BACS"">ZcGdNdYAJ</p>","","","","","","","","",""
"html-keyboard-response","292","482284","0.0-13.0-0.42","648b962b8fdb1fa686213ac1","64e77d7b61f440b60e28659d","64ecad81b8f7e141b27cbb2d","null","null","<p style=""font-size: 60px; font-family: BACS"">AlTdMAB</p>","","","","","","","","",""
"html-keyboard-response","293","483287","0.0-13.0-0.43","648b962b8fdb1fa686213ac1","64e77d7b61f440b60e28659d","64ecad81b8f7e141b27cbb2d","null","null","<p style=""font-size: 60px; font-family: BACS"">JNkaZvkL</p>","","","","","","","","",""
"html-keyboard-response","294","484289","0.0-13.0-0.44","648b962b8fdb1fa686213ac1","64e77d7b61f440b60e28659d","64ecad81b8f7e141b27cbb2d","null","null","<p style=""font-size: 60px; font-family: BACS"">aYQmJud</p>","","","","","","","","",""
"html-keyboard-response","295","485302","0.0-13.0-0.45","648b962b8fdb1fa686213ac1","64e77d7b61f440b60e28659d","64ecad81b8f7e141b27cbb2d","null","null","<p style=""font-size: 60px; font-family: BACS"">ckLALZAUu</p>","","","","","","","","",""
"html-keyboard-response","296","486316","0.0-13.0-0.46","648b962b8fdb1fa686213ac1","64e77d7b61f440b60e28659d","64ecad81b8f7e141b27cbb2d","null","null","<p style=""font-size: 60px; font-family: BACS"">hlkTYDE</p>","","","","","","","","",""
"html-keyboard-response","297","487318","0.0-13.0-0.47","648b962b8fdb1fa686213ac1","64e77d7b61f440b60e28659d","64ecad81b8f7e141b27cbb2d","null","null","<p style=""font-size: 60px; font-family: BACS"">htmhCBCD</p>","","","","","","","","",""
"html-keyboard-response","298","488331","0.0-13.0-0.48","648b962b8fdb1fa686213ac1","64e77d7b61f440b60e28659d","64ecad81b8f7e141b27cbb2d","null","null","<p style=""font-size: 60px; font-family: BACS"">ZcGdNuZc</p>","","","","","","","","",""
"html-keyboard-response","299","489335","0.0-13.0-0.49","648b962b8fdb1fa686213ac1","64e77d7b61f440b60e28659d","64ecad81b8f7e141b27cbb2d","null","null","<p style=""font-size: 60px; font-family: BACS"">AlTdBCD</p>","","","","","","","","",""
"html-keyboard-response","300","490348","0.0-13.0-0.50","648b962b8fdb1fa686213ac1","64e77d7b61f440b60e28659d","64ecad81b8f7e141b27cbb2d","null","null","<p style=""font-size: 60px; font-family: BACS"">uvaUZvkL</p>","","","","","","","","",""
"html-keyboard-response","301","491350","0.0-13.0-0.51","648b962b8fdb1fa686213ac1","64e77d7b61f440b60e28659d","64ecad81b8f7e141b27cbb2d","null","null","<p style=""font-size: 60px; font-family: BACS"">OYuvbJud</p>","","","","","","","","",""
"html-keyboard-response","302","492353","0.0-13.0-0.52","648b962b8fdb1fa686213ac1","64e77d7b61f440b60e28659d","64ecad81b8f7e141b27cbb2d","null","null","<p style=""font-size: 60px; font-family: BACS"">AmQOYZAUu</p>","","","","","","","","",""
"html-keyboard-response","303","493356","0.0-13.0-0.53","648b962b8fdb1fa686213ac1","64e77d7b61f440b60e28659d","64ecad81b8f7e141b27cbb2d","null","null","<p style=""font-size: 60px; font-family: BACS"">KABAYDE</p>","","","","","","","","",""
"html-keyboard-response","304","494358","0.0-13.0-0.54","648b962b8fdb1fa686213ac1","64e77d7b61f440b60e28659d","64ecad81b8f7e141b27cbb2d","null","null","<p style=""font-size: 60px; font-family: BACS"">dmZvmZAUu</p>","","","","","","","","",""
"html-keyboard-response","305","495371","0.0-13.0-0.55","648b962b8fdb1fa686213ac1","64e77d7b61f440b60e28659d","64ecad81b8f7e141b27cbb2d","null","null","<p style=""font-size: 60px; font-family: BACS"">AlUYZvkL</p>","","","","","","","","",""
"html-keyboard-response","306","496374","0.0-13.0-0.56","648b962b8fdb1fa686213ac1","64e77d7b61f440b60e28659d","64ecad81b8f7e141b27cbb2d","null","null","<p style=""font-size: 60px; font-family: BACS"">htmhCBCAd</p>","","","","","","","","",""
"html-keyboard-response","307","497376","0.0-13.0-0.57","648b962b8fdb1fa686213ac1","64e77d7b61f440b60e28659d","64ecad81b8f7e141b27cbb2d","null","null","<p style=""font-size: 60px; font-family: BACS"">TbKMEMAB</p>","","","","","","","","",""
"html-keyboard-response","308","498379","0.0-13.0-0.58","648b962b8fdb1fa686213ac1","64e77d7b61f440b60e28659d","64ecad81b8f7e141b27cbb2d","null","null","<p style=""font-size: 60px; font-family: BACS"">hkRKBRDh</p>","","","","","","","","",""
"html-keyboard-response","309","499393","0.0-13.0-0.59","648b962b8fdb1fa686213ac1","64e77d7b61f440b60e28659d","64ecad81b8f7e141b27cbb2d","null","null","<p style=""font-size: 60px; font-family: BACS"">OCmkBCD</p>","","","","","","","","",""
"html-keyboard-response","310","500406","0.0-13.0-0.60","648b962b8fdb1fa686213ac1","64e77d7b61f440b60e28659d","64ecad81b8f7e141b27cbb2d","null","null","<p style=""font-size: 60px; font-family: BACS"">lKdbcMAB</p>","","","","","","","","",""
"html-keyboard-response","311","501419","0.0-13.0-0.61","648b962b8fdb1fa686213ac1","64e77d7b61f440b60e28659d","64ecad81b8f7e141b27cbb2d","null","null","<p style=""font-size: 60px; font-family: BACS"">lBKtBCAd</p>","","","","","","","","",""
"html-keyboard-response","312","502422","0.0-13.0-0.62","648b962b8fdb1fa686213ac1","64e77d7b61f440b60e28659d","64ecad81b8f7e141b27cbb2d","null","null","<p style=""font-size: 60px; font-family: BACS"">AlUYZAUu</p>","","","","","","","","",""
"html-keyboard-response","313","503435","0.0-13.0-0.63","648b962b8fdb1fa686213ac1","64e77d7b61f440b60e28659d","64ecad81b8f7e141b27cbb2d","null","null","<p style=""font-size: 60px; font-family: BACS"">KABABCD</p>","","","","","","","","",""
"html-keyboard-response","314","504438","0.0-13.0-0.64","648b962b8fdb1fa686213ac1","64e77d7b61f440b60e28659d","64ecad81b8f7e141b27cbb2d","null","null","<p style=""font-size: 60px; font-family: BACS"">uvaUdYAJ</p>","","","","","","","","",""
"html-keyboard-response","315","505440","0.0-13.0-0.65","648b962b8fdb1fa686213ac1","64e77d7b61f440b60e28659d","64ecad81b8f7e141b27cbb2d","null","null","<p style=""font-size: 60px; font-family: BACS"">OCmkMAB</p>","","","","","","","","",""
"html-keyboard-response","316","506454","0.0-13.0-0.66","648b962b8fdb1fa686213ac1","64e77d7b61f440b60e28659d","64ecad81b8f7e141b27cbb2d","null","null","<p style=""font-size: 60px; font-family: BACS"">OYuvbdYAJ</p>","","","","","","","","",""
"html-keyboard-response","317","507456","0.0-13.0-0.67","648b962b8fdb1fa686213ac1","64e77d7b61f440b60e28659d","64ecad81b8f7e141b27cbb2d","null","null","<p style=""font-size: 60px; font-family: BACS"">htmhCMAB</p>","","","","","","","","",""
"html-keyboard-response","318","508470","0.0-13.0-0.68","648b962b8fdb1fa686213ac1","64e77d7b61f440b60e28659d","64ecad81b8f7e141b27cbb2d","null","null","<p style=""font-size: 60px; font-family: BACS"">JNkaZAUu</p>","","","","","","","","",""
"html-keyboard-response","319","509484","0.0-13.0-0.69","648b962b8fdb1fa686213ac1","64e77d7b61f440b60e28659d","64ecad81b8f7e141b27cbb2d","null","null","<p style=""font-size: 60px; font-family: BACS"">OYuvbuZc</p>","","","","","","","","",""
"html-keyboard-response","320","510486","0.0-13.0-0.70","648b962b8fdb1fa686213ac1","64e77d7b61f440b60e28659d","64ecad81b8f7e141b27cbb2d","null","null","<p style=""font-size: 60px; font-family: BACS"">OCmkBCAd</p>","","","","","","","","",""
"html-keyboard-response","321","511489","0.0-13.0-0.71","648b962b8fdb1fa686213ac1","64e77d7b61f440b60e28659d","64ecad81b8f7e141b27cbb2d","null","null","<p style=""font-size: 60px; font-family: BACS"">TbKMEBRDh</p>","","","","","","","","",""
"html-keyboard-response","322","512492","0.0-13.0-0.72","648b962b8fdb1fa686213ac1","64e77d7b61f440b60e28659d","64ecad81b8f7e141b27cbb2d","null","null","<p style=""font-size: 60px; font-family: BACS"">lBKtMAB</p>","","","","","","","","",""
"html-keyboard-response","323","513505","0.0-13.0-0.73","648b962b8fdb1fa686213ac1","64e77d7b61f440b60e28659d","64ecad81b8f7e141b27cbb2d","null","null","<p style=""font-size: 60px; font-family: BACS"">KBKBEBRDh</p>","","","","","","","","",""
"html-keyboard-response","324","514518","0.0-13.0-0.74","648b962b8fdb1fa686213ac1","64e77d7b61f440b60e28659d","64ecad81b8f7e141b27cbb2d","null","null","<p style=""font-size: 60px; font-family: BACS"">KABABCAd</p>","","","","","","","","",""
"html-keyboard-response","325","515521","0.0-13.0-0.75","648b962b8fdb1fa686213ac1","64e77d7b61f440b60e28659d","64ecad81b8f7e141b27cbb2d","null","null","<p style=""font-size: 60px; font-family: BACS"">AlTdBRDh</p>","","","","","","","","",""
"html-keyboard-response","326","516524","0.0-13.0-0.76","648b962b8fdb1fa686213ac1","64e77d7b61f440b60e28659d","64ecad81b8f7e141b27cbb2d","null","null","<p style=""font-size: 60px; font-family: BACS"">ZcGdNZAUu</p>","","","","","","","","",""
"html-keyboard-response","327","517537","0.0-13.0-0.77","648b962b8fdb1fa686213ac1","64e77d7b61f440b60e28659d","64ecad81b8f7e141b27cbb2d","null","null","<p style=""font-size: 60px; font-family: BACS"">hlkTBCD</p>","","","","","","","","",""
"html-keyboard-response","328","518551","0.0-13.0-0.78","648b962b8fdb1fa686213ac1","64e77d7b61f440b60e28659d","64ecad81b8f7e141b27cbb2d","null","null","<p style=""font-size: 60px; font-family: BACS"">AlUYdYAJ</p>","","","","","","","","",""
"html-keyboard-response","329","519563","0.0-13.0-0.79","648b962b8fdb1fa686213ac1","64e77d7b61f440b60e28659d","64ecad81b8f7e141b27cbb2d","null","null","<p style=""font-size: 60px; font-family: BACS"">ckLALZvkL</p>","","","","","","","","",""
"html-keyboard-response","330","528686","0.0-14.0","648b962b8fdb1fa686213ac1","64e77d7b61f440b60e28659d","64ecad81b8f7e141b27cbb2d","9122"," ","<p>Great, you've seen the fourth block of words. You may now take a short break.</p>
      <p>Press the spacebar when you're ready to continue.</p>","","","","","","","","",""
"html-keyboard-response","331","529708","0.0-15.0-0.0","648b962b8fdb1fa686213ac1","64e77d7b61f440b60e28659d","64ecad81b8f7e141b27cbb2d","null","null","<p style=""font-size: 60px; font-family: BACS"">KABAYDE</p>","","","","","","","","",""
"html-keyboard-response","332","530721","0.0-15.0-0.1","648b962b8fdb1fa686213ac1","64e77d7b61f440b60e28659d","64ecad81b8f7e141b27cbb2d","null","null","<p style=""font-size: 60px; font-family: BACS"">KABAYDE</p>","","","","","","","","",""
"html-keyboard-response","333","531734","0.0-15.0-0.2","648b962b8fdb1fa686213ac1","64e77d7b61f440b60e28659d","64ecad81b8f7e141b27cbb2d","null","null","<p style=""font-size: 60px; font-family: BACS"">KABAYDE</p>","","","","","","","","",""
"html-keyboard-response","334","532748","0.0-15.0-0.3","648b962b8fdb1fa686213ac1","64e77d7b61f440b60e28659d","64ecad81b8f7e141b27cbb2d","null","null","<p style=""font-size: 60px; font-family: BACS"">KABAYDE</p>","","","","","","","","",""
"html-keyboard-response","335","533751","0.0-15.0-0.4","648b962b8fdb1fa686213ac1","64e77d7b61f440b60e28659d","64ecad81b8f7e141b27cbb2d","null","null","<p style=""font-size: 60px; font-family: BACS"">KABAYDE</p>","","","","","","","","",""
"html-keyboard-response","336","534753","0.0-15.0-0.5","648b962b8fdb1fa686213ac1","64e77d7b61f440b60e28659d","64ecad81b8f7e141b27cbb2d","null","null","<p style=""font-size: 60px; font-family: BACS"">KABAYDE</p>","","","","","","","","",""
"html-keyboard-response","337","535766","0.0-15.0-0.6","648b962b8fdb1fa686213ac1","64e77d7b61f440b60e28659d","64ecad81b8f7e141b27cbb2d","null","null","<p style=""font-size: 60px; font-family: BACS"">KABAYDE</p>","","","","","","","","",""
"html-keyboard-response","338","536769","0.0-15.0-0.7","648b962b8fdb1fa686213ac1","64e77d7b61f440b60e28659d","64ecad81b8f7e141b27cbb2d","null","null","<p style=""font-size: 60px; font-family: BACS"">KABAYDE</p>","","","","","","","","",""
"html-keyboard-response","339","537772","0.0-15.0-0.8","648b962b8fdb1fa686213ac1","64e77d7b61f440b60e28659d","64ecad81b8f7e141b27cbb2d","null","null","<p style=""font-size: 60px; font-family: BACS"">KABAYDE</p>","","","","","","","","",""
"html-keyboard-response","340","538785","0.0-15.0-0.9","648b962b8fdb1fa686213ac1","64e77d7b61f440b60e28659d","64ecad81b8f7e141b27cbb2d","null","null","<p style=""font-size: 60px; font-family: BACS"">KABAYDE</p>","","","","","","","","",""
"html-keyboard-response","341","539799","0.0-15.0-0.10","648b962b8fdb1fa686213ac1","64e77d7b61f440b60e28659d","64ecad81b8f7e141b27cbb2d","null","null","<p style=""font-size: 60px; font-family: BACS"">KABAYDE</p>","","","","","","","","",""
"html-keyboard-response","342","540801","0.0-15.0-0.11","648b962b8fdb1fa686213ac1","64e77d7b61f440b60e28659d","64ecad81b8f7e141b27cbb2d","null","null","<p style=""font-size: 60px; font-family: BACS"">KABAYDE</p>","","","","","","","","",""
"html-keyboard-response","343","541815","0.0-15.0-0.12","648b962b8fdb1fa686213ac1","64e77d7b61f440b60e28659d","64ecad81b8f7e141b27cbb2d","null","null","<p style=""font-size: 60px; font-family: BACS"">KABAYDE</p>","","","","","","","","",""
"html-keyboard-response","344","542828","0.0-15.0-0.13","648b962b8fdb1fa686213ac1","64e77d7b61f440b60e28659d","64ecad81b8f7e141b27cbb2d","null","null","<p style=""font-size: 60px; font-family: BACS"">KABAYDE</p>","","","","","","","","",""
"html-keyboard-response","345","543830","0.0-15.0-0.14","648b962b8fdb1fa686213ac1","64e77d7b61f440b60e28659d","64ecad81b8f7e141b27cbb2d","null","null","<p style=""font-size: 60px; font-family: BACS"">KABAYDE</p>","","","","","","","","",""
"html-keyboard-response","346","544833","0.0-15.0-0.15","648b962b8fdb1fa686213ac1","64e77d7b61f440b60e28659d","64ecad81b8f7e141b27cbb2d","null","null","<p style=""font-size: 60px; font-family: BACS"">KABAYDE</p>","","","","","","","","",""
"html-keyboard-response","347","545836","0.0-15.0-0.16","648b962b8fdb1fa686213ac1","64e77d7b61f440b60e28659d","64ecad81b8f7e141b27cbb2d","null","null","<p style=""font-size: 60px; font-family: BACS"">KABAYDE</p>","","","","","","","","",""
"html-keyboard-response","348","546839","0.0-15.0-0.17","648b962b8fdb1fa686213ac1","64e77d7b61f440b60e28659d","64ecad81b8f7e141b27cbb2d","null","null","<p style=""font-size: 60px; font-family: BACS"">KABAYDE</p>","","","","","","","","",""
"html-keyboard-response","349","547852","0.0-15.0-0.18","648b962b8fdb1fa686213ac1","64e77d7b61f440b60e28659d","64ecad81b8f7e141b27cbb2d","null","null","<p style=""font-size: 60px; font-family: BACS"">KABAYDE</p>","","","","","","","","",""
"html-keyboard-response","350","548854","0.0-15.0-0.19","648b962b8fdb1fa686213ac1","64e77d7b61f440b60e28659d","64ecad81b8f7e141b27cbb2d","null","null","<p style=""font-size: 60px; font-family: BACS"">KABAYDE</p>","","","","","","","","",""
"html-keyboard-response","351","549865","0.0-15.0-0.20","648b962b8fdb1fa686213ac1","64e77d7b61f440b60e28659d","64ecad81b8f7e141b27cbb2d","null","null","<p style=""font-size: 60px; font-family: BACS"">KABAYDE</p>","","","","","","","","",""
"html-keyboard-response","352","550868","0.0-15.0-0.21","648b962b8fdb1fa686213ac1","64e77d7b61f440b60e28659d","64ecad81b8f7e141b27cbb2d","null","null","<p style=""font-size: 60px; font-family: BACS"">KABAYDE</p>","","","","","","","","",""
"html-keyboard-response","353","551871","0.0-15.0-0.22","648b962b8fdb1fa686213ac1","64e77d7b61f440b60e28659d","64ecad81b8f7e141b27cbb2d","null","null","<p style=""font-size: 60px; font-family: BACS"">KABAYDE</p>","","","","","","","","",""
"html-keyboard-response","354","552875","0.0-15.0-0.23","648b962b8fdb1fa686213ac1","64e77d7b61f440b60e28659d","64ecad81b8f7e141b27cbb2d","null","null","<p style=""font-size: 60px; font-family: BACS"">KABAYDE</p>","","","","","","","","",""
"html-keyboard-response","355","553889","0.0-15.0-0.24","648b962b8fdb1fa686213ac1","64e77d7b61f440b60e28659d","64ecad81b8f7e141b27cbb2d","null","null","<p style=""font-size: 60px; font-family: BACS"">KABAYDE</p>","","","","","","","","",""
"html-keyboard-response","356","554892","0.0-15.0-0.25","648b962b8fdb1fa686213ac1","64e77d7b61f440b60e28659d","64ecad81b8f7e141b27cbb2d","null","null","<p style=""font-size: 60px; font-family: BACS"">KABAYDE</p>","","","","","","","","",""
"html-keyboard-response","357","555905","0.0-15.0-0.26","648b962b8fdb1fa686213ac1","64e77d7b61f440b60e28659d","64ecad81b8f7e141b27cbb2d","null","null","<p style=""font-size: 60px; font-family: BACS"">KABAYDE</p>","","","","","","","","",""
"html-keyboard-response","358","556908","0.0-15.0-0.27","648b962b8fdb1fa686213ac1","64e77d7b61f440b60e28659d","64ecad81b8f7e141b27cbb2d","null","null","<p style=""font-size: 60px; font-family: BACS"">KABAYDE</p>","","","","","","","","",""
"html-keyboard-response","359","557910","0.0-15.0-0.28","648b962b8fdb1fa686213ac1","64e77d7b61f440b60e28659d","64ecad81b8f7e141b27cbb2d","null","null","<p style=""font-size: 60px; font-family: BACS"">KABAYDE</p>","","","","","","","","",""
"html-keyboard-response","360","558913","0.0-15.0-0.29","648b962b8fdb1fa686213ac1","64e77d7b61f440b60e28659d","64ecad81b8f7e141b27cbb2d","null","null","<p style=""font-size: 60px; font-family: BACS"">KABAYDE</p>","","","","","","","","",""
"html-keyboard-response","361","559916","0.0-15.0-0.30","648b962b8fdb1fa686213ac1","64e77d7b61f440b60e28659d","64ecad81b8f7e141b27cbb2d","null","null","<p style=""font-size: 60px; font-family: BACS"">KABAYDE</p>","","","","","","","","",""
"html-keyboard-response","362","560918","0.0-15.0-0.31","648b962b8fdb1fa686213ac1","64e77d7b61f440b60e28659d","64ecad81b8f7e141b27cbb2d","null","null","<p style=""font-size: 60px; font-family: BACS"">KABAYDE</p>","","","","","","","","",""
"html-keyboard-response","363","561921","0.0-15.0-0.32","648b962b8fdb1fa686213ac1","64e77d7b61f440b60e28659d","64ecad81b8f7e141b27cbb2d","null","null","<p style=""font-size: 60px; font-family: BACS"">KABAYDE</p>","","","","","","","","",""
"html-keyboard-response","364","562924","0.0-15.0-0.33","648b962b8fdb1fa686213ac1","64e77d7b61f440b60e28659d","64ecad81b8f7e141b27cbb2d","null","null","<p style=""font-size: 60px; font-family: BACS"">KABAYDE</p>","","","","","","","","",""
"html-keyboard-response","365","563937","0.0-15.0-0.34","648b962b8fdb1fa686213ac1","64e77d7b61f440b60e28659d","64ecad81b8f7e141b27cbb2d","null","null","<p style=""font-size: 60px; font-family: BACS"">KABAYDE</p>","","","","","","","","",""
"html-keyboard-response","366","564950","0.0-15.0-0.35","648b962b8fdb1fa686213ac1","64e77d7b61f440b60e28659d","64ecad81b8f7e141b27cbb2d","null","null","<p style=""font-size: 60px; font-family: BACS"">KABAYDE</p>","","","","","","","","",""
"html-keyboard-response","367","565953","0.0-15.0-0.36","648b962b8fdb1fa686213ac1","64e77d7b61f440b60e28659d","64ecad81b8f7e141b27cbb2d","null","null","<p style=""font-size: 60px; font-family: BACS"">KABAYDE</p>","","","","","","","","",""
"html-keyboard-response","368","566966","0.0-15.0-0.37","648b962b8fdb1fa686213ac1","64e77d7b61f440b60e28659d","64ecad81b8f7e141b27cbb2d","null","null","<p style=""font-size: 60px; font-family: BACS"">KABAYDE</p>","","","","","","","","",""
"html-keyboard-response","369","567969","0.0-15.0-0.38","648b962b8fdb1fa686213ac1","64e77d7b61f440b60e28659d","64ecad81b8f7e141b27cbb2d","null","null","<p style=""font-size: 60px; font-family: BACS"">KABAYDE</p>","","","","","","","","",""
"html-keyboard-response","370","568983","0.0-15.0-0.39","648b962b8fdb1fa686213ac1","64e77d7b61f440b60e28659d","64ecad81b8f7e141b27cbb2d","null","null","<p style=""font-size: 60px; font-family: BACS"">KABAYDE</p>","","","","","","","","",""
"html-keyboard-response","371","569985","0.0-15.0-0.40","648b962b8fdb1fa686213ac1","64e77d7b61f440b60e28659d","64ecad81b8f7e141b27cbb2d","null","null","<p style=""font-size: 60px; font-family: BACS"">KABAYDE</p>","","","","","","","","",""
"html-keyboard-response","372","570988","0.0-15.0-0.41","648b962b8fdb1fa686213ac1","64e77d7b61f440b60e28659d","64ecad81b8f7e141b27cbb2d","null","null","<p style=""font-size: 60px; font-family: BACS"">KABAYDE</p>","","","","","","","","",""
"html-keyboard-response","373","572001","0.0-15.0-0.42","648b962b8fdb1fa686213ac1","64e77d7b61f440b60e28659d","64ecad81b8f7e141b27cbb2d","null","null","<p style=""font-size: 60px; font-family: BACS"">KABAYDE</p>","","","","","","","","",""
"html-keyboard-response","374","573014","0.0-15.0-0.43","648b962b8fdb1fa686213ac1","64e77d7b61f440b60e28659d","64ecad81b8f7e141b27cbb2d","null","null","<p style=""font-size: 60px; font-family: BACS"">KABAYDE</p>","","","","","","","","",""
"html-keyboard-response","375","574017","0.0-15.0-0.44","648b962b8fdb1fa686213ac1","64e77d7b61f440b60e28659d","64ecad81b8f7e141b27cbb2d","null","null","<p style=""font-size: 60px; font-family: BACS"">KABAYDE</p>","","","","","","","","",""
"html-keyboard-response","376","575020","0.0-15.0-0.45","648b962b8fdb1fa686213ac1","64e77d7b61f440b60e28659d","64ecad81b8f7e141b27cbb2d","null","null","<p style=""font-size: 60px; font-family: BACS"">KABAYDE</p>","","","","","","","","",""
"html-keyboard-response","377","576023","0.0-15.0-0.46","648b962b8fdb1fa686213ac1","64e77d7b61f440b60e28659d","64ecad81b8f7e141b27cbb2d","null","null","<p style=""font-size: 60px; font-family: BACS"">KABAYDE</p>","","","","","","","","",""
"html-keyboard-response","378","577030","0.0-15.0-0.47","648b962b8fdb1fa686213ac1","64e77d7b61f440b60e28659d","64ecad81b8f7e141b27cbb2d","null","null","<p style=""font-size: 60px; font-family: BACS"">KABAYDE</p>","","","","","","","","",""
"html-keyboard-response","379","578038","0.0-15.0-0.48","648b962b8fdb1fa686213ac1","64e77d7b61f440b60e28659d","64ecad81b8f7e141b27cbb2d","null","null","<p style=""font-size: 60px; font-family: BACS"">KABAYDE</p>","","","","","","","","",""
"html-keyboard-response","380","579040","0.0-15.0-0.49","648b962b8fdb1fa686213ac1","64e77d7b61f440b60e28659d","64ecad81b8f7e141b27cbb2d","null","null","<p style=""font-size: 60px; font-family: BACS"">KABAYDE</p>","","","","","","","","",""
"html-keyboard-response","381","580044","0.0-15.0-0.50","648b962b8fdb1fa686213ac1","64e77d7b61f440b60e28659d","64ecad81b8f7e141b27cbb2d","null","null","<p style=""font-size: 60px; font-family: BACS"">KABAYDE</p>","","","","","","","","",""
"html-keyboard-response","382","581046","0.0-15.0-0.51","648b962b8fdb1fa686213ac1","64e77d7b61f440b60e28659d","64ecad81b8f7e141b27cbb2d","null","null","<p style=""font-size: 60px; font-family: BACS"">KABAYDE</p>","","","","","","","","",""
"html-keyboard-response","383","582049","0.0-15.0-0.52","648b962b8fdb1fa686213ac1","64e77d7b61f440b60e28659d","64ecad81b8f7e141b27cbb2d","null","null","<p style=""font-size: 60px; font-family: BACS"">KABAYDE</p>","","","","","","","","",""
"html-keyboard-response","384","583063","0.0-15.0-0.53","648b962b8fdb1fa686213ac1","64e77d7b61f440b60e28659d","64ecad81b8f7e141b27cbb2d","null","null","<p style=""font-size: 60px; font-family: BACS"">KABAYDE</p>","","","","","","","","",""
"html-keyboard-response","385","584065","0.0-15.0-0.54","648b962b8fdb1fa686213ac1","64e77d7b61f440b60e28659d","64ecad81b8f7e141b27cbb2d","null","null","<p style=""font-size: 60px; font-family: BACS"">KABAYDE</p>","","","","","","","","",""
"html-keyboard-response","386","585068","0.0-15.0-0.55","648b962b8fdb1fa686213ac1","64e77d7b61f440b60e28659d","64ecad81b8f7e141b27cbb2d","null","null","<p style=""font-size: 60px; font-family: BACS"">KABAYDE</p>","","","","","","","","",""
"html-keyboard-response","387","586070","0.0-15.0-0.56","648b962b8fdb1fa686213ac1","64e77d7b61f440b60e28659d","64ecad81b8f7e141b27cbb2d","null","null","<p style=""font-size: 60px; font-family: BACS"">KABAYDE</p>","","","","","","","","",""
"html-keyboard-response","388","587073","0.0-15.0-0.57","648b962b8fdb1fa686213ac1","64e77d7b61f440b60e28659d","64ecad81b8f7e141b27cbb2d","null","null","<p style=""font-size: 60px; font-family: BACS"">KABAYDE</p>","","","","","","","","",""
"html-keyboard-response","389","588086","0.0-15.0-0.58","648b962b8fdb1fa686213ac1","64e77d7b61f440b60e28659d","64ecad81b8f7e141b27cbb2d","null","null","<p style=""font-size: 60px; font-family: BACS"">KABAYDE</p>","","","","","","","","",""
"html-keyboard-response","390","589098","0.0-15.0-0.59","648b962b8fdb1fa686213ac1","64e77d7b61f440b60e28659d","64ecad81b8f7e141b27cbb2d","null","null","<p style=""font-size: 60px; font-family: BACS"">KABAYDE</p>","","","","","","","","",""
"html-keyboard-response","391","590101","0.0-15.0-0.60","648b962b8fdb1fa686213ac1","64e77d7b61f440b60e28659d","64ecad81b8f7e141b27cbb2d","null","null","<p style=""font-size: 60px; font-family: BACS"">KABAYDE</p>","","","","","","","","",""
"html-keyboard-response","392","591105","0.0-15.0-0.61","648b962b8fdb1fa686213ac1","64e77d7b61f440b60e28659d","64ecad81b8f7e141b27cbb2d","null","null","<p style=""font-size: 60px; font-family: BACS"">KABAYDE</p>","","","","","","","","",""
"html-keyboard-response","393","592118","0.0-15.0-0.62","648b962b8fdb1fa686213ac1","64e77d7b61f440b60e28659d","64ecad81b8f7e141b27cbb2d","null","null","<p style=""font-size: 60px; font-family: BACS"">KABAYDE</p>","","","","","","","","",""
"html-keyboard-response","394","593120","0.0-15.0-0.63","648b962b8fdb1fa686213ac1","64e77d7b61f440b60e28659d","64ecad81b8f7e141b27cbb2d","null","null","<p style=""font-size: 60px; font-family: BACS"">KABAYDE</p>","","","","","","","","",""
"html-keyboard-response","395","594134","0.0-15.0-0.64","648b962b8fdb1fa686213ac1","64e77d7b61f440b60e28659d","64ecad81b8f7e141b27cbb2d","null","null","<p style=""font-size: 60px; font-family: BACS"">KABAYDE</p>","","","","","","","","",""
"html-keyboard-response","396","595148","0.0-15.0-0.65","648b962b8fdb1fa686213ac1","64e77d7b61f440b60e28659d","64ecad81b8f7e141b27cbb2d","null","null","<p style=""font-size: 60px; font-family: BACS"">KABAYDE</p>","","","","","","","","",""
"html-keyboard-response","397","596161","0.0-15.0-0.66","648b962b8fdb1fa686213ac1","64e77d7b61f440b60e28659d","64ecad81b8f7e141b27cbb2d","null","null","<p style=""font-size: 60px; font-family: BACS"">KABAYDE</p>","","","","","","","","",""
"html-keyboard-response","398","597164","0.0-15.0-0.67","648b962b8fdb1fa686213ac1","64e77d7b61f440b60e28659d","64ecad81b8f7e141b27cbb2d","null","null","<p style=""font-size: 60px; font-family: BACS"">KABAYDE</p>","","","","","","","","",""
