"trial_type","trial_index","time_elapsed","internal_node_id","subject_id","study_id","session_id","rt","response","stimulus","success","item","task","correct_response","testing_condition","correct","target","confound","name","view_history"
"pavlovia","0","764","0.0-0.0","60123adc24c9f126819861b6","650c16f0f2faf8d7a0d14c09","651c1cf3265b91536d984282","","","","","","","","","","","","",""
"survey-html-form","1","18380","0.0-1.0","60123adc24c9f126819861b6","650c16f0f2faf8d7a0d14c09","651c1cf3265b91536d984282","17615","{""ID"":""60123adc24c9f126819861b6""}","","","","","","","","","","",""
"html-keyboard-response","2","48921","0.0-2.0","60123adc24c9f126819861b6","650c16f0f2faf8d7a0d14c09","651c1cf3265b91536d984282","30538"," ","<p style=""font-size: 15px;"">Before beginning, we ask that you read the consent information and confirm your agreement to participate in the experiment.</p>
      <p style=""font-size: 15px;""> We ask that you remember that this is a research project and that your participation is entirely voluntary. You can stop your participation at any time, without needing to provide any explanation. The study we're asking you to participate in aims at examining how readers process written words. You will be engaged in a session of apprximately 20 minutes, followed by a brief questionnaire. You will have the opportunity to take a few breaks during the experiment. You will be paid £4 for your participation, corresponding to a rate of £8/hour. While this experiment looks at cognitive faculties, this experiment doesn't constitute clinical proof of eventual pathologies.</p>
      <p style=""font-size: 15px;"">All of the information collected thanks to yours and others' participation will be held in a secure password-protected server, and will not be shared with anyone not authorised to view it. Your personal information will be kept with an arbitrary participant ID. Thanks to this data anonymity process, any researcher analysing the data won't be able to track the information back to a specific participant. Therefore, this process will make identifying you impossibile, even when results from the study will be published in scientific reviews, presented at congresses, or at any other public forum. More generally, the collected data will be treated in accordance with the laws on privacy and conformity to the Legislative Degree n. 196 ""Code regarding the protection of personal data"" of the 30th of June 2003 and to the European Regulation 2016/670 (General Data Protection Regulation - GDPR). The Data Protection Officer is Avv. Valentina Carollo, who can be contacted at the following email addresses: <a href=""mailto:dpo@sissa.it"">dpo@sissa.it</a> or <a href=""mailto:rpd@sissa.it"">rpd@sissa.it</a> - PEC: <a href=""mailto:protocollo@pec.sissa.it"">protocollo@pec.sissa.it</a>.</p>
      <p style=""font-size: 15px;""> Before expressing your consent to participate, we would like to remind you again that in case you need explanations on any aspect of the experimental procedure, the researcher is at your disposition (<a href=""mailto:aliebelt@sissa.it"">aliebelt@sissa.it</a>, <a href=""mailto:davide.crepaldi@sissa.it"">davide.crepaldi@sissa.it</a>).</p>
      <p style=""font-size: 15px;"">If you would like to download the informed consent form, you can do so here: <a href=""BASL-Informed_Consent.pdf"" download>informed consent form</a>.</p>
      <p style=""font-size: 15px;"">We ask that you press the spacebar to proceed to the consent section.</p>","","","","","","","","","",""
"survey-html-form","3","63523","0.0-3.0","60123adc24c9f126819861b6","650c16f0f2faf8d7a0d14c09","651c1cf3265b91536d984282","14600","{""consent1"":""YES"",""consent2"":""YES"",""consent3"":""YES"",""consent4"":""YES"",""consent5"":""YES"",""consent6"":""YES""}","","","","","","","","","","",""
"fullscreen","4","70314","0.0-4.0","60123adc24c9f126819861b6","650c16f0f2faf8d7a0d14c09","651c1cf3265b91536d984282","","","","true","","","","","","","","",""
"html-keyboard-response","5","106876","0.0-5.0","60123adc24c9f126819861b6","650c16f0f2faf8d7a0d14c09","651c1cf3265b91536d984282","36562"," ","<p>Welcome, and thank you very much for your time!</p>
      <p>In this experiment, you'll be a language expert who's been asked to take a look at words that Earth has received in its first communication with aliens. Your task, in this first part of the experiment, is to pay close attention to the words you'll be shown; later, world leaders will ask you questions on what you saw. The words will be shown to you quite quickly; it seems that the aliens were in a hurry :-)</p>
      <p>Press the spacebar to continue.<p>","","","","","","","","","",""
"html-keyboard-response","6","106933","0.0-6.0","60123adc24c9f126819861b6","650c16f0f2faf8d7a0d14c09","651c1cf3265b91536d984282","null","null","<p style=""font-size: 120px; font-family: BACS""> </p>","","","","","","","","","",""
"html-keyboard-response","7","145488","0.0-7.0","60123adc24c9f126819861b6","650c16f0f2faf8d7a0d14c09","651c1cf3265b91536d984282","38554"," ","<p>Here is an example of the words you'll see:</p>
      <img src='esempio.png' height='400px'>
      <p>When you're ready to begin, press the spacebar.</p></div>","","","","","","","","","",""
"html-keyboard-response","8","146502","0.0-8.0-0.0","60123adc24c9f126819861b6","650c16f0f2faf8d7a0d14c09","651c1cf3265b91536d984282","null","null","<p style=""font-size: 60px; font-family: BACS"">PCMPKBYhT</p>","","","","","","","","","",""
"html-keyboard-response","9","147512","0.0-8.0-0.1","60123adc24c9f126819861b6","650c16f0f2faf8d7a0d14c09","651c1cf3265b91536d984282","null","null","<p style=""font-size: 60px; font-family: BACS"">dCtMACmYA</p>","","","","","","","","","",""
"html-keyboard-response","10","148524","0.0-8.0-0.2","60123adc24c9f126819861b6","650c16f0f2faf8d7a0d14c09","651c1cf3265b91536d984282","null","null","<p style=""font-size: 60px; font-family: BACS"">kcCRtYcM</p>","","","","","","","","","",""
"html-keyboard-response","11","149534","0.0-8.0-0.3","60123adc24c9f126819861b6","650c16f0f2faf8d7a0d14c09","651c1cf3265b91536d984282","null","null","<p style=""font-size: 60px; font-family: BACS"">ubALmUbG</p>","","","","","","","","","",""
"html-keyboard-response","12","150541","0.0-8.0-0.4","60123adc24c9f126819861b6","650c16f0f2faf8d7a0d14c09","651c1cf3265b91536d984282","null","null","<p style=""font-size: 60px; font-family: BACS"">YcdOJQA</p>","","","","","","","","","",""
"html-keyboard-response","13","151549","0.0-8.0-0.5","60123adc24c9f126819861b6","650c16f0f2faf8d7a0d14c09","651c1cf3265b91536d984282","null","null","<p style=""font-size: 60px; font-family: BACS"">dRhtTRkY</p>","","","","","","","","","",""
"html-keyboard-response","14","152563","0.0-8.0-0.6","60123adc24c9f126819861b6","650c16f0f2faf8d7a0d14c09","651c1cf3265b91536d984282","null","null","<p style=""font-size: 60px; font-family: BACS"">YKRkCmYA</p>","","","","","","","","","",""
"html-keyboard-response","15","153574","0.0-8.0-0.7","60123adc24c9f126819861b6","650c16f0f2faf8d7a0d14c09","651c1cf3265b91536d984282","null","null","<p style=""font-size: 60px; font-family: BACS"">dRhtBYhT</p>","","","","","","","","","",""
"html-keyboard-response","16","154585","0.0-8.0-0.8","60123adc24c9f126819861b6","650c16f0f2faf8d7a0d14c09","651c1cf3265b91536d984282","null","null","<p style=""font-size: 60px; font-family: BACS"">lGZvrba</p>","","","","","","","","","",""
"html-keyboard-response","17","155599","0.0-8.0-0.9","60123adc24c9f126819861b6","650c16f0f2faf8d7a0d14c09","651c1cf3265b91536d984282","null","null","<p style=""font-size: 60px; font-family: BACS"">YObABYhT</p>","","","","","","","","","",""
"html-keyboard-response","18","156606","0.0-8.0-0.10","60123adc24c9f126819861b6","650c16f0f2faf8d7a0d14c09","651c1cf3265b91536d984282","null","null","<p style=""font-size: 60px; font-family: BACS"">OdlNmcbm</p>","","","","","","","","","",""
"html-keyboard-response","19","157614","0.0-8.0-0.11","60123adc24c9f126819861b6","650c16f0f2faf8d7a0d14c09","651c1cf3265b91536d984282","null","null","<p style=""font-size: 60px; font-family: BACS"">kcCRtCmYA</p>","","","","","","","","","",""
"html-keyboard-response","20","158627","0.0-8.0-0.12","60123adc24c9f126819861b6","650c16f0f2faf8d7a0d14c09","651c1cf3265b91536d984282","null","null","<p style=""font-size: 60px; font-family: BACS"">uauOUbG</p>","","","","","","","","","",""
"html-keyboard-response","21","159637","0.0-8.0-0.13","60123adc24c9f126819861b6","650c16f0f2faf8d7a0d14c09","651c1cf3265b91536d984282","null","null","<p style=""font-size: 60px; font-family: BACS"">dCtMABYhT</p>","","","","","","","","","",""
"html-keyboard-response","22","160639","0.0-8.0-0.14","60123adc24c9f126819861b6","650c16f0f2faf8d7a0d14c09","651c1cf3265b91536d984282","null","null","<p style=""font-size: 60px; font-family: BACS"">uauOcbm</p>","","","","","","","","","",""
"html-keyboard-response","23","161656","0.0-8.0-0.15","60123adc24c9f126819861b6","650c16f0f2faf8d7a0d14c09","651c1cf3265b91536d984282","null","null","<p style=""font-size: 60px; font-family: BACS"">RtRhRCdc</p>","","","","","","","","","",""
"html-keyboard-response","24","162664","0.0-8.0-0.16","60123adc24c9f126819861b6","650c16f0f2faf8d7a0d14c09","651c1cf3265b91536d984282","null","null","<p style=""font-size: 60px; font-family: BACS"">GAcYJQA</p>","","","","","","","","","",""
"html-keyboard-response","25","163672","0.0-8.0-0.17","60123adc24c9f126819861b6","650c16f0f2faf8d7a0d14c09","651c1cf3265b91536d984282","null","null","<p style=""font-size: 60px; font-family: BACS"">kcCRtTRkY</p>","","","","","","","","","",""
"html-keyboard-response","26","164677","0.0-8.0-0.18","60123adc24c9f126819861b6","650c16f0f2faf8d7a0d14c09","651c1cf3265b91536d984282","null","null","<p style=""font-size: 60px; font-family: BACS"">lGZvcbm</p>","","","","","","","","","",""
"html-keyboard-response","27","165689","0.0-8.0-0.19","60123adc24c9f126819861b6","650c16f0f2faf8d7a0d14c09","651c1cf3265b91536d984282","null","null","<p style=""font-size: 60px; font-family: BACS"">dCtMAYcM</p>","","","","","","","","","",""
"html-keyboard-response","28","166695","0.0-8.0-0.20","60123adc24c9f126819861b6","650c16f0f2faf8d7a0d14c09","651c1cf3265b91536d984282","null","null","<p style=""font-size: 60px; font-family: BACS"">rcmuvcbm</p>","","","","","","","","","",""
"html-keyboard-response","29","167705","0.0-8.0-0.21","60123adc24c9f126819861b6","650c16f0f2faf8d7a0d14c09","651c1cf3265b91536d984282","null","null","<p style=""font-size: 60px; font-family: BACS"">RtRhBYhT</p>","","","","","","","","","",""
"html-keyboard-response","30","168714","0.0-8.0-0.22","60123adc24c9f126819861b6","650c16f0f2faf8d7a0d14c09","651c1cf3265b91536d984282","null","null","<p style=""font-size: 60px; font-family: BACS"">YKRkRCdc</p>","","","","","","","","","",""
"html-keyboard-response","31","169722","0.0-8.0-0.23","60123adc24c9f126819861b6","650c16f0f2faf8d7a0d14c09","651c1cf3265b91536d984282","null","null","<p style=""font-size: 60px; font-family: BACS"">GJGcZJQA</p>","","","","","","","","","",""
"html-keyboard-response","32","170727","0.0-8.0-0.24","60123adc24c9f126819861b6","650c16f0f2faf8d7a0d14c09","651c1cf3265b91536d984282","null","null","<p style=""font-size: 60px; font-family: BACS"">mBmlATRkY</p>","","","","","","","","","",""
"html-keyboard-response","33","171743","0.0-8.0-0.25","60123adc24c9f126819861b6","650c16f0f2faf8d7a0d14c09","651c1cf3265b91536d984282","null","null","<p style=""font-size: 60px; font-family: BACS"">rcmuvUbG</p>","","","","","","","","","",""
"html-keyboard-response","34","172753","0.0-8.0-0.26","60123adc24c9f126819861b6","650c16f0f2faf8d7a0d14c09","651c1cf3265b91536d984282","null","null","<p style=""font-size: 60px; font-family: BACS"">YOZNuUmb</p>","","","","","","","","","",""
"html-keyboard-response","35","173765","0.0-8.0-0.27","60123adc24c9f126819861b6","650c16f0f2faf8d7a0d14c09","651c1cf3265b91536d984282","null","null","<p style=""font-size: 60px; font-family: BACS"">PCMPKRCdc</p>","","","","","","","","","",""
"html-keyboard-response","36","174778","0.0-8.0-0.28","60123adc24c9f126819861b6","650c16f0f2faf8d7a0d14c09","651c1cf3265b91536d984282","null","null","<p style=""font-size: 60px; font-family: BACS"">YcdOuUmb</p>","","","","","","","","","",""
"html-keyboard-response","37","175793","0.0-8.0-0.29","60123adc24c9f126819861b6","650c16f0f2faf8d7a0d14c09","651c1cf3265b91536d984282","null","null","<p style=""font-size: 60px; font-family: BACS"">mBmlACmYA</p>","","","","","","","","","",""
"html-keyboard-response","38","176802","0.0-8.0-0.30","60123adc24c9f126819861b6","650c16f0f2faf8d7a0d14c09","651c1cf3265b91536d984282","null","null","<p style=""font-size: 60px; font-family: BACS"">GAcYuUmb</p>","","","","","","","","","",""
"html-keyboard-response","39","177814","0.0-8.0-0.31","60123adc24c9f126819861b6","650c16f0f2faf8d7a0d14c09","651c1cf3265b91536d984282","null","null","<p style=""font-size: 60px; font-family: BACS"">kcCRtBYhT</p>","","","","","","","","","",""
"html-keyboard-response","40","178816","0.0-8.0-0.32","60123adc24c9f126819861b6","650c16f0f2faf8d7a0d14c09","651c1cf3265b91536d984282","null","null","<p style=""font-size: 60px; font-family: BACS"">RtRhTRkY</p>","","","","","","","","","",""
"html-keyboard-response","41","179827","0.0-8.0-0.33","60123adc24c9f126819861b6","650c16f0f2faf8d7a0d14c09","651c1cf3265b91536d984282","null","null","<p style=""font-size: 60px; font-family: BACS"">GAcYUbG</p>","","","","","","","","","",""
"html-keyboard-response","42","180833","0.0-8.0-0.34","60123adc24c9f126819861b6","650c16f0f2faf8d7a0d14c09","651c1cf3265b91536d984282","null","null","<p style=""font-size: 60px; font-family: BACS"">YObACmYA</p>","","","","","","","","","",""
"html-keyboard-response","43","181847","0.0-8.0-0.35","60123adc24c9f126819861b6","650c16f0f2faf8d7a0d14c09","651c1cf3265b91536d984282","null","null","<p style=""font-size: 60px; font-family: BACS"">PCMPKYcM</p>","","","","","","","","","",""
"html-keyboard-response","44","182855","0.0-8.0-0.36","60123adc24c9f126819861b6","650c16f0f2faf8d7a0d14c09","651c1cf3265b91536d984282","null","null","<p style=""font-size: 60px; font-family: BACS"">OdlNmuUmb</p>","","","","","","","","","",""
"html-keyboard-response","45","183864","0.0-8.0-0.37","60123adc24c9f126819861b6","650c16f0f2faf8d7a0d14c09","651c1cf3265b91536d984282","null","null","<p style=""font-size: 60px; font-family: BACS"">YcdOrba</p>","","","","","","","","","",""
"html-keyboard-response","46","184873","0.0-8.0-0.38","60123adc24c9f126819861b6","650c16f0f2faf8d7a0d14c09","651c1cf3265b91536d984282","null","null","<p style=""font-size: 60px; font-family: BACS"">MBKRERCdc</p>","","","","","","","","","",""
"html-keyboard-response","47","185881","0.0-8.0-0.39","60123adc24c9f126819861b6","650c16f0f2faf8d7a0d14c09","651c1cf3265b91536d984282","null","null","<p style=""font-size: 60px; font-family: BACS"">uauOrba</p>","","","","","","","","","",""
"html-keyboard-response","48","186892","0.0-8.0-0.40","60123adc24c9f126819861b6","650c16f0f2faf8d7a0d14c09","651c1cf3265b91536d984282","null","null","<p style=""font-size: 60px; font-family: BACS"">RtRhYcM</p>","","","","","","","","","",""
"html-keyboard-response","49","187898","0.0-8.0-0.41","60123adc24c9f126819861b6","650c16f0f2faf8d7a0d14c09","651c1cf3265b91536d984282","null","null","<p style=""font-size: 60px; font-family: BACS"">YObARCdc</p>","","","","","","","","","",""
"html-keyboard-response","50","188905","0.0-8.0-0.42","60123adc24c9f126819861b6","650c16f0f2faf8d7a0d14c09","651c1cf3265b91536d984282","null","null","<p style=""font-size: 60px; font-family: BACS"">mBmlAYcM</p>","","","","","","","","","",""
"html-keyboard-response","51","189914","0.0-8.0-0.43","60123adc24c9f126819861b6","650c16f0f2faf8d7a0d14c09","651c1cf3265b91536d984282","null","null","<p style=""font-size: 60px; font-family: BACS"">GJGcZuUmb</p>","","","","","","","","","",""
"html-keyboard-response","52","190925","0.0-8.0-0.44","60123adc24c9f126819861b6","650c16f0f2faf8d7a0d14c09","651c1cf3265b91536d984282","null","null","<p style=""font-size: 60px; font-family: BACS"">dRhtCmYA</p>","","","","","","","","","",""
"html-keyboard-response","53","191929","0.0-8.0-0.45","60123adc24c9f126819861b6","650c16f0f2faf8d7a0d14c09","651c1cf3265b91536d984282","null","null","<p style=""font-size: 60px; font-family: BACS"">dCtMARCdc</p>","","","","","","","","","",""
"html-keyboard-response","54","192945","0.0-8.0-0.46","60123adc24c9f126819861b6","650c16f0f2faf8d7a0d14c09","651c1cf3265b91536d984282","null","null","<p style=""font-size: 60px; font-family: BACS"">vmuLlcbm</p>","","","","","","","","","",""
"html-keyboard-response","55","193959","0.0-8.0-0.47","60123adc24c9f126819861b6","650c16f0f2faf8d7a0d14c09","651c1cf3265b91536d984282","null","null","<p style=""font-size: 60px; font-family: BACS"">YOZNrba</p>","","","","","","","","","",""
"html-keyboard-response","56","194960","0.0-8.0-0.48","60123adc24c9f126819861b6","650c16f0f2faf8d7a0d14c09","651c1cf3265b91536d984282","null","null","<p style=""font-size: 60px; font-family: BACS"">GJGcZUbG</p>","","","","","","","","","",""
"html-keyboard-response","57","195976","0.0-8.0-0.49","60123adc24c9f126819861b6","650c16f0f2faf8d7a0d14c09","651c1cf3265b91536d984282","null","null","<p style=""font-size: 60px; font-family: BACS"">BECkYcM</p>","","","","","","","","","",""
"html-keyboard-response","58","196985","0.0-8.0-0.50","60123adc24c9f126819861b6","650c16f0f2faf8d7a0d14c09","651c1cf3265b91536d984282","null","null","<p style=""font-size: 60px; font-family: BACS"">OdlNmJQA</p>","","","","","","","","","",""
"html-keyboard-response","59","198001","0.0-8.0-0.51","60123adc24c9f126819861b6","650c16f0f2faf8d7a0d14c09","651c1cf3265b91536d984282","null","null","<p style=""font-size: 60px; font-family: BACS"">ubALmrba</p>","","","","","","","","","",""
"html-keyboard-response","60","199008","0.0-8.0-0.52","60123adc24c9f126819861b6","650c16f0f2faf8d7a0d14c09","651c1cf3265b91536d984282","null","null","<p style=""font-size: 60px; font-family: BACS"">MBKRECmYA</p>","","","","","","","","","",""
"html-keyboard-response","61","200020","0.0-8.0-0.53","60123adc24c9f126819861b6","650c16f0f2faf8d7a0d14c09","651c1cf3265b91536d984282","null","null","<p style=""font-size: 60px; font-family: BACS"">dRhtRCdc</p>","","","","","","","","","",""
"html-keyboard-response","62","201031","0.0-8.0-0.54","60123adc24c9f126819861b6","650c16f0f2faf8d7a0d14c09","651c1cf3265b91536d984282","null","null","<p style=""font-size: 60px; font-family: BACS"">ubALmuUmb</p>","","","","","","","","","",""
"html-keyboard-response","63","202042","0.0-8.0-0.55","60123adc24c9f126819861b6","650c16f0f2faf8d7a0d14c09","651c1cf3265b91536d984282","null","null","<p style=""font-size: 60px; font-family: BACS"">GJGcZcbm</p>","","","","","","","","","",""
"html-keyboard-response","64","203056","0.0-8.0-0.56","60123adc24c9f126819861b6","650c16f0f2faf8d7a0d14c09","651c1cf3265b91536d984282","null","null","<p style=""font-size: 60px; font-family: BACS"">GAcYrba</p>","","","","","","","","","",""
"html-keyboard-response","65","204063","0.0-8.0-0.57","60123adc24c9f126819861b6","650c16f0f2faf8d7a0d14c09","651c1cf3265b91536d984282","null","null","<p style=""font-size: 60px; font-family: BACS"">BECkCmYA</p>","","","","","","","","","",""
"html-keyboard-response","66","205077","0.0-8.0-0.58","60123adc24c9f126819861b6","650c16f0f2faf8d7a0d14c09","651c1cf3265b91536d984282","null","null","<p style=""font-size: 60px; font-family: BACS"">YKRkTRkY</p>","","","","","","","","","",""
"html-keyboard-response","67","206084","0.0-8.0-0.59","60123adc24c9f126819861b6","650c16f0f2faf8d7a0d14c09","651c1cf3265b91536d984282","null","null","<p style=""font-size: 60px; font-family: BACS"">ubALmcbm</p>","","","","","","","","","",""
"html-keyboard-response","68","207095","0.0-8.0-0.60","60123adc24c9f126819861b6","650c16f0f2faf8d7a0d14c09","651c1cf3265b91536d984282","null","null","<p style=""font-size: 60px; font-family: BACS"">OdlNmUbG</p>","","","","","","","","","",""
"html-keyboard-response","69","208103","0.0-8.0-0.61","60123adc24c9f126819861b6","650c16f0f2faf8d7a0d14c09","651c1cf3265b91536d984282","null","null","<p style=""font-size: 60px; font-family: BACS"">uauOJQA</p>","","","","","","","","","",""
"html-keyboard-response","70","209115","0.0-8.0-0.62","60123adc24c9f126819861b6","650c16f0f2faf8d7a0d14c09","651c1cf3265b91536d984282","null","null","<p style=""font-size: 60px; font-family: BACS"">mBmlARCdc</p>","","","","","","","","","",""
"html-keyboard-response","71","210127","0.0-8.0-0.63","60123adc24c9f126819861b6","650c16f0f2faf8d7a0d14c09","651c1cf3265b91536d984282","null","null","<p style=""font-size: 60px; font-family: BACS"">MBKREBYhT</p>","","","","","","","","","",""
"html-keyboard-response","72","211140","0.0-8.0-0.64","60123adc24c9f126819861b6","650c16f0f2faf8d7a0d14c09","651c1cf3265b91536d984282","null","null","<p style=""font-size: 60px; font-family: BACS"">YOZNJQA</p>","","","","","","","","","",""
"html-keyboard-response","73","212151","0.0-8.0-0.65","60123adc24c9f126819861b6","650c16f0f2faf8d7a0d14c09","651c1cf3265b91536d984282","null","null","<p style=""font-size: 60px; font-family: BACS"">vmuLlrba</p>","","","","","","","","","",""
"html-keyboard-response","74","213164","0.0-8.0-0.66","60123adc24c9f126819861b6","650c16f0f2faf8d7a0d14c09","651c1cf3265b91536d984282","null","null","<p style=""font-size: 60px; font-family: BACS"">YObAYcM</p>","","","","","","","","","",""
"html-keyboard-response","75","214170","0.0-8.0-0.67","60123adc24c9f126819861b6","650c16f0f2faf8d7a0d14c09","651c1cf3265b91536d984282","null","null","<p style=""font-size: 60px; font-family: BACS"">lGZvUbG</p>","","","","","","","","","",""
"html-keyboard-response","76","215182","0.0-8.0-0.68","60123adc24c9f126819861b6","650c16f0f2faf8d7a0d14c09","651c1cf3265b91536d984282","null","null","<p style=""font-size: 60px; font-family: BACS"">BECkTRkY</p>","","","","","","","","","",""
"html-keyboard-response","77","216192","0.0-8.0-0.69","60123adc24c9f126819861b6","650c16f0f2faf8d7a0d14c09","651c1cf3265b91536d984282","null","null","<p style=""font-size: 60px; font-family: BACS"">YcdOUbG</p>","","","","","","","","","",""
"html-keyboard-response","78","217203","0.0-8.0-0.70","60123adc24c9f126819861b6","650c16f0f2faf8d7a0d14c09","651c1cf3265b91536d984282","null","null","<p style=""font-size: 60px; font-family: BACS"">rcmuvuUmb</p>","","","","","","","","","",""
"html-keyboard-response","79","218211","0.0-8.0-0.71","60123adc24c9f126819861b6","650c16f0f2faf8d7a0d14c09","651c1cf3265b91536d984282","null","null","<p style=""font-size: 60px; font-family: BACS"">BECkBYhT</p>","","","","","","","","","",""
"html-keyboard-response","80","219221","0.0-8.0-0.72","60123adc24c9f126819861b6","650c16f0f2faf8d7a0d14c09","651c1cf3265b91536d984282","null","null","<p style=""font-size: 60px; font-family: BACS"">vmuLluUmb</p>","","","","","","","","","",""
"html-keyboard-response","81","220231","0.0-8.0-0.73","60123adc24c9f126819861b6","650c16f0f2faf8d7a0d14c09","651c1cf3265b91536d984282","null","null","<p style=""font-size: 60px; font-family: BACS"">MBKRETRkY</p>","","","","","","","","","",""
"html-keyboard-response","82","221241","0.0-8.0-0.74","60123adc24c9f126819861b6","650c16f0f2faf8d7a0d14c09","651c1cf3265b91536d984282","null","null","<p style=""font-size: 60px; font-family: BACS"">YKRkYcM</p>","","","","","","","","","",""
"html-keyboard-response","83","222249","0.0-8.0-0.75","60123adc24c9f126819861b6","650c16f0f2faf8d7a0d14c09","651c1cf3265b91536d984282","null","null","<p style=""font-size: 60px; font-family: BACS"">PCMPKTRkY</p>","","","","","","","","","",""
"html-keyboard-response","84","223259","0.0-8.0-0.76","60123adc24c9f126819861b6","650c16f0f2faf8d7a0d14c09","651c1cf3265b91536d984282","null","null","<p style=""font-size: 60px; font-family: BACS"">rcmuvrba</p>","","","","","","","","","",""
"html-keyboard-response","85","224270","0.0-8.0-0.77","60123adc24c9f126819861b6","650c16f0f2faf8d7a0d14c09","651c1cf3265b91536d984282","null","null","<p style=""font-size: 60px; font-family: BACS"">vmuLlJQA</p>","","","","","","","","","",""
"html-keyboard-response","86","225280","0.0-8.0-0.78","60123adc24c9f126819861b6","650c16f0f2faf8d7a0d14c09","651c1cf3265b91536d984282","null","null","<p style=""font-size: 60px; font-family: BACS"">YOZNcbm</p>","","","","","","","","","",""
"html-keyboard-response","87","226295","0.0-8.0-0.79","60123adc24c9f126819861b6","650c16f0f2faf8d7a0d14c09","651c1cf3265b91536d984282","null","null","<p style=""font-size: 60px; font-family: BACS"">lGZvJQA</p>","","","","","","","","","",""
"html-keyboard-response","88","233923","0.0-9.0","60123adc24c9f126819861b6","650c16f0f2faf8d7a0d14c09","651c1cf3265b91536d984282","7627"," ","<p>Great, you've seen the first block of words. You may now take a short break.</p>
      <p>Press the spacebar when you're ready to continue.</p>","","","","","","","","","",""
"html-keyboard-response","89","234936","0.0-10.0-0.0","60123adc24c9f126819861b6","650c16f0f2faf8d7a0d14c09","651c1cf3265b91536d984282","null","null","<p style=""font-size: 60px; font-family: BACS"">dCtMABYhT</p>","","","","","","","","","",""
"html-keyboard-response","90","235945","0.0-10.0-0.1","60123adc24c9f126819861b6","650c16f0f2faf8d7a0d14c09","651c1cf3265b91536d984282","null","null","<p style=""font-size: 60px; font-family: BACS"">rcmuvrba</p>","","","","","","","","","",""
"html-keyboard-response","91","236956","0.0-10.0-0.2","60123adc24c9f126819861b6","650c16f0f2faf8d7a0d14c09","651c1cf3265b91536d984282","null","null","<p style=""font-size: 60px; font-family: BACS"">mBmlATRkY</p>","","","","","","","","","",""
"html-keyboard-response","92","237968","0.0-10.0-0.3","60123adc24c9f126819861b6","650c16f0f2faf8d7a0d14c09","651c1cf3265b91536d984282","null","null","<p style=""font-size: 60px; font-family: BACS"">uauOJQA</p>","","","","","","","","","",""
"html-keyboard-response","93","238977","0.0-10.0-0.4","60123adc24c9f126819861b6","650c16f0f2faf8d7a0d14c09","651c1cf3265b91536d984282","null","null","<p style=""font-size: 60px; font-family: BACS"">dRhtRCdc</p>","","","","","","","","","",""
"html-keyboard-response","94","239984","0.0-10.0-0.5","60123adc24c9f126819861b6","650c16f0f2faf8d7a0d14c09","651c1cf3265b91536d984282","null","null","<p style=""font-size: 60px; font-family: BACS"">GJGcZUbG</p>","","","","","","","","","",""
"html-keyboard-response","95","240994","0.0-10.0-0.6","60123adc24c9f126819861b6","650c16f0f2faf8d7a0d14c09","651c1cf3265b91536d984282","null","null","<p style=""font-size: 60px; font-family: BACS"">mBmlARCdc</p>","","","","","","","","","",""
"html-keyboard-response","96","242006","0.0-10.0-0.7","60123adc24c9f126819861b6","650c16f0f2faf8d7a0d14c09","651c1cf3265b91536d984282","null","null","<p style=""font-size: 60px; font-family: BACS"">GAcYrba</p>","","","","","","","","","",""
"html-keyboard-response","97","243008","0.0-10.0-0.8","60123adc24c9f126819861b6","650c16f0f2faf8d7a0d14c09","651c1cf3265b91536d984282","null","null","<p style=""font-size: 60px; font-family: BACS"">RtRhBYhT</p>","","","","","","","","","",""
"html-keyboard-response","98","244018","0.0-10.0-0.9","60123adc24c9f126819861b6","650c16f0f2faf8d7a0d14c09","651c1cf3265b91536d984282","null","null","<p style=""font-size: 60px; font-family: BACS"">dCtMARCdc</p>","","","","","","","","","",""
"html-keyboard-response","99","245025","0.0-10.0-0.10","60123adc24c9f126819861b6","650c16f0f2faf8d7a0d14c09","651c1cf3265b91536d984282","null","null","<p style=""font-size: 60px; font-family: BACS"">rcmuvcbm</p>","","","","","","","","","",""
"html-keyboard-response","100","246035","0.0-10.0-0.11","60123adc24c9f126819861b6","650c16f0f2faf8d7a0d14c09","651c1cf3265b91536d984282","null","null","<p style=""font-size: 60px; font-family: BACS"">ubALmUbG</p>","","","","","","","","","",""
"html-keyboard-response","101","247045","0.0-10.0-0.12","60123adc24c9f126819861b6","650c16f0f2faf8d7a0d14c09","651c1cf3265b91536d984282","null","null","<p style=""font-size: 60px; font-family: BACS"">dRhtTRkY</p>","","","","","","","","","",""
"html-keyboard-response","102","248056","0.0-10.0-0.13","60123adc24c9f126819861b6","650c16f0f2faf8d7a0d14c09","651c1cf3265b91536d984282","null","null","<p style=""font-size: 60px; font-family: BACS"">GAcYUbG</p>","","","","","","","","","",""
"html-keyboard-response","103","249070","0.0-10.0-0.14","60123adc24c9f126819861b6","650c16f0f2faf8d7a0d14c09","651c1cf3265b91536d984282","null","null","<p style=""font-size: 60px; font-family: BACS"">YKRkYcM</p>","","","","","","","","","",""
"html-keyboard-response","104","250077","0.0-10.0-0.15","60123adc24c9f126819861b6","650c16f0f2faf8d7a0d14c09","651c1cf3265b91536d984282","null","null","<p style=""font-size: 60px; font-family: BACS"">BECkTRkY</p>","","","","","","","","","",""
"html-keyboard-response","105","251087","0.0-10.0-0.16","60123adc24c9f126819861b6","650c16f0f2faf8d7a0d14c09","651c1cf3265b91536d984282","null","null","<p style=""font-size: 60px; font-family: BACS"">vmuLluUmb</p>","","","","","","","","","",""
"html-keyboard-response","106","252097","0.0-10.0-0.17","60123adc24c9f126819861b6","650c16f0f2faf8d7a0d14c09","651c1cf3265b91536d984282","null","null","<p style=""font-size: 60px; font-family: BACS"">BECkCmYA</p>","","","","","","","","","",""
"html-keyboard-response","107","253108","0.0-10.0-0.18","60123adc24c9f126819861b6","650c16f0f2faf8d7a0d14c09","651c1cf3265b91536d984282","null","null","<p style=""font-size: 60px; font-family: BACS"">RtRhYcM</p>","","","","","","","","","",""
"html-keyboard-response","108","254117","0.0-10.0-0.19","60123adc24c9f126819861b6","650c16f0f2faf8d7a0d14c09","651c1cf3265b91536d984282","null","null","<p style=""font-size: 60px; font-family: BACS"">rcmuvUbG</p>","","","","","","","","","",""
"html-keyboard-response","109","255128","0.0-10.0-0.20","60123adc24c9f126819861b6","650c16f0f2faf8d7a0d14c09","651c1cf3265b91536d984282","null","null","<p style=""font-size: 60px; font-family: BACS"">GJGcZuUmb</p>","","","","","","","","","",""
"html-keyboard-response","110","256138","0.0-10.0-0.21","60123adc24c9f126819861b6","650c16f0f2faf8d7a0d14c09","651c1cf3265b91536d984282","null","null","<p style=""font-size: 60px; font-family: BACS"">dCtMACmYA</p>","","","","","","","","","",""
"html-keyboard-response","111","257150","0.0-10.0-0.22","60123adc24c9f126819861b6","650c16f0f2faf8d7a0d14c09","651c1cf3265b91536d984282","null","null","<p style=""font-size: 60px; font-family: BACS"">mBmlAYcM</p>","","","","","","","","","",""
"html-keyboard-response","112","258162","0.0-10.0-0.23","60123adc24c9f126819861b6","650c16f0f2faf8d7a0d14c09","651c1cf3265b91536d984282","null","null","<p style=""font-size: 60px; font-family: BACS"">OdlNmcbm</p>","","","","","","","","","",""
"html-keyboard-response","113","259169","0.0-10.0-0.24","60123adc24c9f126819861b6","650c16f0f2faf8d7a0d14c09","651c1cf3265b91536d984282","null","null","<p style=""font-size: 60px; font-family: BACS"">lGZvUbG</p>","","","","","","","","","",""
"html-keyboard-response","114","260176","0.0-10.0-0.25","60123adc24c9f126819861b6","650c16f0f2faf8d7a0d14c09","651c1cf3265b91536d984282","null","null","<p style=""font-size: 60px; font-family: BACS"">ubALmuUmb</p>","","","","","","","","","",""
"html-keyboard-response","115","261184","0.0-10.0-0.26","60123adc24c9f126819861b6","650c16f0f2faf8d7a0d14c09","651c1cf3265b91536d984282","null","null","<p style=""font-size: 60px; font-family: BACS"">kcCRtCmYA</p>","","","","","","","","","",""
"html-keyboard-response","116","262196","0.0-10.0-0.27","60123adc24c9f126819861b6","650c16f0f2faf8d7a0d14c09","651c1cf3265b91536d984282","null","null","<p style=""font-size: 60px; font-family: BACS"">rcmuvuUmb</p>","","","","","","","","","",""
"html-keyboard-response","117","263210","0.0-10.0-0.28","60123adc24c9f126819861b6","650c16f0f2faf8d7a0d14c09","651c1cf3265b91536d984282","null","null","<p style=""font-size: 60px; font-family: BACS"">YObAYcM</p>","","","","","","","","","",""
"html-keyboard-response","118","264225","0.0-10.0-0.29","60123adc24c9f126819861b6","650c16f0f2faf8d7a0d14c09","651c1cf3265b91536d984282","null","null","<p style=""font-size: 60px; font-family: BACS"">ubALmrba</p>","","","","","","","","","",""
"html-keyboard-response","119","265237","0.0-10.0-0.30","60123adc24c9f126819861b6","650c16f0f2faf8d7a0d14c09","651c1cf3265b91536d984282","null","null","<p style=""font-size: 60px; font-family: BACS"">kcCRtBYhT</p>","","","","","","","","","",""
"html-keyboard-response","120","266246","0.0-10.0-0.31","60123adc24c9f126819861b6","650c16f0f2faf8d7a0d14c09","651c1cf3265b91536d984282","null","null","<p style=""font-size: 60px; font-family: BACS"">GJGcZcbm</p>","","","","","","","","","",""
"html-keyboard-response","121","267251","0.0-10.0-0.32","60123adc24c9f126819861b6","650c16f0f2faf8d7a0d14c09","651c1cf3265b91536d984282","null","null","<p style=""font-size: 60px; font-family: BACS"">YcdOUbG</p>","","","","","","","","","",""
"html-keyboard-response","122","268258","0.0-10.0-0.33","60123adc24c9f126819861b6","650c16f0f2faf8d7a0d14c09","651c1cf3265b91536d984282","null","null","<p style=""font-size: 60px; font-family: BACS"">RtRhTRkY</p>","","","","","","","","","",""
"html-keyboard-response","123","269261","0.0-10.0-0.34","60123adc24c9f126819861b6","650c16f0f2faf8d7a0d14c09","651c1cf3265b91536d984282","null","null","<p style=""font-size: 60px; font-family: BACS"">YOZNrba</p>","","","","","","","","","",""
"html-keyboard-response","124","270269","0.0-10.0-0.35","60123adc24c9f126819861b6","650c16f0f2faf8d7a0d14c09","651c1cf3265b91536d984282","null","null","<p style=""font-size: 60px; font-family: BACS"">kcCRtTRkY</p>","","","","","","","","","",""
"html-keyboard-response","125","271279","0.0-10.0-0.36","60123adc24c9f126819861b6","650c16f0f2faf8d7a0d14c09","651c1cf3265b91536d984282","null","null","<p style=""font-size: 60px; font-family: BACS"">MBKREBYhT</p>","","","","","","","","","",""
"html-keyboard-response","126","272290","0.0-10.0-0.37","60123adc24c9f126819861b6","650c16f0f2faf8d7a0d14c09","651c1cf3265b91536d984282","null","null","<p style=""font-size: 60px; font-family: BACS"">uauOcbm</p>","","","","","","","","","",""
"html-keyboard-response","127","273298","0.0-10.0-0.38","60123adc24c9f126819861b6","650c16f0f2faf8d7a0d14c09","651c1cf3265b91536d984282","null","null","<p style=""font-size: 60px; font-family: BACS"">PCMPKRCdc</p>","","","","","","","","","",""
"html-keyboard-response","128","274306","0.0-10.0-0.39","60123adc24c9f126819861b6","650c16f0f2faf8d7a0d14c09","651c1cf3265b91536d984282","null","null","<p style=""font-size: 60px; font-family: BACS"">vmuLlJQA</p>","","","","","","","","","",""
"html-keyboard-response","129","275318","0.0-10.0-0.40","60123adc24c9f126819861b6","650c16f0f2faf8d7a0d14c09","651c1cf3265b91536d984282","null","null","<p style=""font-size: 60px; font-family: BACS"">GAcYuUmb</p>","","","","","","","","","",""
"html-keyboard-response","130","276332","0.0-10.0-0.41","60123adc24c9f126819861b6","650c16f0f2faf8d7a0d14c09","651c1cf3265b91536d984282","null","null","<p style=""font-size: 60px; font-family: BACS"">ubALmcbm</p>","","","","","","","","","",""
"html-keyboard-response","131","277345","0.0-10.0-0.42","60123adc24c9f126819861b6","650c16f0f2faf8d7a0d14c09","651c1cf3265b91536d984282","null","null","<p style=""font-size: 60px; font-family: BACS"">PCMPKYcM</p>","","","","","","","","","",""
"html-keyboard-response","132","278353","0.0-10.0-0.43","60123adc24c9f126819861b6","650c16f0f2faf8d7a0d14c09","651c1cf3265b91536d984282","null","null","<p style=""font-size: 60px; font-family: BACS"">uauOUbG</p>","","","","","","","","","",""
"html-keyboard-response","133","279362","0.0-10.0-0.44","60123adc24c9f126819861b6","650c16f0f2faf8d7a0d14c09","651c1cf3265b91536d984282","null","null","<p style=""font-size: 60px; font-family: BACS"">YcdOuUmb</p>","","","","","","","","","",""
"html-keyboard-response","134","280372","0.0-10.0-0.45","60123adc24c9f126819861b6","650c16f0f2faf8d7a0d14c09","651c1cf3265b91536d984282","null","null","<p style=""font-size: 60px; font-family: BACS"">vmuLlcbm</p>","","","","","","","","","",""
"html-keyboard-response","135","281382","0.0-10.0-0.46","60123adc24c9f126819861b6","650c16f0f2faf8d7a0d14c09","651c1cf3265b91536d984282","null","null","<p style=""font-size: 60px; font-family: BACS"">YObACmYA</p>","","","","","","","","","",""
"html-keyboard-response","136","282393","0.0-10.0-0.47","60123adc24c9f126819861b6","650c16f0f2faf8d7a0d14c09","651c1cf3265b91536d984282","null","null","<p style=""font-size: 60px; font-family: BACS"">YcdOJQA</p>","","","","","","","","","",""
"html-keyboard-response","137","283398","0.0-10.0-0.48","60123adc24c9f126819861b6","650c16f0f2faf8d7a0d14c09","651c1cf3265b91536d984282","null","null","<p style=""font-size: 60px; font-family: BACS"">RtRhRCdc</p>","","","","","","","","","",""
"html-keyboard-response","138","284408","0.0-10.0-0.49","60123adc24c9f126819861b6","650c16f0f2faf8d7a0d14c09","651c1cf3265b91536d984282","null","null","<p style=""font-size: 60px; font-family: BACS"">lGZvrba</p>","","","","","","","","","",""
"html-keyboard-response","139","285415","0.0-10.0-0.50","60123adc24c9f126819861b6","650c16f0f2faf8d7a0d14c09","651c1cf3265b91536d984282","null","null","<p style=""font-size: 60px; font-family: BACS"">MBKRETRkY</p>","","","","","","","","","",""
"html-keyboard-response","140","286430","0.0-10.0-0.51","60123adc24c9f126819861b6","650c16f0f2faf8d7a0d14c09","651c1cf3265b91536d984282","null","null","<p style=""font-size: 60px; font-family: BACS"">BECkYcM</p>","","","","","","","","","",""
"html-keyboard-response","141","287444","0.0-10.0-0.52","60123adc24c9f126819861b6","650c16f0f2faf8d7a0d14c09","651c1cf3265b91536d984282","null","null","<p style=""font-size: 60px; font-family: BACS"">mBmlACmYA</p>","","","","","","","","","",""
"html-keyboard-response","142","288446","0.0-10.0-0.53","60123adc24c9f126819861b6","650c16f0f2faf8d7a0d14c09","651c1cf3265b91536d984282","null","null","<p style=""font-size: 60px; font-family: BACS"">OdlNmuUmb</p>","","","","","","","","","",""
"html-keyboard-response","143","289461","0.0-10.0-0.54","60123adc24c9f126819861b6","650c16f0f2faf8d7a0d14c09","651c1cf3265b91536d984282","null","null","<p style=""font-size: 60px; font-family: BACS"">uauOrba</p>","","","","","","","","","",""
"html-keyboard-response","144","290469","0.0-10.0-0.55","60123adc24c9f126819861b6","650c16f0f2faf8d7a0d14c09","651c1cf3265b91536d984282","null","null","<p style=""font-size: 60px; font-family: BACS"">MBKRECmYA</p>","","","","","","","","","",""
"html-keyboard-response","145","291483","0.0-10.0-0.56","60123adc24c9f126819861b6","650c16f0f2faf8d7a0d14c09","651c1cf3265b91536d984282","null","null","<p style=""font-size: 60px; font-family: BACS"">YOZNJQA</p>","","","","","","","","","",""
"html-keyboard-response","146","292494","0.0-10.0-0.57","60123adc24c9f126819861b6","650c16f0f2faf8d7a0d14c09","651c1cf3265b91536d984282","null","null","<p style=""font-size: 60px; font-family: BACS"">PCMPKBYhT</p>","","","","","","","","","",""
"html-keyboard-response","147","293506","0.0-10.0-0.58","60123adc24c9f126819861b6","650c16f0f2faf8d7a0d14c09","651c1cf3265b91536d984282","null","null","<p style=""font-size: 60px; font-family: BACS"">YOZNuUmb</p>","","","","","","","","","",""
"html-keyboard-response","148","294516","0.0-10.0-0.59","60123adc24c9f126819861b6","650c16f0f2faf8d7a0d14c09","651c1cf3265b91536d984282","null","null","<p style=""font-size: 60px; font-family: BACS"">OdlNmUbG</p>","","","","","","","","","",""
"html-keyboard-response","149","295524","0.0-10.0-0.60","60123adc24c9f126819861b6","650c16f0f2faf8d7a0d14c09","651c1cf3265b91536d984282","null","null","<p style=""font-size: 60px; font-family: BACS"">PCMPKTRkY</p>","","","","","","","","","",""
"html-keyboard-response","150","296535","0.0-10.0-0.61","60123adc24c9f126819861b6","650c16f0f2faf8d7a0d14c09","651c1cf3265b91536d984282","null","null","<p style=""font-size: 60px; font-family: BACS"">YcdOrba</p>","","","","","","","","","",""
"html-keyboard-response","151","297544","0.0-10.0-0.62","60123adc24c9f126819861b6","650c16f0f2faf8d7a0d14c09","651c1cf3265b91536d984282","null","null","<p style=""font-size: 60px; font-family: BACS"">BECkBYhT</p>","","","","","","","","","",""
"html-keyboard-response","152","298556","0.0-10.0-0.63","60123adc24c9f126819861b6","650c16f0f2faf8d7a0d14c09","651c1cf3265b91536d984282","null","null","<p style=""font-size: 60px; font-family: BACS"">GAcYJQA</p>","","","","","","","","","",""
"html-keyboard-response","153","299568","0.0-10.0-0.64","60123adc24c9f126819861b6","650c16f0f2faf8d7a0d14c09","651c1cf3265b91536d984282","null","null","<p style=""font-size: 60px; font-family: BACS"">YObARCdc</p>","","","","","","","","","",""
"html-keyboard-response","154","300580","0.0-10.0-0.65","60123adc24c9f126819861b6","650c16f0f2faf8d7a0d14c09","651c1cf3265b91536d984282","null","null","<p style=""font-size: 60px; font-family: BACS"">lGZvJQA</p>","","","","","","","","","",""
"html-keyboard-response","155","301591","0.0-10.0-0.66","60123adc24c9f126819861b6","650c16f0f2faf8d7a0d14c09","651c1cf3265b91536d984282","null","null","<p style=""font-size: 60px; font-family: BACS"">MBKRERCdc</p>","","","","","","","","","",""
"html-keyboard-response","156","302602","0.0-10.0-0.67","60123adc24c9f126819861b6","650c16f0f2faf8d7a0d14c09","651c1cf3265b91536d984282","null","null","<p style=""font-size: 60px; font-family: BACS"">kcCRtYcM</p>","","","","","","","","","",""
"html-keyboard-response","157","303609","0.0-10.0-0.68","60123adc24c9f126819861b6","650c16f0f2faf8d7a0d14c09","651c1cf3265b91536d984282","null","null","<p style=""font-size: 60px; font-family: BACS"">YKRkCmYA</p>","","","","","","","","","",""
"html-keyboard-response","158","304623","0.0-10.0-0.69","60123adc24c9f126819861b6","650c16f0f2faf8d7a0d14c09","651c1cf3265b91536d984282","null","null","<p style=""font-size: 60px; font-family: BACS"">YOZNcbm</p>","","","","","","","","","",""
"html-keyboard-response","159","305624","0.0-10.0-0.70","60123adc24c9f126819861b6","650c16f0f2faf8d7a0d14c09","651c1cf3265b91536d984282","null","null","<p style=""font-size: 60px; font-family: BACS"">dCtMAYcM</p>","","","","","","","","","",""
"html-keyboard-response","160","306632","0.0-10.0-0.71","60123adc24c9f126819861b6","650c16f0f2faf8d7a0d14c09","651c1cf3265b91536d984282","null","null","<p style=""font-size: 60px; font-family: BACS"">lGZvcbm</p>","","","","","","","","","",""
"html-keyboard-response","161","307644","0.0-10.0-0.72","60123adc24c9f126819861b6","650c16f0f2faf8d7a0d14c09","651c1cf3265b91536d984282","null","null","<p style=""font-size: 60px; font-family: BACS"">YObABYhT</p>","","","","","","","","","",""
"html-keyboard-response","162","308654","0.0-10.0-0.73","60123adc24c9f126819861b6","650c16f0f2faf8d7a0d14c09","651c1cf3265b91536d984282","null","null","<p style=""font-size: 60px; font-family: BACS"">dRhtCmYA</p>","","","","","","","","","",""
"html-keyboard-response","163","309665","0.0-10.0-0.74","60123adc24c9f126819861b6","650c16f0f2faf8d7a0d14c09","651c1cf3265b91536d984282","null","null","<p style=""font-size: 60px; font-family: BACS"">vmuLlrba</p>","","","","","","","","","",""
"html-keyboard-response","164","310676","0.0-10.0-0.75","60123adc24c9f126819861b6","650c16f0f2faf8d7a0d14c09","651c1cf3265b91536d984282","null","null","<p style=""font-size: 60px; font-family: BACS"">YKRkRCdc</p>","","","","","","","","","",""
"html-keyboard-response","165","311683","0.0-10.0-0.76","60123adc24c9f126819861b6","650c16f0f2faf8d7a0d14c09","651c1cf3265b91536d984282","null","null","<p style=""font-size: 60px; font-family: BACS"">OdlNmJQA</p>","","","","","","","","","",""
"html-keyboard-response","166","312691","0.0-10.0-0.77","60123adc24c9f126819861b6","650c16f0f2faf8d7a0d14c09","651c1cf3265b91536d984282","null","null","<p style=""font-size: 60px; font-family: BACS"">YKRkTRkY</p>","","","","","","","","","",""
"html-keyboard-response","167","313698","0.0-10.0-0.78","60123adc24c9f126819861b6","650c16f0f2faf8d7a0d14c09","651c1cf3265b91536d984282","null","null","<p style=""font-size: 60px; font-family: BACS"">GJGcZJQA</p>","","","","","","","","","",""
"html-keyboard-response","168","314709","0.0-10.0-0.79","60123adc24c9f126819861b6","650c16f0f2faf8d7a0d14c09","651c1cf3265b91536d984282","null","null","<p style=""font-size: 60px; font-family: BACS"">dRhtBYhT</p>","","","","","","","","","",""
"html-keyboard-response","169","317913","0.0-11.0","60123adc24c9f126819861b6","650c16f0f2faf8d7a0d14c09","651c1cf3265b91536d984282","3203"," ","<p>Great, you've seen the second block of words. You may now take a short break.</p>
      <p>Press the spacebar when you're ready to continue.</p>","","","","","","","","","",""
"html-keyboard-response","170","318925","0.0-12.0-0.0","60123adc24c9f126819861b6","650c16f0f2faf8d7a0d14c09","651c1cf3265b91536d984282","null","null","<p style=""font-size: 60px; font-family: BACS"">MBKRETRkY</p>","","","","","","","","","",""
"html-keyboard-response","171","319936","0.0-12.0-0.1","60123adc24c9f126819861b6","650c16f0f2faf8d7a0d14c09","651c1cf3265b91536d984282","null","null","<p style=""font-size: 60px; font-family: BACS"">YObABYhT</p>","","","","","","","","","",""
"html-keyboard-response","172","320949","0.0-12.0-0.2","60123adc24c9f126819861b6","650c16f0f2faf8d7a0d14c09","651c1cf3265b91536d984282","null","null","<p style=""font-size: 60px; font-family: BACS"">GAcYUbG</p>","","","","","","","","","",""
"html-keyboard-response","173","321956","0.0-12.0-0.3","60123adc24c9f126819861b6","650c16f0f2faf8d7a0d14c09","651c1cf3265b91536d984282","null","null","<p style=""font-size: 60px; font-family: BACS"">ubALmuUmb</p>","","","","","","","","","",""
"html-keyboard-response","174","322960","0.0-12.0-0.4","60123adc24c9f126819861b6","650c16f0f2faf8d7a0d14c09","651c1cf3265b91536d984282","null","null","<p style=""font-size: 60px; font-family: BACS"">YOZNJQA</p>","","","","","","","","","",""
"html-keyboard-response","175","323970","0.0-12.0-0.5","60123adc24c9f126819861b6","650c16f0f2faf8d7a0d14c09","651c1cf3265b91536d984282","null","null","<p style=""font-size: 60px; font-family: BACS"">PCMPKTRkY</p>","","","","","","","","","",""
"html-keyboard-response","176","324986","0.0-12.0-0.6","60123adc24c9f126819861b6","650c16f0f2faf8d7a0d14c09","651c1cf3265b91536d984282","null","null","<p style=""font-size: 60px; font-family: BACS"">RtRhBYhT</p>","","","","","","","","","",""
"html-keyboard-response","177","325993","0.0-12.0-0.7","60123adc24c9f126819861b6","650c16f0f2faf8d7a0d14c09","651c1cf3265b91536d984282","null","null","<p style=""font-size: 60px; font-family: BACS"">YKRkYcM</p>","","","","","","","","","",""
"html-keyboard-response","178","327008","0.0-12.0-0.8","60123adc24c9f126819861b6","650c16f0f2faf8d7a0d14c09","651c1cf3265b91536d984282","null","null","<p style=""font-size: 60px; font-family: BACS"">dRhtTRkY</p>","","","","","","","","","",""
"html-keyboard-response","179","328021","0.0-12.0-0.9","60123adc24c9f126819861b6","650c16f0f2faf8d7a0d14c09","651c1cf3265b91536d984282","null","null","<p style=""font-size: 60px; font-family: BACS"">GAcYrba</p>","","","","","","","","","",""
"html-keyboard-response","180","329037","0.0-12.0-0.10","60123adc24c9f126819861b6","650c16f0f2faf8d7a0d14c09","651c1cf3265b91536d984282","null","null","<p style=""font-size: 60px; font-family: BACS"">ubALmcbm</p>","","","","","","","","","",""
"html-keyboard-response","181","330046","0.0-12.0-0.11","60123adc24c9f126819861b6","650c16f0f2faf8d7a0d14c09","651c1cf3265b91536d984282","null","null","<p style=""font-size: 60px; font-family: BACS"">YOZNuUmb</p>","","","","","","","","","",""
"html-keyboard-response","182","331055","0.0-12.0-0.12","60123adc24c9f126819861b6","650c16f0f2faf8d7a0d14c09","651c1cf3265b91536d984282","null","null","<p style=""font-size: 60px; font-family: BACS"">rcmuvrba</p>","","","","","","","","","",""
"html-keyboard-response","183","332062","0.0-12.0-0.13","60123adc24c9f126819861b6","650c16f0f2faf8d7a0d14c09","651c1cf3265b91536d984282","null","null","<p style=""font-size: 60px; font-family: BACS"">dRhtCmYA</p>","","","","","","","","","",""
"html-keyboard-response","184","333068","0.0-12.0-0.14","60123adc24c9f126819861b6","650c16f0f2faf8d7a0d14c09","651c1cf3265b91536d984282","null","null","<p style=""font-size: 60px; font-family: BACS"">dCtMARCdc</p>","","","","","","","","","",""
"html-keyboard-response","185","334073","0.0-12.0-0.15","60123adc24c9f126819861b6","650c16f0f2faf8d7a0d14c09","651c1cf3265b91536d984282","null","null","<p style=""font-size: 60px; font-family: BACS"">lGZvrba</p>","","","","","","","","","",""
"html-keyboard-response","186","335087","0.0-12.0-0.16","60123adc24c9f126819861b6","650c16f0f2faf8d7a0d14c09","651c1cf3265b91536d984282","null","null","<p style=""font-size: 60px; font-family: BACS"">rcmuvcbm</p>","","","","","","","","","",""
"html-keyboard-response","187","336101","0.0-12.0-0.17","60123adc24c9f126819861b6","650c16f0f2faf8d7a0d14c09","651c1cf3265b91536d984282","null","null","<p style=""font-size: 60px; font-family: BACS"">OdlNmUbG</p>","","","","","","","","","",""
"html-keyboard-response","188","337115","0.0-12.0-0.18","60123adc24c9f126819861b6","650c16f0f2faf8d7a0d14c09","651c1cf3265b91536d984282","null","null","<p style=""font-size: 60px; font-family: BACS"">uauOcbm</p>","","","","","","","","","",""
"html-keyboard-response","189","338122","0.0-12.0-0.19","60123adc24c9f126819861b6","650c16f0f2faf8d7a0d14c09","651c1cf3265b91536d984282","null","null","<p style=""font-size: 60px; font-family: BACS"">vmuLlrba</p>","","","","","","","","","",""
"html-keyboard-response","190","339131","0.0-12.0-0.20","60123adc24c9f126819861b6","650c16f0f2faf8d7a0d14c09","651c1cf3265b91536d984282","null","null","<p style=""font-size: 60px; font-family: BACS"">YObARCdc</p>","","","","","","","","","",""
"html-keyboard-response","191","340144","0.0-12.0-0.21","60123adc24c9f126819861b6","650c16f0f2faf8d7a0d14c09","651c1cf3265b91536d984282","null","null","<p style=""font-size: 60px; font-family: BACS"">rcmuvuUmb</p>","","","","","","","","","",""
"html-keyboard-response","192","341152","0.0-12.0-0.22","60123adc24c9f126819861b6","650c16f0f2faf8d7a0d14c09","651c1cf3265b91536d984282","null","null","<p style=""font-size: 60px; font-family: BACS"">RtRhYcM</p>","","","","","","","","","",""
"html-keyboard-response","193","342159","0.0-12.0-0.23","60123adc24c9f126819861b6","650c16f0f2faf8d7a0d14c09","651c1cf3265b91536d984282","null","null","<p style=""font-size: 60px; font-family: BACS"">dCtMACmYA</p>","","","","","","","","","",""
"html-keyboard-response","194","343170","0.0-12.0-0.24","60123adc24c9f126819861b6","650c16f0f2faf8d7a0d14c09","651c1cf3265b91536d984282","null","null","<p style=""font-size: 60px; font-family: BACS"">vmuLlJQA</p>","","","","","","","","","",""
"html-keyboard-response","195","344181","0.0-12.0-0.25","60123adc24c9f126819861b6","650c16f0f2faf8d7a0d14c09","651c1cf3265b91536d984282","null","null","<p style=""font-size: 60px; font-family: BACS"">dCtMAYcM</p>","","","","","","","","","",""
"html-keyboard-response","196","345189","0.0-12.0-0.26","60123adc24c9f126819861b6","650c16f0f2faf8d7a0d14c09","651c1cf3265b91536d984282","null","null","<p style=""font-size: 60px; font-family: BACS"">PCMPKRCdc</p>","","","","","","","","","",""
"html-keyboard-response","197","346194","0.0-12.0-0.27","60123adc24c9f126819861b6","650c16f0f2faf8d7a0d14c09","651c1cf3265b91536d984282","null","null","<p style=""font-size: 60px; font-family: BACS"">OdlNmuUmb</p>","","","","","","","","","",""
"html-keyboard-response","198","347206","0.0-12.0-0.28","60123adc24c9f126819861b6","650c16f0f2faf8d7a0d14c09","651c1cf3265b91536d984282","null","null","<p style=""font-size: 60px; font-family: BACS"">GJGcZcbm</p>","","","","","","","","","",""
"html-keyboard-response","199","348215","0.0-12.0-0.29","60123adc24c9f126819861b6","650c16f0f2faf8d7a0d14c09","651c1cf3265b91536d984282","null","null","<p style=""font-size: 60px; font-family: BACS"">MBKRERCdc</p>","","","","","","","","","",""
"html-keyboard-response","200","349224","0.0-12.0-0.30","60123adc24c9f126819861b6","650c16f0f2faf8d7a0d14c09","651c1cf3265b91536d984282","null","null","<p style=""font-size: 60px; font-family: BACS"">lGZvUbG</p>","","","","","","","","","",""
"html-keyboard-response","201","350226","0.0-12.0-0.31","60123adc24c9f126819861b6","650c16f0f2faf8d7a0d14c09","651c1cf3265b91536d984282","null","null","<p style=""font-size: 60px; font-family: BACS"">dRhtBYhT</p>","","","","","","","","","",""
"html-keyboard-response","202","351230","0.0-12.0-0.32","60123adc24c9f126819861b6","650c16f0f2faf8d7a0d14c09","651c1cf3265b91536d984282","null","null","<p style=""font-size: 60px; font-family: BACS"">ubALmUbG</p>","","","","","","","","","",""
"html-keyboard-response","203","352244","0.0-12.0-0.33","60123adc24c9f126819861b6","650c16f0f2faf8d7a0d14c09","651c1cf3265b91536d984282","null","null","<p style=""font-size: 60px; font-family: BACS"">dCtMABYhT</p>","","","","","","","","","",""
"html-keyboard-response","204","353254","0.0-12.0-0.34","60123adc24c9f126819861b6","650c16f0f2faf8d7a0d14c09","651c1cf3265b91536d984282","null","null","<p style=""font-size: 60px; font-family: BACS"">ubALmrba</p>","","","","","","","","","",""
"html-keyboard-response","205","354262","0.0-12.0-0.35","60123adc24c9f126819861b6","650c16f0f2faf8d7a0d14c09","651c1cf3265b91536d984282","null","null","<p style=""font-size: 60px; font-family: BACS"">BECkBYhT</p>","","","","","","","","","",""
"html-keyboard-response","206","355271","0.0-12.0-0.36","60123adc24c9f126819861b6","650c16f0f2faf8d7a0d14c09","651c1cf3265b91536d984282","null","null","<p style=""font-size: 60px; font-family: BACS"">GJGcZUbG</p>","","","","","","","","","",""
"html-keyboard-response","207","356286","0.0-12.0-0.37","60123adc24c9f126819861b6","650c16f0f2faf8d7a0d14c09","651c1cf3265b91536d984282","null","null","<p style=""font-size: 60px; font-family: BACS"">GAcYJQA</p>","","","","","","","","","",""
"html-keyboard-response","208","357296","0.0-12.0-0.38","60123adc24c9f126819861b6","650c16f0f2faf8d7a0d14c09","651c1cf3265b91536d984282","null","null","<p style=""font-size: 60px; font-family: BACS"">kcCRtTRkY</p>","","","","","","","","","",""
"html-keyboard-response","209","358306","0.0-12.0-0.39","60123adc24c9f126819861b6","650c16f0f2faf8d7a0d14c09","651c1cf3265b91536d984282","null","null","<p style=""font-size: 60px; font-family: BACS"">vmuLlcbm</p>","","","","","","","","","",""
"html-keyboard-response","210","359316","0.0-12.0-0.40","60123adc24c9f126819861b6","650c16f0f2faf8d7a0d14c09","651c1cf3265b91536d984282","null","null","<p style=""font-size: 60px; font-family: BACS"">uauOUbG</p>","","","","","","","","","",""
"html-keyboard-response","211","360325","0.0-12.0-0.41","60123adc24c9f126819861b6","650c16f0f2faf8d7a0d14c09","651c1cf3265b91536d984282","null","null","<p style=""font-size: 60px; font-family: BACS"">MBKRECmYA</p>","","","","","","","","","",""
"html-keyboard-response","212","361336","0.0-12.0-0.42","60123adc24c9f126819861b6","650c16f0f2faf8d7a0d14c09","651c1cf3265b91536d984282","null","null","<p style=""font-size: 60px; font-family: BACS"">mBmlARCdc</p>","","","","","","","","","",""
"html-keyboard-response","213","362346","0.0-12.0-0.43","60123adc24c9f126819861b6","650c16f0f2faf8d7a0d14c09","651c1cf3265b91536d984282","null","null","<p style=""font-size: 60px; font-family: BACS"">BECkCmYA</p>","","","","","","","","","",""
"html-keyboard-response","214","363355","0.0-12.0-0.44","60123adc24c9f126819861b6","650c16f0f2faf8d7a0d14c09","651c1cf3265b91536d984282","null","null","<p style=""font-size: 60px; font-family: BACS"">GJGcZuUmb</p>","","","","","","","","","",""
"html-keyboard-response","215","364364","0.0-12.0-0.45","60123adc24c9f126819861b6","650c16f0f2faf8d7a0d14c09","651c1cf3265b91536d984282","null","null","<p style=""font-size: 60px; font-family: BACS"">kcCRtYcM</p>","","","","","","","","","",""
"html-keyboard-response","216","365374","0.0-12.0-0.46","60123adc24c9f126819861b6","650c16f0f2faf8d7a0d14c09","651c1cf3265b91536d984282","null","null","<p style=""font-size: 60px; font-family: BACS"">rcmuvUbG</p>","","","","","","","","","",""
"html-keyboard-response","217","366382","0.0-12.0-0.47","60123adc24c9f126819861b6","650c16f0f2faf8d7a0d14c09","651c1cf3265b91536d984282","null","null","<p style=""font-size: 60px; font-family: BACS"">lGZvJQA</p>","","","","","","","","","",""
"html-keyboard-response","218","367385","0.0-12.0-0.48","60123adc24c9f126819861b6","650c16f0f2faf8d7a0d14c09","651c1cf3265b91536d984282","null","null","<p style=""font-size: 60px; font-family: BACS"">mBmlAYcM</p>","","","","","","","","","",""
"html-keyboard-response","219","368397","0.0-12.0-0.49","60123adc24c9f126819861b6","650c16f0f2faf8d7a0d14c09","651c1cf3265b91536d984282","null","null","<p style=""font-size: 60px; font-family: BACS"">PCMPKBYhT</p>","","","","","","","","","",""
"html-keyboard-response","220","369404","0.0-12.0-0.50","60123adc24c9f126819861b6","650c16f0f2faf8d7a0d14c09","651c1cf3265b91536d984282","null","null","<p style=""font-size: 60px; font-family: BACS"">GJGcZJQA</p>","","","","","","","","","",""
"html-keyboard-response","221","370410","0.0-12.0-0.51","60123adc24c9f126819861b6","650c16f0f2faf8d7a0d14c09","651c1cf3265b91536d984282","null","null","<p style=""font-size: 60px; font-family: BACS"">vmuLluUmb</p>","","","","","","","","","",""
"html-keyboard-response","222","371416","0.0-12.0-0.52","60123adc24c9f126819861b6","650c16f0f2faf8d7a0d14c09","651c1cf3265b91536d984282","null","null","<p style=""font-size: 60px; font-family: BACS"">mBmlATRkY</p>","","","","","","","","","",""
"html-keyboard-response","223","372431","0.0-12.0-0.53","60123adc24c9f126819861b6","650c16f0f2faf8d7a0d14c09","651c1cf3265b91536d984282","null","null","<p style=""font-size: 60px; font-family: BACS"">YcdOuUmb</p>","","","","","","","","","",""
"html-keyboard-response","224","373438","0.0-12.0-0.54","60123adc24c9f126819861b6","650c16f0f2faf8d7a0d14c09","651c1cf3265b91536d984282","null","null","<p style=""font-size: 60px; font-family: BACS"">YObAYcM</p>","","","","","","","","","",""
"html-keyboard-response","225","374450","0.0-12.0-0.55","60123adc24c9f126819861b6","650c16f0f2faf8d7a0d14c09","651c1cf3265b91536d984282","null","null","<p style=""font-size: 60px; font-family: BACS"">YKRkTRkY</p>","","","","","","","","","",""
"html-keyboard-response","226","375462","0.0-12.0-0.56","60123adc24c9f126819861b6","650c16f0f2faf8d7a0d14c09","651c1cf3265b91536d984282","null","null","<p style=""font-size: 60px; font-family: BACS"">MBKREBYhT</p>","","","","","","","","","",""
"html-keyboard-response","227","376474","0.0-12.0-0.57","60123adc24c9f126819861b6","650c16f0f2faf8d7a0d14c09","651c1cf3265b91536d984282","null","null","<p style=""font-size: 60px; font-family: BACS"">OdlNmcbm</p>","","","","","","","","","",""
"html-keyboard-response","228","377486","0.0-12.0-0.58","60123adc24c9f126819861b6","650c16f0f2faf8d7a0d14c09","651c1cf3265b91536d984282","null","null","<p style=""font-size: 60px; font-family: BACS"">kcCRtBYhT</p>","","","","","","","","","",""
"html-keyboard-response","229","378492","0.0-12.0-0.59","60123adc24c9f126819861b6","650c16f0f2faf8d7a0d14c09","651c1cf3265b91536d984282","null","null","<p style=""font-size: 60px; font-family: BACS"">BECkTRkY</p>","","","","","","","","","",""
"html-keyboard-response","230","379502","0.0-12.0-0.60","60123adc24c9f126819861b6","650c16f0f2faf8d7a0d14c09","651c1cf3265b91536d984282","null","null","<p style=""font-size: 60px; font-family: BACS"">YKRkRCdc</p>","","","","","","","","","",""
"html-keyboard-response","231","380511","0.0-12.0-0.61","60123adc24c9f126819861b6","650c16f0f2faf8d7a0d14c09","651c1cf3265b91536d984282","null","null","<p style=""font-size: 60px; font-family: BACS"">uauOrba</p>","","","","","","","","","",""
"html-keyboard-response","232","381519","0.0-12.0-0.62","60123adc24c9f126819861b6","650c16f0f2faf8d7a0d14c09","651c1cf3265b91536d984282","null","null","<p style=""font-size: 60px; font-family: BACS"">GAcYuUmb</p>","","","","","","","","","",""
"html-keyboard-response","233","382532","0.0-12.0-0.63","60123adc24c9f126819861b6","650c16f0f2faf8d7a0d14c09","651c1cf3265b91536d984282","null","null","<p style=""font-size: 60px; font-family: BACS"">OdlNmJQA</p>","","","","","","","","","",""
"html-keyboard-response","234","383545","0.0-12.0-0.64","60123adc24c9f126819861b6","650c16f0f2faf8d7a0d14c09","651c1cf3265b91536d984282","null","null","<p style=""font-size: 60px; font-family: BACS"">lGZvcbm</p>","","","","","","","","","",""
"html-keyboard-response","235","384551","0.0-12.0-0.65","60123adc24c9f126819861b6","650c16f0f2faf8d7a0d14c09","651c1cf3265b91536d984282","null","null","<p style=""font-size: 60px; font-family: BACS"">YOZNrba</p>","","","","","","","","","",""
"html-keyboard-response","236","385558","0.0-12.0-0.66","60123adc24c9f126819861b6","650c16f0f2faf8d7a0d14c09","651c1cf3265b91536d984282","null","null","<p style=""font-size: 60px; font-family: BACS"">PCMPKYcM</p>","","","","","","","","","",""
"html-keyboard-response","237","386569","0.0-12.0-0.67","60123adc24c9f126819861b6","650c16f0f2faf8d7a0d14c09","651c1cf3265b91536d984282","null","null","<p style=""font-size: 60px; font-family: BACS"">RtRhRCdc</p>","","","","","","","","","",""
"html-keyboard-response","238","387572","0.0-12.0-0.68","60123adc24c9f126819861b6","650c16f0f2faf8d7a0d14c09","651c1cf3265b91536d984282","null","null","<p style=""font-size: 60px; font-family: BACS"">kcCRtCmYA</p>","","","","","","","","","",""
"html-keyboard-response","239","388585","0.0-12.0-0.69","60123adc24c9f126819861b6","650c16f0f2faf8d7a0d14c09","651c1cf3265b91536d984282","null","null","<p style=""font-size: 60px; font-family: BACS"">YOZNcbm</p>","","","","","","","","","",""
"html-keyboard-response","240","389594","0.0-12.0-0.70","60123adc24c9f126819861b6","650c16f0f2faf8d7a0d14c09","651c1cf3265b91536d984282","null","null","<p style=""font-size: 60px; font-family: BACS"">RtRhTRkY</p>","","","","","","","","","",""
"html-keyboard-response","241","390600","0.0-12.0-0.71","60123adc24c9f126819861b6","650c16f0f2faf8d7a0d14c09","651c1cf3265b91536d984282","null","null","<p style=""font-size: 60px; font-family: BACS"">YcdOrba</p>","","","","","","","","","",""
"html-keyboard-response","242","391607","0.0-12.0-0.72","60123adc24c9f126819861b6","650c16f0f2faf8d7a0d14c09","651c1cf3265b91536d984282","null","null","<p style=""font-size: 60px; font-family: BACS"">dRhtRCdc</p>","","","","","","","","","",""
"html-keyboard-response","243","392619","0.0-12.0-0.73","60123adc24c9f126819861b6","650c16f0f2faf8d7a0d14c09","651c1cf3265b91536d984282","null","null","<p style=""font-size: 60px; font-family: BACS"">mBmlACmYA</p>","","","","","","","","","",""
"html-keyboard-response","244","393628","0.0-12.0-0.74","60123adc24c9f126819861b6","650c16f0f2faf8d7a0d14c09","651c1cf3265b91536d984282","null","null","<p style=""font-size: 60px; font-family: BACS"">BECkYcM</p>","","","","","","","","","",""
"html-keyboard-response","245","394640","0.0-12.0-0.75","60123adc24c9f126819861b6","650c16f0f2faf8d7a0d14c09","651c1cf3265b91536d984282","null","null","<p style=""font-size: 60px; font-family: BACS"">YcdOUbG</p>","","","","","","","","","",""
"html-keyboard-response","246","395650","0.0-12.0-0.76","60123adc24c9f126819861b6","650c16f0f2faf8d7a0d14c09","651c1cf3265b91536d984282","null","null","<p style=""font-size: 60px; font-family: BACS"">YKRkCmYA</p>","","","","","","","","","",""
"html-keyboard-response","247","396658","0.0-12.0-0.77","60123adc24c9f126819861b6","650c16f0f2faf8d7a0d14c09","651c1cf3265b91536d984282","null","null","<p style=""font-size: 60px; font-family: BACS"">uauOJQA</p>","","","","","","","","","",""
"html-keyboard-response","248","397669","0.0-12.0-0.78","60123adc24c9f126819861b6","650c16f0f2faf8d7a0d14c09","651c1cf3265b91536d984282","null","null","<p style=""font-size: 60px; font-family: BACS"">YObACmYA</p>","","","","","","","","","",""
"html-keyboard-response","249","398671","0.0-12.0-0.79","60123adc24c9f126819861b6","650c16f0f2faf8d7a0d14c09","651c1cf3265b91536d984282","null","null","<p style=""font-size: 60px; font-family: BACS"">YcdOJQA</p>","","","","","","","","","",""
"html-keyboard-response","250","403844","0.0-13.0","60123adc24c9f126819861b6","650c16f0f2faf8d7a0d14c09","651c1cf3265b91536d984282","5173"," ","<p>Great, you've seen the third block of words. You may now take a short break.</p>
      <p>Press the spacebar when you're ready to continue.</p>","","","","","","","","","",""
"html-keyboard-response","251","404855","0.0-14.0-0.0","60123adc24c9f126819861b6","650c16f0f2faf8d7a0d14c09","651c1cf3265b91536d984282","null","null","<p style=""font-size: 60px; font-family: BACS"">ubALmrba</p>","","","","","","","","","",""
"html-keyboard-response","252","405861","0.0-14.0-0.1","60123adc24c9f126819861b6","650c16f0f2faf8d7a0d14c09","651c1cf3265b91536d984282","null","null","<p style=""font-size: 60px; font-family: BACS"">mBmlACmYA</p>","","","","","","","","","",""
"html-keyboard-response","253","406872","0.0-14.0-0.2","60123adc24c9f126819861b6","650c16f0f2faf8d7a0d14c09","651c1cf3265b91536d984282","null","null","<p style=""font-size: 60px; font-family: BACS"">OdlNmuUmb</p>","","","","","","","","","",""
"html-keyboard-response","254","407873","0.0-14.0-0.3","60123adc24c9f126819861b6","650c16f0f2faf8d7a0d14c09","651c1cf3265b91536d984282","null","null","<p style=""font-size: 60px; font-family: BACS"">YcdOUbG</p>","","","","","","","","","",""
"html-keyboard-response","255","408883","0.0-14.0-0.4","60123adc24c9f126819861b6","650c16f0f2faf8d7a0d14c09","651c1cf3265b91536d984282","null","null","<p style=""font-size: 60px; font-family: BACS"">MBKRERCdc</p>","","","","","","","","","",""
"html-keyboard-response","256","409888","0.0-14.0-0.5","60123adc24c9f126819861b6","650c16f0f2faf8d7a0d14c09","651c1cf3265b91536d984282","null","null","<p style=""font-size: 60px; font-family: BACS"">vmuLlrba</p>","","","","","","","","","",""
"html-keyboard-response","257","410901","0.0-14.0-0.6","60123adc24c9f126819861b6","650c16f0f2faf8d7a0d14c09","651c1cf3265b91536d984282","null","null","<p style=""font-size: 60px; font-family: BACS"">dCtMACmYA</p>","","","","","","","","","",""
"html-keyboard-response","258","411911","0.0-14.0-0.7","60123adc24c9f126819861b6","650c16f0f2faf8d7a0d14c09","651c1cf3265b91536d984282","null","null","<p style=""font-size: 60px; font-family: BACS"">RtRhTRkY</p>","","","","","","","","","",""
"html-keyboard-response","259","412922","0.0-14.0-0.8","60123adc24c9f126819861b6","650c16f0f2faf8d7a0d14c09","651c1cf3265b91536d984282","null","null","<p style=""font-size: 60px; font-family: BACS"">vmuLluUmb</p>","","","","","","","","","",""
"html-keyboard-response","260","413933","0.0-14.0-0.9","60123adc24c9f126819861b6","650c16f0f2faf8d7a0d14c09","651c1cf3265b91536d984282","null","null","<p style=""font-size: 60px; font-family: BACS"">mBmlAYcM</p>","","","","","","","","","",""
"html-keyboard-response","261","414942","0.0-14.0-0.10","60123adc24c9f126819861b6","650c16f0f2faf8d7a0d14c09","651c1cf3265b91536d984282","null","null","<p style=""font-size: 60px; font-family: BACS"">OdlNmJQA</p>","","","","","","","","","",""
"html-keyboard-response","262","415957","0.0-14.0-0.11","60123adc24c9f126819861b6","650c16f0f2faf8d7a0d14c09","651c1cf3265b91536d984282","null","null","<p style=""font-size: 60px; font-family: BACS"">PCMPKRCdc</p>","","","","","","","","","",""
"html-keyboard-response","263","416967","0.0-14.0-0.12","60123adc24c9f126819861b6","650c16f0f2faf8d7a0d14c09","651c1cf3265b91536d984282","null","null","<p style=""font-size: 60px; font-family: BACS"">YcdOJQA</p>","","","","","","","","","",""
"html-keyboard-response","264","417977","0.0-14.0-0.13","60123adc24c9f126819861b6","650c16f0f2faf8d7a0d14c09","651c1cf3265b91536d984282","null","null","<p style=""font-size: 60px; font-family: BACS"">mBmlATRkY</p>","","","","","","","","","",""
"html-keyboard-response","265","418983","0.0-14.0-0.14","60123adc24c9f126819861b6","650c16f0f2faf8d7a0d14c09","651c1cf3265b91536d984282","null","null","<p style=""font-size: 60px; font-family: BACS"">vmuLlcbm</p>","","","","","","","","","",""
"html-keyboard-response","266","419990","0.0-14.0-0.15","60123adc24c9f126819861b6","650c16f0f2faf8d7a0d14c09","651c1cf3265b91536d984282","null","null","<p style=""font-size: 60px; font-family: BACS"">rcmuvuUmb</p>","","","","","","","","","",""
"html-keyboard-response","267","421003","0.0-14.0-0.16","60123adc24c9f126819861b6","650c16f0f2faf8d7a0d14c09","651c1cf3265b91536d984282","null","null","<p style=""font-size: 60px; font-family: BACS"">YObABYhT</p>","","","","","","","","","",""
"html-keyboard-response","268","422013","0.0-14.0-0.17","60123adc24c9f126819861b6","650c16f0f2faf8d7a0d14c09","651c1cf3265b91536d984282","null","null","<p style=""font-size: 60px; font-family: BACS"">GAcYUbG</p>","","","","","","","","","",""
"html-keyboard-response","269","423027","0.0-14.0-0.18","60123adc24c9f126819861b6","650c16f0f2faf8d7a0d14c09","651c1cf3265b91536d984282","null","null","<p style=""font-size: 60px; font-family: BACS"">ubALmuUmb</p>","","","","","","","","","",""
"html-keyboard-response","270","424041","0.0-14.0-0.19","60123adc24c9f126819861b6","650c16f0f2faf8d7a0d14c09","651c1cf3265b91536d984282","null","null","<p style=""font-size: 60px; font-family: BACS"">YObARCdc</p>","","","","","","","","","",""
"html-keyboard-response","271","425047","0.0-14.0-0.20","60123adc24c9f126819861b6","650c16f0f2faf8d7a0d14c09","651c1cf3265b91536d984282","null","null","<p style=""font-size: 60px; font-family: BACS"">YKRkTRkY</p>","","","","","","","","","",""
"html-keyboard-response","272","426059","0.0-14.0-0.21","60123adc24c9f126819861b6","650c16f0f2faf8d7a0d14c09","651c1cf3265b91536d984282","null","null","<p style=""font-size: 60px; font-family: BACS"">uauOrba</p>","","","","","","","","","",""
"html-keyboard-response","273","427070","0.0-14.0-0.22","60123adc24c9f126819861b6","650c16f0f2faf8d7a0d14c09","651c1cf3265b91536d984282","null","null","<p style=""font-size: 60px; font-family: BACS"">ubALmcbm</p>","","","","","","","","","",""
"html-keyboard-response","274","428080","0.0-14.0-0.23","60123adc24c9f126819861b6","650c16f0f2faf8d7a0d14c09","651c1cf3265b91536d984282","null","null","<p style=""font-size: 60px; font-family: BACS"">BECkCmYA</p>","","","","","","","","","",""
"html-keyboard-response","275","429093","0.0-14.0-0.24","60123adc24c9f126819861b6","650c16f0f2faf8d7a0d14c09","651c1cf3265b91536d984282","null","null","<p style=""font-size: 60px; font-family: BACS"">vmuLlJQA</p>","","","","","","","","","",""
"html-keyboard-response","276","430100","0.0-14.0-0.25","60123adc24c9f126819861b6","650c16f0f2faf8d7a0d14c09","651c1cf3265b91536d984282","null","null","<p style=""font-size: 60px; font-family: BACS"">dRhtRCdc</p>","","","","","","","","","",""
"html-keyboard-response","277","431109","0.0-14.0-0.26","60123adc24c9f126819861b6","650c16f0f2faf8d7a0d14c09","651c1cf3265b91536d984282","null","null","<p style=""font-size: 60px; font-family: BACS"">kcCRtYcM</p>","","","","","","","","","",""
"html-keyboard-response","278","432118","0.0-14.0-0.27","60123adc24c9f126819861b6","650c16f0f2faf8d7a0d14c09","651c1cf3265b91536d984282","null","null","<p style=""font-size: 60px; font-family: BACS"">MBKRETRkY</p>","","","","","","","","","",""
"html-keyboard-response","279","433130","0.0-14.0-0.28","60123adc24c9f126819861b6","650c16f0f2faf8d7a0d14c09","651c1cf3265b91536d984282","null","null","<p style=""font-size: 60px; font-family: BACS"">dCtMAYcM</p>","","","","","","","","","",""
"html-keyboard-response","280","434136","0.0-14.0-0.29","60123adc24c9f126819861b6","650c16f0f2faf8d7a0d14c09","651c1cf3265b91536d984282","null","null","<p style=""font-size: 60px; font-family: BACS"">lGZvUbG</p>","","","","","","","","","",""
"html-keyboard-response","281","435145","0.0-14.0-0.30","60123adc24c9f126819861b6","650c16f0f2faf8d7a0d14c09","651c1cf3265b91536d984282","null","null","<p style=""font-size: 60px; font-family: BACS"">dCtMARCdc</p>","","","","","","","","","",""
"html-keyboard-response","282","436156","0.0-14.0-0.31","60123adc24c9f126819861b6","650c16f0f2faf8d7a0d14c09","651c1cf3265b91536d984282","null","null","<p style=""font-size: 60px; font-family: BACS"">YcdOuUmb</p>","","","","","","","","","",""
"html-keyboard-response","283","437166","0.0-14.0-0.32","60123adc24c9f126819861b6","650c16f0f2faf8d7a0d14c09","651c1cf3265b91536d984282","null","null","<p style=""font-size: 60px; font-family: BACS"">PCMPKTRkY</p>","","","","","","","","","",""
"html-keyboard-response","284","438180","0.0-14.0-0.33","60123adc24c9f126819861b6","650c16f0f2faf8d7a0d14c09","651c1cf3265b91536d984282","null","null","<p style=""font-size: 60px; font-family: BACS"">dRhtBYhT</p>","","","","","","","","","",""
"html-keyboard-response","285","439190","0.0-14.0-0.34","60123adc24c9f126819861b6","650c16f0f2faf8d7a0d14c09","651c1cf3265b91536d984282","null","null","<p style=""font-size: 60px; font-family: BACS"">RtRhRCdc</p>","","","","","","","","","",""
"html-keyboard-response","286","440198","0.0-14.0-0.35","60123adc24c9f126819861b6","650c16f0f2faf8d7a0d14c09","651c1cf3265b91536d984282","null","null","<p style=""font-size: 60px; font-family: BACS"">dCtMABYhT</p>","","","","","","","","","",""
"html-keyboard-response","287","441209","0.0-14.0-0.36","60123adc24c9f126819861b6","650c16f0f2faf8d7a0d14c09","651c1cf3265b91536d984282","null","null","<p style=""font-size: 60px; font-family: BACS"">YOZNcbm</p>","","","","","","","","","",""
"html-keyboard-response","288","442215","0.0-14.0-0.37","60123adc24c9f126819861b6","650c16f0f2faf8d7a0d14c09","651c1cf3265b91536d984282","null","null","<p style=""font-size: 60px; font-family: BACS"">GJGcZJQA</p>","","","","","","","","","",""
"html-keyboard-response","289","443229","0.0-14.0-0.38","60123adc24c9f126819861b6","650c16f0f2faf8d7a0d14c09","651c1cf3265b91536d984282","null","null","<p style=""font-size: 60px; font-family: BACS"">RtRhBYhT</p>","","","","","","","","","",""
"html-keyboard-response","290","444237","0.0-14.0-0.39","60123adc24c9f126819861b6","650c16f0f2faf8d7a0d14c09","651c1cf3265b91536d984282","null","null","<p style=""font-size: 60px; font-family: BACS"">lGZvrba</p>","","","","","","","","","",""
"html-keyboard-response","291","445248","0.0-14.0-0.40","60123adc24c9f126819861b6","650c16f0f2faf8d7a0d14c09","651c1cf3265b91536d984282","null","null","<p style=""font-size: 60px; font-family: BACS"">ubALmUbG</p>","","","","","","","","","",""
"html-keyboard-response","292","446259","0.0-14.0-0.41","60123adc24c9f126819861b6","650c16f0f2faf8d7a0d14c09","651c1cf3265b91536d984282","null","null","<p style=""font-size: 60px; font-family: BACS"">YOZNrba</p>","","","","","","","","","",""
"html-keyboard-response","293","447262","0.0-14.0-0.42","60123adc24c9f126819861b6","650c16f0f2faf8d7a0d14c09","651c1cf3265b91536d984282","null","null","<p style=""font-size: 60px; font-family: BACS"">OdlNmUbG</p>","","","","","","","","","",""
"html-keyboard-response","294","448270","0.0-14.0-0.43","60123adc24c9f126819861b6","650c16f0f2faf8d7a0d14c09","651c1cf3265b91536d984282","null","null","<p style=""font-size: 60px; font-family: BACS"">dRhtTRkY</p>","","","","","","","","","",""
"html-keyboard-response","295","449281","0.0-14.0-0.44","60123adc24c9f126819861b6","650c16f0f2faf8d7a0d14c09","651c1cf3265b91536d984282","null","null","<p style=""font-size: 60px; font-family: BACS"">YObAYcM</p>","","","","","","","","","",""
"html-keyboard-response","296","450291","0.0-14.0-0.45","60123adc24c9f126819861b6","650c16f0f2faf8d7a0d14c09","651c1cf3265b91536d984282","null","null","<p style=""font-size: 60px; font-family: BACS"">OdlNmcbm</p>","","","","","","","","","",""
"html-keyboard-response","297","451302","0.0-14.0-0.46","60123adc24c9f126819861b6","650c16f0f2faf8d7a0d14c09","651c1cf3265b91536d984282","null","null","<p style=""font-size: 60px; font-family: BACS"">GJGcZuUmb</p>","","","","","","","","","",""
"html-keyboard-response","298","452315","0.0-14.0-0.47","60123adc24c9f126819861b6","650c16f0f2faf8d7a0d14c09","651c1cf3265b91536d984282","null","null","<p style=""font-size: 60px; font-family: BACS"">BECkYcM</p>","","","","","","","","","",""
"html-keyboard-response","299","453323","0.0-14.0-0.48","60123adc24c9f126819861b6","650c16f0f2faf8d7a0d14c09","651c1cf3265b91536d984282","null","null","<p style=""font-size: 60px; font-family: BACS"">uauOcbm</p>","","","","","","","","","",""
"html-keyboard-response","300","454335","0.0-14.0-0.49","60123adc24c9f126819861b6","650c16f0f2faf8d7a0d14c09","651c1cf3265b91536d984282","null","null","<p style=""font-size: 60px; font-family: BACS"">mBmlARCdc</p>","","","","","","","","","",""
"html-keyboard-response","301","455343","0.0-14.0-0.50","60123adc24c9f126819861b6","650c16f0f2faf8d7a0d14c09","651c1cf3265b91536d984282","null","null","<p style=""font-size: 60px; font-family: BACS"">YOZNJQA</p>","","","","","","","","","",""
"html-keyboard-response","302","456348","0.0-14.0-0.51","60123adc24c9f126819861b6","650c16f0f2faf8d7a0d14c09","651c1cf3265b91536d984282","null","null","<p style=""font-size: 60px; font-family: BACS"">GAcYuUmb</p>","","","","","","","","","",""
"html-keyboard-response","303","457360","0.0-14.0-0.52","60123adc24c9f126819861b6","650c16f0f2faf8d7a0d14c09","651c1cf3265b91536d984282","null","null","<p style=""font-size: 60px; font-family: BACS"">lGZvcbm</p>","","","","","","","","","",""
"html-keyboard-response","304","458369","0.0-14.0-0.53","60123adc24c9f126819861b6","650c16f0f2faf8d7a0d14c09","651c1cf3265b91536d984282","null","null","<p style=""font-size: 60px; font-family: BACS"">GAcYJQA</p>","","","","","","","","","",""
"html-keyboard-response","305","459378","0.0-14.0-0.54","60123adc24c9f126819861b6","650c16f0f2faf8d7a0d14c09","651c1cf3265b91536d984282","null","null","<p style=""font-size: 60px; font-family: BACS"">YcdOrba</p>","","","","","","","","","",""
"html-keyboard-response","306","460387","0.0-14.0-0.55","60123adc24c9f126819861b6","650c16f0f2faf8d7a0d14c09","651c1cf3265b91536d984282","null","null","<p style=""font-size: 60px; font-family: BACS"">YKRkRCdc</p>","","","","","","","","","",""
"html-keyboard-response","307","461394","0.0-14.0-0.56","60123adc24c9f126819861b6","650c16f0f2faf8d7a0d14c09","651c1cf3265b91536d984282","null","null","<p style=""font-size: 60px; font-family: BACS"">GAcYrba</p>","","","","","","","","","",""
"html-keyboard-response","308","462404","0.0-14.0-0.57","60123adc24c9f126819861b6","650c16f0f2faf8d7a0d14c09","651c1cf3265b91536d984282","null","null","<p style=""font-size: 60px; font-family: BACS"">dRhtCmYA</p>","","","","","","","","","",""
"html-keyboard-response","309","463410","0.0-14.0-0.58","60123adc24c9f126819861b6","650c16f0f2faf8d7a0d14c09","651c1cf3265b91536d984282","null","null","<p style=""font-size: 60px; font-family: BACS"">GJGcZcbm</p>","","","","","","","","","",""
"html-keyboard-response","310","464415","0.0-14.0-0.59","60123adc24c9f126819861b6","650c16f0f2faf8d7a0d14c09","651c1cf3265b91536d984282","null","null","<p style=""font-size: 60px; font-family: BACS"">rcmuvrba</p>","","","","","","","","","",""
"html-keyboard-response","311","465423","0.0-14.0-0.60","60123adc24c9f126819861b6","650c16f0f2faf8d7a0d14c09","651c1cf3265b91536d984282","null","null","<p style=""font-size: 60px; font-family: BACS"">uauOUbG</p>","","","","","","","","","",""
"html-keyboard-response","312","466429","0.0-14.0-0.61","60123adc24c9f126819861b6","650c16f0f2faf8d7a0d14c09","651c1cf3265b91536d984282","null","null","<p style=""font-size: 60px; font-family: BACS"">BECkTRkY</p>","","","","","","","","","",""
"html-keyboard-response","313","467435","0.0-14.0-0.62","60123adc24c9f126819861b6","650c16f0f2faf8d7a0d14c09","651c1cf3265b91536d984282","null","null","<p style=""font-size: 60px; font-family: BACS"">rcmuvcbm</p>","","","","","","","","","",""
"html-keyboard-response","314","468442","0.0-14.0-0.63","60123adc24c9f126819861b6","650c16f0f2faf8d7a0d14c09","651c1cf3265b91536d984282","null","null","<p style=""font-size: 60px; font-family: BACS"">kcCRtTRkY</p>","","","","","","","","","",""
"html-keyboard-response","315","469452","0.0-14.0-0.64","60123adc24c9f126819861b6","650c16f0f2faf8d7a0d14c09","651c1cf3265b91536d984282","null","null","<p style=""font-size: 60px; font-family: BACS"">lGZvJQA</p>","","","","","","","","","",""
"html-keyboard-response","316","470463","0.0-14.0-0.65","60123adc24c9f126819861b6","650c16f0f2faf8d7a0d14c09","651c1cf3265b91536d984282","null","null","<p style=""font-size: 60px; font-family: BACS"">BECkBYhT</p>","","","","","","","","","",""
"html-keyboard-response","317","471468","0.0-14.0-0.66","60123adc24c9f126819861b6","650c16f0f2faf8d7a0d14c09","651c1cf3265b91536d984282","null","null","<p style=""font-size: 60px; font-family: BACS"">kcCRtCmYA</p>","","","","","","","","","",""
"html-keyboard-response","318","472474","0.0-14.0-0.67","60123adc24c9f126819861b6","650c16f0f2faf8d7a0d14c09","651c1cf3265b91536d984282","null","null","<p style=""font-size: 60px; font-family: BACS"">uauOJQA</p>","","","","","","","","","",""
"html-keyboard-response","319","473483","0.0-14.0-0.68","60123adc24c9f126819861b6","650c16f0f2faf8d7a0d14c09","651c1cf3265b91536d984282","null","null","<p style=""font-size: 60px; font-family: BACS"">MBKREBYhT</p>","","","","","","","","","",""
"html-keyboard-response","320","474494","0.0-14.0-0.69","60123adc24c9f126819861b6","650c16f0f2faf8d7a0d14c09","651c1cf3265b91536d984282","null","null","<p style=""font-size: 60px; font-family: BACS"">GJGcZUbG</p>","","","","","","","","","",""
"html-keyboard-response","321","475503","0.0-14.0-0.70","60123adc24c9f126819861b6","650c16f0f2faf8d7a0d14c09","651c1cf3265b91536d984282","null","null","<p style=""font-size: 60px; font-family: BACS"">PCMPKBYhT</p>","","","","","","","","","",""
"html-keyboard-response","322","476513","0.0-14.0-0.71","60123adc24c9f126819861b6","650c16f0f2faf8d7a0d14c09","651c1cf3265b91536d984282","null","null","<p style=""font-size: 60px; font-family: BACS"">YOZNuUmb</p>","","","","","","","","","",""
"html-keyboard-response","323","477522","0.0-14.0-0.72","60123adc24c9f126819861b6","650c16f0f2faf8d7a0d14c09","651c1cf3265b91536d984282","null","null","<p style=""font-size: 60px; font-family: BACS"">rcmuvUbG</p>","","","","","","","","","",""
"html-keyboard-response","324","478531","0.0-14.0-0.73","60123adc24c9f126819861b6","650c16f0f2faf8d7a0d14c09","651c1cf3265b91536d984282","null","null","<p style=""font-size: 60px; font-family: BACS"">YObACmYA</p>","","","","","","","","","",""
"html-keyboard-response","325","479538","0.0-14.0-0.74","60123adc24c9f126819861b6","650c16f0f2faf8d7a0d14c09","651c1cf3265b91536d984282","null","null","<p style=""font-size: 60px; font-family: BACS"">PCMPKYcM</p>","","","","","","","","","",""
"html-keyboard-response","326","480551","0.0-14.0-0.75","60123adc24c9f126819861b6","650c16f0f2faf8d7a0d14c09","651c1cf3265b91536d984282","null","null","<p style=""font-size: 60px; font-family: BACS"">MBKRECmYA</p>","","","","","","","","","",""
"html-keyboard-response","327","481558","0.0-14.0-0.76","60123adc24c9f126819861b6","650c16f0f2faf8d7a0d14c09","651c1cf3265b91536d984282","null","null","<p style=""font-size: 60px; font-family: BACS"">YKRkYcM</p>","","","","","","","","","",""
"html-keyboard-response","328","482566","0.0-14.0-0.77","60123adc24c9f126819861b6","650c16f0f2faf8d7a0d14c09","651c1cf3265b91536d984282","null","null","<p style=""font-size: 60px; font-family: BACS"">kcCRtBYhT</p>","","","","","","","","","",""
"html-keyboard-response","329","483576","0.0-14.0-0.78","60123adc24c9f126819861b6","650c16f0f2faf8d7a0d14c09","651c1cf3265b91536d984282","null","null","<p style=""font-size: 60px; font-family: BACS"">RtRhYcM</p>","","","","","","","","","",""
"html-keyboard-response","330","484584","0.0-14.0-0.79","60123adc24c9f126819861b6","650c16f0f2faf8d7a0d14c09","651c1cf3265b91536d984282","null","null","<p style=""font-size: 60px; font-family: BACS"">YKRkCmYA</p>","","","","","","","","","",""
"html-keyboard-response","331","486864","0.0-15.0","60123adc24c9f126819861b6","650c16f0f2faf8d7a0d14c09","651c1cf3265b91536d984282","2279"," ","<p>Great, you've seen the fourth block of words. You may now take a short break.</p>
      <p>Press the spacebar when you're ready to continue.</p>","","","","","","","","","",""
"html-keyboard-response","332","487871","0.0-16.0-0.0","60123adc24c9f126819861b6","650c16f0f2faf8d7a0d14c09","651c1cf3265b91536d984282","null","null","<p style=""font-size: 60px; font-family: BACS"">lGZvJQA</p>","","","","","","","","","",""
"html-keyboard-response","333","488875","0.0-16.0-0.1","60123adc24c9f126819861b6","650c16f0f2faf8d7a0d14c09","651c1cf3265b91536d984282","null","null","<p style=""font-size: 60px; font-family: BACS"">lGZvJQA</p>","","","","","","","","","",""
"html-keyboard-response","334","489880","0.0-16.0-0.2","60123adc24c9f126819861b6","650c16f0f2faf8d7a0d14c09","651c1cf3265b91536d984282","null","null","<p style=""font-size: 60px; font-family: BACS"">lGZvJQA</p>","","","","","","","","","",""
"html-keyboard-response","335","490887","0.0-16.0-0.3","60123adc24c9f126819861b6","650c16f0f2faf8d7a0d14c09","651c1cf3265b91536d984282","null","null","<p style=""font-size: 60px; font-family: BACS"">lGZvJQA</p>","","","","","","","","","",""
"html-keyboard-response","336","491899","0.0-16.0-0.4","60123adc24c9f126819861b6","650c16f0f2faf8d7a0d14c09","651c1cf3265b91536d984282","null","null","<p style=""font-size: 60px; font-family: BACS"">lGZvJQA</p>","","","","","","","","","",""
"html-keyboard-response","337","492907","0.0-16.0-0.5","60123adc24c9f126819861b6","650c16f0f2faf8d7a0d14c09","651c1cf3265b91536d984282","null","null","<p style=""font-size: 60px; font-family: BACS"">lGZvJQA</p>","","","","","","","","","",""
"html-keyboard-response","338","493914","0.0-16.0-0.6","60123adc24c9f126819861b6","650c16f0f2faf8d7a0d14c09","651c1cf3265b91536d984282","null","null","<p style=""font-size: 60px; font-family: BACS"">lGZvJQA</p>","","","","","","","","","",""
"html-keyboard-response","339","494922","0.0-16.0-0.7","60123adc24c9f126819861b6","650c16f0f2faf8d7a0d14c09","651c1cf3265b91536d984282","null","null","<p style=""font-size: 60px; font-family: BACS"">lGZvJQA</p>","","","","","","","","","",""
"html-keyboard-response","340","495931","0.0-16.0-0.8","60123adc24c9f126819861b6","650c16f0f2faf8d7a0d14c09","651c1cf3265b91536d984282","null","null","<p style=""font-size: 60px; font-family: BACS"">lGZvJQA</p>","","","","","","","","","",""
"html-keyboard-response","341","496941","0.0-16.0-0.9","60123adc24c9f126819861b6","650c16f0f2faf8d7a0d14c09","651c1cf3265b91536d984282","null","null","<p style=""font-size: 60px; font-family: BACS"">lGZvJQA</p>","","","","","","","","","",""
"html-keyboard-response","342","497946","0.0-16.0-0.10","60123adc24c9f126819861b6","650c16f0f2faf8d7a0d14c09","651c1cf3265b91536d984282","null","null","<p style=""font-size: 60px; font-family: BACS"">lGZvJQA</p>","","","","","","","","","",""
"html-keyboard-response","343","498953","0.0-16.0-0.11","60123adc24c9f126819861b6","650c16f0f2faf8d7a0d14c09","651c1cf3265b91536d984282","null","null","<p style=""font-size: 60px; font-family: BACS"">lGZvJQA</p>","","","","","","","","","",""
"html-keyboard-response","344","499962","0.0-16.0-0.12","60123adc24c9f126819861b6","650c16f0f2faf8d7a0d14c09","651c1cf3265b91536d984282","null","null","<p style=""font-size: 60px; font-family: BACS"">lGZvJQA</p>","","","","","","","","","",""
"html-keyboard-response","345","500969","0.0-16.0-0.13","60123adc24c9f126819861b6","650c16f0f2faf8d7a0d14c09","651c1cf3265b91536d984282","null","null","<p style=""font-size: 60px; font-family: BACS"">lGZvJQA</p>","","","","","","","","","",""
"html-keyboard-response","346","501981","0.0-16.0-0.14","60123adc24c9f126819861b6","650c16f0f2faf8d7a0d14c09","651c1cf3265b91536d984282","null","null","<p style=""font-size: 60px; font-family: BACS"">lGZvJQA</p>","","","","","","","","","",""
"html-keyboard-response","347","502992","0.0-16.0-0.15","60123adc24c9f126819861b6","650c16f0f2faf8d7a0d14c09","651c1cf3265b91536d984282","null","null","<p style=""font-size: 60px; font-family: BACS"">lGZvJQA</p>","","","","","","","","","",""
"html-keyboard-response","348","504008","0.0-16.0-0.16","60123adc24c9f126819861b6","650c16f0f2faf8d7a0d14c09","651c1cf3265b91536d984282","null","null","<p style=""font-size: 60px; font-family: BACS"">lGZvJQA</p>","","","","","","","","","",""
"html-keyboard-response","349","505018","0.0-16.0-0.17","60123adc24c9f126819861b6","650c16f0f2faf8d7a0d14c09","651c1cf3265b91536d984282","null","null","<p style=""font-size: 60px; font-family: BACS"">lGZvJQA</p>","","","","","","","","","",""
"html-keyboard-response","350","506027","0.0-16.0-0.18","60123adc24c9f126819861b6","650c16f0f2faf8d7a0d14c09","651c1cf3265b91536d984282","null","null","<p style=""font-size: 60px; font-family: BACS"">lGZvJQA</p>","","","","","","","","","",""
"html-keyboard-response","351","507035","0.0-16.0-0.19","60123adc24c9f126819861b6","650c16f0f2faf8d7a0d14c09","651c1cf3265b91536d984282","null","null","<p style=""font-size: 60px; font-family: BACS"">lGZvJQA</p>","","","","","","","","","",""
"html-keyboard-response","352","508039","0.0-16.0-0.20","60123adc24c9f126819861b6","650c16f0f2faf8d7a0d14c09","651c1cf3265b91536d984282","null","null","<p style=""font-size: 60px; font-family: BACS"">lGZvJQA</p>","","","","","","","","","",""
"html-keyboard-response","353","509051","0.0-16.0-0.21","60123adc24c9f126819861b6","650c16f0f2faf8d7a0d14c09","651c1cf3265b91536d984282","null","null","<p style=""font-size: 60px; font-family: BACS"">lGZvJQA</p>","","","","","","","","","",""
"html-keyboard-response","354","510064","0.0-16.0-0.22","60123adc24c9f126819861b6","650c16f0f2faf8d7a0d14c09","651c1cf3265b91536d984282","null","null","<p style=""font-size: 60px; font-family: BACS"">lGZvJQA</p>","","","","","","","","","",""
"html-keyboard-response","355","511072","0.0-16.0-0.23","60123adc24c9f126819861b6","650c16f0f2faf8d7a0d14c09","651c1cf3265b91536d984282","null","null","<p style=""font-size: 60px; font-family: BACS"">lGZvJQA</p>","","","","","","","","","",""
"html-keyboard-response","356","512081","0.0-16.0-0.24","60123adc24c9f126819861b6","650c16f0f2faf8d7a0d14c09","651c1cf3265b91536d984282","null","null","<p style=""font-size: 60px; font-family: BACS"">lGZvJQA</p>","","","","","","","","","",""
"html-keyboard-response","357","513090","0.0-16.0-0.25","60123adc24c9f126819861b6","650c16f0f2faf8d7a0d14c09","651c1cf3265b91536d984282","null","null","<p style=""font-size: 60px; font-family: BACS"">lGZvJQA</p>","","","","","","","","","",""
"html-keyboard-response","358","514094","0.0-16.0-0.26","60123adc24c9f126819861b6","650c16f0f2faf8d7a0d14c09","651c1cf3265b91536d984282","null","null","<p style=""font-size: 60px; font-family: BACS"">lGZvJQA</p>","","","","","","","","","",""
"html-keyboard-response","359","515107","0.0-16.0-0.27","60123adc24c9f126819861b6","650c16f0f2faf8d7a0d14c09","651c1cf3265b91536d984282","null","null","<p style=""font-size: 60px; font-family: BACS"">lGZvJQA</p>","","","","","","","","","",""
"html-keyboard-response","360","516118","0.0-16.0-0.28","60123adc24c9f126819861b6","650c16f0f2faf8d7a0d14c09","651c1cf3265b91536d984282","null","null","<p style=""font-size: 60px; font-family: BACS"">lGZvJQA</p>","","","","","","","","","",""
"html-keyboard-response","361","517128","0.0-16.0-0.29","60123adc24c9f126819861b6","650c16f0f2faf8d7a0d14c09","651c1cf3265b91536d984282","null","null","<p style=""font-size: 60px; font-family: BACS"">lGZvJQA</p>","","","","","","","","","",""
"html-keyboard-response","362","518130","0.0-16.0-0.30","60123adc24c9f126819861b6","650c16f0f2faf8d7a0d14c09","651c1cf3265b91536d984282","null","null","<p style=""font-size: 60px; font-family: BACS"">lGZvJQA</p>","","","","","","","","","",""
"html-keyboard-response","363","519145","0.0-16.0-0.31","60123adc24c9f126819861b6","650c16f0f2faf8d7a0d14c09","651c1cf3265b91536d984282","null","null","<p style=""font-size: 60px; font-family: BACS"">lGZvJQA</p>","","","","","","","","","",""
"html-keyboard-response","364","520151","0.0-16.0-0.32","60123adc24c9f126819861b6","650c16f0f2faf8d7a0d14c09","651c1cf3265b91536d984282","null","null","<p style=""font-size: 60px; font-family: BACS"">lGZvJQA</p>","","","","","","","","","",""
"html-keyboard-response","365","521157","0.0-16.0-0.33","60123adc24c9f126819861b6","650c16f0f2faf8d7a0d14c09","651c1cf3265b91536d984282","null","null","<p style=""font-size: 60px; font-family: BACS"">lGZvJQA</p>","","","","","","","","","",""
"html-keyboard-response","366","522163","0.0-16.0-0.34","60123adc24c9f126819861b6","650c16f0f2faf8d7a0d14c09","651c1cf3265b91536d984282","null","null","<p style=""font-size: 60px; font-family: BACS"">lGZvJQA</p>","","","","","","","","","",""
"html-keyboard-response","367","523174","0.0-16.0-0.35","60123adc24c9f126819861b6","650c16f0f2faf8d7a0d14c09","651c1cf3265b91536d984282","null","null","<p style=""font-size: 60px; font-family: BACS"">lGZvJQA</p>","","","","","","","","","",""
"html-keyboard-response","368","524182","0.0-16.0-0.36","60123adc24c9f126819861b6","650c16f0f2faf8d7a0d14c09","651c1cf3265b91536d984282","null","null","<p style=""font-size: 60px; font-family: BACS"">lGZvJQA</p>","","","","","","","","","",""
"html-keyboard-response","369","525190","0.0-16.0-0.37","60123adc24c9f126819861b6","650c16f0f2faf8d7a0d14c09","651c1cf3265b91536d984282","null","null","<p style=""font-size: 60px; font-family: BACS"">lGZvJQA</p>","","","","","","","","","",""
"html-keyboard-response","370","526200","0.0-16.0-0.38","60123adc24c9f126819861b6","650c16f0f2faf8d7a0d14c09","651c1cf3265b91536d984282","null","null","<p style=""font-size: 60px; font-family: BACS"">lGZvJQA</p>","","","","","","","","","",""
"html-keyboard-response","371","527213","0.0-16.0-0.39","60123adc24c9f126819861b6","650c16f0f2faf8d7a0d14c09","651c1cf3265b91536d984282","null","null","<p style=""font-size: 60px; font-family: BACS"">lGZvJQA</p>","","","","","","","","","",""
"html-keyboard-response","372","528220","0.0-16.0-0.40","60123adc24c9f126819861b6","650c16f0f2faf8d7a0d14c09","651c1cf3265b91536d984282","null","null","<p style=""font-size: 60px; font-family: BACS"">lGZvJQA</p>","","","","","","","","","",""
"html-keyboard-response","373","529233","0.0-16.0-0.41","60123adc24c9f126819861b6","650c16f0f2faf8d7a0d14c09","651c1cf3265b91536d984282","null","null","<p style=""font-size: 60px; font-family: BACS"">lGZvJQA</p>","","","","","","","","","",""
"html-keyboard-response","374","530243","0.0-16.0-0.42","60123adc24c9f126819861b6","650c16f0f2faf8d7a0d14c09","651c1cf3265b91536d984282","null","null","<p style=""font-size: 60px; font-family: BACS"">lGZvJQA</p>","","","","","","","","","",""
"html-keyboard-response","375","531259","0.0-16.0-0.43","60123adc24c9f126819861b6","650c16f0f2faf8d7a0d14c09","651c1cf3265b91536d984282","null","null","<p style=""font-size: 60px; font-family: BACS"">lGZvJQA</p>","","","","","","","","","",""
"html-keyboard-response","376","532266","0.0-16.0-0.44","60123adc24c9f126819861b6","650c16f0f2faf8d7a0d14c09","651c1cf3265b91536d984282","null","null","<p style=""font-size: 60px; font-family: BACS"">lGZvJQA</p>","","","","","","","","","",""
"html-keyboard-response","377","533273","0.0-16.0-0.45","60123adc24c9f126819861b6","650c16f0f2faf8d7a0d14c09","651c1cf3265b91536d984282","null","null","<p style=""font-size: 60px; font-family: BACS"">lGZvJQA</p>","","","","","","","","","",""
"html-keyboard-response","378","534282","0.0-16.0-0.46","60123adc24c9f126819861b6","650c16f0f2faf8d7a0d14c09","651c1cf3265b91536d984282","null","null","<p style=""font-size: 60px; font-family: BACS"">lGZvJQA</p>","","","","","","","","","",""
"html-keyboard-response","379","535285","0.0-16.0-0.47","60123adc24c9f126819861b6","650c16f0f2faf8d7a0d14c09","651c1cf3265b91536d984282","null","null","<p style=""font-size: 60px; font-family: BACS"">lGZvJQA</p>","","","","","","","","","",""
"html-keyboard-response","380","536291","0.0-16.0-0.48","60123adc24c9f126819861b6","650c16f0f2faf8d7a0d14c09","651c1cf3265b91536d984282","null","null","<p style=""font-size: 60px; font-family: BACS"">lGZvJQA</p>","","","","","","","","","",""
"html-keyboard-response","381","537299","0.0-16.0-0.49","60123adc24c9f126819861b6","650c16f0f2faf8d7a0d14c09","651c1cf3265b91536d984282","null","null","<p style=""font-size: 60px; font-family: BACS"">lGZvJQA</p>","","","","","","","","","",""
"html-keyboard-response","382","538312","0.0-16.0-0.50","60123adc24c9f126819861b6","650c16f0f2faf8d7a0d14c09","651c1cf3265b91536d984282","null","null","<p style=""font-size: 60px; font-family: BACS"">lGZvJQA</p>","","","","","","","","","",""
"html-keyboard-response","383","539326","0.0-16.0-0.51","60123adc24c9f126819861b6","650c16f0f2faf8d7a0d14c09","651c1cf3265b91536d984282","null","null","<p style=""font-size: 60px; font-family: BACS"">lGZvJQA</p>","","","","","","","","","",""
"html-keyboard-response","384","540341","0.0-16.0-0.52","60123adc24c9f126819861b6","650c16f0f2faf8d7a0d14c09","651c1cf3265b91536d984282","null","null","<p style=""font-size: 60px; font-family: BACS"">lGZvJQA</p>","","","","","","","","","",""
"html-keyboard-response","385","541352","0.0-16.0-0.53","60123adc24c9f126819861b6","650c16f0f2faf8d7a0d14c09","651c1cf3265b91536d984282","null","null","<p style=""font-size: 60px; font-family: BACS"">lGZvJQA</p>","","","","","","","","","",""
"html-keyboard-response","386","542360","0.0-16.0-0.54","60123adc24c9f126819861b6","650c16f0f2faf8d7a0d14c09","651c1cf3265b91536d984282","null","null","<p style=""font-size: 60px; font-family: BACS"">lGZvJQA</p>","","","","","","","","","",""
"html-keyboard-response","387","543365","0.0-16.0-0.55","60123adc24c9f126819861b6","650c16f0f2faf8d7a0d14c09","651c1cf3265b91536d984282","null","null","<p style=""font-size: 60px; font-family: BACS"">lGZvJQA</p>","","","","","","","","","",""
"html-keyboard-response","388","544374","0.0-16.0-0.56","60123adc24c9f126819861b6","650c16f0f2faf8d7a0d14c09","651c1cf3265b91536d984282","null","null","<p style=""font-size: 60px; font-family: BACS"">lGZvJQA</p>","","","","","","","","","",""
"html-keyboard-response","389","545382","0.0-16.0-0.57","60123adc24c9f126819861b6","650c16f0f2faf8d7a0d14c09","651c1cf3265b91536d984282","null","null","<p style=""font-size: 60px; font-family: BACS"">lGZvJQA</p>","","","","","","","","","",""
"html-keyboard-response","390","546391","0.0-16.0-0.58","60123adc24c9f126819861b6","650c16f0f2faf8d7a0d14c09","651c1cf3265b91536d984282","null","null","<p style=""font-size: 60px; font-family: BACS"">lGZvJQA</p>","","","","","","","","","",""
"html-keyboard-response","391","547404","0.0-16.0-0.59","60123adc24c9f126819861b6","650c16f0f2faf8d7a0d14c09","651c1cf3265b91536d984282","null","null","<p style=""font-size: 60px; font-family: BACS"">lGZvJQA</p>","","","","","","","","","",""
"html-keyboard-response","392","548409","0.0-16.0-0.60","60123adc24c9f126819861b6","650c16f0f2faf8d7a0d14c09","651c1cf3265b91536d984282","null","null","<p style=""font-size: 60px; font-family: BACS"">lGZvJQA</p>","","","","","","","","","",""
"html-keyboard-response","393","549415","0.0-16.0-0.61","60123adc24c9f126819861b6","650c16f0f2faf8d7a0d14c09","651c1cf3265b91536d984282","null","null","<p style=""font-size: 60px; font-family: BACS"">lGZvJQA</p>","","","","","","","","","",""
