"trial_type","trial_index","time_elapsed","internal_node_id","subject_id","study_id","session_id","rt","response","stimulus","success","item","task","correct_response","testing_condition","correct","target","confound","name"
"pavlovia","0","613","0.0-0.0","5e42b6421f44d3143440b25c","650c16f0f2faf8d7a0d14c09","651c1d01f2f046c6abe73a5c","","","","","","","","","","","",""
"survey-html-form","1","5000","0.0-1.0","5e42b6421f44d3143440b25c","650c16f0f2faf8d7a0d14c09","651c1d01f2f046c6abe73a5c","4386","{""ID"":""5e42b6421f44d3143440b25c""}","","","","","","","","","",""
"html-keyboard-response","2","20697","0.0-2.0","5e42b6421f44d3143440b25c","650c16f0f2faf8d7a0d14c09","651c1d01f2f046c6abe73a5c","15695"," ","<p style=""font-size: 15px;"">Before beginning, we ask that you read the consent information and confirm your agreement to participate in the experiment.</p>
      <p style=""font-size: 15px;""> We ask that you remember that this is a research project and that your participation is entirely voluntary. You can stop your participation at any time, without needing to provide any explanation. The study we're asking you to participate in aims at examining how readers process written words. You will be engaged in a session of apprximately 20 minutes, followed by a brief questionnaire. You will have the opportunity to take a few breaks during the experiment. You will be paid £4 for your participation, corresponding to a rate of £8/hour. While this experiment looks at cognitive faculties, this experiment doesn't constitute clinical proof of eventual pathologies.</p>
      <p style=""font-size: 15px;"">All of the information collected thanks to yours and others' participation will be held in a secure password-protected server, and will not be shared with anyone not authorised to view it. Your personal information will be kept with an arbitrary participant ID. Thanks to this data anonymity process, any researcher analysing the data won't be able to track the information back to a specific participant. Therefore, this process will make identifying you impossibile, even when results from the study will be published in scientific reviews, presented at congresses, or at any other public forum. More generally, the collected data will be treated in accordance with the laws on privacy and conformity to the Legislative Degree n. 196 ""Code regarding the protection of personal data"" of the 30th of June 2003 and to the European Regulation 2016/670 (General Data Protection Regulation - GDPR). The Data Protection Officer is Avv. Valentina Carollo, who can be contacted at the following email addresses: <a href=""mailto:dpo@sissa.it"">dpo@sissa.it</a> or <a href=""mailto:rpd@sissa.it"">rpd@sissa.it</a> - PEC: <a href=""mailto:protocollo@pec.sissa.it"">protocollo@pec.sissa.it</a>.</p>
      <p style=""font-size: 15px;""> Before expressing your consent to participate, we would like to remind you again that in case you need explanations on any aspect of the experimental procedure, the researcher is at your disposition (<a href=""mailto:aliebelt@sissa.it"">aliebelt@sissa.it</a>, <a href=""mailto:davide.crepaldi@sissa.it"">davide.crepaldi@sissa.it</a>).</p>
      <p style=""font-size: 15px;"">If you would like to download the informed consent form, you can do so here: <a href=""BASL-Informed_Consent.pdf"" download>informed consent form</a>.</p>
      <p style=""font-size: 15px;"">We ask that you press the spacebar to proceed to the consent section.</p>","","","","","","","","",""
"survey-html-form","3","33103","0.0-3.0","5e42b6421f44d3143440b25c","650c16f0f2faf8d7a0d14c09","651c1d01f2f046c6abe73a5c","12406","{""consent1"":""YES"",""consent2"":""YES"",""consent3"":""YES"",""consent4"":""YES"",""consent5"":""YES"",""consent6"":""YES""}","","","","","","","","","",""
"fullscreen","4","37254","0.0-4.0","5e42b6421f44d3143440b25c","650c16f0f2faf8d7a0d14c09","651c1d01f2f046c6abe73a5c","","","","true","","","","","","","",""
"html-keyboard-response","5","43241","0.0-5.0","5e42b6421f44d3143440b25c","650c16f0f2faf8d7a0d14c09","651c1d01f2f046c6abe73a5c","5986"," ","<p>Welcome, and thank you very much for your time!</p>
      <p>In this experiment, you'll be a language expert who's been asked to take a look at words that Earth has received in its first communication with aliens. Your task, in this first part of the experiment, is to pay close attention to the words you'll be shown; later, world leaders will ask you questions on what you saw. The words will be shown to you quite quickly; it seems that the aliens were in a hurry :-)</p>
      <p>Press the spacebar to continue.<p>","","","","","","","","",""
"html-keyboard-response","6","43292","0.0-6.0","5e42b6421f44d3143440b25c","650c16f0f2faf8d7a0d14c09","651c1d01f2f046c6abe73a5c","null","null","<p style=""font-size: 120px; font-family: BACS""> </p>","","","","","","","","",""
"html-keyboard-response","7","49059","0.0-7.0","5e42b6421f44d3143440b25c","650c16f0f2faf8d7a0d14c09","651c1d01f2f046c6abe73a5c","5767"," ","<p>Here is an example of the words you'll see:</p>
      <img src='esempio.png' height='400px'>
      <p>When you're ready to begin, press the spacebar.</p></div>","","","","","","","","",""
"html-keyboard-response","8","50060","0.0-8.0-0.0","5e42b6421f44d3143440b25c","650c16f0f2faf8d7a0d14c09","651c1d01f2f046c6abe73a5c","null","null","<p style=""font-size: 60px; font-family: BACS"">YdudlLG</p>","","","","","","","","",""
"html-keyboard-response","9","51061","0.0-8.0-0.1","5e42b6421f44d3143440b25c","650c16f0f2faf8d7a0d14c09","651c1d01f2f046c6abe73a5c","null","null","<p style=""font-size: 60px; font-family: BACS"">adkrcbm</p>","","","","","","","","",""
"html-keyboard-response","10","52062","0.0-8.0-0.2","5e42b6421f44d3143440b25c","650c16f0f2faf8d7a0d14c09","651c1d01f2f046c6abe73a5c","null","null","<p style=""font-size: 60px; font-family: BACS"">OMlTEPBT</p>","","","","","","","","",""
"html-keyboard-response","11","53076","0.0-8.0-0.3","5e42b6421f44d3143440b25c","650c16f0f2faf8d7a0d14c09","651c1d01f2f046c6abe73a5c","null","null","<p style=""font-size: 60px; font-family: BACS"">ZdNmUvJQ</p>","","","","","","","","",""
"html-keyboard-response","12","54077","0.0-8.0-0.4","5e42b6421f44d3143440b25c","650c16f0f2faf8d7a0d14c09","651c1d01f2f046c6abe73a5c","null","null","<p style=""font-size: 60px; font-family: BACS"">GJGcZJQA</p>","","","","","","","","",""
"html-keyboard-response","13","55079","0.0-8.0-0.5","5e42b6421f44d3143440b25c","650c16f0f2faf8d7a0d14c09","651c1d01f2f046c6abe73a5c","null","null","<p style=""font-size: 60px; font-family: BACS"">UrOQAZbl</p>","","","","","","","","",""
"html-keyboard-response","14","56080","0.0-8.0-0.6","5e42b6421f44d3143440b25c","650c16f0f2faf8d7a0d14c09","651c1d01f2f046c6abe73a5c","null","null","<p style=""font-size: 60px; font-family: BACS"">PdDTmKcD</p>","","","","","","","","",""
"html-keyboard-response","15","57081","0.0-8.0-0.7","5e42b6421f44d3143440b25c","650c16f0f2faf8d7a0d14c09","651c1d01f2f046c6abe73a5c","null","null","<p style=""font-size: 60px; font-family: BACS"">JdOAYlLG</p>","","","","","","","","",""
"html-keyboard-response","16","58083","0.0-8.0-0.8","5e42b6421f44d3143440b25c","650c16f0f2faf8d7a0d14c09","651c1d01f2f046c6abe73a5c","null","null","<p style=""font-size: 60px; font-family: BACS"">kcdOtEPBT</p>","","","","","","","","",""
"html-keyboard-response","17","59084","0.0-8.0-0.9","5e42b6421f44d3143440b25c","650c16f0f2faf8d7a0d14c09","651c1d01f2f046c6abe73a5c","null","null","<p style=""font-size: 60px; font-family: BACS"">CYPcYKPB</p>","","","","","","","","",""
"html-keyboard-response","18","60086","0.0-8.0-0.10","5e42b6421f44d3143440b25c","650c16f0f2faf8d7a0d14c09","651c1d01f2f046c6abe73a5c","null","null","<p style=""font-size: 60px; font-family: BACS"">PhktkBRDh</p>","","","","","","","","",""
"html-keyboard-response","19","61087","0.0-8.0-0.11","5e42b6421f44d3143440b25c","650c16f0f2faf8d7a0d14c09","651c1d01f2f046c6abe73a5c","null","null","<p style=""font-size: 60px; font-family: BACS"">adkrJQA</p>","","","","","","","","",""
"html-keyboard-response","20","62088","0.0-8.0-0.12","5e42b6421f44d3143440b25c","650c16f0f2faf8d7a0d14c09","651c1d01f2f046c6abe73a5c","null","null","<p style=""font-size: 60px; font-family: BACS"">DMRPEPBT</p>","","","","","","","","",""
"html-keyboard-response","21","63089","0.0-8.0-0.13","5e42b6421f44d3143440b25c","650c16f0f2faf8d7a0d14c09","651c1d01f2f046c6abe73a5c","null","null","<p style=""font-size: 60px; font-family: BACS"">ZdNmUAZbl</p>","","","","","","","","",""
"html-keyboard-response","22","64089","0.0-8.0-0.14","5e42b6421f44d3143440b25c","650c16f0f2faf8d7a0d14c09","651c1d01f2f046c6abe73a5c","null","null","<p style=""font-size: 60px; font-family: BACS"">tmYhmKcD</p>","","","","","","","","",""
"html-keyboard-response","23","65090","0.0-8.0-0.15","5e42b6421f44d3143440b25c","650c16f0f2faf8d7a0d14c09","651c1d01f2f046c6abe73a5c","null","null","<p style=""font-size: 60px; font-family: BACS"">UrOQvJQ</p>","","","","","","","","",""
"html-keyboard-response","24","66092","0.0-8.0-0.16","5e42b6421f44d3143440b25c","650c16f0f2faf8d7a0d14c09","651c1d01f2f046c6abe73a5c","null","null","<p style=""font-size: 60px; font-family: BACS"">PhktkmCd</p>","","","","","","","","",""
"html-keyboard-response","25","67094","0.0-8.0-0.17","5e42b6421f44d3143440b25c","650c16f0f2faf8d7a0d14c09","651c1d01f2f046c6abe73a5c","null","null","<p style=""font-size: 60px; font-family: BACS"">ZdNmUcbm</p>","","","","","","","","",""
"html-keyboard-response","26","68094","0.0-8.0-0.18","5e42b6421f44d3143440b25c","650c16f0f2faf8d7a0d14c09","651c1d01f2f046c6abe73a5c","null","null","<p style=""font-size: 60px; font-family: BACS"">PdDTYKPB</p>","","","","","","","","",""
"html-keyboard-response","27","69096","0.0-8.0-0.19","5e42b6421f44d3143440b25c","650c16f0f2faf8d7a0d14c09","651c1d01f2f046c6abe73a5c","null","null","<p style=""font-size: 60px; font-family: BACS"">AJLrvJQ</p>","","","","","","","","",""
"html-keyboard-response","28","70096","0.0-8.0-0.20","5e42b6421f44d3143440b25c","650c16f0f2faf8d7a0d14c09","651c1d01f2f046c6abe73a5c","null","null","<p style=""font-size: 60px; font-family: BACS"">CYPcEPBT</p>","","","","","","","","",""
"html-keyboard-response","29","71098","0.0-8.0-0.21","5e42b6421f44d3143440b25c","650c16f0f2faf8d7a0d14c09","651c1d01f2f046c6abe73a5c","null","null","<p style=""font-size: 60px; font-family: BACS"">OMlTmCd</p>","","","","","","","","",""
"html-keyboard-response","30","72099","0.0-8.0-0.22","5e42b6421f44d3143440b25c","650c16f0f2faf8d7a0d14c09","651c1d01f2f046c6abe73a5c","null","null","<p style=""font-size: 60px; font-family: BACS"">CYPcmKcD</p>","","","","","","","","",""
"html-keyboard-response","31","73101","0.0-8.0-0.23","5e42b6421f44d3143440b25c","650c16f0f2faf8d7a0d14c09","651c1d01f2f046c6abe73a5c","null","null","<p style=""font-size: 60px; font-family: BACS"">kulZcbm</p>","","","","","","","","",""
"html-keyboard-response","32","74101","0.0-8.0-0.24","5e42b6421f44d3143440b25c","650c16f0f2faf8d7a0d14c09","651c1d01f2f046c6abe73a5c","null","null","<p style=""font-size: 60px; font-family: BACS"">DMRPYKPB</p>","","","","","","","","",""
"html-keyboard-response","33","75103","0.0-8.0-0.25","5e42b6421f44d3143440b25c","650c16f0f2faf8d7a0d14c09","651c1d01f2f046c6abe73a5c","null","null","<p style=""font-size: 60px; font-family: BACS"">PcBTmCd</p>","","","","","","","","",""
"html-keyboard-response","34","76104","0.0-8.0-0.26","5e42b6421f44d3143440b25c","650c16f0f2faf8d7a0d14c09","651c1d01f2f046c6abe73a5c","null","null","<p style=""font-size: 60px; font-family: BACS"">AJLrcbm</p>","","","","","","","","",""
"html-keyboard-response","35","77105","0.0-8.0-0.27","5e42b6421f44d3143440b25c","650c16f0f2faf8d7a0d14c09","651c1d01f2f046c6abe73a5c","null","null","<p style=""font-size: 60px; font-family: BACS"">JdOAYAZbl</p>","","","","","","","","",""
"html-keyboard-response","36","78107","0.0-8.0-0.28","5e42b6421f44d3143440b25c","650c16f0f2faf8d7a0d14c09","651c1d01f2f046c6abe73a5c","null","null","<p style=""font-size: 60px; font-family: BACS"">tmYhBRDh</p>","","","","","","","","",""
"html-keyboard-response","37","79109","0.0-8.0-0.29","5e42b6421f44d3143440b25c","650c16f0f2faf8d7a0d14c09","651c1d01f2f046c6abe73a5c","null","null","<p style=""font-size: 60px; font-family: BACS"">OQarQlLG</p>","","","","","","","","",""
"html-keyboard-response","38","80111","0.0-8.0-0.30","5e42b6421f44d3143440b25c","650c16f0f2faf8d7a0d14c09","651c1d01f2f046c6abe73a5c","null","null","<p style=""font-size: 60px; font-family: BACS"">tmYhmCd</p>","","","","","","","","",""
"html-keyboard-response","39","81112","0.0-8.0-0.31","5e42b6421f44d3143440b25c","650c16f0f2faf8d7a0d14c09","651c1d01f2f046c6abe73a5c","null","null","<p style=""font-size: 60px; font-family: BACS"">GJGcZcbm</p>","","","","","","","","",""
"html-keyboard-response","40","82113","0.0-8.0-0.32","5e42b6421f44d3143440b25c","650c16f0f2faf8d7a0d14c09","651c1d01f2f046c6abe73a5c","null","null","<p style=""font-size: 60px; font-family: BACS"">YdudJQA</p>","","","","","","","","",""
"html-keyboard-response","41","83113","0.0-8.0-0.33","5e42b6421f44d3143440b25c","650c16f0f2faf8d7a0d14c09","651c1d01f2f046c6abe73a5c","null","null","<p style=""font-size: 60px; font-family: BACS"">OQarQvJQ</p>","","","","","","","","",""
"html-keyboard-response","42","84115","0.0-8.0-0.34","5e42b6421f44d3143440b25c","650c16f0f2faf8d7a0d14c09","651c1d01f2f046c6abe73a5c","null","null","<p style=""font-size: 60px; font-family: BACS"">CYPcBRDh</p>","","","","","","","","",""
"html-keyboard-response","43","85117","0.0-8.0-0.35","5e42b6421f44d3143440b25c","650c16f0f2faf8d7a0d14c09","651c1d01f2f046c6abe73a5c","null","null","<p style=""font-size: 60px; font-family: BACS"">PcBTYKPB</p>","","","","","","","","",""
"html-keyboard-response","44","86119","0.0-8.0-0.36","5e42b6421f44d3143440b25c","650c16f0f2faf8d7a0d14c09","651c1d01f2f046c6abe73a5c","null","null","<p style=""font-size: 60px; font-family: BACS"">JdOAYcbm</p>","","","","","","","","",""
"html-keyboard-response","45","87120","0.0-8.0-0.37","5e42b6421f44d3143440b25c","650c16f0f2faf8d7a0d14c09","651c1d01f2f046c6abe73a5c","null","null","<p style=""font-size: 60px; font-family: BACS"">GJGcZAZbl</p>","","","","","","","","",""
"html-keyboard-response","46","88121","0.0-8.0-0.38","5e42b6421f44d3143440b25c","650c16f0f2faf8d7a0d14c09","651c1d01f2f046c6abe73a5c","null","null","<p style=""font-size: 60px; font-family: BACS"">PcBTBRDh</p>","","","","","","","","",""
"html-keyboard-response","47","89123","0.0-8.0-0.39","5e42b6421f44d3143440b25c","650c16f0f2faf8d7a0d14c09","651c1d01f2f046c6abe73a5c","null","null","<p style=""font-size: 60px; font-family: BACS"">OtlRmKcD</p>","","","","","","","","",""
"html-keyboard-response","48","90123","0.0-8.0-0.40","5e42b6421f44d3143440b25c","650c16f0f2faf8d7a0d14c09","651c1d01f2f046c6abe73a5c","null","null","<p style=""font-size: 60px; font-family: BACS"">auYAklLG</p>","","","","","","","","",""
"html-keyboard-response","49","91125","0.0-8.0-0.41","5e42b6421f44d3143440b25c","650c16f0f2faf8d7a0d14c09","651c1d01f2f046c6abe73a5c","null","null","<p style=""font-size: 60px; font-family: BACS"">kulZAZbl</p>","","","","","","","","",""
"html-keyboard-response","50","92126","0.0-8.0-0.42","5e42b6421f44d3143440b25c","650c16f0f2faf8d7a0d14c09","651c1d01f2f046c6abe73a5c","null","null","<p style=""font-size: 60px; font-family: BACS"">UrOQJQA</p>","","","","","","","","",""
"html-keyboard-response","51","93127","0.0-8.0-0.43","5e42b6421f44d3143440b25c","650c16f0f2faf8d7a0d14c09","651c1d01f2f046c6abe73a5c","null","null","<p style=""font-size: 60px; font-family: BACS"">PhktkEPBT</p>","","","","","","","","",""
"html-keyboard-response","52","94128","0.0-8.0-0.44","5e42b6421f44d3143440b25c","650c16f0f2faf8d7a0d14c09","651c1d01f2f046c6abe73a5c","null","null","<p style=""font-size: 60px; font-family: BACS"">adkrAZbl</p>","","","","","","","","",""
"html-keyboard-response","53","95129","0.0-8.0-0.45","5e42b6421f44d3143440b25c","650c16f0f2faf8d7a0d14c09","651c1d01f2f046c6abe73a5c","null","null","<p style=""font-size: 60px; font-family: BACS"">OtlRBRDh</p>","","","","","","","","",""
"html-keyboard-response","54","96131","0.0-8.0-0.46","5e42b6421f44d3143440b25c","650c16f0f2faf8d7a0d14c09","651c1d01f2f046c6abe73a5c","null","null","<p style=""font-size: 60px; font-family: BACS"">OQarQAZbl</p>","","","","","","","","",""
"html-keyboard-response","55","97132","0.0-8.0-0.47","5e42b6421f44d3143440b25c","650c16f0f2faf8d7a0d14c09","651c1d01f2f046c6abe73a5c","null","null","<p style=""font-size: 60px; font-family: BACS"">UrOQlLG</p>","","","","","","","","",""
"html-keyboard-response","56","98133","0.0-8.0-0.48","5e42b6421f44d3143440b25c","650c16f0f2faf8d7a0d14c09","651c1d01f2f046c6abe73a5c","null","null","<p style=""font-size: 60px; font-family: BACS"">adkrvJQ</p>","","","","","","","","",""
"html-keyboard-response","57","99135","0.0-8.0-0.49","5e42b6421f44d3143440b25c","650c16f0f2faf8d7a0d14c09","651c1d01f2f046c6abe73a5c","null","null","<p style=""font-size: 60px; font-family: BACS"">auYAkJQA</p>","","","","","","","","",""
"html-keyboard-response","58","100136","0.0-8.0-0.50","5e42b6421f44d3143440b25c","650c16f0f2faf8d7a0d14c09","651c1d01f2f046c6abe73a5c","null","null","<p style=""font-size: 60px; font-family: BACS"">OtlRmCd</p>","","","","","","","","",""
"html-keyboard-response","59","101137","0.0-8.0-0.51","5e42b6421f44d3143440b25c","650c16f0f2faf8d7a0d14c09","651c1d01f2f046c6abe73a5c","null","null","<p style=""font-size: 60px; font-family: BACS"">kulZJQA</p>","","","","","","","","",""
"html-keyboard-response","60","102139","0.0-8.0-0.52","5e42b6421f44d3143440b25c","650c16f0f2faf8d7a0d14c09","651c1d01f2f046c6abe73a5c","null","null","<p style=""font-size: 60px; font-family: BACS"">GJGcZvJQ</p>","","","","","","","","",""
"html-keyboard-response","61","103139","0.0-8.0-0.53","5e42b6421f44d3143440b25c","650c16f0f2faf8d7a0d14c09","651c1d01f2f046c6abe73a5c","null","null","<p style=""font-size: 60px; font-family: BACS"">DMRPBRDh</p>","","","","","","","","",""
"html-keyboard-response","62","104140","0.0-8.0-0.54","5e42b6421f44d3143440b25c","650c16f0f2faf8d7a0d14c09","651c1d01f2f046c6abe73a5c","null","null","<p style=""font-size: 60px; font-family: BACS"">ZdNmUlLG</p>","","","","","","","","",""
"html-keyboard-response","63","105141","0.0-8.0-0.55","5e42b6421f44d3143440b25c","650c16f0f2faf8d7a0d14c09","651c1d01f2f046c6abe73a5c","null","null","<p style=""font-size: 60px; font-family: BACS"">Ydudcbm</p>","","","","","","","","",""
"html-keyboard-response","64","106141","0.0-8.0-0.56","5e42b6421f44d3143440b25c","650c16f0f2faf8d7a0d14c09","651c1d01f2f046c6abe73a5c","null","null","<p style=""font-size: 60px; font-family: BACS"">bRABtmKcD</p>","","","","","","","","",""
"html-keyboard-response","65","107142","0.0-8.0-0.57","5e42b6421f44d3143440b25c","650c16f0f2faf8d7a0d14c09","651c1d01f2f046c6abe73a5c","null","null","<p style=""font-size: 60px; font-family: BACS"">auYAkAZbl</p>","","","","","","","","",""
"html-keyboard-response","66","108144","0.0-8.0-0.58","5e42b6421f44d3143440b25c","650c16f0f2faf8d7a0d14c09","651c1d01f2f046c6abe73a5c","null","null","<p style=""font-size: 60px; font-family: BACS"">JdOAYvJQ</p>","","","","","","","","",""
"html-keyboard-response","67","109146","0.0-8.0-0.59","5e42b6421f44d3143440b25c","650c16f0f2faf8d7a0d14c09","651c1d01f2f046c6abe73a5c","null","null","<p style=""font-size: 60px; font-family: BACS"">PhktkYKPB</p>","","","","","","","","",""
"html-keyboard-response","68","110147","0.0-8.0-0.60","5e42b6421f44d3143440b25c","650c16f0f2faf8d7a0d14c09","651c1d01f2f046c6abe73a5c","null","null","<p style=""font-size: 60px; font-family: BACS"">PdDTmCd</p>","","","","","","","","",""
"html-keyboard-response","69","111148","0.0-8.0-0.61","5e42b6421f44d3143440b25c","650c16f0f2faf8d7a0d14c09","651c1d01f2f046c6abe73a5c","null","null","<p style=""font-size: 60px; font-family: BACS"">OMlTBRDh</p>","","","","","","","","",""
"html-keyboard-response","70","112150","0.0-8.0-0.62","5e42b6421f44d3143440b25c","650c16f0f2faf8d7a0d14c09","651c1d01f2f046c6abe73a5c","null","null","<p style=""font-size: 60px; font-family: BACS"">OQarQJQA</p>","","","","","","","","",""
"html-keyboard-response","71","113151","0.0-8.0-0.63","5e42b6421f44d3143440b25c","650c16f0f2faf8d7a0d14c09","651c1d01f2f046c6abe73a5c","null","null","<p style=""font-size: 60px; font-family: BACS"">kulZlLG</p>","","","","","","","","",""
"html-keyboard-response","72","114153","0.0-8.0-0.64","5e42b6421f44d3143440b25c","650c16f0f2faf8d7a0d14c09","651c1d01f2f046c6abe73a5c","null","null","<p style=""font-size: 60px; font-family: BACS"">OtlRYKPB</p>","","","","","","","","",""
"html-keyboard-response","73","115154","0.0-8.0-0.65","5e42b6421f44d3143440b25c","650c16f0f2faf8d7a0d14c09","651c1d01f2f046c6abe73a5c","null","null","<p style=""font-size: 60px; font-family: BACS"">DMRPmKcD</p>","","","","","","","","",""
"html-keyboard-response","74","116156","0.0-8.0-0.66","5e42b6421f44d3143440b25c","650c16f0f2faf8d7a0d14c09","651c1d01f2f046c6abe73a5c","null","null","<p style=""font-size: 60px; font-family: BACS"">bRABtmCd</p>","","","","","","","","",""
"html-keyboard-response","75","117157","0.0-8.0-0.67","5e42b6421f44d3143440b25c","650c16f0f2faf8d7a0d14c09","651c1d01f2f046c6abe73a5c","null","null","<p style=""font-size: 60px; font-family: BACS"">kcdOtmKcD</p>","","","","","","","","",""
"html-keyboard-response","76","118157","0.0-8.0-0.68","5e42b6421f44d3143440b25c","650c16f0f2faf8d7a0d14c09","651c1d01f2f046c6abe73a5c","null","null","<p style=""font-size: 60px; font-family: BACS"">bRABtEPBT</p>","","","","","","","","",""
"html-keyboard-response","77","119159","0.0-8.0-0.69","5e42b6421f44d3143440b25c","650c16f0f2faf8d7a0d14c09","651c1d01f2f046c6abe73a5c","null","null","<p style=""font-size: 60px; font-family: BACS"">kcdOtmCd</p>","","","","","","","","",""
"html-keyboard-response","78","120160","0.0-8.0-0.70","5e42b6421f44d3143440b25c","650c16f0f2faf8d7a0d14c09","651c1d01f2f046c6abe73a5c","null","null","<p style=""font-size: 60px; font-family: BACS"">PcBTEPBT</p>","","","","","","","","",""
"html-keyboard-response","79","121162","0.0-8.0-0.71","5e42b6421f44d3143440b25c","650c16f0f2faf8d7a0d14c09","651c1d01f2f046c6abe73a5c","null","null","<p style=""font-size: 60px; font-family: BACS"">OMlTmKcD</p>","","","","","","","","",""
"html-keyboard-response","80","122163","0.0-8.0-0.72","5e42b6421f44d3143440b25c","650c16f0f2faf8d7a0d14c09","651c1d01f2f046c6abe73a5c","null","null","<p style=""font-size: 60px; font-family: BACS"">bRABtYKPB</p>","","","","","","","","",""
"html-keyboard-response","81","123177","0.0-8.0-0.73","5e42b6421f44d3143440b25c","650c16f0f2faf8d7a0d14c09","651c1d01f2f046c6abe73a5c","null","null","<p style=""font-size: 60px; font-family: BACS"">AJLrJQA</p>","","","","","","","","",""
"html-keyboard-response","82","124179","0.0-8.0-0.74","5e42b6421f44d3143440b25c","650c16f0f2faf8d7a0d14c09","651c1d01f2f046c6abe73a5c","null","null","<p style=""font-size: 60px; font-family: BACS"">tmYhYKPB</p>","","","","","","","","",""
"html-keyboard-response","83","125179","0.0-8.0-0.75","5e42b6421f44d3143440b25c","650c16f0f2faf8d7a0d14c09","651c1d01f2f046c6abe73a5c","null","null","<p style=""font-size: 60px; font-family: BACS"">PdDTEPBT</p>","","","","","","","","",""
"html-keyboard-response","84","126180","0.0-8.0-0.76","5e42b6421f44d3143440b25c","650c16f0f2faf8d7a0d14c09","651c1d01f2f046c6abe73a5c","null","null","<p style=""font-size: 60px; font-family: BACS"">YdudvJQ</p>","","","","","","","","",""
"html-keyboard-response","85","127182","0.0-8.0-0.77","5e42b6421f44d3143440b25c","650c16f0f2faf8d7a0d14c09","651c1d01f2f046c6abe73a5c","null","null","<p style=""font-size: 60px; font-family: BACS"">AJLrlLG</p>","","","","","","","","",""
"html-keyboard-response","86","128183","0.0-8.0-0.78","5e42b6421f44d3143440b25c","650c16f0f2faf8d7a0d14c09","651c1d01f2f046c6abe73a5c","null","null","<p style=""font-size: 60px; font-family: BACS"">auYAkcbm</p>","","","","","","","","",""
"html-keyboard-response","87","129185","0.0-8.0-0.79","5e42b6421f44d3143440b25c","650c16f0f2faf8d7a0d14c09","651c1d01f2f046c6abe73a5c","null","null","<p style=""font-size: 60px; font-family: BACS"">kcdOtBRDh</p>","","","","","","","","",""
"html-keyboard-response","88","135442","0.0-9.0","5e42b6421f44d3143440b25c","650c16f0f2faf8d7a0d14c09","651c1d01f2f046c6abe73a5c","6257"," ","<p>Great, you've seen the first block of words. You may now take a short break.</p>
      <p>Press the spacebar when you're ready to continue.</p>","","","","","","","","",""
"html-keyboard-response","89","136442","0.0-10.0-0.0","5e42b6421f44d3143440b25c","650c16f0f2faf8d7a0d14c09","651c1d01f2f046c6abe73a5c","null","null","<p style=""font-size: 60px; font-family: BACS"">OQarQAZbl</p>","","","","","","","","",""
"html-keyboard-response","90","137443","0.0-10.0-0.1","5e42b6421f44d3143440b25c","650c16f0f2faf8d7a0d14c09","651c1d01f2f046c6abe73a5c","null","null","<p style=""font-size: 60px; font-family: BACS"">OtlRmCd</p>","","","","","","","","",""
"html-keyboard-response","91","138444","0.0-10.0-0.2","5e42b6421f44d3143440b25c","650c16f0f2faf8d7a0d14c09","651c1d01f2f046c6abe73a5c","null","null","<p style=""font-size: 60px; font-family: BACS"">adkrJQA</p>","","","","","","","","",""
"html-keyboard-response","92","139445","0.0-10.0-0.3","5e42b6421f44d3143440b25c","650c16f0f2faf8d7a0d14c09","651c1d01f2f046c6abe73a5c","null","null","<p style=""font-size: 60px; font-family: BACS"">AJLrvJQ</p>","","","","","","","","",""
"html-keyboard-response","93","140446","0.0-10.0-0.4","5e42b6421f44d3143440b25c","650c16f0f2faf8d7a0d14c09","651c1d01f2f046c6abe73a5c","null","null","<p style=""font-size: 60px; font-family: BACS"">UrOQlLG</p>","","","","","","","","",""
"html-keyboard-response","94","141446","0.0-10.0-0.5","5e42b6421f44d3143440b25c","650c16f0f2faf8d7a0d14c09","651c1d01f2f046c6abe73a5c","null","null","<p style=""font-size: 60px; font-family: BACS"">tmYhBRDh</p>","","","","","","","","",""
"html-keyboard-response","95","142448","0.0-10.0-0.6","5e42b6421f44d3143440b25c","650c16f0f2faf8d7a0d14c09","651c1d01f2f046c6abe73a5c","null","null","<p style=""font-size: 60px; font-family: BACS"">PhktkmCd</p>","","","","","","","","",""
"html-keyboard-response","96","143448","0.0-10.0-0.7","5e42b6421f44d3143440b25c","650c16f0f2faf8d7a0d14c09","651c1d01f2f046c6abe73a5c","null","null","<p style=""font-size: 60px; font-family: BACS"">DMRPEPBT</p>","","","","","","","","",""
"html-keyboard-response","97","144449","0.0-10.0-0.8","5e42b6421f44d3143440b25c","650c16f0f2faf8d7a0d14c09","651c1d01f2f046c6abe73a5c","null","null","<p style=""font-size: 60px; font-family: BACS"">UrOQJQA</p>","","","","","","","","",""
"html-keyboard-response","98","145451","0.0-10.0-0.9","5e42b6421f44d3143440b25c","650c16f0f2faf8d7a0d14c09","651c1d01f2f046c6abe73a5c","null","null","<p style=""font-size: 60px; font-family: BACS"">kulZlLG</p>","","","","","","","","",""
"html-keyboard-response","99","146452","0.0-10.0-0.10","5e42b6421f44d3143440b25c","650c16f0f2faf8d7a0d14c09","651c1d01f2f046c6abe73a5c","null","null","<p style=""font-size: 60px; font-family: BACS"">GJGcZvJQ</p>","","","","","","","","",""
"html-keyboard-response","100","147453","0.0-10.0-0.11","5e42b6421f44d3143440b25c","650c16f0f2faf8d7a0d14c09","651c1d01f2f046c6abe73a5c","null","null","<p style=""font-size: 60px; font-family: BACS"">bRABtmKcD</p>","","","","","","","","",""
"html-keyboard-response","101","148454","0.0-10.0-0.12","5e42b6421f44d3143440b25c","650c16f0f2faf8d7a0d14c09","651c1d01f2f046c6abe73a5c","null","null","<p style=""font-size: 60px; font-family: BACS"">CYPcBRDh</p>","","","","","","","","",""
"html-keyboard-response","102","149455","0.0-10.0-0.13","5e42b6421f44d3143440b25c","650c16f0f2faf8d7a0d14c09","651c1d01f2f046c6abe73a5c","null","null","<p style=""font-size: 60px; font-family: BACS"">bRABtEPBT</p>","","","","","","","","",""
"html-keyboard-response","103","150456","0.0-10.0-0.14","5e42b6421f44d3143440b25c","650c16f0f2faf8d7a0d14c09","651c1d01f2f046c6abe73a5c","null","null","<p style=""font-size: 60px; font-family: BACS"">DMRPBRDh</p>","","","","","","","","",""
"html-keyboard-response","104","151458","0.0-10.0-0.15","5e42b6421f44d3143440b25c","650c16f0f2faf8d7a0d14c09","651c1d01f2f046c6abe73a5c","null","null","<p style=""font-size: 60px; font-family: BACS"">auYAklLG</p>","","","","","","","","",""
"html-keyboard-response","105","152461","0.0-10.0-0.16","5e42b6421f44d3143440b25c","650c16f0f2faf8d7a0d14c09","651c1d01f2f046c6abe73a5c","null","null","<p style=""font-size: 60px; font-family: BACS"">DMRPYKPB</p>","","","","","","","","",""
"html-keyboard-response","106","153462","0.0-10.0-0.17","5e42b6421f44d3143440b25c","650c16f0f2faf8d7a0d14c09","651c1d01f2f046c6abe73a5c","null","null","<p style=""font-size: 60px; font-family: BACS"">CYPcEPBT</p>","","","","","","","","",""
"html-keyboard-response","107","154463","0.0-10.0-0.18","5e42b6421f44d3143440b25c","650c16f0f2faf8d7a0d14c09","651c1d01f2f046c6abe73a5c","null","null","<p style=""font-size: 60px; font-family: BACS"">kulZcbm</p>","","","","","","","","",""
"html-keyboard-response","108","155464","0.0-10.0-0.19","5e42b6421f44d3143440b25c","650c16f0f2faf8d7a0d14c09","651c1d01f2f046c6abe73a5c","null","null","<p style=""font-size: 60px; font-family: BACS"">GJGcZJQA</p>","","","","","","","","",""
"html-keyboard-response","109","156465","0.0-10.0-0.20","5e42b6421f44d3143440b25c","650c16f0f2faf8d7a0d14c09","651c1d01f2f046c6abe73a5c","null","null","<p style=""font-size: 60px; font-family: BACS"">kcdOtmCd</p>","","","","","","","","",""
"html-keyboard-response","110","157466","0.0-10.0-0.21","5e42b6421f44d3143440b25c","650c16f0f2faf8d7a0d14c09","651c1d01f2f046c6abe73a5c","null","null","<p style=""font-size: 60px; font-family: BACS"">tmYhmKcD</p>","","","","","","","","",""
"html-keyboard-response","111","158467","0.0-10.0-0.22","5e42b6421f44d3143440b25c","650c16f0f2faf8d7a0d14c09","651c1d01f2f046c6abe73a5c","null","null","<p style=""font-size: 60px; font-family: BACS"">AJLrcbm</p>","","","","","","","","",""
"html-keyboard-response","112","159468","0.0-10.0-0.23","5e42b6421f44d3143440b25c","650c16f0f2faf8d7a0d14c09","651c1d01f2f046c6abe73a5c","null","null","<p style=""font-size: 60px; font-family: BACS"">kulZAZbl</p>","","","","","","","","",""
"html-keyboard-response","113","160469","0.0-10.0-0.24","5e42b6421f44d3143440b25c","650c16f0f2faf8d7a0d14c09","651c1d01f2f046c6abe73a5c","null","null","<p style=""font-size: 60px; font-family: BACS"">PdDTmKcD</p>","","","","","","","","",""
"html-keyboard-response","114","161469","0.0-10.0-0.25","5e42b6421f44d3143440b25c","650c16f0f2faf8d7a0d14c09","651c1d01f2f046c6abe73a5c","null","null","<p style=""font-size: 60px; font-family: BACS"">PcBTEPBT</p>","","","","","","","","",""
"html-keyboard-response","115","162470","0.0-10.0-0.26","5e42b6421f44d3143440b25c","650c16f0f2faf8d7a0d14c09","651c1d01f2f046c6abe73a5c","null","null","<p style=""font-size: 60px; font-family: BACS"">CYPcmKcD</p>","","","","","","","","",""
"html-keyboard-response","116","163470","0.0-10.0-0.27","5e42b6421f44d3143440b25c","650c16f0f2faf8d7a0d14c09","651c1d01f2f046c6abe73a5c","null","null","<p style=""font-size: 60px; font-family: BACS"">kcdOtBRDh</p>","","","","","","","","",""
"html-keyboard-response","117","164473","0.0-10.0-0.28","5e42b6421f44d3143440b25c","650c16f0f2faf8d7a0d14c09","651c1d01f2f046c6abe73a5c","null","null","<p style=""font-size: 60px; font-family: BACS"">YdudlLG</p>","","","","","","","","",""
"html-keyboard-response","118","165473","0.0-10.0-0.29","5e42b6421f44d3143440b25c","650c16f0f2faf8d7a0d14c09","651c1d01f2f046c6abe73a5c","null","null","<p style=""font-size: 60px; font-family: BACS"">adkrAZbl</p>","","","","","","","","",""
"html-keyboard-response","119","166475","0.0-10.0-0.30","5e42b6421f44d3143440b25c","650c16f0f2faf8d7a0d14c09","651c1d01f2f046c6abe73a5c","null","null","<p style=""font-size: 60px; font-family: BACS"">OtlRYKPB</p>","","","","","","","","",""
"html-keyboard-response","120","167476","0.0-10.0-0.31","5e42b6421f44d3143440b25c","650c16f0f2faf8d7a0d14c09","651c1d01f2f046c6abe73a5c","null","null","<p style=""font-size: 60px; font-family: BACS"">PcBTBRDh</p>","","","","","","","","",""
"html-keyboard-response","121","168477","0.0-10.0-0.32","5e42b6421f44d3143440b25c","650c16f0f2faf8d7a0d14c09","651c1d01f2f046c6abe73a5c","null","null","<p style=""font-size: 60px; font-family: BACS"">AJLrJQA</p>","","","","","","","","",""
"html-keyboard-response","122","169478","0.0-10.0-0.33","5e42b6421f44d3143440b25c","650c16f0f2faf8d7a0d14c09","651c1d01f2f046c6abe73a5c","null","null","<p style=""font-size: 60px; font-family: BACS"">JdOAYvJQ</p>","","","","","","","","",""
"html-keyboard-response","123","170479","0.0-10.0-0.34","5e42b6421f44d3143440b25c","650c16f0f2faf8d7a0d14c09","651c1d01f2f046c6abe73a5c","null","null","<p style=""font-size: 60px; font-family: BACS"">kcdOtmKcD</p>","","","","","","","","",""
"html-keyboard-response","124","171479","0.0-10.0-0.35","5e42b6421f44d3143440b25c","650c16f0f2faf8d7a0d14c09","651c1d01f2f046c6abe73a5c","null","null","<p style=""font-size: 60px; font-family: BACS"">ZdNmUAZbl</p>","","","","","","","","",""
"html-keyboard-response","125","172480","0.0-10.0-0.36","5e42b6421f44d3143440b25c","650c16f0f2faf8d7a0d14c09","651c1d01f2f046c6abe73a5c","null","null","<p style=""font-size: 60px; font-family: BACS"">OtlRBRDh</p>","","","","","","","","",""
"html-keyboard-response","126","173480","0.0-10.0-0.37","5e42b6421f44d3143440b25c","650c16f0f2faf8d7a0d14c09","651c1d01f2f046c6abe73a5c","null","null","<p style=""font-size: 60px; font-family: BACS"">CYPcYKPB</p>","","","","","","","","",""
"html-keyboard-response","127","174481","0.0-10.0-0.38","5e42b6421f44d3143440b25c","650c16f0f2faf8d7a0d14c09","651c1d01f2f046c6abe73a5c","null","null","<p style=""font-size: 60px; font-family: BACS"">OMlTEPBT</p>","","","","","","","","",""
"html-keyboard-response","128","175484","0.0-10.0-0.39","5e42b6421f44d3143440b25c","650c16f0f2faf8d7a0d14c09","651c1d01f2f046c6abe73a5c","null","null","<p style=""font-size: 60px; font-family: BACS"">PhktkYKPB</p>","","","","","","","","",""
"html-keyboard-response","129","176484","0.0-10.0-0.40","5e42b6421f44d3143440b25c","650c16f0f2faf8d7a0d14c09","651c1d01f2f046c6abe73a5c","null","null","<p style=""font-size: 60px; font-family: BACS"">UrOQAZbl</p>","","","","","","","","",""
"html-keyboard-response","130","177485","0.0-10.0-0.41","5e42b6421f44d3143440b25c","650c16f0f2faf8d7a0d14c09","651c1d01f2f046c6abe73a5c","null","null","<p style=""font-size: 60px; font-family: BACS"">PhktkBRDh</p>","","","","","","","","",""
"html-keyboard-response","131","178489","0.0-10.0-0.42","5e42b6421f44d3143440b25c","650c16f0f2faf8d7a0d14c09","651c1d01f2f046c6abe73a5c","null","null","<p style=""font-size: 60px; font-family: BACS"">OMlTmCd</p>","","","","","","","","",""
"html-keyboard-response","132","179490","0.0-10.0-0.43","5e42b6421f44d3143440b25c","650c16f0f2faf8d7a0d14c09","651c1d01f2f046c6abe73a5c","null","null","<p style=""font-size: 60px; font-family: BACS"">auYAkcbm</p>","","","","","","","","",""
"html-keyboard-response","133","180490","0.0-10.0-0.44","5e42b6421f44d3143440b25c","650c16f0f2faf8d7a0d14c09","651c1d01f2f046c6abe73a5c","null","null","<p style=""font-size: 60px; font-family: BACS"">OMlTBRDh</p>","","","","","","","","",""
"html-keyboard-response","134","181490","0.0-10.0-0.45","5e42b6421f44d3143440b25c","650c16f0f2faf8d7a0d14c09","651c1d01f2f046c6abe73a5c","null","null","<p style=""font-size: 60px; font-family: BACS"">JdOAYAZbl</p>","","","","","","","","",""
"html-keyboard-response","135","182492","0.0-10.0-0.46","5e42b6421f44d3143440b25c","650c16f0f2faf8d7a0d14c09","651c1d01f2f046c6abe73a5c","null","null","<p style=""font-size: 60px; font-family: BACS"">tmYhmCd</p>","","","","","","","","",""
"html-keyboard-response","136","183493","0.0-10.0-0.47","5e42b6421f44d3143440b25c","650c16f0f2faf8d7a0d14c09","651c1d01f2f046c6abe73a5c","null","null","<p style=""font-size: 60px; font-family: BACS"">kulZJQA</p>","","","","","","","","",""
"html-keyboard-response","137","184495","0.0-10.0-0.48","5e42b6421f44d3143440b25c","650c16f0f2faf8d7a0d14c09","651c1d01f2f046c6abe73a5c","null","null","<p style=""font-size: 60px; font-family: BACS"">JdOAYcbm</p>","","","","","","","","",""
"html-keyboard-response","138","185496","0.0-10.0-0.49","5e42b6421f44d3143440b25c","650c16f0f2faf8d7a0d14c09","651c1d01f2f046c6abe73a5c","null","null","<p style=""font-size: 60px; font-family: BACS"">auYAkAZbl</p>","","","","","","","","",""
"html-keyboard-response","139","186498","0.0-10.0-0.50","5e42b6421f44d3143440b25c","650c16f0f2faf8d7a0d14c09","651c1d01f2f046c6abe73a5c","null","null","<p style=""font-size: 60px; font-family: BACS"">tmYhYKPB</p>","","","","","","","","",""
"html-keyboard-response","140","187498","0.0-10.0-0.51","5e42b6421f44d3143440b25c","650c16f0f2faf8d7a0d14c09","651c1d01f2f046c6abe73a5c","null","null","<p style=""font-size: 60px; font-family: BACS"">OQarQJQA</p>","","","","","","","","",""
"html-keyboard-response","141","188499","0.0-10.0-0.52","5e42b6421f44d3143440b25c","650c16f0f2faf8d7a0d14c09","651c1d01f2f046c6abe73a5c","null","null","<p style=""font-size: 60px; font-family: BACS"">PdDTEPBT</p>","","","","","","","","",""
"html-keyboard-response","142","189501","0.0-10.0-0.53","5e42b6421f44d3143440b25c","650c16f0f2faf8d7a0d14c09","651c1d01f2f046c6abe73a5c","null","null","<p style=""font-size: 60px; font-family: BACS"">Ydudcbm</p>","","","","","","","","",""
"html-keyboard-response","143","190501","0.0-10.0-0.54","5e42b6421f44d3143440b25c","650c16f0f2faf8d7a0d14c09","651c1d01f2f046c6abe73a5c","null","null","<p style=""font-size: 60px; font-family: BACS"">DMRPmKcD</p>","","","","","","","","",""
"html-keyboard-response","144","191502","0.0-10.0-0.55","5e42b6421f44d3143440b25c","650c16f0f2faf8d7a0d14c09","651c1d01f2f046c6abe73a5c","null","null","<p style=""font-size: 60px; font-family: BACS"">ZdNmUvJQ</p>","","","","","","","","",""
"html-keyboard-response","145","192503","0.0-10.0-0.56","5e42b6421f44d3143440b25c","650c16f0f2faf8d7a0d14c09","651c1d01f2f046c6abe73a5c","null","null","<p style=""font-size: 60px; font-family: BACS"">YdudJQA</p>","","","","","","","","",""
"html-keyboard-response","146","193504","0.0-10.0-0.57","5e42b6421f44d3143440b25c","650c16f0f2faf8d7a0d14c09","651c1d01f2f046c6abe73a5c","null","null","<p style=""font-size: 60px; font-family: BACS"">bRABtYKPB</p>","","","","","","","","",""
"html-keyboard-response","147","194506","0.0-10.0-0.58","5e42b6421f44d3143440b25c","650c16f0f2faf8d7a0d14c09","651c1d01f2f046c6abe73a5c","null","null","<p style=""font-size: 60px; font-family: BACS"">UrOQvJQ</p>","","","","","","","","",""
"html-keyboard-response","148","195507","0.0-10.0-0.59","5e42b6421f44d3143440b25c","650c16f0f2faf8d7a0d14c09","651c1d01f2f046c6abe73a5c","null","null","<p style=""font-size: 60px; font-family: BACS"">PdDTmCd</p>","","","","","","","","",""
"html-keyboard-response","149","196508","0.0-10.0-0.60","5e42b6421f44d3143440b25c","650c16f0f2faf8d7a0d14c09","651c1d01f2f046c6abe73a5c","null","null","<p style=""font-size: 60px; font-family: BACS"">JdOAYlLG</p>","","","","","","","","",""
"html-keyboard-response","150","197513","0.0-10.0-0.61","5e42b6421f44d3143440b25c","650c16f0f2faf8d7a0d14c09","651c1d01f2f046c6abe73a5c","null","null","<p style=""font-size: 60px; font-family: BACS"">adkrvJQ</p>","","","","","","","","",""
"html-keyboard-response","151","198514","0.0-10.0-0.62","5e42b6421f44d3143440b25c","650c16f0f2faf8d7a0d14c09","651c1d01f2f046c6abe73a5c","null","null","<p style=""font-size: 60px; font-family: BACS"">ZdNmUcbm</p>","","","","","","","","",""
"html-keyboard-response","152","199515","0.0-10.0-0.63","5e42b6421f44d3143440b25c","650c16f0f2faf8d7a0d14c09","651c1d01f2f046c6abe73a5c","null","null","<p style=""font-size: 60px; font-family: BACS"">bRABtmCd</p>","","","","","","","","",""
"html-keyboard-response","153","200517","0.0-10.0-0.64","5e42b6421f44d3143440b25c","650c16f0f2faf8d7a0d14c09","651c1d01f2f046c6abe73a5c","null","null","<p style=""font-size: 60px; font-family: BACS"">PhktkEPBT</p>","","","","","","","","",""
"html-keyboard-response","154","201518","0.0-10.0-0.65","5e42b6421f44d3143440b25c","650c16f0f2faf8d7a0d14c09","651c1d01f2f046c6abe73a5c","null","null","<p style=""font-size: 60px; font-family: BACS"">YdudvJQ</p>","","","","","","","","",""
"html-keyboard-response","155","202518","0.0-10.0-0.66","5e42b6421f44d3143440b25c","650c16f0f2faf8d7a0d14c09","651c1d01f2f046c6abe73a5c","null","null","<p style=""font-size: 60px; font-family: BACS"">PdDTYKPB</p>","","","","","","","","",""
"html-keyboard-response","156","203519","0.0-10.0-0.67","5e42b6421f44d3143440b25c","650c16f0f2faf8d7a0d14c09","651c1d01f2f046c6abe73a5c","null","null","<p style=""font-size: 60px; font-family: BACS"">GJGcZAZbl</p>","","","","","","","","",""
"html-keyboard-response","157","204521","0.0-10.0-0.68","5e42b6421f44d3143440b25c","650c16f0f2faf8d7a0d14c09","651c1d01f2f046c6abe73a5c","null","null","<p style=""font-size: 60px; font-family: BACS"">OtlRmKcD</p>","","","","","","","","",""
"html-keyboard-response","158","205522","0.0-10.0-0.69","5e42b6421f44d3143440b25c","650c16f0f2faf8d7a0d14c09","651c1d01f2f046c6abe73a5c","null","null","<p style=""font-size: 60px; font-family: BACS"">GJGcZcbm</p>","","","","","","","","",""
"html-keyboard-response","159","206522","0.0-10.0-0.70","5e42b6421f44d3143440b25c","650c16f0f2faf8d7a0d14c09","651c1d01f2f046c6abe73a5c","null","null","<p style=""font-size: 60px; font-family: BACS"">ZdNmUlLG</p>","","","","","","","","",""
"html-keyboard-response","160","207523","0.0-10.0-0.71","5e42b6421f44d3143440b25c","650c16f0f2faf8d7a0d14c09","651c1d01f2f046c6abe73a5c","null","null","<p style=""font-size: 60px; font-family: BACS"">PcBTYKPB</p>","","","","","","","","",""
"html-keyboard-response","161","208524","0.0-10.0-0.72","5e42b6421f44d3143440b25c","650c16f0f2faf8d7a0d14c09","651c1d01f2f046c6abe73a5c","null","null","<p style=""font-size: 60px; font-family: BACS"">adkrcbm</p>","","","","","","","","",""
"html-keyboard-response","162","209526","0.0-10.0-0.73","5e42b6421f44d3143440b25c","650c16f0f2faf8d7a0d14c09","651c1d01f2f046c6abe73a5c","null","null","<p style=""font-size: 60px; font-family: BACS"">OMlTmKcD</p>","","","","","","","","",""
"html-keyboard-response","163","210528","0.0-10.0-0.74","5e42b6421f44d3143440b25c","650c16f0f2faf8d7a0d14c09","651c1d01f2f046c6abe73a5c","null","null","<p style=""font-size: 60px; font-family: BACS"">OQarQvJQ</p>","","","","","","","","",""
"html-keyboard-response","164","211529","0.0-10.0-0.75","5e42b6421f44d3143440b25c","650c16f0f2faf8d7a0d14c09","651c1d01f2f046c6abe73a5c","null","null","<p style=""font-size: 60px; font-family: BACS"">kcdOtEPBT</p>","","","","","","","","",""
"html-keyboard-response","165","212530","0.0-10.0-0.76","5e42b6421f44d3143440b25c","650c16f0f2faf8d7a0d14c09","651c1d01f2f046c6abe73a5c","null","null","<p style=""font-size: 60px; font-family: BACS"">OQarQlLG</p>","","","","","","","","",""
"html-keyboard-response","166","213531","0.0-10.0-0.77","5e42b6421f44d3143440b25c","650c16f0f2faf8d7a0d14c09","651c1d01f2f046c6abe73a5c","null","null","<p style=""font-size: 60px; font-family: BACS"">auYAkJQA</p>","","","","","","","","",""
"html-keyboard-response","167","214532","0.0-10.0-0.78","5e42b6421f44d3143440b25c","650c16f0f2faf8d7a0d14c09","651c1d01f2f046c6abe73a5c","null","null","<p style=""font-size: 60px; font-family: BACS"">PcBTmCd</p>","","","","","","","","",""
"html-keyboard-response","168","215533","0.0-10.0-0.79","5e42b6421f44d3143440b25c","650c16f0f2faf8d7a0d14c09","651c1d01f2f046c6abe73a5c","null","null","<p style=""font-size: 60px; font-family: BACS"">AJLrlLG</p>","","","","","","","","",""
"html-keyboard-response","169","219897","0.0-11.0","5e42b6421f44d3143440b25c","650c16f0f2faf8d7a0d14c09","651c1d01f2f046c6abe73a5c","4364"," ","<p>Great, you've seen the second block of words. You may now take a short break.</p>
      <p>Press the spacebar when you're ready to continue.</p>","","","","","","","","",""
"html-keyboard-response","170","220898","0.0-12.0-0.0","5e42b6421f44d3143440b25c","650c16f0f2faf8d7a0d14c09","651c1d01f2f046c6abe73a5c","null","null","<p style=""font-size: 60px; font-family: BACS"">JdOAYAZbl</p>","","","","","","","","",""
"html-keyboard-response","171","221899","0.0-12.0-0.1","5e42b6421f44d3143440b25c","650c16f0f2faf8d7a0d14c09","651c1d01f2f046c6abe73a5c","null","null","<p style=""font-size: 60px; font-family: BACS"">OtlRmCd</p>","","","","","","","","",""
"html-keyboard-response","172","222901","0.0-12.0-0.2","5e42b6421f44d3143440b25c","650c16f0f2faf8d7a0d14c09","651c1d01f2f046c6abe73a5c","null","null","<p style=""font-size: 60px; font-family: BACS"">PcBTBRDh</p>","","","","","","","","",""
"html-keyboard-response","173","223902","0.0-12.0-0.3","5e42b6421f44d3143440b25c","650c16f0f2faf8d7a0d14c09","651c1d01f2f046c6abe73a5c","null","null","<p style=""font-size: 60px; font-family: BACS"">kcdOtEPBT</p>","","","","","","","","",""
"html-keyboard-response","174","224903","0.0-12.0-0.4","5e42b6421f44d3143440b25c","650c16f0f2faf8d7a0d14c09","651c1d01f2f046c6abe73a5c","null","null","<p style=""font-size: 60px; font-family: BACS"">ZdNmUcbm</p>","","","","","","","","",""
"html-keyboard-response","175","225905","0.0-12.0-0.5","5e42b6421f44d3143440b25c","650c16f0f2faf8d7a0d14c09","651c1d01f2f046c6abe73a5c","null","null","<p style=""font-size: 60px; font-family: BACS"">PcBTYKPB</p>","","","","","","","","",""
"html-keyboard-response","176","226907","0.0-12.0-0.6","5e42b6421f44d3143440b25c","650c16f0f2faf8d7a0d14c09","651c1d01f2f046c6abe73a5c","null","null","<p style=""font-size: 60px; font-family: BACS"">kcdOtmKcD</p>","","","","","","","","",""
"html-keyboard-response","177","227908","0.0-12.0-0.7","5e42b6421f44d3143440b25c","650c16f0f2faf8d7a0d14c09","651c1d01f2f046c6abe73a5c","null","null","<p style=""font-size: 60px; font-family: BACS"">OtlRYKPB</p>","","","","","","","","",""
"html-keyboard-response","178","228909","0.0-12.0-0.8","5e42b6421f44d3143440b25c","650c16f0f2faf8d7a0d14c09","651c1d01f2f046c6abe73a5c","null","null","<p style=""font-size: 60px; font-family: BACS"">OQarQJQA</p>","","","","","","","","",""
"html-keyboard-response","179","229910","0.0-12.0-0.9","5e42b6421f44d3143440b25c","650c16f0f2faf8d7a0d14c09","651c1d01f2f046c6abe73a5c","null","null","<p style=""font-size: 60px; font-family: BACS"">adkrAZbl</p>","","","","","","","","",""
"html-keyboard-response","180","230912","0.0-12.0-0.10","5e42b6421f44d3143440b25c","650c16f0f2faf8d7a0d14c09","651c1d01f2f046c6abe73a5c","null","null","<p style=""font-size: 60px; font-family: BACS"">tmYhmCd</p>","","","","","","","","",""
"html-keyboard-response","181","231913","0.0-12.0-0.11","5e42b6421f44d3143440b25c","650c16f0f2faf8d7a0d14c09","651c1d01f2f046c6abe73a5c","null","null","<p style=""font-size: 60px; font-family: BACS"">JdOAYcbm</p>","","","","","","","","",""
"html-keyboard-response","182","232915","0.0-12.0-0.12","5e42b6421f44d3143440b25c","650c16f0f2faf8d7a0d14c09","651c1d01f2f046c6abe73a5c","null","null","<p style=""font-size: 60px; font-family: BACS"">bRABtmCd</p>","","","","","","","","",""
"html-keyboard-response","183","233915","0.0-12.0-0.13","5e42b6421f44d3143440b25c","650c16f0f2faf8d7a0d14c09","651c1d01f2f046c6abe73a5c","null","null","<p style=""font-size: 60px; font-family: BACS"">PdDTmKcD</p>","","","","","","","","",""
"html-keyboard-response","184","234916","0.0-12.0-0.14","5e42b6421f44d3143440b25c","650c16f0f2faf8d7a0d14c09","651c1d01f2f046c6abe73a5c","null","null","<p style=""font-size: 60px; font-family: BACS"">PhktkmCd</p>","","","","","","","","",""
"html-keyboard-response","185","235917","0.0-12.0-0.15","5e42b6421f44d3143440b25c","650c16f0f2faf8d7a0d14c09","651c1d01f2f046c6abe73a5c","null","null","<p style=""font-size: 60px; font-family: BACS"">OMlTmKcD</p>","","","","","","","","",""
"html-keyboard-response","186","236918","0.0-12.0-0.16","5e42b6421f44d3143440b25c","650c16f0f2faf8d7a0d14c09","651c1d01f2f046c6abe73a5c","null","null","<p style=""font-size: 60px; font-family: BACS"">adkrJQA</p>","","","","","","","","",""
"html-keyboard-response","187","237919","0.0-12.0-0.17","5e42b6421f44d3143440b25c","650c16f0f2faf8d7a0d14c09","651c1d01f2f046c6abe73a5c","null","null","<p style=""font-size: 60px; font-family: BACS"">OMlTBRDh</p>","","","","","","","","",""
"html-keyboard-response","188","238920","0.0-12.0-0.18","5e42b6421f44d3143440b25c","650c16f0f2faf8d7a0d14c09","651c1d01f2f046c6abe73a5c","null","null","<p style=""font-size: 60px; font-family: BACS"">auYAkAZbl</p>","","","","","","","","",""
"html-keyboard-response","189","239920","0.0-12.0-0.19","5e42b6421f44d3143440b25c","650c16f0f2faf8d7a0d14c09","651c1d01f2f046c6abe73a5c","null","null","<p style=""font-size: 60px; font-family: BACS"">UrOQlLG</p>","","","","","","","","",""
"html-keyboard-response","190","240921","0.0-12.0-0.20","5e42b6421f44d3143440b25c","650c16f0f2faf8d7a0d14c09","651c1d01f2f046c6abe73a5c","null","null","<p style=""font-size: 60px; font-family: BACS"">OQarQAZbl</p>","","","","","","","","",""
"html-keyboard-response","191","241923","0.0-12.0-0.21","5e42b6421f44d3143440b25c","650c16f0f2faf8d7a0d14c09","651c1d01f2f046c6abe73a5c","null","null","<p style=""font-size: 60px; font-family: BACS"">UrOQvJQ</p>","","","","","","","","",""
"html-keyboard-response","192","242924","0.0-12.0-0.22","5e42b6421f44d3143440b25c","650c16f0f2faf8d7a0d14c09","651c1d01f2f046c6abe73a5c","null","null","<p style=""font-size: 60px; font-family: BACS"">OMlTEPBT</p>","","","","","","","","",""
"html-keyboard-response","193","243925","0.0-12.0-0.23","5e42b6421f44d3143440b25c","650c16f0f2faf8d7a0d14c09","651c1d01f2f046c6abe73a5c","null","null","<p style=""font-size: 60px; font-family: BACS"">CYPcBRDh</p>","","","","","","","","",""
"html-keyboard-response","194","244926","0.0-12.0-0.24","5e42b6421f44d3143440b25c","650c16f0f2faf8d7a0d14c09","651c1d01f2f046c6abe73a5c","null","null","<p style=""font-size: 60px; font-family: BACS"">auYAklLG</p>","","","","","","","","",""
"html-keyboard-response","195","245927","0.0-12.0-0.25","5e42b6421f44d3143440b25c","650c16f0f2faf8d7a0d14c09","651c1d01f2f046c6abe73a5c","null","null","<p style=""font-size: 60px; font-family: BACS"">kulZcbm</p>","","","","","","","","",""
"html-keyboard-response","196","246928","0.0-12.0-0.26","5e42b6421f44d3143440b25c","650c16f0f2faf8d7a0d14c09","651c1d01f2f046c6abe73a5c","null","null","<p style=""font-size: 60px; font-family: BACS"">adkrvJQ</p>","","","","","","","","",""
"html-keyboard-response","197","247929","0.0-12.0-0.27","5e42b6421f44d3143440b25c","650c16f0f2faf8d7a0d14c09","651c1d01f2f046c6abe73a5c","null","null","<p style=""font-size: 60px; font-family: BACS"">PhktkEPBT</p>","","","","","","","","",""
"html-keyboard-response","198","248930","0.0-12.0-0.28","5e42b6421f44d3143440b25c","650c16f0f2faf8d7a0d14c09","651c1d01f2f046c6abe73a5c","null","null","<p style=""font-size: 60px; font-family: BACS"">DMRPYKPB</p>","","","","","","","","",""
"html-keyboard-response","199","249931","0.0-12.0-0.29","5e42b6421f44d3143440b25c","650c16f0f2faf8d7a0d14c09","651c1d01f2f046c6abe73a5c","null","null","<p style=""font-size: 60px; font-family: BACS"">GJGcZJQA</p>","","","","","","","","",""
"html-keyboard-response","200","250932","0.0-12.0-0.30","5e42b6421f44d3143440b25c","650c16f0f2faf8d7a0d14c09","651c1d01f2f046c6abe73a5c","null","null","<p style=""font-size: 60px; font-family: BACS"">tmYhmKcD</p>","","","","","","","","",""
"html-keyboard-response","201","251934","0.0-12.0-0.31","5e42b6421f44d3143440b25c","650c16f0f2faf8d7a0d14c09","651c1d01f2f046c6abe73a5c","null","null","<p style=""font-size: 60px; font-family: BACS"">kulZAZbl</p>","","","","","","","","",""
"html-keyboard-response","202","252935","0.0-12.0-0.32","5e42b6421f44d3143440b25c","650c16f0f2faf8d7a0d14c09","651c1d01f2f046c6abe73a5c","null","null","<p style=""font-size: 60px; font-family: BACS"">OtlRBRDh</p>","","","","","","","","",""
"html-keyboard-response","203","253937","0.0-12.0-0.33","5e42b6421f44d3143440b25c","650c16f0f2faf8d7a0d14c09","651c1d01f2f046c6abe73a5c","null","null","<p style=""font-size: 60px; font-family: BACS"">bRABtEPBT</p>","","","","","","","","",""
"html-keyboard-response","204","254938","0.0-12.0-0.34","5e42b6421f44d3143440b25c","650c16f0f2faf8d7a0d14c09","651c1d01f2f046c6abe73a5c","null","null","<p style=""font-size: 60px; font-family: BACS"">ZdNmUAZbl</p>","","","","","","","","",""
"html-keyboard-response","205","255939","0.0-12.0-0.35","5e42b6421f44d3143440b25c","650c16f0f2faf8d7a0d14c09","651c1d01f2f046c6abe73a5c","null","null","<p style=""font-size: 60px; font-family: BACS"">auYAkJQA</p>","","","","","","","","",""
"html-keyboard-response","206","256941","0.0-12.0-0.36","5e42b6421f44d3143440b25c","650c16f0f2faf8d7a0d14c09","651c1d01f2f046c6abe73a5c","null","null","<p style=""font-size: 60px; font-family: BACS"">CYPcYKPB</p>","","","","","","","","",""
"html-keyboard-response","207","257943","0.0-12.0-0.37","5e42b6421f44d3143440b25c","650c16f0f2faf8d7a0d14c09","651c1d01f2f046c6abe73a5c","null","null","<p style=""font-size: 60px; font-family: BACS"">PcBTmCd</p>","","","","","","","","",""
"html-keyboard-response","208","258944","0.0-12.0-0.38","5e42b6421f44d3143440b25c","650c16f0f2faf8d7a0d14c09","651c1d01f2f046c6abe73a5c","null","null","<p style=""font-size: 60px; font-family: BACS"">tmYhBRDh</p>","","","","","","","","",""
"html-keyboard-response","209","259945","0.0-12.0-0.39","5e42b6421f44d3143440b25c","650c16f0f2faf8d7a0d14c09","651c1d01f2f046c6abe73a5c","null","null","<p style=""font-size: 60px; font-family: BACS"">DMRPEPBT</p>","","","","","","","","",""
"html-keyboard-response","210","260946","0.0-12.0-0.40","5e42b6421f44d3143440b25c","650c16f0f2faf8d7a0d14c09","651c1d01f2f046c6abe73a5c","null","null","<p style=""font-size: 60px; font-family: BACS"">Ydudcbm</p>","","","","","","","","",""
"html-keyboard-response","211","261947","0.0-12.0-0.41","5e42b6421f44d3143440b25c","650c16f0f2faf8d7a0d14c09","651c1d01f2f046c6abe73a5c","null","null","<p style=""font-size: 60px; font-family: BACS"">ZdNmUlLG</p>","","","","","","","","",""
"html-keyboard-response","212","262948","0.0-12.0-0.42","5e42b6421f44d3143440b25c","650c16f0f2faf8d7a0d14c09","651c1d01f2f046c6abe73a5c","null","null","<p style=""font-size: 60px; font-family: BACS"">OQarQvJQ</p>","","","","","","","","",""
"html-keyboard-response","213","263949","0.0-12.0-0.43","5e42b6421f44d3143440b25c","650c16f0f2faf8d7a0d14c09","651c1d01f2f046c6abe73a5c","null","null","<p style=""font-size: 60px; font-family: BACS"">PdDTYKPB</p>","","","","","","","","",""
"html-keyboard-response","214","264949","0.0-12.0-0.44","5e42b6421f44d3143440b25c","650c16f0f2faf8d7a0d14c09","651c1d01f2f046c6abe73a5c","null","null","<p style=""font-size: 60px; font-family: BACS"">YdudJQA</p>","","","","","","","","",""
"html-keyboard-response","215","265951","0.0-12.0-0.45","5e42b6421f44d3143440b25c","650c16f0f2faf8d7a0d14c09","651c1d01f2f046c6abe73a5c","null","null","<p style=""font-size: 60px; font-family: BACS"">PdDTmCd</p>","","","","","","","","",""
"html-keyboard-response","216","266952","0.0-12.0-0.46","5e42b6421f44d3143440b25c","650c16f0f2faf8d7a0d14c09","651c1d01f2f046c6abe73a5c","null","null","<p style=""font-size: 60px; font-family: BACS"">kulZlLG</p>","","","","","","","","",""
"html-keyboard-response","217","267954","0.0-12.0-0.47","5e42b6421f44d3143440b25c","650c16f0f2faf8d7a0d14c09","651c1d01f2f046c6abe73a5c","null","null","<p style=""font-size: 60px; font-family: BACS"">bRABtmKcD</p>","","","","","","","","",""
"html-keyboard-response","218","268955","0.0-12.0-0.48","5e42b6421f44d3143440b25c","650c16f0f2faf8d7a0d14c09","651c1d01f2f046c6abe73a5c","null","null","<p style=""font-size: 60px; font-family: BACS"">GJGcZAZbl</p>","","","","","","","","",""
"html-keyboard-response","219","269956","0.0-12.0-0.49","5e42b6421f44d3143440b25c","650c16f0f2faf8d7a0d14c09","651c1d01f2f046c6abe73a5c","null","null","<p style=""font-size: 60px; font-family: BACS"">tmYhYKPB</p>","","","","","","","","",""
"html-keyboard-response","220","270957","0.0-12.0-0.50","5e42b6421f44d3143440b25c","650c16f0f2faf8d7a0d14c09","651c1d01f2f046c6abe73a5c","null","null","<p style=""font-size: 60px; font-family: BACS"">auYAkcbm</p>","","","","","","","","",""
"html-keyboard-response","221","271958","0.0-12.0-0.51","5e42b6421f44d3143440b25c","650c16f0f2faf8d7a0d14c09","651c1d01f2f046c6abe73a5c","null","null","<p style=""font-size: 60px; font-family: BACS"">YdudvJQ</p>","","","","","","","","",""
"html-keyboard-response","222","272959","0.0-12.0-0.52","5e42b6421f44d3143440b25c","650c16f0f2faf8d7a0d14c09","651c1d01f2f046c6abe73a5c","null","null","<p style=""font-size: 60px; font-family: BACS"">DMRPmKcD</p>","","","","","","","","",""
"html-keyboard-response","223","273959","0.0-12.0-0.53","5e42b6421f44d3143440b25c","650c16f0f2faf8d7a0d14c09","651c1d01f2f046c6abe73a5c","null","null","<p style=""font-size: 60px; font-family: BACS"">YdudlLG</p>","","","","","","","","",""
"html-keyboard-response","224","274960","0.0-12.0-0.54","5e42b6421f44d3143440b25c","650c16f0f2faf8d7a0d14c09","651c1d01f2f046c6abe73a5c","null","null","<p style=""font-size: 60px; font-family: BACS"">kcdOtBRDh</p>","","","","","","","","",""
"html-keyboard-response","225","275962","0.0-12.0-0.55","5e42b6421f44d3143440b25c","650c16f0f2faf8d7a0d14c09","651c1d01f2f046c6abe73a5c","null","null","<p style=""font-size: 60px; font-family: BACS"">JdOAYlLG</p>","","","","","","","","",""
"html-keyboard-response","226","276963","0.0-12.0-0.56","5e42b6421f44d3143440b25c","650c16f0f2faf8d7a0d14c09","651c1d01f2f046c6abe73a5c","null","null","<p style=""font-size: 60px; font-family: BACS"">AJLrcbm</p>","","","","","","","","",""
"html-keyboard-response","227","277964","0.0-12.0-0.57","5e42b6421f44d3143440b25c","650c16f0f2faf8d7a0d14c09","651c1d01f2f046c6abe73a5c","null","null","<p style=""font-size: 60px; font-family: BACS"">PdDTEPBT</p>","","","","","","","","",""
"html-keyboard-response","228","278964","0.0-12.0-0.58","5e42b6421f44d3143440b25c","650c16f0f2faf8d7a0d14c09","651c1d01f2f046c6abe73a5c","null","null","<p style=""font-size: 60px; font-family: BACS"">AJLrJQA</p>","","","","","","","","",""
"html-keyboard-response","229","279966","0.0-12.0-0.59","5e42b6421f44d3143440b25c","650c16f0f2faf8d7a0d14c09","651c1d01f2f046c6abe73a5c","null","null","<p style=""font-size: 60px; font-family: BACS"">JdOAYvJQ</p>","","","","","","","","",""
"html-keyboard-response","230","280967","0.0-12.0-0.60","5e42b6421f44d3143440b25c","650c16f0f2faf8d7a0d14c09","651c1d01f2f046c6abe73a5c","null","null","<p style=""font-size: 60px; font-family: BACS"">UrOQAZbl</p>","","","","","","","","",""
"html-keyboard-response","231","281969","0.0-12.0-0.61","5e42b6421f44d3143440b25c","650c16f0f2faf8d7a0d14c09","651c1d01f2f046c6abe73a5c","null","null","<p style=""font-size: 60px; font-family: BACS"">AJLrlLG</p>","","","","","","","","",""
"html-keyboard-response","232","282970","0.0-12.0-0.62","5e42b6421f44d3143440b25c","650c16f0f2faf8d7a0d14c09","651c1d01f2f046c6abe73a5c","null","null","<p style=""font-size: 60px; font-family: BACS"">PhktkYKPB</p>","","","","","","","","",""
"html-keyboard-response","233","283971","0.0-12.0-0.63","5e42b6421f44d3143440b25c","650c16f0f2faf8d7a0d14c09","651c1d01f2f046c6abe73a5c","null","null","<p style=""font-size: 60px; font-family: BACS"">GJGcZvJQ</p>","","","","","","","","",""
"html-keyboard-response","234","284972","0.0-12.0-0.64","5e42b6421f44d3143440b25c","650c16f0f2faf8d7a0d14c09","651c1d01f2f046c6abe73a5c","null","null","<p style=""font-size: 60px; font-family: BACS"">kcdOtmCd</p>","","","","","","","","",""
"html-keyboard-response","235","285973","0.0-12.0-0.65","5e42b6421f44d3143440b25c","650c16f0f2faf8d7a0d14c09","651c1d01f2f046c6abe73a5c","null","null","<p style=""font-size: 60px; font-family: BACS"">adkrcbm</p>","","","","","","","","",""
"html-keyboard-response","236","286975","0.0-12.0-0.66","5e42b6421f44d3143440b25c","650c16f0f2faf8d7a0d14c09","651c1d01f2f046c6abe73a5c","null","null","<p style=""font-size: 60px; font-family: BACS"">OQarQlLG</p>","","","","","","","","",""
"html-keyboard-response","237","287976","0.0-12.0-0.67","5e42b6421f44d3143440b25c","650c16f0f2faf8d7a0d14c09","651c1d01f2f046c6abe73a5c","null","null","<p style=""font-size: 60px; font-family: BACS"">AJLrvJQ</p>","","","","","","","","",""
"html-keyboard-response","238","288977","0.0-12.0-0.68","5e42b6421f44d3143440b25c","650c16f0f2faf8d7a0d14c09","651c1d01f2f046c6abe73a5c","null","null","<p style=""font-size: 60px; font-family: BACS"">PhktkBRDh</p>","","","","","","","","",""
"html-keyboard-response","239","289978","0.0-12.0-0.69","5e42b6421f44d3143440b25c","650c16f0f2faf8d7a0d14c09","651c1d01f2f046c6abe73a5c","null","null","<p style=""font-size: 60px; font-family: BACS"">CYPcEPBT</p>","","","","","","","","",""
"html-keyboard-response","240","290979","0.0-12.0-0.70","5e42b6421f44d3143440b25c","650c16f0f2faf8d7a0d14c09","651c1d01f2f046c6abe73a5c","null","null","<p style=""font-size: 60px; font-family: BACS"">kulZJQA</p>","","","","","","","","",""
"html-keyboard-response","241","291980","0.0-12.0-0.71","5e42b6421f44d3143440b25c","650c16f0f2faf8d7a0d14c09","651c1d01f2f046c6abe73a5c","null","null","<p style=""font-size: 60px; font-family: BACS"">CYPcmKcD</p>","","","","","","","","",""
"html-keyboard-response","242","292982","0.0-12.0-0.72","5e42b6421f44d3143440b25c","650c16f0f2faf8d7a0d14c09","651c1d01f2f046c6abe73a5c","null","null","<p style=""font-size: 60px; font-family: BACS"">OMlTmCd</p>","","","","","","","","",""
"html-keyboard-response","243","293983","0.0-12.0-0.73","5e42b6421f44d3143440b25c","650c16f0f2faf8d7a0d14c09","651c1d01f2f046c6abe73a5c","null","null","<p style=""font-size: 60px; font-family: BACS"">PcBTEPBT</p>","","","","","","","","",""
"html-keyboard-response","244","294984","0.0-12.0-0.74","5e42b6421f44d3143440b25c","650c16f0f2faf8d7a0d14c09","651c1d01f2f046c6abe73a5c","null","null","<p style=""font-size: 60px; font-family: BACS"">DMRPBRDh</p>","","","","","","","","",""
"html-keyboard-response","245","295985","0.0-12.0-0.75","5e42b6421f44d3143440b25c","650c16f0f2faf8d7a0d14c09","651c1d01f2f046c6abe73a5c","null","null","<p style=""font-size: 60px; font-family: BACS"">bRABtYKPB</p>","","","","","","","","",""
"html-keyboard-response","246","296986","0.0-12.0-0.76","5e42b6421f44d3143440b25c","650c16f0f2faf8d7a0d14c09","651c1d01f2f046c6abe73a5c","null","null","<p style=""font-size: 60px; font-family: BACS"">GJGcZcbm</p>","","","","","","","","",""
"html-keyboard-response","247","297986","0.0-12.0-0.77","5e42b6421f44d3143440b25c","650c16f0f2faf8d7a0d14c09","651c1d01f2f046c6abe73a5c","null","null","<p style=""font-size: 60px; font-family: BACS"">ZdNmUvJQ</p>","","","","","","","","",""
"html-keyboard-response","248","298986","0.0-12.0-0.78","5e42b6421f44d3143440b25c","650c16f0f2faf8d7a0d14c09","651c1d01f2f046c6abe73a5c","null","null","<p style=""font-size: 60px; font-family: BACS"">OtlRmKcD</p>","","","","","","","","",""
"html-keyboard-response","249","299988","0.0-12.0-0.79","5e42b6421f44d3143440b25c","650c16f0f2faf8d7a0d14c09","651c1d01f2f046c6abe73a5c","null","null","<p style=""font-size: 60px; font-family: BACS"">UrOQJQA</p>","","","","","","","","",""
"html-keyboard-response","250","301794","0.0-13.0","5e42b6421f44d3143440b25c","650c16f0f2faf8d7a0d14c09","651c1d01f2f046c6abe73a5c","1806"," ","<p>Great, you've seen the third block of words. You may now take a short break.</p>
      <p>Press the spacebar when you're ready to continue.</p>","","","","","","","","",""
"html-keyboard-response","251","302795","0.0-14.0-0.0","5e42b6421f44d3143440b25c","650c16f0f2faf8d7a0d14c09","651c1d01f2f046c6abe73a5c","null","null","<p style=""font-size: 60px; font-family: BACS"">YdudlLG</p>","","","","","","","","",""
"html-keyboard-response","252","303797","0.0-14.0-0.1","5e42b6421f44d3143440b25c","650c16f0f2faf8d7a0d14c09","651c1d01f2f046c6abe73a5c","null","null","<p style=""font-size: 60px; font-family: BACS"">bRABtEPBT</p>","","","","","","","","",""
"html-keyboard-response","253","304798","0.0-14.0-0.2","5e42b6421f44d3143440b25c","650c16f0f2faf8d7a0d14c09","651c1d01f2f046c6abe73a5c","null","null","<p style=""font-size: 60px; font-family: BACS"">JdOAYvJQ</p>","","","","","","","","",""
"html-keyboard-response","254","305799","0.0-14.0-0.3","5e42b6421f44d3143440b25c","650c16f0f2faf8d7a0d14c09","651c1d01f2f046c6abe73a5c","null","null","<p style=""font-size: 60px; font-family: BACS"">tmYhYKPB</p>","","","","","","","","",""
"html-keyboard-response","255","306800","0.0-14.0-0.4","5e42b6421f44d3143440b25c","650c16f0f2faf8d7a0d14c09","651c1d01f2f046c6abe73a5c","null","null","<p style=""font-size: 60px; font-family: BACS"">PcBTEPBT</p>","","","","","","","","",""
"html-keyboard-response","256","307801","0.0-14.0-0.5","5e42b6421f44d3143440b25c","650c16f0f2faf8d7a0d14c09","651c1d01f2f046c6abe73a5c","null","null","<p style=""font-size: 60px; font-family: BACS"">PdDTmKcD</p>","","","","","","","","",""
"html-keyboard-response","257","308802","0.0-14.0-0.6","5e42b6421f44d3143440b25c","650c16f0f2faf8d7a0d14c09","651c1d01f2f046c6abe73a5c","null","null","<p style=""font-size: 60px; font-family: BACS"">PhktkBRDh</p>","","","","","","","","",""
"html-keyboard-response","258","309803","0.0-14.0-0.7","5e42b6421f44d3143440b25c","650c16f0f2faf8d7a0d14c09","651c1d01f2f046c6abe73a5c","null","null","<p style=""font-size: 60px; font-family: BACS"">adkrcbm</p>","","","","","","","","",""
"html-keyboard-response","259","310804","0.0-14.0-0.8","5e42b6421f44d3143440b25c","650c16f0f2faf8d7a0d14c09","651c1d01f2f046c6abe73a5c","null","null","<p style=""font-size: 60px; font-family: BACS"">kcdOtmKcD</p>","","","","","","","","",""
"html-keyboard-response","260","311806","0.0-14.0-0.9","5e42b6421f44d3143440b25c","650c16f0f2faf8d7a0d14c09","651c1d01f2f046c6abe73a5c","null","null","<p style=""font-size: 60px; font-family: BACS"">OMlTmCd</p>","","","","","","","","",""
"html-keyboard-response","261","312807","0.0-14.0-0.10","5e42b6421f44d3143440b25c","650c16f0f2faf8d7a0d14c09","651c1d01f2f046c6abe73a5c","null","null","<p style=""font-size: 60px; font-family: BACS"">ZdNmUvJQ</p>","","","","","","","","",""
"html-keyboard-response","262","313808","0.0-14.0-0.11","5e42b6421f44d3143440b25c","650c16f0f2faf8d7a0d14c09","651c1d01f2f046c6abe73a5c","null","null","<p style=""font-size: 60px; font-family: BACS"">PdDTYKPB</p>","","","","","","","","",""
"html-keyboard-response","263","314808","0.0-14.0-0.12","5e42b6421f44d3143440b25c","650c16f0f2faf8d7a0d14c09","651c1d01f2f046c6abe73a5c","null","null","<p style=""font-size: 60px; font-family: BACS"">PhktkEPBT</p>","","","","","","","","",""
"html-keyboard-response","264","315810","0.0-14.0-0.13","5e42b6421f44d3143440b25c","650c16f0f2faf8d7a0d14c09","651c1d01f2f046c6abe73a5c","null","null","<p style=""font-size: 60px; font-family: BACS"">auYAkAZbl</p>","","","","","","","","",""
"html-keyboard-response","265","316810","0.0-14.0-0.14","5e42b6421f44d3143440b25c","650c16f0f2faf8d7a0d14c09","651c1d01f2f046c6abe73a5c","null","null","<p style=""font-size: 60px; font-family: BACS"">adkrvJQ</p>","","","","","","","","",""
"html-keyboard-response","266","317812","0.0-14.0-0.15","5e42b6421f44d3143440b25c","650c16f0f2faf8d7a0d14c09","651c1d01f2f046c6abe73a5c","null","null","<p style=""font-size: 60px; font-family: BACS"">OMlTBRDh</p>","","","","","","","","",""
"html-keyboard-response","267","318813","0.0-14.0-0.16","5e42b6421f44d3143440b25c","650c16f0f2faf8d7a0d14c09","651c1d01f2f046c6abe73a5c","null","null","<p style=""font-size: 60px; font-family: BACS"">PhktkmCd</p>","","","","","","","","",""
"html-keyboard-response","268","319813","0.0-14.0-0.17","5e42b6421f44d3143440b25c","650c16f0f2faf8d7a0d14c09","651c1d01f2f046c6abe73a5c","null","null","<p style=""font-size: 60px; font-family: BACS"">kulZJQA</p>","","","","","","","","",""
"html-keyboard-response","269","320815","0.0-14.0-0.18","5e42b6421f44d3143440b25c","650c16f0f2faf8d7a0d14c09","651c1d01f2f046c6abe73a5c","null","null","<p style=""font-size: 60px; font-family: BACS"">ZdNmUcbm</p>","","","","","","","","",""
"html-keyboard-response","270","321816","0.0-14.0-0.19","5e42b6421f44d3143440b25c","650c16f0f2faf8d7a0d14c09","651c1d01f2f046c6abe73a5c","null","null","<p style=""font-size: 60px; font-family: BACS"">OtlRmKcD</p>","","","","","","","","",""
"html-keyboard-response","271","322817","0.0-14.0-0.20","5e42b6421f44d3143440b25c","650c16f0f2faf8d7a0d14c09","651c1d01f2f046c6abe73a5c","null","null","<p style=""font-size: 60px; font-family: BACS"">CYPcEPBT</p>","","","","","","","","",""
"html-keyboard-response","272","323818","0.0-14.0-0.21","5e42b6421f44d3143440b25c","650c16f0f2faf8d7a0d14c09","651c1d01f2f046c6abe73a5c","null","null","<p style=""font-size: 60px; font-family: BACS"">GJGcZJQA</p>","","","","","","","","",""
"html-keyboard-response","273","324819","0.0-14.0-0.22","5e42b6421f44d3143440b25c","650c16f0f2faf8d7a0d14c09","651c1d01f2f046c6abe73a5c","null","null","<p style=""font-size: 60px; font-family: BACS"">OMlTEPBT</p>","","","","","","","","",""
"html-keyboard-response","274","325819","0.0-14.0-0.23","5e42b6421f44d3143440b25c","650c16f0f2faf8d7a0d14c09","651c1d01f2f046c6abe73a5c","null","null","<p style=""font-size: 60px; font-family: BACS"">PhktkYKPB</p>","","","","","","","","",""
"html-keyboard-response","275","326822","0.0-14.0-0.24","5e42b6421f44d3143440b25c","650c16f0f2faf8d7a0d14c09","651c1d01f2f046c6abe73a5c","null","null","<p style=""font-size: 60px; font-family: BACS"">JdOAYAZbl</p>","","","","","","","","",""
"html-keyboard-response","276","327823","0.0-14.0-0.25","5e42b6421f44d3143440b25c","650c16f0f2faf8d7a0d14c09","651c1d01f2f046c6abe73a5c","null","null","<p style=""font-size: 60px; font-family: BACS"">DMRPmKcD</p>","","","","","","","","",""
"html-keyboard-response","277","328825","0.0-14.0-0.26","5e42b6421f44d3143440b25c","650c16f0f2faf8d7a0d14c09","651c1d01f2f046c6abe73a5c","null","null","<p style=""font-size: 60px; font-family: BACS"">AJLrJQA</p>","","","","","","","","",""
"html-keyboard-response","278","329826","0.0-14.0-0.27","5e42b6421f44d3143440b25c","650c16f0f2faf8d7a0d14c09","651c1d01f2f046c6abe73a5c","null","null","<p style=""font-size: 60px; font-family: BACS"">DMRPEPBT</p>","","","","","","","","",""
"html-keyboard-response","279","330827","0.0-14.0-0.28","5e42b6421f44d3143440b25c","650c16f0f2faf8d7a0d14c09","651c1d01f2f046c6abe73a5c","null","null","<p style=""font-size: 60px; font-family: BACS"">tmYhmCd</p>","","","","","","","","",""
"html-keyboard-response","280","331829","0.0-14.0-0.29","5e42b6421f44d3143440b25c","650c16f0f2faf8d7a0d14c09","651c1d01f2f046c6abe73a5c","null","null","<p style=""font-size: 60px; font-family: BACS"">CYPcYKPB</p>","","","","","","","","",""
"html-keyboard-response","281","332830","0.0-14.0-0.30","5e42b6421f44d3143440b25c","650c16f0f2faf8d7a0d14c09","651c1d01f2f046c6abe73a5c","null","null","<p style=""font-size: 60px; font-family: BACS"">AJLrcbm</p>","","","","","","","","",""
"html-keyboard-response","282","333831","0.0-14.0-0.31","5e42b6421f44d3143440b25c","650c16f0f2faf8d7a0d14c09","651c1d01f2f046c6abe73a5c","null","null","<p style=""font-size: 60px; font-family: BACS"">DMRPBRDh</p>","","","","","","","","",""
"html-keyboard-response","283","334832","0.0-14.0-0.32","5e42b6421f44d3143440b25c","650c16f0f2faf8d7a0d14c09","651c1d01f2f046c6abe73a5c","null","null","<p style=""font-size: 60px; font-family: BACS"">Ydudcbm</p>","","","","","","","","",""
"html-keyboard-response","284","335833","0.0-14.0-0.33","5e42b6421f44d3143440b25c","650c16f0f2faf8d7a0d14c09","651c1d01f2f046c6abe73a5c","null","null","<p style=""font-size: 60px; font-family: BACS"">kulZlLG</p>","","","","","","","","",""
"html-keyboard-response","285","336834","0.0-14.0-0.34","5e42b6421f44d3143440b25c","650c16f0f2faf8d7a0d14c09","651c1d01f2f046c6abe73a5c","null","null","<p style=""font-size: 60px; font-family: BACS"">PcBTBRDh</p>","","","","","","","","",""
"html-keyboard-response","286","337837","0.0-14.0-0.35","5e42b6421f44d3143440b25c","650c16f0f2faf8d7a0d14c09","651c1d01f2f046c6abe73a5c","null","null","<p style=""font-size: 60px; font-family: BACS"">YdudvJQ</p>","","","","","","","","",""
"html-keyboard-response","287","338849","0.0-14.0-0.36","5e42b6421f44d3143440b25c","650c16f0f2faf8d7a0d14c09","651c1d01f2f046c6abe73a5c","null","null","<p style=""font-size: 60px; font-family: BACS"">DMRPYKPB</p>","","","","","","","","",""
"html-keyboard-response","288","339850","0.0-14.0-0.37","5e42b6421f44d3143440b25c","650c16f0f2faf8d7a0d14c09","651c1d01f2f046c6abe73a5c","null","null","<p style=""font-size: 60px; font-family: BACS"">OQarQJQA</p>","","","","","","","","",""
"html-keyboard-response","289","340852","0.0-14.0-0.38","5e42b6421f44d3143440b25c","650c16f0f2faf8d7a0d14c09","651c1d01f2f046c6abe73a5c","null","null","<p style=""font-size: 60px; font-family: BACS"">kcdOtBRDh</p>","","","","","","","","",""
"html-keyboard-response","290","341852","0.0-14.0-0.39","5e42b6421f44d3143440b25c","650c16f0f2faf8d7a0d14c09","651c1d01f2f046c6abe73a5c","null","null","<p style=""font-size: 60px; font-family: BACS"">UrOQAZbl</p>","","","","","","","","",""
"html-keyboard-response","291","342853","0.0-14.0-0.40","5e42b6421f44d3143440b25c","650c16f0f2faf8d7a0d14c09","651c1d01f2f046c6abe73a5c","null","null","<p style=""font-size: 60px; font-family: BACS"">YdudJQA</p>","","","","","","","","",""
"html-keyboard-response","292","343854","0.0-14.0-0.41","5e42b6421f44d3143440b25c","650c16f0f2faf8d7a0d14c09","651c1d01f2f046c6abe73a5c","null","null","<p style=""font-size: 60px; font-family: BACS"">ZdNmUAZbl</p>","","","","","","","","",""
"html-keyboard-response","293","344855","0.0-14.0-0.42","5e42b6421f44d3143440b25c","650c16f0f2faf8d7a0d14c09","651c1d01f2f046c6abe73a5c","null","null","<p style=""font-size: 60px; font-family: BACS"">auYAkJQA</p>","","","","","","","","",""
"html-keyboard-response","294","345856","0.0-14.0-0.43","5e42b6421f44d3143440b25c","650c16f0f2faf8d7a0d14c09","651c1d01f2f046c6abe73a5c","null","null","<p style=""font-size: 60px; font-family: BACS"">tmYhBRDh</p>","","","","","","","","",""
"html-keyboard-response","295","346856","0.0-14.0-0.44","5e42b6421f44d3143440b25c","650c16f0f2faf8d7a0d14c09","651c1d01f2f046c6abe73a5c","null","null","<p style=""font-size: 60px; font-family: BACS"">AJLrlLG</p>","","","","","","","","",""
"html-keyboard-response","296","347858","0.0-14.0-0.45","5e42b6421f44d3143440b25c","650c16f0f2faf8d7a0d14c09","651c1d01f2f046c6abe73a5c","null","null","<p style=""font-size: 60px; font-family: BACS"">UrOQvJQ</p>","","","","","","","","",""
"html-keyboard-response","297","348859","0.0-14.0-0.46","5e42b6421f44d3143440b25c","650c16f0f2faf8d7a0d14c09","651c1d01f2f046c6abe73a5c","null","null","<p style=""font-size: 60px; font-family: BACS"">auYAkcbm</p>","","","","","","","","",""
"html-keyboard-response","298","349861","0.0-14.0-0.47","5e42b6421f44d3143440b25c","650c16f0f2faf8d7a0d14c09","651c1d01f2f046c6abe73a5c","null","null","<p style=""font-size: 60px; font-family: BACS"">adkrJQA</p>","","","","","","","","",""
"html-keyboard-response","299","350862","0.0-14.0-0.48","5e42b6421f44d3143440b25c","650c16f0f2faf8d7a0d14c09","651c1d01f2f046c6abe73a5c","null","null","<p style=""font-size: 60px; font-family: BACS"">UrOQlLG</p>","","","","","","","","",""
"html-keyboard-response","300","351862","0.0-14.0-0.49","5e42b6421f44d3143440b25c","650c16f0f2faf8d7a0d14c09","651c1d01f2f046c6abe73a5c","null","null","<p style=""font-size: 60px; font-family: BACS"">OQarQvJQ</p>","","","","","","","","",""
"html-keyboard-response","301","352863","0.0-14.0-0.50","5e42b6421f44d3143440b25c","650c16f0f2faf8d7a0d14c09","651c1d01f2f046c6abe73a5c","null","null","<p style=""font-size: 60px; font-family: BACS"">CYPcBRDh</p>","","","","","","","","",""
"html-keyboard-response","302","353864","0.0-14.0-0.51","5e42b6421f44d3143440b25c","650c16f0f2faf8d7a0d14c09","651c1d01f2f046c6abe73a5c","null","null","<p style=""font-size: 60px; font-family: BACS"">GJGcZvJQ</p>","","","","","","","","",""
"html-keyboard-response","303","354865","0.0-14.0-0.52","5e42b6421f44d3143440b25c","650c16f0f2faf8d7a0d14c09","651c1d01f2f046c6abe73a5c","null","null","<p style=""font-size: 60px; font-family: BACS"">OtlRYKPB</p>","","","","","","","","",""
"html-keyboard-response","304","355866","0.0-14.0-0.53","5e42b6421f44d3143440b25c","650c16f0f2faf8d7a0d14c09","651c1d01f2f046c6abe73a5c","null","null","<p style=""font-size: 60px; font-family: BACS"">bRABtmKcD</p>","","","","","","","","",""
"html-keyboard-response","305","356867","0.0-14.0-0.54","5e42b6421f44d3143440b25c","650c16f0f2faf8d7a0d14c09","651c1d01f2f046c6abe73a5c","null","null","<p style=""font-size: 60px; font-family: BACS"">JdOAYcbm</p>","","","","","","","","",""
"html-keyboard-response","306","357869","0.0-14.0-0.55","5e42b6421f44d3143440b25c","650c16f0f2faf8d7a0d14c09","651c1d01f2f046c6abe73a5c","null","null","<p style=""font-size: 60px; font-family: BACS"">bRABtmCd</p>","","","","","","","","",""
"html-keyboard-response","307","358870","0.0-14.0-0.56","5e42b6421f44d3143440b25c","650c16f0f2faf8d7a0d14c09","651c1d01f2f046c6abe73a5c","null","null","<p style=""font-size: 60px; font-family: BACS"">adkrAZbl</p>","","","","","","","","",""
"html-keyboard-response","308","359871","0.0-14.0-0.57","5e42b6421f44d3143440b25c","650c16f0f2faf8d7a0d14c09","651c1d01f2f046c6abe73a5c","null","null","<p style=""font-size: 60px; font-family: BACS"">UrOQJQA</p>","","","","","","","","",""
"html-keyboard-response","309","360873","0.0-14.0-0.58","5e42b6421f44d3143440b25c","650c16f0f2faf8d7a0d14c09","651c1d01f2f046c6abe73a5c","null","null","<p style=""font-size: 60px; font-family: BACS"">OtlRmCd</p>","","","","","","","","",""
"html-keyboard-response","310","361874","0.0-14.0-0.59","5e42b6421f44d3143440b25c","650c16f0f2faf8d7a0d14c09","651c1d01f2f046c6abe73a5c","null","null","<p style=""font-size: 60px; font-family: BACS"">AJLrvJQ</p>","","","","","","","","",""
"html-keyboard-response","311","362876","0.0-14.0-0.60","5e42b6421f44d3143440b25c","650c16f0f2faf8d7a0d14c09","651c1d01f2f046c6abe73a5c","null","null","<p style=""font-size: 60px; font-family: BACS"">OQarQAZbl</p>","","","","","","","","",""
"html-keyboard-response","312","363877","0.0-14.0-0.61","5e42b6421f44d3143440b25c","650c16f0f2faf8d7a0d14c09","651c1d01f2f046c6abe73a5c","null","null","<p style=""font-size: 60px; font-family: BACS"">kcdOtmCd</p>","","","","","","","","",""
"html-keyboard-response","313","364879","0.0-14.0-0.62","5e42b6421f44d3143440b25c","650c16f0f2faf8d7a0d14c09","651c1d01f2f046c6abe73a5c","null","null","<p style=""font-size: 60px; font-family: BACS"">OMlTmKcD</p>","","","","","","","","",""
"html-keyboard-response","314","365880","0.0-14.0-0.63","5e42b6421f44d3143440b25c","650c16f0f2faf8d7a0d14c09","651c1d01f2f046c6abe73a5c","null","null","<p style=""font-size: 60px; font-family: BACS"">kulZcbm</p>","","","","","","","","",""
"html-keyboard-response","315","366881","0.0-14.0-0.64","5e42b6421f44d3143440b25c","650c16f0f2faf8d7a0d14c09","651c1d01f2f046c6abe73a5c","null","null","<p style=""font-size: 60px; font-family: BACS"">PcBTYKPB</p>","","","","","","","","",""
"html-keyboard-response","316","367882","0.0-14.0-0.65","5e42b6421f44d3143440b25c","650c16f0f2faf8d7a0d14c09","651c1d01f2f046c6abe73a5c","null","null","<p style=""font-size: 60px; font-family: BACS"">GJGcZcbm</p>","","","","","","","","",""
"html-keyboard-response","317","368883","0.0-14.0-0.66","5e42b6421f44d3143440b25c","650c16f0f2faf8d7a0d14c09","651c1d01f2f046c6abe73a5c","null","null","<p style=""font-size: 60px; font-family: BACS"">PdDTEPBT</p>","","","","","","","","",""
"html-keyboard-response","318","369885","0.0-14.0-0.67","5e42b6421f44d3143440b25c","650c16f0f2faf8d7a0d14c09","651c1d01f2f046c6abe73a5c","null","null","<p style=""font-size: 60px; font-family: BACS"">tmYhmKcD</p>","","","","","","","","",""
"html-keyboard-response","319","370885","0.0-14.0-0.68","5e42b6421f44d3143440b25c","650c16f0f2faf8d7a0d14c09","651c1d01f2f046c6abe73a5c","null","null","<p style=""font-size: 60px; font-family: BACS"">bRABtYKPB</p>","","","","","","","","",""
"html-keyboard-response","320","371887","0.0-14.0-0.69","5e42b6421f44d3143440b25c","650c16f0f2faf8d7a0d14c09","651c1d01f2f046c6abe73a5c","null","null","<p style=""font-size: 60px; font-family: BACS"">auYAklLG</p>","","","","","","","","",""
"html-keyboard-response","321","372888","0.0-14.0-0.70","5e42b6421f44d3143440b25c","650c16f0f2faf8d7a0d14c09","651c1d01f2f046c6abe73a5c","null","null","<p style=""font-size: 60px; font-family: BACS"">PcBTmCd</p>","","","","","","","","",""
"html-keyboard-response","322","373889","0.0-14.0-0.71","5e42b6421f44d3143440b25c","650c16f0f2faf8d7a0d14c09","651c1d01f2f046c6abe73a5c","null","null","<p style=""font-size: 60px; font-family: BACS"">ZdNmUlLG</p>","","","","","","","","",""
"html-keyboard-response","323","374890","0.0-14.0-0.72","5e42b6421f44d3143440b25c","650c16f0f2faf8d7a0d14c09","651c1d01f2f046c6abe73a5c","null","null","<p style=""font-size: 60px; font-family: BACS"">CYPcmKcD</p>","","","","","","","","",""
"html-keyboard-response","324","375892","0.0-14.0-0.73","5e42b6421f44d3143440b25c","650c16f0f2faf8d7a0d14c09","651c1d01f2f046c6abe73a5c","null","null","<p style=""font-size: 60px; font-family: BACS"">PdDTmCd</p>","","","","","","","","",""
"html-keyboard-response","325","376893","0.0-14.0-0.74","5e42b6421f44d3143440b25c","650c16f0f2faf8d7a0d14c09","651c1d01f2f046c6abe73a5c","null","null","<p style=""font-size: 60px; font-family: BACS"">GJGcZAZbl</p>","","","","","","","","",""
"html-keyboard-response","326","377894","0.0-14.0-0.75","5e42b6421f44d3143440b25c","650c16f0f2faf8d7a0d14c09","651c1d01f2f046c6abe73a5c","null","null","<p style=""font-size: 60px; font-family: BACS"">kcdOtEPBT</p>","","","","","","","","",""
"html-keyboard-response","327","378895","0.0-14.0-0.76","5e42b6421f44d3143440b25c","650c16f0f2faf8d7a0d14c09","651c1d01f2f046c6abe73a5c","null","null","<p style=""font-size: 60px; font-family: BACS"">OQarQlLG</p>","","","","","","","","",""
"html-keyboard-response","328","379897","0.0-14.0-0.77","5e42b6421f44d3143440b25c","650c16f0f2faf8d7a0d14c09","651c1d01f2f046c6abe73a5c","null","null","<p style=""font-size: 60px; font-family: BACS"">kulZAZbl</p>","","","","","","","","",""
"html-keyboard-response","329","380910","0.0-14.0-0.78","5e42b6421f44d3143440b25c","650c16f0f2faf8d7a0d14c09","651c1d01f2f046c6abe73a5c","null","null","<p style=""font-size: 60px; font-family: BACS"">JdOAYlLG</p>","","","","","","","","",""
"html-keyboard-response","330","381911","0.0-14.0-0.79","5e42b6421f44d3143440b25c","650c16f0f2faf8d7a0d14c09","651c1d01f2f046c6abe73a5c","null","null","<p style=""font-size: 60px; font-family: BACS"">OtlRBRDh</p>","","","","","","","","",""
"html-keyboard-response","331","384773","0.0-15.0","5e42b6421f44d3143440b25c","650c16f0f2faf8d7a0d14c09","651c1d01f2f046c6abe73a5c","2862"," ","<p>Great, you've seen the fourth block of words. You may now take a short break.</p>
      <p>Press the spacebar when you're ready to continue.</p>","","","","","","","","",""
"html-keyboard-response","332","385775","0.0-16.0-0.0","5e42b6421f44d3143440b25c","650c16f0f2faf8d7a0d14c09","651c1d01f2f046c6abe73a5c","null","null","<p style=""font-size: 60px; font-family: BACS"">kcdOtBRDh</p>","","","","","","","","",""
"html-keyboard-response","333","386777","0.0-16.0-0.1","5e42b6421f44d3143440b25c","650c16f0f2faf8d7a0d14c09","651c1d01f2f046c6abe73a5c","null","null","<p style=""font-size: 60px; font-family: BACS"">kcdOtBRDh</p>","","","","","","","","",""
"html-keyboard-response","334","387789","0.0-16.0-0.2","5e42b6421f44d3143440b25c","650c16f0f2faf8d7a0d14c09","651c1d01f2f046c6abe73a5c","null","null","<p style=""font-size: 60px; font-family: BACS"">kcdOtBRDh</p>","","","","","","","","",""
"html-keyboard-response","335","388791","0.0-16.0-0.3","5e42b6421f44d3143440b25c","650c16f0f2faf8d7a0d14c09","651c1d01f2f046c6abe73a5c","null","null","<p style=""font-size: 60px; font-family: BACS"">kcdOtBRDh</p>","","","","","","","","",""
"html-keyboard-response","336","389792","0.0-16.0-0.4","5e42b6421f44d3143440b25c","650c16f0f2faf8d7a0d14c09","651c1d01f2f046c6abe73a5c","null","null","<p style=""font-size: 60px; font-family: BACS"">kcdOtBRDh</p>","","","","","","","","",""
"html-keyboard-response","337","390793","0.0-16.0-0.5","5e42b6421f44d3143440b25c","650c16f0f2faf8d7a0d14c09","651c1d01f2f046c6abe73a5c","null","null","<p style=""font-size: 60px; font-family: BACS"">kcdOtBRDh</p>","","","","","","","","",""
"html-keyboard-response","338","391794","0.0-16.0-0.6","5e42b6421f44d3143440b25c","650c16f0f2faf8d7a0d14c09","651c1d01f2f046c6abe73a5c","null","null","<p style=""font-size: 60px; font-family: BACS"">kcdOtBRDh</p>","","","","","","","","",""
"html-keyboard-response","339","392795","0.0-16.0-0.7","5e42b6421f44d3143440b25c","650c16f0f2faf8d7a0d14c09","651c1d01f2f046c6abe73a5c","null","null","<p style=""font-size: 60px; font-family: BACS"">kcdOtBRDh</p>","","","","","","","","",""
"html-keyboard-response","340","393796","0.0-16.0-0.8","5e42b6421f44d3143440b25c","650c16f0f2faf8d7a0d14c09","651c1d01f2f046c6abe73a5c","null","null","<p style=""font-size: 60px; font-family: BACS"">kcdOtBRDh</p>","","","","","","","","",""
"html-keyboard-response","341","394796","0.0-16.0-0.9","5e42b6421f44d3143440b25c","650c16f0f2faf8d7a0d14c09","651c1d01f2f046c6abe73a5c","null","null","<p style=""font-size: 60px; font-family: BACS"">kcdOtBRDh</p>","","","","","","","","",""
"html-keyboard-response","342","395797","0.0-16.0-0.10","5e42b6421f44d3143440b25c","650c16f0f2faf8d7a0d14c09","651c1d01f2f046c6abe73a5c","null","null","<p style=""font-size: 60px; font-family: BACS"">kcdOtBRDh</p>","","","","","","","","",""
"html-keyboard-response","343","396797","0.0-16.0-0.11","5e42b6421f44d3143440b25c","650c16f0f2faf8d7a0d14c09","651c1d01f2f046c6abe73a5c","null","null","<p style=""font-size: 60px; font-family: BACS"">kcdOtBRDh</p>","","","","","","","","",""
"html-keyboard-response","344","397797","0.0-16.0-0.12","5e42b6421f44d3143440b25c","650c16f0f2faf8d7a0d14c09","651c1d01f2f046c6abe73a5c","null","null","<p style=""font-size: 60px; font-family: BACS"">kcdOtBRDh</p>","","","","","","","","",""
"html-keyboard-response","345","398798","0.0-16.0-0.13","5e42b6421f44d3143440b25c","650c16f0f2faf8d7a0d14c09","651c1d01f2f046c6abe73a5c","null","null","<p style=""font-size: 60px; font-family: BACS"">kcdOtBRDh</p>","","","","","","","","",""
"html-keyboard-response","346","399800","0.0-16.0-0.14","5e42b6421f44d3143440b25c","650c16f0f2faf8d7a0d14c09","651c1d01f2f046c6abe73a5c","null","null","<p style=""font-size: 60px; font-family: BACS"">kcdOtBRDh</p>","","","","","","","","",""
"html-keyboard-response","347","400802","0.0-16.0-0.15","5e42b6421f44d3143440b25c","650c16f0f2faf8d7a0d14c09","651c1d01f2f046c6abe73a5c","null","null","<p style=""font-size: 60px; font-family: BACS"">kcdOtBRDh</p>","","","","","","","","",""
"html-keyboard-response","348","401803","0.0-16.0-0.16","5e42b6421f44d3143440b25c","650c16f0f2faf8d7a0d14c09","651c1d01f2f046c6abe73a5c","null","null","<p style=""font-size: 60px; font-family: BACS"">kcdOtBRDh</p>","","","","","","","","",""
"html-keyboard-response","349","402804","0.0-16.0-0.17","5e42b6421f44d3143440b25c","650c16f0f2faf8d7a0d14c09","651c1d01f2f046c6abe73a5c","null","null","<p style=""font-size: 60px; font-family: BACS"">kcdOtBRDh</p>","","","","","","","","",""
"html-keyboard-response","350","403805","0.0-16.0-0.18","5e42b6421f44d3143440b25c","650c16f0f2faf8d7a0d14c09","651c1d01f2f046c6abe73a5c","null","null","<p style=""font-size: 60px; font-family: BACS"">kcdOtBRDh</p>","","","","","","","","",""
"html-keyboard-response","351","404806","0.0-16.0-0.19","5e42b6421f44d3143440b25c","650c16f0f2faf8d7a0d14c09","651c1d01f2f046c6abe73a5c","null","null","<p style=""font-size: 60px; font-family: BACS"">kcdOtBRDh</p>","","","","","","","","",""
"html-keyboard-response","352","405807","0.0-16.0-0.20","5e42b6421f44d3143440b25c","650c16f0f2faf8d7a0d14c09","651c1d01f2f046c6abe73a5c","null","null","<p style=""font-size: 60px; font-family: BACS"">kcdOtBRDh</p>","","","","","","","","",""
"html-keyboard-response","353","406808","0.0-16.0-0.21","5e42b6421f44d3143440b25c","650c16f0f2faf8d7a0d14c09","651c1d01f2f046c6abe73a5c","null","null","<p style=""font-size: 60px; font-family: BACS"">kcdOtBRDh</p>","","","","","","","","",""
"html-keyboard-response","354","407809","0.0-16.0-0.22","5e42b6421f44d3143440b25c","650c16f0f2faf8d7a0d14c09","651c1d01f2f046c6abe73a5c","null","null","<p style=""font-size: 60px; font-family: BACS"">kcdOtBRDh</p>","","","","","","","","",""
"html-keyboard-response","355","408810","0.0-16.0-0.23","5e42b6421f44d3143440b25c","650c16f0f2faf8d7a0d14c09","651c1d01f2f046c6abe73a5c","null","null","<p style=""font-size: 60px; font-family: BACS"">kcdOtBRDh</p>","","","","","","","","",""
"html-keyboard-response","356","409811","0.0-16.0-0.24","5e42b6421f44d3143440b25c","650c16f0f2faf8d7a0d14c09","651c1d01f2f046c6abe73a5c","null","null","<p style=""font-size: 60px; font-family: BACS"">kcdOtBRDh</p>","","","","","","","","",""
"html-keyboard-response","357","410812","0.0-16.0-0.25","5e42b6421f44d3143440b25c","650c16f0f2faf8d7a0d14c09","651c1d01f2f046c6abe73a5c","null","null","<p style=""font-size: 60px; font-family: BACS"">kcdOtBRDh</p>","","","","","","","","",""
"html-keyboard-response","358","411813","0.0-16.0-0.26","5e42b6421f44d3143440b25c","650c16f0f2faf8d7a0d14c09","651c1d01f2f046c6abe73a5c","null","null","<p style=""font-size: 60px; font-family: BACS"">kcdOtBRDh</p>","","","","","","","","",""
"html-keyboard-response","359","412815","0.0-16.0-0.27","5e42b6421f44d3143440b25c","650c16f0f2faf8d7a0d14c09","651c1d01f2f046c6abe73a5c","null","null","<p style=""font-size: 60px; font-family: BACS"">kcdOtBRDh</p>","","","","","","","","",""
"html-keyboard-response","360","413816","0.0-16.0-0.28","5e42b6421f44d3143440b25c","650c16f0f2faf8d7a0d14c09","651c1d01f2f046c6abe73a5c","null","null","<p style=""font-size: 60px; font-family: BACS"">kcdOtBRDh</p>","","","","","","","","",""
"html-keyboard-response","361","414817","0.0-16.0-0.29","5e42b6421f44d3143440b25c","650c16f0f2faf8d7a0d14c09","651c1d01f2f046c6abe73a5c","null","null","<p style=""font-size: 60px; font-family: BACS"">kcdOtBRDh</p>","","","","","","","","",""
"html-keyboard-response","362","415817","0.0-16.0-0.30","5e42b6421f44d3143440b25c","650c16f0f2faf8d7a0d14c09","651c1d01f2f046c6abe73a5c","null","null","<p style=""font-size: 60px; font-family: BACS"">kcdOtBRDh</p>","","","","","","","","",""
"html-keyboard-response","363","416818","0.0-16.0-0.31","5e42b6421f44d3143440b25c","650c16f0f2faf8d7a0d14c09","651c1d01f2f046c6abe73a5c","null","null","<p style=""font-size: 60px; font-family: BACS"">kcdOtBRDh</p>","","","","","","","","",""
"html-keyboard-response","364","417819","0.0-16.0-0.32","5e42b6421f44d3143440b25c","650c16f0f2faf8d7a0d14c09","651c1d01f2f046c6abe73a5c","null","null","<p style=""font-size: 60px; font-family: BACS"">kcdOtBRDh</p>","","","","","","","","",""
"html-keyboard-response","365","418821","0.0-16.0-0.33","5e42b6421f44d3143440b25c","650c16f0f2faf8d7a0d14c09","651c1d01f2f046c6abe73a5c","null","null","<p style=""font-size: 60px; font-family: BACS"">kcdOtBRDh</p>","","","","","","","","",""
"html-keyboard-response","366","419822","0.0-16.0-0.34","5e42b6421f44d3143440b25c","650c16f0f2faf8d7a0d14c09","651c1d01f2f046c6abe73a5c","null","null","<p style=""font-size: 60px; font-family: BACS"">kcdOtBRDh</p>","","","","","","","","",""
"html-keyboard-response","367","420823","0.0-16.0-0.35","5e42b6421f44d3143440b25c","650c16f0f2faf8d7a0d14c09","651c1d01f2f046c6abe73a5c","null","null","<p style=""font-size: 60px; font-family: BACS"">kcdOtBRDh</p>","","","","","","","","",""
"html-keyboard-response","368","421825","0.0-16.0-0.36","5e42b6421f44d3143440b25c","650c16f0f2faf8d7a0d14c09","651c1d01f2f046c6abe73a5c","null","null","<p style=""font-size: 60px; font-family: BACS"">kcdOtBRDh</p>","","","","","","","","",""
"html-keyboard-response","369","422826","0.0-16.0-0.37","5e42b6421f44d3143440b25c","650c16f0f2faf8d7a0d14c09","651c1d01f2f046c6abe73a5c","null","null","<p style=""font-size: 60px; font-family: BACS"">kcdOtBRDh</p>","","","","","","","","",""
"html-keyboard-response","370","423827","0.0-16.0-0.38","5e42b6421f44d3143440b25c","650c16f0f2faf8d7a0d14c09","651c1d01f2f046c6abe73a5c","null","null","<p style=""font-size: 60px; font-family: BACS"">kcdOtBRDh</p>","","","","","","","","",""
"html-keyboard-response","371","424828","0.0-16.0-0.39","5e42b6421f44d3143440b25c","650c16f0f2faf8d7a0d14c09","651c1d01f2f046c6abe73a5c","null","null","<p style=""font-size: 60px; font-family: BACS"">kcdOtBRDh</p>","","","","","","","","",""
"html-keyboard-response","372","425830","0.0-16.0-0.40","5e42b6421f44d3143440b25c","650c16f0f2faf8d7a0d14c09","651c1d01f2f046c6abe73a5c","null","null","<p style=""font-size: 60px; font-family: BACS"">kcdOtBRDh</p>","","","","","","","","",""
"html-keyboard-response","373","426831","0.0-16.0-0.41","5e42b6421f44d3143440b25c","650c16f0f2faf8d7a0d14c09","651c1d01f2f046c6abe73a5c","null","null","<p style=""font-size: 60px; font-family: BACS"">kcdOtBRDh</p>","","","","","","","","",""
"html-keyboard-response","374","427831","0.0-16.0-0.42","5e42b6421f44d3143440b25c","650c16f0f2faf8d7a0d14c09","651c1d01f2f046c6abe73a5c","null","null","<p style=""font-size: 60px; font-family: BACS"">kcdOtBRDh</p>","","","","","","","","",""
"html-keyboard-response","375","428832","0.0-16.0-0.43","5e42b6421f44d3143440b25c","650c16f0f2faf8d7a0d14c09","651c1d01f2f046c6abe73a5c","null","null","<p style=""font-size: 60px; font-family: BACS"">kcdOtBRDh</p>","","","","","","","","",""
"html-keyboard-response","376","429832","0.0-16.0-0.44","5e42b6421f44d3143440b25c","650c16f0f2faf8d7a0d14c09","651c1d01f2f046c6abe73a5c","null","null","<p style=""font-size: 60px; font-family: BACS"">kcdOtBRDh</p>","","","","","","","","",""
"html-keyboard-response","377","430833","0.0-16.0-0.45","5e42b6421f44d3143440b25c","650c16f0f2faf8d7a0d14c09","651c1d01f2f046c6abe73a5c","null","null","<p style=""font-size: 60px; font-family: BACS"">kcdOtBRDh</p>","","","","","","","","",""
"html-keyboard-response","378","431835","0.0-16.0-0.46","5e42b6421f44d3143440b25c","650c16f0f2faf8d7a0d14c09","651c1d01f2f046c6abe73a5c","null","null","<p style=""font-size: 60px; font-family: BACS"">kcdOtBRDh</p>","","","","","","","","",""
"html-keyboard-response","379","432837","0.0-16.0-0.47","5e42b6421f44d3143440b25c","650c16f0f2faf8d7a0d14c09","651c1d01f2f046c6abe73a5c","null","null","<p style=""font-size: 60px; font-family: BACS"">kcdOtBRDh</p>","","","","","","","","",""
"html-keyboard-response","380","433837","0.0-16.0-0.48","5e42b6421f44d3143440b25c","650c16f0f2faf8d7a0d14c09","651c1d01f2f046c6abe73a5c","null","null","<p style=""font-size: 60px; font-family: BACS"">kcdOtBRDh</p>","","","","","","","","",""
"html-keyboard-response","381","434839","0.0-16.0-0.49","5e42b6421f44d3143440b25c","650c16f0f2faf8d7a0d14c09","651c1d01f2f046c6abe73a5c","null","null","<p style=""font-size: 60px; font-family: BACS"">kcdOtBRDh</p>","","","","","","","","",""
"html-keyboard-response","382","435840","0.0-16.0-0.50","5e42b6421f44d3143440b25c","650c16f0f2faf8d7a0d14c09","651c1d01f2f046c6abe73a5c","null","null","<p style=""font-size: 60px; font-family: BACS"">kcdOtBRDh</p>","","","","","","","","",""
"html-keyboard-response","383","436841","0.0-16.0-0.51","5e42b6421f44d3143440b25c","650c16f0f2faf8d7a0d14c09","651c1d01f2f046c6abe73a5c","null","null","<p style=""font-size: 60px; font-family: BACS"">kcdOtBRDh</p>","","","","","","","","",""
"html-keyboard-response","384","437842","0.0-16.0-0.52","5e42b6421f44d3143440b25c","650c16f0f2faf8d7a0d14c09","651c1d01f2f046c6abe73a5c","null","null","<p style=""font-size: 60px; font-family: BACS"">kcdOtBRDh</p>","","","","","","","","",""
"html-keyboard-response","385","438843","0.0-16.0-0.53","5e42b6421f44d3143440b25c","650c16f0f2faf8d7a0d14c09","651c1d01f2f046c6abe73a5c","null","null","<p style=""font-size: 60px; font-family: BACS"">kcdOtBRDh</p>","","","","","","","","",""
"html-keyboard-response","386","439844","0.0-16.0-0.54","5e42b6421f44d3143440b25c","650c16f0f2faf8d7a0d14c09","651c1d01f2f046c6abe73a5c","null","null","<p style=""font-size: 60px; font-family: BACS"">kcdOtBRDh</p>","","","","","","","","",""
"html-keyboard-response","387","440845","0.0-16.0-0.55","5e42b6421f44d3143440b25c","650c16f0f2faf8d7a0d14c09","651c1d01f2f046c6abe73a5c","null","null","<p style=""font-size: 60px; font-family: BACS"">kcdOtBRDh</p>","","","","","","","","",""
"html-keyboard-response","388","441846","0.0-16.0-0.56","5e42b6421f44d3143440b25c","650c16f0f2faf8d7a0d14c09","651c1d01f2f046c6abe73a5c","null","null","<p style=""font-size: 60px; font-family: BACS"">kcdOtBRDh</p>","","","","","","","","",""
"html-keyboard-response","389","442848","0.0-16.0-0.57","5e42b6421f44d3143440b25c","650c16f0f2faf8d7a0d14c09","651c1d01f2f046c6abe73a5c","null","null","<p style=""font-size: 60px; font-family: BACS"">kcdOtBRDh</p>","","","","","","","","",""
"html-keyboard-response","390","443849","0.0-16.0-0.58","5e42b6421f44d3143440b25c","650c16f0f2faf8d7a0d14c09","651c1d01f2f046c6abe73a5c","null","null","<p style=""font-size: 60px; font-family: BACS"">kcdOtBRDh</p>","","","","","","","","",""
"html-keyboard-response","391","444849","0.0-16.0-0.59","5e42b6421f44d3143440b25c","650c16f0f2faf8d7a0d14c09","651c1d01f2f046c6abe73a5c","null","null","<p style=""font-size: 60px; font-family: BACS"">kcdOtBRDh</p>","","","","","","","","",""
"html-keyboard-response","392","445851","0.0-16.0-0.60","5e42b6421f44d3143440b25c","650c16f0f2faf8d7a0d14c09","651c1d01f2f046c6abe73a5c","null","null","<p style=""font-size: 60px; font-family: BACS"">kcdOtBRDh</p>","","","","","","","","",""
"html-keyboard-response","393","446852","0.0-16.0-0.61","5e42b6421f44d3143440b25c","650c16f0f2faf8d7a0d14c09","651c1d01f2f046c6abe73a5c","null","null","<p style=""font-size: 60px; font-family: BACS"">kcdOtBRDh</p>","","","","","","","","",""
"html-keyboard-response","394","447853","0.0-16.0-0.62","5e42b6421f44d3143440b25c","650c16f0f2faf8d7a0d14c09","651c1d01f2f046c6abe73a5c","null","null","<p style=""font-size: 60px; font-family: BACS"">kcdOtBRDh</p>","","","","","","","","",""
"html-keyboard-response","395","448853","0.0-16.0-0.63","5e42b6421f44d3143440b25c","650c16f0f2faf8d7a0d14c09","651c1d01f2f046c6abe73a5c","null","null","<p style=""font-size: 60px; font-family: BACS"">kcdOtBRDh</p>","","","","","","","","",""
"html-keyboard-response","396","449854","0.0-16.0-0.64","5e42b6421f44d3143440b25c","650c16f0f2faf8d7a0d14c09","651c1d01f2f046c6abe73a5c","null","null","<p style=""font-size: 60px; font-family: BACS"">kcdOtBRDh</p>","","","","","","","","",""
"html-keyboard-response","397","450854","0.0-16.0-0.65","5e42b6421f44d3143440b25c","650c16f0f2faf8d7a0d14c09","651c1d01f2f046c6abe73a5c","null","null","<p style=""font-size: 60px; font-family: BACS"">kcdOtBRDh</p>","","","","","","","","",""
"html-keyboard-response","398","451855","0.0-16.0-0.66","5e42b6421f44d3143440b25c","650c16f0f2faf8d7a0d14c09","651c1d01f2f046c6abe73a5c","null","null","<p style=""font-size: 60px; font-family: BACS"">kcdOtBRDh</p>","","","","","","","","",""
