"trial_type","trial_index","time_elapsed","internal_node_id","subject_id","study_id","session_id","rt","response","stimulus","success","item","task","correct_response","testing_condition","correct","target","confound","name"
"pavlovia","0","634","0.0-0.0","5fa4725a186c050edc3bcc20","650c16f0f2faf8d7a0d14c09","651c1d906f385036f4234cca","","","","","","","","","","","",""
"survey-html-form","1","17391","0.0-1.0","5fa4725a186c050edc3bcc20","650c16f0f2faf8d7a0d14c09","651c1d906f385036f4234cca","16755","{""ID"":""5fa4725a186c050edc3bcc20""}","","","","","","","","","",""
"html-keyboard-response","2","28641","0.0-2.0","5fa4725a186c050edc3bcc20","650c16f0f2faf8d7a0d14c09","651c1d906f385036f4234cca","11249"," ","<p style=""font-size: 15px;"">Before beginning, we ask that you read the consent information and confirm your agreement to participate in the experiment.</p>
      <p style=""font-size: 15px;""> We ask that you remember that this is a research project and that your participation is entirely voluntary. You can stop your participation at any time, without needing to provide any explanation. The study we're asking you to participate in aims at examining how readers process written words. You will be engaged in a session of apprximately 20 minutes, followed by a brief questionnaire. You will have the opportunity to take a few breaks during the experiment. You will be paid £4 for your participation, corresponding to a rate of £8/hour. While this experiment looks at cognitive faculties, this experiment doesn't constitute clinical proof of eventual pathologies.</p>
      <p style=""font-size: 15px;"">All of the information collected thanks to yours and others' participation will be held in a secure password-protected server, and will not be shared with anyone not authorised to view it. Your personal information will be kept with an arbitrary participant ID. Thanks to this data anonymity process, any researcher analysing the data won't be able to track the information back to a specific participant. Therefore, this process will make identifying you impossibile, even when results from the study will be published in scientific reviews, presented at congresses, or at any other public forum. More generally, the collected data will be treated in accordance with the laws on privacy and conformity to the Legislative Degree n. 196 ""Code regarding the protection of personal data"" of the 30th of June 2003 and to the European Regulation 2016/670 (General Data Protection Regulation - GDPR). The Data Protection Officer is Avv. Valentina Carollo, who can be contacted at the following email addresses: <a href=""mailto:dpo@sissa.it"">dpo@sissa.it</a> or <a href=""mailto:rpd@sissa.it"">rpd@sissa.it</a> - PEC: <a href=""mailto:protocollo@pec.sissa.it"">protocollo@pec.sissa.it</a>.</p>
      <p style=""font-size: 15px;""> Before expressing your consent to participate, we would like to remind you again that in case you need explanations on any aspect of the experimental procedure, the researcher is at your disposition (<a href=""mailto:aliebelt@sissa.it"">aliebelt@sissa.it</a>, <a href=""mailto:davide.crepaldi@sissa.it"">davide.crepaldi@sissa.it</a>).</p>
      <p style=""font-size: 15px;"">If you would like to download the informed consent form, you can do so here: <a href=""BASL-Informed_Consent.pdf"" download>informed consent form</a>.</p>
      <p style=""font-size: 15px;"">We ask that you press the spacebar to proceed to the consent section.</p>","","","","","","","","",""
"survey-html-form","3","49119","0.0-3.0","5fa4725a186c050edc3bcc20","650c16f0f2faf8d7a0d14c09","651c1d906f385036f4234cca","20477","{""consent1"":""YES"",""consent2"":""YES"",""consent3"":""YES"",""consent4"":""YES"",""consent5"":""YES"",""consent6"":""YES""}","","","","","","","","","",""
"fullscreen","4","73395","0.0-4.0","5fa4725a186c050edc3bcc20","650c16f0f2faf8d7a0d14c09","651c1d906f385036f4234cca","","","","true","","","","","","","",""
"html-keyboard-response","5","86807","0.0-5.0","5fa4725a186c050edc3bcc20","650c16f0f2faf8d7a0d14c09","651c1d906f385036f4234cca","13412"," ","<p>Welcome, and thank you very much for your time!</p>
      <p>In this experiment, you'll be a language expert who's been asked to take a look at words that Earth has received in its first communication with aliens. Your task, in this first part of the experiment, is to pay close attention to the words you'll be shown; later, world leaders will ask you questions on what you saw. The words will be shown to you quite quickly; it seems that the aliens were in a hurry :-)</p>
      <p>Press the spacebar to continue.<p>","","","","","","","","",""
"html-keyboard-response","6","86860","0.0-6.0","5fa4725a186c050edc3bcc20","650c16f0f2faf8d7a0d14c09","651c1d906f385036f4234cca","null","null","<p style=""font-size: 120px; font-family: BACS""> </p>","","","","","","","","",""
"html-keyboard-response","7","90711","0.0-7.0","5fa4725a186c050edc3bcc20","650c16f0f2faf8d7a0d14c09","651c1d906f385036f4234cca","3850"," ","<p>Here is an example of the words you'll see:</p>
      <img src='esempio.png' height='400px'>
      <p>When you're ready to begin, press the spacebar.</p></div>","","","","","","","","",""
"html-keyboard-response","8","91721","0.0-8.0-0.0","5fa4725a186c050edc3bcc20","650c16f0f2faf8d7a0d14c09","651c1d906f385036f4234cca","null","null","<p style=""font-size: 60px; font-family: BACS"">CRdBdYDE</p>","","","","","","","","",""
"html-keyboard-response","9","92730","0.0-8.0-0.1","5fa4725a186c050edc3bcc20","650c16f0f2faf8d7a0d14c09","651c1d906f385036f4234cca","null","null","<p style=""font-size: 60px; font-family: BACS"">BlmclCdt</p>","","","","","","","","",""
"html-keyboard-response","10","93739","0.0-8.0-0.2","5fa4725a186c050edc3bcc20","650c16f0f2faf8d7a0d14c09","651c1d906f385036f4234cca","null","null","<p style=""font-size: 60px; font-family: BACS"">kMbTRPMd</p>","","","","","","","","",""
"html-keyboard-response","11","94750","0.0-8.0-0.3","5fa4725a186c050edc3bcc20","650c16f0f2faf8d7a0d14c09","651c1d906f385036f4234cca","null","null","<p style=""font-size: 60px; font-family: BACS"">UaZmaUbG</p>","","","","","","","","",""
"html-keyboard-response","12","95756","0.0-8.0-0.4","5fa4725a186c050edc3bcc20","650c16f0f2faf8d7a0d14c09","651c1d906f385036f4234cca","null","null","<p style=""font-size: 60px; font-family: BACS"">DmAMEtAY</p>","","","","","","","","",""
"html-keyboard-response","13","96772","0.0-8.0-0.5","5fa4725a186c050edc3bcc20","650c16f0f2faf8d7a0d14c09","651c1d906f385036f4234cca","null","null","<p style=""font-size: 60px; font-family: BACS"">tcYbdCdt</p>","","","","","","","","",""
"html-keyboard-response","14","97787","0.0-8.0-0.6","5fa4725a186c050edc3bcc20","650c16f0f2faf8d7a0d14c09","651c1d906f385036f4234cca","null","null","<p style=""font-size: 60px; font-family: BACS"">bYuQUbG</p>","","","","","","","","",""
"html-keyboard-response","15","98792","0.0-8.0-0.7","5fa4725a186c050edc3bcc20","650c16f0f2faf8d7a0d14c09","651c1d906f385036f4234cca","null","null","<p style=""font-size: 60px; font-family: BACS"">tcYbdDmh</p>","","","","","","","","",""
"html-keyboard-response","16","99802","0.0-8.0-0.8","5fa4725a186c050edc3bcc20","650c16f0f2faf8d7a0d14c09","651c1d906f385036f4234cca","null","null","<p style=""font-size: 60px; font-family: BACS"">UaZmarab</p>","","","","","","","","",""
"html-keyboard-response","17","100817","0.0-8.0-0.9","5fa4725a186c050edc3bcc20","650c16f0f2faf8d7a0d14c09","651c1d906f385036f4234cca","null","null","<p style=""font-size: 60px; font-family: BACS"">DmAMEDmh</p>","","","","","","","","",""
"html-keyboard-response","18","101830","0.0-8.0-0.10","5fa4725a186c050edc3bcc20","650c16f0f2faf8d7a0d14c09","651c1d906f385036f4234cca","null","null","<p style=""font-size: 60px; font-family: BACS"">kMbTRCdt</p>","","","","","","","","",""
"html-keyboard-response","19","102844","0.0-8.0-0.11","5fa4725a186c050edc3bcc20","650c16f0f2faf8d7a0d14c09","651c1d906f385036f4234cca","null","null","<p style=""font-size: 60px; font-family: BACS"">dKDthDmh</p>","","","","","","","","",""
"html-keyboard-response","20","103854","0.0-8.0-0.12","5fa4725a186c050edc3bcc20","650c16f0f2faf8d7a0d14c09","651c1d906f385036f4234cca","null","null","<p style=""font-size: 60px; font-family: BACS"">YmBdPMd</p>","","","","","","","","",""
"html-keyboard-response","21","104866","0.0-8.0-0.13","5fa4725a186c050edc3bcc20","650c16f0f2faf8d7a0d14c09","651c1d906f385036f4234cca","null","null","<p style=""font-size: 60px; font-family: BACS"">dKDthCdt</p>","","","","","","","","",""
"html-keyboard-response","22","105875","0.0-8.0-0.14","5fa4725a186c050edc3bcc20","650c16f0f2faf8d7a0d14c09","651c1d906f385036f4234cca","null","null","<p style=""font-size: 60px; font-family: BACS"">UdYUQrab</p>","","","","","","","","",""
"html-keyboard-response","23","106886","0.0-8.0-0.15","5fa4725a186c050edc3bcc20","650c16f0f2faf8d7a0d14c09","651c1d906f385036f4234cca","null","null","<p style=""font-size: 60px; font-family: BACS"">CchtdPMd</p>","","","","","","","","",""
"html-keyboard-response","24","107901","0.0-8.0-0.16","5fa4725a186c050edc3bcc20","650c16f0f2faf8d7a0d14c09","651c1d906f385036f4234cca","null","null","<p style=""font-size: 60px; font-family: BACS"">dKDthtAY</p>","","","","","","","","",""
"html-keyboard-response","25","108903","0.0-8.0-0.17","5fa4725a186c050edc3bcc20","650c16f0f2faf8d7a0d14c09","651c1d906f385036f4234cca","null","null","<p style=""font-size: 60px; font-family: BACS"">JZOAkLYGA</p>","","","","","","","","",""
"html-keyboard-response","26","109907","0.0-8.0-0.18","5fa4725a186c050edc3bcc20","650c16f0f2faf8d7a0d14c09","651c1d906f385036f4234cca","null","null","<p style=""font-size: 60px; font-family: BACS"">YmBdCdt</p>","","","","","","","","",""
"html-keyboard-response","27","110917","0.0-8.0-0.19","5fa4725a186c050edc3bcc20","650c16f0f2faf8d7a0d14c09","651c1d906f385036f4234cca","null","null","<p style=""font-size: 60px; font-family: BACS"">QcQAJuUY</p>","","","","","","","","",""
"html-keyboard-response","28","111919","0.0-8.0-0.20","5fa4725a186c050edc3bcc20","650c16f0f2faf8d7a0d14c09","651c1d906f385036f4234cca","null","null","<p style=""font-size: 60px; font-family: BACS"">YuaNdUbG</p>","","","","","","","","",""
"html-keyboard-response","29","112923","0.0-8.0-0.21","5fa4725a186c050edc3bcc20","650c16f0f2faf8d7a0d14c09","651c1d906f385036f4234cca","null","null","<p style=""font-size: 60px; font-family: BACS"">JZOAkrab</p>","","","","","","","","",""
"html-keyboard-response","30","113935","0.0-8.0-0.22","5fa4725a186c050edc3bcc20","650c16f0f2faf8d7a0d14c09","651c1d906f385036f4234cca","null","null","<p style=""font-size: 60px; font-family: BACS"">UaZmaLYGA</p>","","","","","","","","",""
"html-keyboard-response","31","114947","0.0-8.0-0.23","5fa4725a186c050edc3bcc20","650c16f0f2faf8d7a0d14c09","651c1d906f385036f4234cca","null","null","<p style=""font-size: 60px; font-family: BACS"">QcQAJrab</p>","","","","","","","","",""
"html-keyboard-response","32","115957","0.0-8.0-0.24","5fa4725a186c050edc3bcc20","650c16f0f2faf8d7a0d14c09","651c1d906f385036f4234cca","null","null","<p style=""font-size: 60px; font-family: BACS"">dKDthYDE</p>","","","","","","","","",""
"html-keyboard-response","33","116971","0.0-8.0-0.25","5fa4725a186c050edc3bcc20","650c16f0f2faf8d7a0d14c09","651c1d906f385036f4234cca","null","null","<p style=""font-size: 60px; font-family: BACS"">COTKPMd</p>","","","","","","","","",""
"html-keyboard-response","34","117981","0.0-8.0-0.26","5fa4725a186c050edc3bcc20","650c16f0f2faf8d7a0d14c09","651c1d906f385036f4234cca","null","null","<p style=""font-size: 60px; font-family: BACS"">ORbkDmh</p>","","","","","","","","",""
"html-keyboard-response","35","118996","0.0-8.0-0.27","5fa4725a186c050edc3bcc20","650c16f0f2faf8d7a0d14c09","651c1d906f385036f4234cca","null","null","<p style=""font-size: 60px; font-family: BACS"">Gabkrab</p>","","","","","","","","",""
"html-keyboard-response","36","120003","0.0-8.0-0.28","5fa4725a186c050edc3bcc20","650c16f0f2faf8d7a0d14c09","651c1d906f385036f4234cca","null","null","<p style=""font-size: 60px; font-family: BACS"">kMbTRDmh</p>","","","","","","","","",""
"html-keyboard-response","37","121012","0.0-8.0-0.29","5fa4725a186c050edc3bcc20","650c16f0f2faf8d7a0d14c09","651c1d906f385036f4234cca","null","null","<p style=""font-size: 60px; font-family: BACS"">GabkLYGA</p>","","","","","","","","",""
"html-keyboard-response","38","122024","0.0-8.0-0.30","5fa4725a186c050edc3bcc20","650c16f0f2faf8d7a0d14c09","651c1d906f385036f4234cca","null","null","<p style=""font-size: 60px; font-family: BACS"">rcmuvuUY</p>","","","","","","","","",""
"html-keyboard-response","39","123036","0.0-8.0-0.31","5fa4725a186c050edc3bcc20","650c16f0f2faf8d7a0d14c09","651c1d906f385036f4234cca","null","null","<p style=""font-size: 60px; font-family: BACS"">JZOAkrAJu</p>","","","","","","","","",""
"html-keyboard-response","40","124038","0.0-8.0-0.32","5fa4725a186c050edc3bcc20","650c16f0f2faf8d7a0d14c09","651c1d906f385036f4234cca","null","null","<p style=""font-size: 60px; font-family: BACS"">bYuQuUY</p>","","","","","","","","",""
"html-keyboard-response","41","125041","0.0-8.0-0.33","5fa4725a186c050edc3bcc20","650c16f0f2faf8d7a0d14c09","651c1d906f385036f4234cca","null","null","<p style=""font-size: 60px; font-family: BACS"">ALOrlrAJu</p>","","","","","","","","",""
"html-keyboard-response","42","126047","0.0-8.0-0.34","5fa4725a186c050edc3bcc20","650c16f0f2faf8d7a0d14c09","651c1d906f385036f4234cca","null","null","<p style=""font-size: 60px; font-family: BACS"">CRdBdtAY</p>","","","","","","","","",""
"html-keyboard-response","43","127056","0.0-8.0-0.35","5fa4725a186c050edc3bcc20","650c16f0f2faf8d7a0d14c09","651c1d906f385036f4234cca","null","null","<p style=""font-size: 60px; font-family: BACS"">YuaNdrab</p>","","","","","","","","",""
"html-keyboard-response","44","128066","0.0-8.0-0.36","5fa4725a186c050edc3bcc20","650c16f0f2faf8d7a0d14c09","651c1d906f385036f4234cca","null","null","<p style=""font-size: 60px; font-family: BACS"">UdYUQrAJu</p>","","","","","","","","",""
"html-keyboard-response","45","129075","0.0-8.0-0.37","5fa4725a186c050edc3bcc20","650c16f0f2faf8d7a0d14c09","651c1d906f385036f4234cca","null","null","<p style=""font-size: 60px; font-family: BACS"">ALOrlUbG</p>","","","","","","","","",""
"html-keyboard-response","46","130090","0.0-8.0-0.38","5fa4725a186c050edc3bcc20","650c16f0f2faf8d7a0d14c09","651c1d906f385036f4234cca","null","null","<p style=""font-size: 60px; font-family: BACS"">rcmuvrab</p>","","","","","","","","",""
"html-keyboard-response","47","131103","0.0-8.0-0.39","5fa4725a186c050edc3bcc20","650c16f0f2faf8d7a0d14c09","651c1d906f385036f4234cca","null","null","<p style=""font-size: 60px; font-family: BACS"">UYZlZuUY</p>","","","","","","","","",""
"html-keyboard-response","48","132116","0.0-8.0-0.40","5fa4725a186c050edc3bcc20","650c16f0f2faf8d7a0d14c09","651c1d906f385036f4234cca","null","null","<p style=""font-size: 60px; font-family: BACS"">COTKtAY</p>","","","","","","","","",""
"html-keyboard-response","49","133118","0.0-8.0-0.41","5fa4725a186c050edc3bcc20","650c16f0f2faf8d7a0d14c09","651c1d906f385036f4234cca","null","null","<p style=""font-size: 60px; font-family: BACS"">UYZlZUbG</p>","","","","","","","","",""
"html-keyboard-response","50","134126","0.0-8.0-0.42","5fa4725a186c050edc3bcc20","650c16f0f2faf8d7a0d14c09","651c1d906f385036f4234cca","null","null","<p style=""font-size: 60px; font-family: BACS"">YmBdYDE</p>","","","","","","","","",""
"html-keyboard-response","51","135138","0.0-8.0-0.43","5fa4725a186c050edc3bcc20","650c16f0f2faf8d7a0d14c09","651c1d906f385036f4234cca","null","null","<p style=""font-size: 60px; font-family: BACS"">QcQAJLYGA</p>","","","","","","","","",""
"html-keyboard-response","52","136153","0.0-8.0-0.44","5fa4725a186c050edc3bcc20","650c16f0f2faf8d7a0d14c09","651c1d906f385036f4234cca","null","null","<p style=""font-size: 60px; font-family: BACS"">bYuQrAJu</p>","","","","","","","","",""
"html-keyboard-response","53","137164","0.0-8.0-0.45","5fa4725a186c050edc3bcc20","650c16f0f2faf8d7a0d14c09","651c1d906f385036f4234cca","null","null","<p style=""font-size: 60px; font-family: BACS"">UdYUQuUY</p>","","","","","","","","",""
"html-keyboard-response","54","138175","0.0-8.0-0.46","5fa4725a186c050edc3bcc20","650c16f0f2faf8d7a0d14c09","651c1d906f385036f4234cca","null","null","<p style=""font-size: 60px; font-family: BACS"">UYZlZLYGA</p>","","","","","","","","",""
"html-keyboard-response","55","139187","0.0-8.0-0.47","5fa4725a186c050edc3bcc20","650c16f0f2faf8d7a0d14c09","651c1d906f385036f4234cca","null","null","<p style=""font-size: 60px; font-family: BACS"">ORbktAY</p>","","","","","","","","",""
"html-keyboard-response","56","140199","0.0-8.0-0.48","5fa4725a186c050edc3bcc20","650c16f0f2faf8d7a0d14c09","651c1d906f385036f4234cca","null","null","<p style=""font-size: 60px; font-family: BACS"">YuaNduUY</p>","","","","","","","","",""
"html-keyboard-response","57","141206","0.0-8.0-0.49","5fa4725a186c050edc3bcc20","650c16f0f2faf8d7a0d14c09","651c1d906f385036f4234cca","null","null","<p style=""font-size: 60px; font-family: BACS"">CchtdtAY</p>","","","","","","","","",""
"html-keyboard-response","58","142208","0.0-8.0-0.50","5fa4725a186c050edc3bcc20","650c16f0f2faf8d7a0d14c09","651c1d906f385036f4234cca","null","null","<p style=""font-size: 60px; font-family: BACS"">UaZmarAJu</p>","","","","","","","","",""
"html-keyboard-response","59","143219","0.0-8.0-0.51","5fa4725a186c050edc3bcc20","650c16f0f2faf8d7a0d14c09","651c1d906f385036f4234cca","null","null","<p style=""font-size: 60px; font-family: BACS"">bYuQrab</p>","","","","","","","","",""
"html-keyboard-response","60","144229","0.0-8.0-0.52","5fa4725a186c050edc3bcc20","650c16f0f2faf8d7a0d14c09","651c1d906f385036f4234cca","null","null","<p style=""font-size: 60px; font-family: BACS"">tcYbdPMd</p>","","","","","","","","",""
"html-keyboard-response","61","145243","0.0-8.0-0.53","5fa4725a186c050edc3bcc20","650c16f0f2faf8d7a0d14c09","651c1d906f385036f4234cca","null","null","<p style=""font-size: 60px; font-family: BACS"">ORbkCdt</p>","","","","","","","","",""
"html-keyboard-response","62","146245","0.0-8.0-0.54","5fa4725a186c050edc3bcc20","650c16f0f2faf8d7a0d14c09","651c1d906f385036f4234cca","null","null","<p style=""font-size: 60px; font-family: BACS"">CRdBdPMd</p>","","","","","","","","",""
"html-keyboard-response","63","147252","0.0-8.0-0.55","5fa4725a186c050edc3bcc20","650c16f0f2faf8d7a0d14c09","651c1d906f385036f4234cca","null","null","<p style=""font-size: 60px; font-family: BACS"">ALOrluUY</p>","","","","","","","","",""
"html-keyboard-response","64","148268","0.0-8.0-0.56","5fa4725a186c050edc3bcc20","650c16f0f2faf8d7a0d14c09","651c1d906f385036f4234cca","null","null","<p style=""font-size: 60px; font-family: BACS"">GabkrAJu</p>","","","","","","","","",""
"html-keyboard-response","65","149278","0.0-8.0-0.57","5fa4725a186c050edc3bcc20","650c16f0f2faf8d7a0d14c09","651c1d906f385036f4234cca","null","null","<p style=""font-size: 60px; font-family: BACS"">UdYUQUbG</p>","","","","","","","","",""
"html-keyboard-response","66","150290","0.0-8.0-0.58","5fa4725a186c050edc3bcc20","650c16f0f2faf8d7a0d14c09","651c1d906f385036f4234cca","null","null","<p style=""font-size: 60px; font-family: BACS"">ALOrlLYGA</p>","","","","","","","","",""
"html-keyboard-response","67","151302","0.0-8.0-0.59","5fa4725a186c050edc3bcc20","650c16f0f2faf8d7a0d14c09","651c1d906f385036f4234cca","null","null","<p style=""font-size: 60px; font-family: BACS"">COTKYDE</p>","","","","","","","","",""
"html-keyboard-response","68","152314","0.0-8.0-0.60","5fa4725a186c050edc3bcc20","650c16f0f2faf8d7a0d14c09","651c1d906f385036f4234cca","null","null","<p style=""font-size: 60px; font-family: BACS"">JZOAkuUY</p>","","","","","","","","",""
"html-keyboard-response","69","153326","0.0-8.0-0.61","5fa4725a186c050edc3bcc20","650c16f0f2faf8d7a0d14c09","651c1d906f385036f4234cca","null","null","<p style=""font-size: 60px; font-family: BACS"">UYZlZrAJu</p>","","","","","","","","",""
"html-keyboard-response","70","154335","0.0-8.0-0.62","5fa4725a186c050edc3bcc20","650c16f0f2faf8d7a0d14c09","651c1d906f385036f4234cca","null","null","<p style=""font-size: 60px; font-family: BACS"">GabkUbG</p>","","","","","","","","",""
"html-keyboard-response","71","155347","0.0-8.0-0.63","5fa4725a186c050edc3bcc20","650c16f0f2faf8d7a0d14c09","651c1d906f385036f4234cca","null","null","<p style=""font-size: 60px; font-family: BACS"">DmAMEPMd</p>","","","","","","","","",""
"html-keyboard-response","72","156348","0.0-8.0-0.64","5fa4725a186c050edc3bcc20","650c16f0f2faf8d7a0d14c09","651c1d906f385036f4234cca","null","null","<p style=""font-size: 60px; font-family: BACS"">CchtdCdt</p>","","","","","","","","",""
"html-keyboard-response","73","157361","0.0-8.0-0.65","5fa4725a186c050edc3bcc20","650c16f0f2faf8d7a0d14c09","651c1d906f385036f4234cca","null","null","<p style=""font-size: 60px; font-family: BACS"">rcmuvLYGA</p>","","","","","","","","",""
"html-keyboard-response","74","158372","0.0-8.0-0.66","5fa4725a186c050edc3bcc20","650c16f0f2faf8d7a0d14c09","651c1d906f385036f4234cca","null","null","<p style=""font-size: 60px; font-family: BACS"">ORbkYDE</p>","","","","","","","","",""
"html-keyboard-response","75","159383","0.0-8.0-0.67","5fa4725a186c050edc3bcc20","650c16f0f2faf8d7a0d14c09","651c1d906f385036f4234cca","null","null","<p style=""font-size: 60px; font-family: BACS"">BlmclPMd</p>","","","","","","","","",""
"html-keyboard-response","76","160394","0.0-8.0-0.68","5fa4725a186c050edc3bcc20","650c16f0f2faf8d7a0d14c09","651c1d906f385036f4234cca","null","null","<p style=""font-size: 60px; font-family: BACS"">YuaNdLYGA</p>","","","","","","","","",""
"html-keyboard-response","77","161404","0.0-8.0-0.69","5fa4725a186c050edc3bcc20","650c16f0f2faf8d7a0d14c09","651c1d906f385036f4234cca","null","null","<p style=""font-size: 60px; font-family: BACS"">CchtdYDE</p>","","","","","","","","",""
"html-keyboard-response","78","162412","0.0-8.0-0.70","5fa4725a186c050edc3bcc20","650c16f0f2faf8d7a0d14c09","651c1d906f385036f4234cca","null","null","<p style=""font-size: 60px; font-family: BACS"">DmAMECdt</p>","","","","","","","","",""
"html-keyboard-response","79","163425","0.0-8.0-0.71","5fa4725a186c050edc3bcc20","650c16f0f2faf8d7a0d14c09","651c1d906f385036f4234cca","null","null","<p style=""font-size: 60px; font-family: BACS"">rcmuvrAJu</p>","","","","","","","","",""
"html-keyboard-response","80","164439","0.0-8.0-0.72","5fa4725a186c050edc3bcc20","650c16f0f2faf8d7a0d14c09","651c1d906f385036f4234cca","null","null","<p style=""font-size: 60px; font-family: BACS"">BlmclDmh</p>","","","","","","","","",""
"html-keyboard-response","81","165447","0.0-8.0-0.73","5fa4725a186c050edc3bcc20","650c16f0f2faf8d7a0d14c09","651c1d906f385036f4234cca","null","null","<p style=""font-size: 60px; font-family: BACS"">QcQAJUbG</p>","","","","","","","","",""
"html-keyboard-response","82","166456","0.0-8.0-0.74","5fa4725a186c050edc3bcc20","650c16f0f2faf8d7a0d14c09","651c1d906f385036f4234cca","null","null","<p style=""font-size: 60px; font-family: BACS"">BlmclYDE</p>","","","","","","","","",""
"html-keyboard-response","83","167465","0.0-8.0-0.75","5fa4725a186c050edc3bcc20","650c16f0f2faf8d7a0d14c09","651c1d906f385036f4234cca","null","null","<p style=""font-size: 60px; font-family: BACS"">YmBdtAY</p>","","","","","","","","",""
"html-keyboard-response","84","168472","0.0-8.0-0.76","5fa4725a186c050edc3bcc20","650c16f0f2faf8d7a0d14c09","651c1d906f385036f4234cca","null","null","<p style=""font-size: 60px; font-family: BACS"">COTKDmh</p>","","","","","","","","",""
"html-keyboard-response","85","169486","0.0-8.0-0.77","5fa4725a186c050edc3bcc20","650c16f0f2faf8d7a0d14c09","651c1d906f385036f4234cca","null","null","<p style=""font-size: 60px; font-family: BACS"">kMbTRtAY</p>","","","","","","","","",""
"html-keyboard-response","86","170497","0.0-8.0-0.78","5fa4725a186c050edc3bcc20","650c16f0f2faf8d7a0d14c09","651c1d906f385036f4234cca","null","null","<p style=""font-size: 60px; font-family: BACS"">CRdBdDmh</p>","","","","","","","","",""
"html-keyboard-response","87","171512","0.0-8.0-0.79","5fa4725a186c050edc3bcc20","650c16f0f2faf8d7a0d14c09","651c1d906f385036f4234cca","null","null","<p style=""font-size: 60px; font-family: BACS"">tcYbdYDE</p>","","","","","","","","",""
"html-keyboard-response","88","178543","0.0-9.0","5fa4725a186c050edc3bcc20","650c16f0f2faf8d7a0d14c09","651c1d906f385036f4234cca","7031"," ","<p>Great, you've seen the first block of words. You may now take a short break.</p>
      <p>Press the spacebar when you're ready to continue.</p>","","","","","","","","",""
"html-keyboard-response","89","179558","0.0-10.0-0.0","5fa4725a186c050edc3bcc20","650c16f0f2faf8d7a0d14c09","651c1d906f385036f4234cca","null","null","<p style=""font-size: 60px; font-family: BACS"">QcQAJLYGA</p>","","","","","","","","",""
"html-keyboard-response","90","180567","0.0-10.0-0.1","5fa4725a186c050edc3bcc20","650c16f0f2faf8d7a0d14c09","651c1d906f385036f4234cca","null","null","<p style=""font-size: 60px; font-family: BACS"">BlmclPMd</p>","","","","","","","","",""
"html-keyboard-response","91","181582","0.0-10.0-0.2","5fa4725a186c050edc3bcc20","650c16f0f2faf8d7a0d14c09","651c1d906f385036f4234cca","null","null","<p style=""font-size: 60px; font-family: BACS"">DmAMEDmh</p>","","","","","","","","",""
"html-keyboard-response","92","182594","0.0-10.0-0.3","5fa4725a186c050edc3bcc20","650c16f0f2faf8d7a0d14c09","651c1d906f385036f4234cca","null","null","<p style=""font-size: 60px; font-family: BACS"">tcYbdCdt</p>","","","","","","","","",""
"html-keyboard-response","93","183604","0.0-10.0-0.4","5fa4725a186c050edc3bcc20","650c16f0f2faf8d7a0d14c09","651c1d906f385036f4234cca","null","null","<p style=""font-size: 60px; font-family: BACS"">UdYUQrab</p>","","","","","","","","",""
"html-keyboard-response","94","184613","0.0-10.0-0.5","5fa4725a186c050edc3bcc20","650c16f0f2faf8d7a0d14c09","651c1d906f385036f4234cca","null","null","<p style=""font-size: 60px; font-family: BACS"">kMbTRDmh</p>","","","","","","","","",""
"html-keyboard-response","95","185622","0.0-10.0-0.6","5fa4725a186c050edc3bcc20","650c16f0f2faf8d7a0d14c09","651c1d906f385036f4234cca","null","null","<p style=""font-size: 60px; font-family: BACS"">ORbkYDE</p>","","","","","","","","",""
"html-keyboard-response","96","186636","0.0-10.0-0.7","5fa4725a186c050edc3bcc20","650c16f0f2faf8d7a0d14c09","651c1d906f385036f4234cca","null","null","<p style=""font-size: 60px; font-family: BACS"">DmAMEPMd</p>","","","","","","","","",""
"html-keyboard-response","97","187646","0.0-10.0-0.8","5fa4725a186c050edc3bcc20","650c16f0f2faf8d7a0d14c09","651c1d906f385036f4234cca","null","null","<p style=""font-size: 60px; font-family: BACS"">YuaNdLYGA</p>","","","","","","","","",""
"html-keyboard-response","98","188658","0.0-10.0-0.9","5fa4725a186c050edc3bcc20","650c16f0f2faf8d7a0d14c09","651c1d906f385036f4234cca","null","null","<p style=""font-size: 60px; font-family: BACS"">CRdBdtAY</p>","","","","","","","","",""
"html-keyboard-response","99","189660","0.0-10.0-0.10","5fa4725a186c050edc3bcc20","650c16f0f2faf8d7a0d14c09","651c1d906f385036f4234cca","null","null","<p style=""font-size: 60px; font-family: BACS"">ORbkCdt</p>","","","","","","","","",""
"html-keyboard-response","100","190667","0.0-10.0-0.11","5fa4725a186c050edc3bcc20","650c16f0f2faf8d7a0d14c09","651c1d906f385036f4234cca","null","null","<p style=""font-size: 60px; font-family: BACS"">JZOAkLYGA</p>","","","","","","","","",""
"html-keyboard-response","101","191677","0.0-10.0-0.12","5fa4725a186c050edc3bcc20","650c16f0f2faf8d7a0d14c09","651c1d906f385036f4234cca","null","null","<p style=""font-size: 60px; font-family: BACS"">Gabkrab</p>","","","","","","","","",""
"html-keyboard-response","102","192689","0.0-10.0-0.13","5fa4725a186c050edc3bcc20","650c16f0f2faf8d7a0d14c09","651c1d906f385036f4234cca","null","null","<p style=""font-size: 60px; font-family: BACS"">ALOrlUbG</p>","","","","","","","","",""
"html-keyboard-response","103","193702","0.0-10.0-0.14","5fa4725a186c050edc3bcc20","650c16f0f2faf8d7a0d14c09","651c1d906f385036f4234cca","null","null","<p style=""font-size: 60px; font-family: BACS"">YmBdtAY</p>","","","","","","","","",""
"html-keyboard-response","104","194710","0.0-10.0-0.15","5fa4725a186c050edc3bcc20","650c16f0f2faf8d7a0d14c09","651c1d906f385036f4234cca","null","null","<p style=""font-size: 60px; font-family: BACS"">UdYUQUbG</p>","","","","","","","","",""
"html-keyboard-response","105","195722","0.0-10.0-0.16","5fa4725a186c050edc3bcc20","650c16f0f2faf8d7a0d14c09","651c1d906f385036f4234cca","null","null","<p style=""font-size: 60px; font-family: BACS"">kMbTRPMd</p>","","","","","","","","",""
"html-keyboard-response","106","196727","0.0-10.0-0.17","5fa4725a186c050edc3bcc20","650c16f0f2faf8d7a0d14c09","651c1d906f385036f4234cca","null","null","<p style=""font-size: 60px; font-family: BACS"">CRdBdYDE</p>","","","","","","","","",""
"html-keyboard-response","107","197738","0.0-10.0-0.18","5fa4725a186c050edc3bcc20","650c16f0f2faf8d7a0d14c09","651c1d906f385036f4234cca","null","null","<p style=""font-size: 60px; font-family: BACS"">BlmclDmh</p>","","","","","","","","",""
"html-keyboard-response","108","198752","0.0-10.0-0.19","5fa4725a186c050edc3bcc20","650c16f0f2faf8d7a0d14c09","651c1d906f385036f4234cca","null","null","<p style=""font-size: 60px; font-family: BACS"">bYuQrAJu</p>","","","","","","","","",""
"html-keyboard-response","109","199762","0.0-10.0-0.20","5fa4725a186c050edc3bcc20","650c16f0f2faf8d7a0d14c09","651c1d906f385036f4234cca","null","null","<p style=""font-size: 60px; font-family: BACS"">tcYbdPMd</p>","","","","","","","","",""
"html-keyboard-response","110","200769","0.0-10.0-0.21","5fa4725a186c050edc3bcc20","650c16f0f2faf8d7a0d14c09","651c1d906f385036f4234cca","null","null","<p style=""font-size: 60px; font-family: BACS"">YmBdYDE</p>","","","","","","","","",""
"html-keyboard-response","111","201785","0.0-10.0-0.22","5fa4725a186c050edc3bcc20","650c16f0f2faf8d7a0d14c09","651c1d906f385036f4234cca","null","null","<p style=""font-size: 60px; font-family: BACS"">kMbTRCdt</p>","","","","","","","","",""
"html-keyboard-response","112","202797","0.0-10.0-0.23","5fa4725a186c050edc3bcc20","650c16f0f2faf8d7a0d14c09","651c1d906f385036f4234cca","null","null","<p style=""font-size: 60px; font-family: BACS"">ALOrlrAJu</p>","","","","","","","","",""
"html-keyboard-response","113","203802","0.0-10.0-0.24","5fa4725a186c050edc3bcc20","650c16f0f2faf8d7a0d14c09","651c1d906f385036f4234cca","null","null","<p style=""font-size: 60px; font-family: BACS"">JZOAkuUY</p>","","","","","","","","",""
"html-keyboard-response","114","204813","0.0-10.0-0.25","5fa4725a186c050edc3bcc20","650c16f0f2faf8d7a0d14c09","651c1d906f385036f4234cca","null","null","<p style=""font-size: 60px; font-family: BACS"">ORbkDmh</p>","","","","","","","","",""
"html-keyboard-response","115","205823","0.0-10.0-0.26","5fa4725a186c050edc3bcc20","650c16f0f2faf8d7a0d14c09","651c1d906f385036f4234cca","null","null","<p style=""font-size: 60px; font-family: BACS"">BlmclYDE</p>","","","","","","","","",""
"html-keyboard-response","116","206831","0.0-10.0-0.27","5fa4725a186c050edc3bcc20","650c16f0f2faf8d7a0d14c09","651c1d906f385036f4234cca","null","null","<p style=""font-size: 60px; font-family: BACS"">CchtdCdt</p>","","","","","","","","",""
"html-keyboard-response","117","207838","0.0-10.0-0.28","5fa4725a186c050edc3bcc20","650c16f0f2faf8d7a0d14c09","651c1d906f385036f4234cca","null","null","<p style=""font-size: 60px; font-family: BACS"">dKDthYDE</p>","","","","","","","","",""
"html-keyboard-response","118","208850","0.0-10.0-0.29","5fa4725a186c050edc3bcc20","650c16f0f2faf8d7a0d14c09","651c1d906f385036f4234cca","null","null","<p style=""font-size: 60px; font-family: BACS"">CchtdPMd</p>","","","","","","","","",""
"html-keyboard-response","119","209862","0.0-10.0-0.30","5fa4725a186c050edc3bcc20","650c16f0f2faf8d7a0d14c09","651c1d906f385036f4234cca","null","null","<p style=""font-size: 60px; font-family: BACS"">GabkrAJu</p>","","","","","","","","",""
"html-keyboard-response","120","210871","0.0-10.0-0.31","5fa4725a186c050edc3bcc20","650c16f0f2faf8d7a0d14c09","651c1d906f385036f4234cca","null","null","<p style=""font-size: 60px; font-family: BACS"">bYuQrab</p>","","","","","","","","",""
"html-keyboard-response","121","211886","0.0-10.0-0.32","5fa4725a186c050edc3bcc20","650c16f0f2faf8d7a0d14c09","651c1d906f385036f4234cca","null","null","<p style=""font-size: 60px; font-family: BACS"">dKDthDmh</p>","","","","","","","","",""
"html-keyboard-response","122","212897","0.0-10.0-0.33","5fa4725a186c050edc3bcc20","650c16f0f2faf8d7a0d14c09","651c1d906f385036f4234cca","null","null","<p style=""font-size: 60px; font-family: BACS"">rcmuvrab</p>","","","","","","","","",""
"html-keyboard-response","123","213908","0.0-10.0-0.34","5fa4725a186c050edc3bcc20","650c16f0f2faf8d7a0d14c09","651c1d906f385036f4234cca","null","null","<p style=""font-size: 60px; font-family: BACS"">YmBdPMd</p>","","","","","","","","",""
"html-keyboard-response","124","214915","0.0-10.0-0.35","5fa4725a186c050edc3bcc20","650c16f0f2faf8d7a0d14c09","651c1d906f385036f4234cca","null","null","<p style=""font-size: 60px; font-family: BACS"">dKDthtAY</p>","","","","","","","","",""
"html-keyboard-response","125","215926","0.0-10.0-0.36","5fa4725a186c050edc3bcc20","650c16f0f2faf8d7a0d14c09","651c1d906f385036f4234cca","null","null","<p style=""font-size: 60px; font-family: BACS"">COTKYDE</p>","","","","","","","","",""
"html-keyboard-response","126","216933","0.0-10.0-0.37","5fa4725a186c050edc3bcc20","650c16f0f2faf8d7a0d14c09","651c1d906f385036f4234cca","null","null","<p style=""font-size: 60px; font-family: BACS"">UaZmarAJu</p>","","","","","","","","",""
"html-keyboard-response","127","217946","0.0-10.0-0.38","5fa4725a186c050edc3bcc20","650c16f0f2faf8d7a0d14c09","651c1d906f385036f4234cca","null","null","<p style=""font-size: 60px; font-family: BACS"">GabkUbG</p>","","","","","","","","",""
"html-keyboard-response","128","218957","0.0-10.0-0.39","5fa4725a186c050edc3bcc20","650c16f0f2faf8d7a0d14c09","651c1d906f385036f4234cca","null","null","<p style=""font-size: 60px; font-family: BACS"">BlmclCdt</p>","","","","","","","","",""
"html-keyboard-response","129","219973","0.0-10.0-0.40","5fa4725a186c050edc3bcc20","650c16f0f2faf8d7a0d14c09","651c1d906f385036f4234cca","null","null","<p style=""font-size: 60px; font-family: BACS"">CRdBdPMd</p>","","","","","","","","",""
"html-keyboard-response","130","220986","0.0-10.0-0.41","5fa4725a186c050edc3bcc20","650c16f0f2faf8d7a0d14c09","651c1d906f385036f4234cca","null","null","<p style=""font-size: 60px; font-family: BACS"">YmBdCdt</p>","","","","","","","","",""
"html-keyboard-response","131","221999","0.0-10.0-0.42","5fa4725a186c050edc3bcc20","650c16f0f2faf8d7a0d14c09","651c1d906f385036f4234cca","null","null","<p style=""font-size: 60px; font-family: BACS"">ALOrluUY</p>","","","","","","","","",""
"html-keyboard-response","132","223011","0.0-10.0-0.43","5fa4725a186c050edc3bcc20","650c16f0f2faf8d7a0d14c09","651c1d906f385036f4234cca","null","null","<p style=""font-size: 60px; font-family: BACS"">rcmuvrAJu</p>","","","","","","","","",""
"html-keyboard-response","133","224021","0.0-10.0-0.44","5fa4725a186c050edc3bcc20","650c16f0f2faf8d7a0d14c09","651c1d906f385036f4234cca","null","null","<p style=""font-size: 60px; font-family: BACS"">UYZlZUbG</p>","","","","","","","","",""
"html-keyboard-response","134","225027","0.0-10.0-0.45","5fa4725a186c050edc3bcc20","650c16f0f2faf8d7a0d14c09","651c1d906f385036f4234cca","null","null","<p style=""font-size: 60px; font-family: BACS"">kMbTRtAY</p>","","","","","","","","",""
"html-keyboard-response","135","226042","0.0-10.0-0.46","5fa4725a186c050edc3bcc20","650c16f0f2faf8d7a0d14c09","651c1d906f385036f4234cca","null","null","<p style=""font-size: 60px; font-family: BACS"">UdYUQrAJu</p>","","","","","","","","",""
"html-keyboard-response","136","227053","0.0-10.0-0.47","5fa4725a186c050edc3bcc20","650c16f0f2faf8d7a0d14c09","651c1d906f385036f4234cca","null","null","<p style=""font-size: 60px; font-family: BACS"">rcmuvuUY</p>","","","","","","","","",""
"html-keyboard-response","137","228064","0.0-10.0-0.48","5fa4725a186c050edc3bcc20","650c16f0f2faf8d7a0d14c09","651c1d906f385036f4234cca","null","null","<p style=""font-size: 60px; font-family: BACS"">DmAMECdt</p>","","","","","","","","",""
"html-keyboard-response","138","229074","0.0-10.0-0.49","5fa4725a186c050edc3bcc20","650c16f0f2faf8d7a0d14c09","651c1d906f385036f4234cca","null","null","<p style=""font-size: 60px; font-family: BACS"">UaZmaUbG</p>","","","","","","","","",""
"html-keyboard-response","139","230088","0.0-10.0-0.50","5fa4725a186c050edc3bcc20","650c16f0f2faf8d7a0d14c09","651c1d906f385036f4234cca","null","null","<p style=""font-size: 60px; font-family: BACS"">CchtdtAY</p>","","","","","","","","",""
"html-keyboard-response","140","231098","0.0-10.0-0.51","5fa4725a186c050edc3bcc20","650c16f0f2faf8d7a0d14c09","651c1d906f385036f4234cca","null","null","<p style=""font-size: 60px; font-family: BACS"">CRdBdDmh</p>","","","","","","","","",""
"html-keyboard-response","141","232107","0.0-10.0-0.52","5fa4725a186c050edc3bcc20","650c16f0f2faf8d7a0d14c09","651c1d906f385036f4234cca","null","null","<p style=""font-size: 60px; font-family: BACS"">DmAMEtAY</p>","","","","","","","","",""
"html-keyboard-response","142","233116","0.0-10.0-0.53","5fa4725a186c050edc3bcc20","650c16f0f2faf8d7a0d14c09","651c1d906f385036f4234cca","null","null","<p style=""font-size: 60px; font-family: BACS"">dKDthCdt</p>","","","","","","","","",""
"html-keyboard-response","143","234126","0.0-10.0-0.54","5fa4725a186c050edc3bcc20","650c16f0f2faf8d7a0d14c09","651c1d906f385036f4234cca","null","null","<p style=""font-size: 60px; font-family: BACS"">ORbktAY</p>","","","","","","","","",""
"html-keyboard-response","144","235136","0.0-10.0-0.55","5fa4725a186c050edc3bcc20","650c16f0f2faf8d7a0d14c09","651c1d906f385036f4234cca","null","null","<p style=""font-size: 60px; font-family: BACS"">tcYbdDmh</p>","","","","","","","","",""
"html-keyboard-response","145","236137","0.0-10.0-0.56","5fa4725a186c050edc3bcc20","650c16f0f2faf8d7a0d14c09","651c1d906f385036f4234cca","null","null","<p style=""font-size: 60px; font-family: BACS"">UYZlZrAJu</p>","","","","","","","","",""
"html-keyboard-response","146","237145","0.0-10.0-0.57","5fa4725a186c050edc3bcc20","650c16f0f2faf8d7a0d14c09","651c1d906f385036f4234cca","null","null","<p style=""font-size: 60px; font-family: BACS"">JZOAkrab</p>","","","","","","","","",""
"html-keyboard-response","147","238154","0.0-10.0-0.58","5fa4725a186c050edc3bcc20","650c16f0f2faf8d7a0d14c09","651c1d906f385036f4234cca","null","null","<p style=""font-size: 60px; font-family: BACS"">COTKPMd</p>","","","","","","","","",""
"html-keyboard-response","148","239166","0.0-10.0-0.59","5fa4725a186c050edc3bcc20","650c16f0f2faf8d7a0d14c09","651c1d906f385036f4234cca","null","null","<p style=""font-size: 60px; font-family: BACS"">QcQAJuUY</p>","","","","","","","","",""
"html-keyboard-response","149","240178","0.0-10.0-0.60","5fa4725a186c050edc3bcc20","650c16f0f2faf8d7a0d14c09","651c1d906f385036f4234cca","null","null","<p style=""font-size: 60px; font-family: BACS"">COTKtAY</p>","","","","","","","","",""
"html-keyboard-response","150","241188","0.0-10.0-0.61","5fa4725a186c050edc3bcc20","650c16f0f2faf8d7a0d14c09","651c1d906f385036f4234cca","null","null","<p style=""font-size: 60px; font-family: BACS"">QcQAJUbG</p>","","","","","","","","",""
"html-keyboard-response","151","242201","0.0-10.0-0.62","5fa4725a186c050edc3bcc20","650c16f0f2faf8d7a0d14c09","651c1d906f385036f4234cca","null","null","<p style=""font-size: 60px; font-family: BACS"">YuaNdrab</p>","","","","","","","","",""
"html-keyboard-response","152","243210","0.0-10.0-0.63","5fa4725a186c050edc3bcc20","650c16f0f2faf8d7a0d14c09","651c1d906f385036f4234cca","null","null","<p style=""font-size: 60px; font-family: BACS"">COTKDmh</p>","","","","","","","","",""
"html-keyboard-response","153","244219","0.0-10.0-0.64","5fa4725a186c050edc3bcc20","650c16f0f2faf8d7a0d14c09","651c1d906f385036f4234cca","null","null","<p style=""font-size: 60px; font-family: BACS"">JZOAkrAJu</p>","","","","","","","","",""
"html-keyboard-response","154","245233","0.0-10.0-0.65","5fa4725a186c050edc3bcc20","650c16f0f2faf8d7a0d14c09","651c1d906f385036f4234cca","null","null","<p style=""font-size: 60px; font-family: BACS"">YuaNdUbG</p>","","","","","","","","",""
"html-keyboard-response","155","246243","0.0-10.0-0.66","5fa4725a186c050edc3bcc20","650c16f0f2faf8d7a0d14c09","651c1d906f385036f4234cca","null","null","<p style=""font-size: 60px; font-family: BACS"">GabkLYGA</p>","","","","","","","","",""
"html-keyboard-response","156","247253","0.0-10.0-0.67","5fa4725a186c050edc3bcc20","650c16f0f2faf8d7a0d14c09","651c1d906f385036f4234cca","null","null","<p style=""font-size: 60px; font-family: BACS"">UdYUQuUY</p>","","","","","","","","",""
"html-keyboard-response","157","248267","0.0-10.0-0.68","5fa4725a186c050edc3bcc20","650c16f0f2faf8d7a0d14c09","651c1d906f385036f4234cca","null","null","<p style=""font-size: 60px; font-family: BACS"">CchtdYDE</p>","","","","","","","","",""
"html-keyboard-response","158","249278","0.0-10.0-0.69","5fa4725a186c050edc3bcc20","650c16f0f2faf8d7a0d14c09","651c1d906f385036f4234cca","null","null","<p style=""font-size: 60px; font-family: BACS"">ALOrlLYGA</p>","","","","","","","","",""
"html-keyboard-response","159","250290","0.0-10.0-0.70","5fa4725a186c050edc3bcc20","650c16f0f2faf8d7a0d14c09","651c1d906f385036f4234cca","null","null","<p style=""font-size: 60px; font-family: BACS"">bYuQUbG</p>","","","","","","","","",""
"html-keyboard-response","160","251298","0.0-10.0-0.71","5fa4725a186c050edc3bcc20","650c16f0f2faf8d7a0d14c09","651c1d906f385036f4234cca","null","null","<p style=""font-size: 60px; font-family: BACS"">UYZlZLYGA</p>","","","","","","","","",""
"html-keyboard-response","161","252302","0.0-10.0-0.72","5fa4725a186c050edc3bcc20","650c16f0f2faf8d7a0d14c09","651c1d906f385036f4234cca","null","null","<p style=""font-size: 60px; font-family: BACS"">UaZmarab</p>","","","","","","","","",""
"html-keyboard-response","162","253311","0.0-10.0-0.73","5fa4725a186c050edc3bcc20","650c16f0f2faf8d7a0d14c09","651c1d906f385036f4234cca","null","null","<p style=""font-size: 60px; font-family: BACS"">rcmuvLYGA</p>","","","","","","","","",""
"html-keyboard-response","163","254317","0.0-10.0-0.74","5fa4725a186c050edc3bcc20","650c16f0f2faf8d7a0d14c09","651c1d906f385036f4234cca","null","null","<p style=""font-size: 60px; font-family: BACS"">YuaNduUY</p>","","","","","","","","",""
"html-keyboard-response","164","255325","0.0-10.0-0.75","5fa4725a186c050edc3bcc20","650c16f0f2faf8d7a0d14c09","651c1d906f385036f4234cca","null","null","<p style=""font-size: 60px; font-family: BACS"">QcQAJrab</p>","","","","","","","","",""
"html-keyboard-response","165","256335","0.0-10.0-0.76","5fa4725a186c050edc3bcc20","650c16f0f2faf8d7a0d14c09","651c1d906f385036f4234cca","null","null","<p style=""font-size: 60px; font-family: BACS"">UYZlZuUY</p>","","","","","","","","",""
"html-keyboard-response","166","257342","0.0-10.0-0.77","5fa4725a186c050edc3bcc20","650c16f0f2faf8d7a0d14c09","651c1d906f385036f4234cca","null","null","<p style=""font-size: 60px; font-family: BACS"">UaZmaLYGA</p>","","","","","","","","",""
"html-keyboard-response","167","258352","0.0-10.0-0.78","5fa4725a186c050edc3bcc20","650c16f0f2faf8d7a0d14c09","651c1d906f385036f4234cca","null","null","<p style=""font-size: 60px; font-family: BACS"">tcYbdYDE</p>","","","","","","","","",""
"html-keyboard-response","168","259358","0.0-10.0-0.79","5fa4725a186c050edc3bcc20","650c16f0f2faf8d7a0d14c09","651c1d906f385036f4234cca","null","null","<p style=""font-size: 60px; font-family: BACS"">bYuQuUY</p>","","","","","","","","",""
"html-keyboard-response","169","294344","0.0-11.0","5fa4725a186c050edc3bcc20","650c16f0f2faf8d7a0d14c09","651c1d906f385036f4234cca","34985"," ","<p>Great, you've seen the second block of words. You may now take a short break.</p>
      <p>Press the spacebar when you're ready to continue.</p>","","","","","","","","",""
"html-keyboard-response","170","295348","0.0-12.0-0.0","5fa4725a186c050edc3bcc20","650c16f0f2faf8d7a0d14c09","651c1d906f385036f4234cca","null","null","<p style=""font-size: 60px; font-family: BACS"">GabkUbG</p>","","","","","","","","",""
"html-keyboard-response","171","296362","0.0-12.0-0.1","5fa4725a186c050edc3bcc20","650c16f0f2faf8d7a0d14c09","651c1d906f385036f4234cca","null","null","<p style=""font-size: 60px; font-family: BACS"">JZOAkrAJu</p>","","","","","","","","",""
"html-keyboard-response","172","297378","0.0-12.0-0.2","5fa4725a186c050edc3bcc20","650c16f0f2faf8d7a0d14c09","651c1d906f385036f4234cca","null","null","<p style=""font-size: 60px; font-family: BACS"">tcYbdPMd</p>","","","","","","","","",""
"html-keyboard-response","173","298387","0.0-12.0-0.3","5fa4725a186c050edc3bcc20","650c16f0f2faf8d7a0d14c09","651c1d906f385036f4234cca","null","null","<p style=""font-size: 60px; font-family: BACS"">YmBdCdt</p>","","","","","","","","",""
"html-keyboard-response","174","299395","0.0-12.0-0.4","5fa4725a186c050edc3bcc20","650c16f0f2faf8d7a0d14c09","651c1d906f385036f4234cca","null","null","<p style=""font-size: 60px; font-family: BACS"">JZOAkrab</p>","","","","","","","","",""
"html-keyboard-response","175","300407","0.0-12.0-0.5","5fa4725a186c050edc3bcc20","650c16f0f2faf8d7a0d14c09","651c1d906f385036f4234cca","null","null","<p style=""font-size: 60px; font-family: BACS"">UaZmaUbG</p>","","","","","","","","",""
"html-keyboard-response","176","301419","0.0-12.0-0.6","5fa4725a186c050edc3bcc20","650c16f0f2faf8d7a0d14c09","651c1d906f385036f4234cca","null","null","<p style=""font-size: 60px; font-family: BACS"">DmAMECdt</p>","","","","","","","","",""
"html-keyboard-response","177","302433","0.0-12.0-0.7","5fa4725a186c050edc3bcc20","650c16f0f2faf8d7a0d14c09","651c1d906f385036f4234cca","null","null","<p style=""font-size: 60px; font-family: BACS"">tcYbdDmh</p>","","","","","","","","",""
"html-keyboard-response","178","303446","0.0-12.0-0.8","5fa4725a186c050edc3bcc20","650c16f0f2faf8d7a0d14c09","651c1d906f385036f4234cca","null","null","<p style=""font-size: 60px; font-family: BACS"">UdYUQUbG</p>","","","","","","","","",""
"html-keyboard-response","179","304448","0.0-12.0-0.9","5fa4725a186c050edc3bcc20","650c16f0f2faf8d7a0d14c09","651c1d906f385036f4234cca","null","null","<p style=""font-size: 60px; font-family: BACS"">QcQAJrab</p>","","","","","","","","",""
"html-keyboard-response","180","305454","0.0-12.0-0.10","5fa4725a186c050edc3bcc20","650c16f0f2faf8d7a0d14c09","651c1d906f385036f4234cca","null","null","<p style=""font-size: 60px; font-family: BACS"">ORbkYDE</p>","","","","","","","","",""
"html-keyboard-response","181","306466","0.0-12.0-0.11","5fa4725a186c050edc3bcc20","650c16f0f2faf8d7a0d14c09","651c1d906f385036f4234cca","null","null","<p style=""font-size: 60px; font-family: BACS"">Gabkrab</p>","","","","","","","","",""
"html-keyboard-response","182","307477","0.0-12.0-0.12","5fa4725a186c050edc3bcc20","650c16f0f2faf8d7a0d14c09","651c1d906f385036f4234cca","null","null","<p style=""font-size: 60px; font-family: BACS"">dKDthYDE</p>","","","","","","","","",""
"html-keyboard-response","183","308492","0.0-12.0-0.13","5fa4725a186c050edc3bcc20","650c16f0f2faf8d7a0d14c09","651c1d906f385036f4234cca","null","null","<p style=""font-size: 60px; font-family: BACS"">UdYUQrab</p>","","","","","","","","",""
"html-keyboard-response","184","309502","0.0-12.0-0.14","5fa4725a186c050edc3bcc20","650c16f0f2faf8d7a0d14c09","651c1d906f385036f4234cca","null","null","<p style=""font-size: 60px; font-family: BACS"">UYZlZuUY</p>","","","","","","","","",""
"html-keyboard-response","185","310512","0.0-12.0-0.15","5fa4725a186c050edc3bcc20","650c16f0f2faf8d7a0d14c09","651c1d906f385036f4234cca","null","null","<p style=""font-size: 60px; font-family: BACS"">rcmuvrAJu</p>","","","","","","","","",""
"html-keyboard-response","186","311528","0.0-12.0-0.16","5fa4725a186c050edc3bcc20","650c16f0f2faf8d7a0d14c09","651c1d906f385036f4234cca","null","null","<p style=""font-size: 60px; font-family: BACS"">COTKYDE</p>","","","","","","","","",""
"html-keyboard-response","187","312538","0.0-12.0-0.17","5fa4725a186c050edc3bcc20","650c16f0f2faf8d7a0d14c09","651c1d906f385036f4234cca","null","null","<p style=""font-size: 60px; font-family: BACS"">DmAMEtAY</p>","","","","","","","","",""
"html-keyboard-response","188","313549","0.0-12.0-0.18","5fa4725a186c050edc3bcc20","650c16f0f2faf8d7a0d14c09","651c1d906f385036f4234cca","null","null","<p style=""font-size: 60px; font-family: BACS"">YuaNdrab</p>","","","","","","","","",""
"html-keyboard-response","189","314561","0.0-12.0-0.19","5fa4725a186c050edc3bcc20","650c16f0f2faf8d7a0d14c09","651c1d906f385036f4234cca","null","null","<p style=""font-size: 60px; font-family: BACS"">CchtdtAY</p>","","","","","","","","",""
"html-keyboard-response","190","315563","0.0-12.0-0.20","5fa4725a186c050edc3bcc20","650c16f0f2faf8d7a0d14c09","651c1d906f385036f4234cca","null","null","<p style=""font-size: 60px; font-family: BACS"">YuaNduUY</p>","","","","","","","","",""
"html-keyboard-response","191","316567","0.0-12.0-0.21","5fa4725a186c050edc3bcc20","650c16f0f2faf8d7a0d14c09","651c1d906f385036f4234cca","null","null","<p style=""font-size: 60px; font-family: BACS"">UYZlZrAJu</p>","","","","","","","","",""
"html-keyboard-response","192","317577","0.0-12.0-0.22","5fa4725a186c050edc3bcc20","650c16f0f2faf8d7a0d14c09","651c1d906f385036f4234cca","null","null","<p style=""font-size: 60px; font-family: BACS"">dKDthtAY</p>","","","","","","","","",""
"html-keyboard-response","193","318580","0.0-12.0-0.23","5fa4725a186c050edc3bcc20","650c16f0f2faf8d7a0d14c09","651c1d906f385036f4234cca","null","null","<p style=""font-size: 60px; font-family: BACS"">CchtdCdt</p>","","","","","","","","",""
"html-keyboard-response","194","319590","0.0-12.0-0.24","5fa4725a186c050edc3bcc20","650c16f0f2faf8d7a0d14c09","651c1d906f385036f4234cca","null","null","<p style=""font-size: 60px; font-family: BACS"">COTKDmh</p>","","","","","","","","",""
"html-keyboard-response","195","320599","0.0-12.0-0.25","5fa4725a186c050edc3bcc20","650c16f0f2faf8d7a0d14c09","651c1d906f385036f4234cca","null","null","<p style=""font-size: 60px; font-family: BACS"">bYuQUbG</p>","","","","","","","","",""
"html-keyboard-response","196","321609","0.0-12.0-0.26","5fa4725a186c050edc3bcc20","650c16f0f2faf8d7a0d14c09","651c1d906f385036f4234cca","null","null","<p style=""font-size: 60px; font-family: BACS"">CchtdPMd</p>","","","","","","","","",""
"html-keyboard-response","197","322615","0.0-12.0-0.27","5fa4725a186c050edc3bcc20","650c16f0f2faf8d7a0d14c09","651c1d906f385036f4234cca","null","null","<p style=""font-size: 60px; font-family: BACS"">DmAMEDmh</p>","","","","","","","","",""
"html-keyboard-response","198","323627","0.0-12.0-0.28","5fa4725a186c050edc3bcc20","650c16f0f2faf8d7a0d14c09","651c1d906f385036f4234cca","null","null","<p style=""font-size: 60px; font-family: BACS"">ALOrlrAJu</p>","","","","","","","","",""
"html-keyboard-response","199","324640","0.0-12.0-0.29","5fa4725a186c050edc3bcc20","650c16f0f2faf8d7a0d14c09","651c1d906f385036f4234cca","null","null","<p style=""font-size: 60px; font-family: BACS"">UYZlZLYGA</p>","","","","","","","","",""
"html-keyboard-response","200","325652","0.0-12.0-0.30","5fa4725a186c050edc3bcc20","650c16f0f2faf8d7a0d14c09","651c1d906f385036f4234cca","null","null","<p style=""font-size: 60px; font-family: BACS"">bYuQuUY</p>","","","","","","","","",""
"html-keyboard-response","201","326667","0.0-12.0-0.31","5fa4725a186c050edc3bcc20","650c16f0f2faf8d7a0d14c09","651c1d906f385036f4234cca","null","null","<p style=""font-size: 60px; font-family: BACS"">rcmuvrab</p>","","","","","","","","",""
"html-keyboard-response","202","327668","0.0-12.0-0.32","5fa4725a186c050edc3bcc20","650c16f0f2faf8d7a0d14c09","651c1d906f385036f4234cca","null","null","<p style=""font-size: 60px; font-family: BACS"">BlmclYDE</p>","","","","","","","","",""
"html-keyboard-response","203","328677","0.0-12.0-0.33","5fa4725a186c050edc3bcc20","650c16f0f2faf8d7a0d14c09","651c1d906f385036f4234cca","null","null","<p style=""font-size: 60px; font-family: BACS"">JZOAkLYGA</p>","","","","","","","","",""
"html-keyboard-response","204","329690","0.0-12.0-0.34","5fa4725a186c050edc3bcc20","650c16f0f2faf8d7a0d14c09","651c1d906f385036f4234cca","null","null","<p style=""font-size: 60px; font-family: BACS"">QcQAJuUY</p>","","","","","","","","",""
"html-keyboard-response","205","330702","0.0-12.0-0.35","5fa4725a186c050edc3bcc20","650c16f0f2faf8d7a0d14c09","651c1d906f385036f4234cca","null","null","<p style=""font-size: 60px; font-family: BACS"">CRdBdDmh</p>","","","","","","","","",""
"html-keyboard-response","206","331715","0.0-12.0-0.36","5fa4725a186c050edc3bcc20","650c16f0f2faf8d7a0d14c09","651c1d906f385036f4234cca","null","null","<p style=""font-size: 60px; font-family: BACS"">ORbkCdt</p>","","","","","","","","",""
"html-keyboard-response","207","332728","0.0-12.0-0.37","5fa4725a186c050edc3bcc20","650c16f0f2faf8d7a0d14c09","651c1d906f385036f4234cca","null","null","<p style=""font-size: 60px; font-family: BACS"">rcmuvLYGA</p>","","","","","","","","",""
"html-keyboard-response","208","333741","0.0-12.0-0.38","5fa4725a186c050edc3bcc20","650c16f0f2faf8d7a0d14c09","651c1d906f385036f4234cca","null","null","<p style=""font-size: 60px; font-family: BACS"">CRdBdYDE</p>","","","","","","","","",""
"html-keyboard-response","209","334754","0.0-12.0-0.39","5fa4725a186c050edc3bcc20","650c16f0f2faf8d7a0d14c09","651c1d906f385036f4234cca","null","null","<p style=""font-size: 60px; font-family: BACS"">BlmclPMd</p>","","","","","","","","",""
"html-keyboard-response","210","335766","0.0-12.0-0.40","5fa4725a186c050edc3bcc20","650c16f0f2faf8d7a0d14c09","651c1d906f385036f4234cca","null","null","<p style=""font-size: 60px; font-family: BACS"">kMbTRCdt</p>","","","","","","","","",""
"html-keyboard-response","211","336777","0.0-12.0-0.41","5fa4725a186c050edc3bcc20","650c16f0f2faf8d7a0d14c09","651c1d906f385036f4234cca","null","null","<p style=""font-size: 60px; font-family: BACS"">UdYUQrAJu</p>","","","","","","","","",""
"html-keyboard-response","212","337786","0.0-12.0-0.42","5fa4725a186c050edc3bcc20","650c16f0f2faf8d7a0d14c09","651c1d906f385036f4234cca","null","null","<p style=""font-size: 60px; font-family: BACS"">BlmclDmh</p>","","","","","","","","",""
"html-keyboard-response","213","338798","0.0-12.0-0.43","5fa4725a186c050edc3bcc20","650c16f0f2faf8d7a0d14c09","651c1d906f385036f4234cca","null","null","<p style=""font-size: 60px; font-family: BACS"">UaZmaLYGA</p>","","","","","","","","",""
"html-keyboard-response","214","339810","0.0-12.0-0.44","5fa4725a186c050edc3bcc20","650c16f0f2faf8d7a0d14c09","651c1d906f385036f4234cca","null","null","<p style=""font-size: 60px; font-family: BACS"">GabkrAJu</p>","","","","","","","","",""
"html-keyboard-response","215","340820","0.0-12.0-0.45","5fa4725a186c050edc3bcc20","650c16f0f2faf8d7a0d14c09","651c1d906f385036f4234cca","null","null","<p style=""font-size: 60px; font-family: BACS"">YmBdtAY</p>","","","","","","","","",""
"html-keyboard-response","216","341829","0.0-12.0-0.46","5fa4725a186c050edc3bcc20","650c16f0f2faf8d7a0d14c09","651c1d906f385036f4234cca","null","null","<p style=""font-size: 60px; font-family: BACS"">ALOrlLYGA</p>","","","","","","","","",""
"html-keyboard-response","217","342841","0.0-12.0-0.47","5fa4725a186c050edc3bcc20","650c16f0f2faf8d7a0d14c09","651c1d906f385036f4234cca","null","null","<p style=""font-size: 60px; font-family: BACS"">BlmclCdt</p>","","","","","","","","",""
"html-keyboard-response","218","343855","0.0-12.0-0.48","5fa4725a186c050edc3bcc20","650c16f0f2faf8d7a0d14c09","651c1d906f385036f4234cca","null","null","<p style=""font-size: 60px; font-family: BACS"">QcQAJLYGA</p>","","","","","","","","",""
"html-keyboard-response","219","344861","0.0-12.0-0.49","5fa4725a186c050edc3bcc20","650c16f0f2faf8d7a0d14c09","651c1d906f385036f4234cca","null","null","<p style=""font-size: 60px; font-family: BACS"">UdYUQuUY</p>","","","","","","","","",""
"html-keyboard-response","220","345873","0.0-12.0-0.50","5fa4725a186c050edc3bcc20","650c16f0f2faf8d7a0d14c09","651c1d906f385036f4234cca","null","null","<p style=""font-size: 60px; font-family: BACS"">CchtdYDE</p>","","","","","","","","",""
"html-keyboard-response","221","346887","0.0-12.0-0.51","5fa4725a186c050edc3bcc20","650c16f0f2faf8d7a0d14c09","651c1d906f385036f4234cca","null","null","<p style=""font-size: 60px; font-family: BACS"">YuaNdUbG</p>","","","","","","","","",""
"html-keyboard-response","222","347895","0.0-12.0-0.52","5fa4725a186c050edc3bcc20","650c16f0f2faf8d7a0d14c09","651c1d906f385036f4234cca","null","null","<p style=""font-size: 60px; font-family: BACS"">UaZmarab</p>","","","","","","","","",""
"html-keyboard-response","223","348906","0.0-12.0-0.53","5fa4725a186c050edc3bcc20","650c16f0f2faf8d7a0d14c09","651c1d906f385036f4234cca","null","null","<p style=""font-size: 60px; font-family: BACS"">tcYbdCdt</p>","","","","","","","","",""
"html-keyboard-response","224","349914","0.0-12.0-0.54","5fa4725a186c050edc3bcc20","650c16f0f2faf8d7a0d14c09","651c1d906f385036f4234cca","null","null","<p style=""font-size: 60px; font-family: BACS"">bYuQrAJu</p>","","","","","","","","",""
"html-keyboard-response","225","350926","0.0-12.0-0.55","5fa4725a186c050edc3bcc20","650c16f0f2faf8d7a0d14c09","651c1d906f385036f4234cca","null","null","<p style=""font-size: 60px; font-family: BACS"">ORbkDmh</p>","","","","","","","","",""
"html-keyboard-response","226","351938","0.0-12.0-0.56","5fa4725a186c050edc3bcc20","650c16f0f2faf8d7a0d14c09","651c1d906f385036f4234cca","null","null","<p style=""font-size: 60px; font-family: BACS"">QcQAJUbG</p>","","","","","","","","",""
"html-keyboard-response","227","352946","0.0-12.0-0.57","5fa4725a186c050edc3bcc20","650c16f0f2faf8d7a0d14c09","651c1d906f385036f4234cca","null","null","<p style=""font-size: 60px; font-family: BACS"">tcYbdYDE</p>","","","","","","","","",""
"html-keyboard-response","228","353955","0.0-12.0-0.58","5fa4725a186c050edc3bcc20","650c16f0f2faf8d7a0d14c09","651c1d906f385036f4234cca","null","null","<p style=""font-size: 60px; font-family: BACS"">COTKtAY</p>","","","","","","","","",""
"html-keyboard-response","229","354966","0.0-12.0-0.59","5fa4725a186c050edc3bcc20","650c16f0f2faf8d7a0d14c09","651c1d906f385036f4234cca","null","null","<p style=""font-size: 60px; font-family: BACS"">CRdBdPMd</p>","","","","","","","","",""
"html-keyboard-response","230","355978","0.0-12.0-0.60","5fa4725a186c050edc3bcc20","650c16f0f2faf8d7a0d14c09","651c1d906f385036f4234cca","null","null","<p style=""font-size: 60px; font-family: BACS"">dKDthCdt</p>","","","","","","","","",""
"html-keyboard-response","231","356992","0.0-12.0-0.61","5fa4725a186c050edc3bcc20","650c16f0f2faf8d7a0d14c09","651c1d906f385036f4234cca","null","null","<p style=""font-size: 60px; font-family: BACS"">DmAMEPMd</p>","","","","","","","","",""
"html-keyboard-response","232","358003","0.0-12.0-0.62","5fa4725a186c050edc3bcc20","650c16f0f2faf8d7a0d14c09","651c1d906f385036f4234cca","null","null","<p style=""font-size: 60px; font-family: BACS"">kMbTRDmh</p>","","","","","","","","",""
"html-keyboard-response","233","359014","0.0-12.0-0.63","5fa4725a186c050edc3bcc20","650c16f0f2faf8d7a0d14c09","651c1d906f385036f4234cca","null","null","<p style=""font-size: 60px; font-family: BACS"">YmBdYDE</p>","","","","","","","","",""
"html-keyboard-response","234","360017","0.0-12.0-0.64","5fa4725a186c050edc3bcc20","650c16f0f2faf8d7a0d14c09","651c1d906f385036f4234cca","null","null","<p style=""font-size: 60px; font-family: BACS"">UaZmarAJu</p>","","","","","","","","",""
"html-keyboard-response","235","361028","0.0-12.0-0.65","5fa4725a186c050edc3bcc20","650c16f0f2faf8d7a0d14c09","651c1d906f385036f4234cca","null","null","<p style=""font-size: 60px; font-family: BACS"">UYZlZUbG</p>","","","","","","","","",""
"html-keyboard-response","236","362043","0.0-12.0-0.66","5fa4725a186c050edc3bcc20","650c16f0f2faf8d7a0d14c09","651c1d906f385036f4234cca","null","null","<p style=""font-size: 60px; font-family: BACS"">ALOrluUY</p>","","","","","","","","",""
"html-keyboard-response","237","363055","0.0-12.0-0.67","5fa4725a186c050edc3bcc20","650c16f0f2faf8d7a0d14c09","651c1d906f385036f4234cca","null","null","<p style=""font-size: 60px; font-family: BACS"">kMbTRtAY</p>","","","","","","","","",""
"html-keyboard-response","238","364066","0.0-12.0-0.68","5fa4725a186c050edc3bcc20","650c16f0f2faf8d7a0d14c09","651c1d906f385036f4234cca","null","null","<p style=""font-size: 60px; font-family: BACS"">YuaNdLYGA</p>","","","","","","","","",""
"html-keyboard-response","239","365071","0.0-12.0-0.69","5fa4725a186c050edc3bcc20","650c16f0f2faf8d7a0d14c09","651c1d906f385036f4234cca","null","null","<p style=""font-size: 60px; font-family: BACS"">kMbTRPMd</p>","","","","","","","","",""
"html-keyboard-response","240","366083","0.0-12.0-0.70","5fa4725a186c050edc3bcc20","650c16f0f2faf8d7a0d14c09","651c1d906f385036f4234cca","null","null","<p style=""font-size: 60px; font-family: BACS"">bYuQrab</p>","","","","","","","","",""
"html-keyboard-response","241","367096","0.0-12.0-0.71","5fa4725a186c050edc3bcc20","650c16f0f2faf8d7a0d14c09","651c1d906f385036f4234cca","null","null","<p style=""font-size: 60px; font-family: BACS"">ALOrlUbG</p>","","","","","","","","",""
"html-keyboard-response","242","368110","0.0-12.0-0.72","5fa4725a186c050edc3bcc20","650c16f0f2faf8d7a0d14c09","651c1d906f385036f4234cca","null","null","<p style=""font-size: 60px; font-family: BACS"">YmBdPMd</p>","","","","","","","","",""
"html-keyboard-response","243","369119","0.0-12.0-0.73","5fa4725a186c050edc3bcc20","650c16f0f2faf8d7a0d14c09","651c1d906f385036f4234cca","null","null","<p style=""font-size: 60px; font-family: BACS"">ORbktAY</p>","","","","","","","","",""
"html-keyboard-response","244","370129","0.0-12.0-0.74","5fa4725a186c050edc3bcc20","650c16f0f2faf8d7a0d14c09","651c1d906f385036f4234cca","null","null","<p style=""font-size: 60px; font-family: BACS"">JZOAkuUY</p>","","","","","","","","",""
"html-keyboard-response","245","371146","0.0-12.0-0.75","5fa4725a186c050edc3bcc20","650c16f0f2faf8d7a0d14c09","651c1d906f385036f4234cca","null","null","<p style=""font-size: 60px; font-family: BACS"">CRdBdtAY</p>","","","","","","","","",""
"html-keyboard-response","246","372159","0.0-12.0-0.76","5fa4725a186c050edc3bcc20","650c16f0f2faf8d7a0d14c09","651c1d906f385036f4234cca","null","null","<p style=""font-size: 60px; font-family: BACS"">rcmuvuUY</p>","","","","","","","","",""
"html-keyboard-response","247","373165","0.0-12.0-0.77","5fa4725a186c050edc3bcc20","650c16f0f2faf8d7a0d14c09","651c1d906f385036f4234cca","null","null","<p style=""font-size: 60px; font-family: BACS"">dKDthDmh</p>","","","","","","","","",""
"html-keyboard-response","248","374180","0.0-12.0-0.78","5fa4725a186c050edc3bcc20","650c16f0f2faf8d7a0d14c09","651c1d906f385036f4234cca","null","null","<p style=""font-size: 60px; font-family: BACS"">GabkLYGA</p>","","","","","","","","",""
"html-keyboard-response","249","375187","0.0-12.0-0.79","5fa4725a186c050edc3bcc20","650c16f0f2faf8d7a0d14c09","651c1d906f385036f4234cca","null","null","<p style=""font-size: 60px; font-family: BACS"">COTKPMd</p>","","","","","","","","",""
"html-keyboard-response","250","378919","0.0-13.0","5fa4725a186c050edc3bcc20","650c16f0f2faf8d7a0d14c09","651c1d906f385036f4234cca","3732"," ","<p>Great, you've seen the third block of words. You may now take a short break.</p>
      <p>Press the spacebar when you're ready to continue.</p>","","","","","","","","",""
"html-keyboard-response","251","379935","0.0-14.0-0.0","5fa4725a186c050edc3bcc20","650c16f0f2faf8d7a0d14c09","651c1d906f385036f4234cca","null","null","<p style=""font-size: 60px; font-family: BACS"">UaZmarAJu</p>","","","","","","","","",""
"html-keyboard-response","252","380948","0.0-14.0-0.1","5fa4725a186c050edc3bcc20","650c16f0f2faf8d7a0d14c09","651c1d906f385036f4234cca","null","null","<p style=""font-size: 60px; font-family: BACS"">ALOrlUbG</p>","","","","","","","","",""
"html-keyboard-response","253","381956","0.0-14.0-0.2","5fa4725a186c050edc3bcc20","650c16f0f2faf8d7a0d14c09","651c1d906f385036f4234cca","null","null","<p style=""font-size: 60px; font-family: BACS"">YmBdCdt</p>","","","","","","","","",""
"html-keyboard-response","254","382964","0.0-14.0-0.3","5fa4725a186c050edc3bcc20","650c16f0f2faf8d7a0d14c09","651c1d906f385036f4234cca","null","null","<p style=""font-size: 60px; font-family: BACS"">CRdBdtAY</p>","","","","","","","","",""
"html-keyboard-response","255","383980","0.0-14.0-0.4","5fa4725a186c050edc3bcc20","650c16f0f2faf8d7a0d14c09","651c1d906f385036f4234cca","null","null","<p style=""font-size: 60px; font-family: BACS"">ALOrluUY</p>","","","","","","","","",""
"html-keyboard-response","256","384992","0.0-14.0-0.5","5fa4725a186c050edc3bcc20","650c16f0f2faf8d7a0d14c09","651c1d906f385036f4234cca","null","null","<p style=""font-size: 60px; font-family: BACS"">UdYUQrAJu</p>","","","","","","","","",""
"html-keyboard-response","257","386001","0.0-14.0-0.6","5fa4725a186c050edc3bcc20","650c16f0f2faf8d7a0d14c09","651c1d906f385036f4234cca","null","null","<p style=""font-size: 60px; font-family: BACS"">UaZmarab</p>","","","","","","","","",""
"html-keyboard-response","258","387014","0.0-14.0-0.7","5fa4725a186c050edc3bcc20","650c16f0f2faf8d7a0d14c09","651c1d906f385036f4234cca","null","null","<p style=""font-size: 60px; font-family: BACS"">bYuQUbG</p>","","","","","","","","",""
"html-keyboard-response","259","388020","0.0-14.0-0.8","5fa4725a186c050edc3bcc20","650c16f0f2faf8d7a0d14c09","651c1d906f385036f4234cca","null","null","<p style=""font-size: 60px; font-family: BACS"">GabkrAJu</p>","","","","","","","","",""
"html-keyboard-response","260","389032","0.0-14.0-0.9","5fa4725a186c050edc3bcc20","650c16f0f2faf8d7a0d14c09","651c1d906f385036f4234cca","null","null","<p style=""font-size: 60px; font-family: BACS"">DmAMECdt</p>","","","","","","","","",""
"html-keyboard-response","261","390046","0.0-14.0-0.10","5fa4725a186c050edc3bcc20","650c16f0f2faf8d7a0d14c09","651c1d906f385036f4234cca","null","null","<p style=""font-size: 60px; font-family: BACS"">QcQAJLYGA</p>","","","","","","","","",""
"html-keyboard-response","262","391056","0.0-14.0-0.11","5fa4725a186c050edc3bcc20","650c16f0f2faf8d7a0d14c09","651c1d906f385036f4234cca","null","null","<p style=""font-size: 60px; font-family: BACS"">YmBdtAY</p>","","","","","","","","",""
"html-keyboard-response","263","392065","0.0-14.0-0.12","5fa4725a186c050edc3bcc20","650c16f0f2faf8d7a0d14c09","651c1d906f385036f4234cca","null","null","<p style=""font-size: 60px; font-family: BACS"">JZOAkuUY</p>","","","","","","","","",""
"html-keyboard-response","264","393075","0.0-14.0-0.13","5fa4725a186c050edc3bcc20","650c16f0f2faf8d7a0d14c09","651c1d906f385036f4234cca","null","null","<p style=""font-size: 60px; font-family: BACS"">YmBdYDE</p>","","","","","","","","",""
"html-keyboard-response","265","394088","0.0-14.0-0.14","5fa4725a186c050edc3bcc20","650c16f0f2faf8d7a0d14c09","651c1d906f385036f4234cca","null","null","<p style=""font-size: 60px; font-family: BACS"">UYZlZUbG</p>","","","","","","","","",""
"html-keyboard-response","266","395096","0.0-14.0-0.15","5fa4725a186c050edc3bcc20","650c16f0f2faf8d7a0d14c09","651c1d906f385036f4234cca","null","null","<p style=""font-size: 60px; font-family: BACS"">QcQAJuUY</p>","","","","","","","","",""
"html-keyboard-response","267","396106","0.0-14.0-0.16","5fa4725a186c050edc3bcc20","650c16f0f2faf8d7a0d14c09","651c1d906f385036f4234cca","null","null","<p style=""font-size: 60px; font-family: BACS"">tcYbdYDE</p>","","","","","","","","",""
"html-keyboard-response","268","397115","0.0-14.0-0.17","5fa4725a186c050edc3bcc20","650c16f0f2faf8d7a0d14c09","651c1d906f385036f4234cca","null","null","<p style=""font-size: 60px; font-family: BACS"">ORbkDmh</p>","","","","","","","","",""
"html-keyboard-response","269","398126","0.0-14.0-0.18","5fa4725a186c050edc3bcc20","650c16f0f2faf8d7a0d14c09","651c1d906f385036f4234cca","null","null","<p style=""font-size: 60px; font-family: BACS"">UaZmaLYGA</p>","","","","","","","","",""
"html-keyboard-response","270","399136","0.0-14.0-0.19","5fa4725a186c050edc3bcc20","650c16f0f2faf8d7a0d14c09","651c1d906f385036f4234cca","null","null","<p style=""font-size: 60px; font-family: BACS"">QcQAJUbG</p>","","","","","","","","",""
"html-keyboard-response","271","400144","0.0-14.0-0.20","5fa4725a186c050edc3bcc20","650c16f0f2faf8d7a0d14c09","651c1d906f385036f4234cca","null","null","<p style=""font-size: 60px; font-family: BACS"">COTKDmh</p>","","","","","","","","",""
"html-keyboard-response","272","401153","0.0-14.0-0.21","5fa4725a186c050edc3bcc20","650c16f0f2faf8d7a0d14c09","651c1d906f385036f4234cca","null","null","<p style=""font-size: 60px; font-family: BACS"">dKDthtAY</p>","","","","","","","","",""
"html-keyboard-response","273","402167","0.0-14.0-0.22","5fa4725a186c050edc3bcc20","650c16f0f2faf8d7a0d14c09","651c1d906f385036f4234cca","null","null","<p style=""font-size: 60px; font-family: BACS"">COTKYDE</p>","","","","","","","","",""
"html-keyboard-response","274","403181","0.0-14.0-0.23","5fa4725a186c050edc3bcc20","650c16f0f2faf8d7a0d14c09","651c1d906f385036f4234cca","null","null","<p style=""font-size: 60px; font-family: BACS"">BlmclDmh</p>","","","","","","","","",""
"html-keyboard-response","275","404192","0.0-14.0-0.24","5fa4725a186c050edc3bcc20","650c16f0f2faf8d7a0d14c09","651c1d906f385036f4234cca","null","null","<p style=""font-size: 60px; font-family: BACS"">kMbTRPMd</p>","","","","","","","","",""
"html-keyboard-response","276","405199","0.0-14.0-0.25","5fa4725a186c050edc3bcc20","650c16f0f2faf8d7a0d14c09","651c1d906f385036f4234cca","null","null","<p style=""font-size: 60px; font-family: BACS"">YuaNdUbG</p>","","","","","","","","",""
"html-keyboard-response","277","406213","0.0-14.0-0.26","5fa4725a186c050edc3bcc20","650c16f0f2faf8d7a0d14c09","651c1d906f385036f4234cca","null","null","<p style=""font-size: 60px; font-family: BACS"">DmAMEDmh</p>","","","","","","","","",""
"html-keyboard-response","278","407214","0.0-14.0-0.27","5fa4725a186c050edc3bcc20","650c16f0f2faf8d7a0d14c09","651c1d906f385036f4234cca","null","null","<p style=""font-size: 60px; font-family: BACS"">bYuQuUY</p>","","","","","","","","",""
"html-keyboard-response","279","408217","0.0-14.0-0.28","5fa4725a186c050edc3bcc20","650c16f0f2faf8d7a0d14c09","651c1d906f385036f4234cca","null","null","<p style=""font-size: 60px; font-family: BACS"">JZOAkrab</p>","","","","","","","","",""
"html-keyboard-response","280","409227","0.0-14.0-0.29","5fa4725a186c050edc3bcc20","650c16f0f2faf8d7a0d14c09","651c1d906f385036f4234cca","null","null","<p style=""font-size: 60px; font-family: BACS"">GabkUbG</p>","","","","","","","","",""
"html-keyboard-response","281","410239","0.0-14.0-0.30","5fa4725a186c050edc3bcc20","650c16f0f2faf8d7a0d14c09","651c1d906f385036f4234cca","null","null","<p style=""font-size: 60px; font-family: BACS"">dKDthCdt</p>","","","","","","","","",""
"html-keyboard-response","282","411255","0.0-14.0-0.31","5fa4725a186c050edc3bcc20","650c16f0f2faf8d7a0d14c09","651c1d906f385036f4234cca","null","null","<p style=""font-size: 60px; font-family: BACS"">UYZlZrAJu</p>","","","","","","","","",""
"html-keyboard-response","283","412265","0.0-14.0-0.32","5fa4725a186c050edc3bcc20","650c16f0f2faf8d7a0d14c09","651c1d906f385036f4234cca","null","null","<p style=""font-size: 60px; font-family: BACS"">BlmclPMd</p>","","","","","","","","",""
"html-keyboard-response","284","413277","0.0-14.0-0.33","5fa4725a186c050edc3bcc20","650c16f0f2faf8d7a0d14c09","651c1d906f385036f4234cca","null","null","<p style=""font-size: 60px; font-family: BACS"">ALOrlrAJu</p>","","","","","","","","",""
"html-keyboard-response","285","414287","0.0-14.0-0.34","5fa4725a186c050edc3bcc20","650c16f0f2faf8d7a0d14c09","651c1d906f385036f4234cca","null","null","<p style=""font-size: 60px; font-family: BACS"">COTKPMd</p>","","","","","","","","",""
"html-keyboard-response","286","415298","0.0-14.0-0.35","5fa4725a186c050edc3bcc20","650c16f0f2faf8d7a0d14c09","651c1d906f385036f4234cca","null","null","<p style=""font-size: 60px; font-family: BACS"">rcmuvrAJu</p>","","","","","","","","",""
"html-keyboard-response","287","416309","0.0-14.0-0.36","5fa4725a186c050edc3bcc20","650c16f0f2faf8d7a0d14c09","651c1d906f385036f4234cca","null","null","<p style=""font-size: 60px; font-family: BACS"">CRdBdPMd</p>","","","","","","","","",""
"html-keyboard-response","288","417317","0.0-14.0-0.37","5fa4725a186c050edc3bcc20","650c16f0f2faf8d7a0d14c09","651c1d906f385036f4234cca","null","null","<p style=""font-size: 60px; font-family: BACS"">BlmclCdt</p>","","","","","","","","",""
"html-keyboard-response","289","418332","0.0-14.0-0.38","5fa4725a186c050edc3bcc20","650c16f0f2faf8d7a0d14c09","651c1d906f385036f4234cca","null","null","<p style=""font-size: 60px; font-family: BACS"">YuaNdLYGA</p>","","","","","","","","",""
"html-keyboard-response","290","419343","0.0-14.0-0.39","5fa4725a186c050edc3bcc20","650c16f0f2faf8d7a0d14c09","651c1d906f385036f4234cca","null","null","<p style=""font-size: 60px; font-family: BACS"">CRdBdDmh</p>","","","","","","","","",""
"html-keyboard-response","291","420353","0.0-14.0-0.40","5fa4725a186c050edc3bcc20","650c16f0f2faf8d7a0d14c09","651c1d906f385036f4234cca","null","null","<p style=""font-size: 60px; font-family: BACS"">UYZlZuUY</p>","","","","","","","","",""
"html-keyboard-response","292","421364","0.0-14.0-0.41","5fa4725a186c050edc3bcc20","650c16f0f2faf8d7a0d14c09","651c1d906f385036f4234cca","null","null","<p style=""font-size: 60px; font-family: BACS"">bYuQrAJu</p>","","","","","","","","",""
"html-keyboard-response","293","422373","0.0-14.0-0.42","5fa4725a186c050edc3bcc20","650c16f0f2faf8d7a0d14c09","651c1d906f385036f4234cca","null","null","<p style=""font-size: 60px; font-family: BACS"">GabkLYGA</p>","","","","","","","","",""
"html-keyboard-response","294","423387","0.0-14.0-0.43","5fa4725a186c050edc3bcc20","650c16f0f2faf8d7a0d14c09","651c1d906f385036f4234cca","null","null","<p style=""font-size: 60px; font-family: BACS"">YuaNduUY</p>","","","","","","","","",""
"html-keyboard-response","295","424399","0.0-14.0-0.44","5fa4725a186c050edc3bcc20","650c16f0f2faf8d7a0d14c09","651c1d906f385036f4234cca","null","null","<p style=""font-size: 60px; font-family: BACS"">CchtdYDE</p>","","","","","","","","",""
"html-keyboard-response","296","425409","0.0-14.0-0.45","5fa4725a186c050edc3bcc20","650c16f0f2faf8d7a0d14c09","651c1d906f385036f4234cca","null","null","<p style=""font-size: 60px; font-family: BACS"">COTKtAY</p>","","","","","","","","",""
"html-keyboard-response","297","426418","0.0-14.0-0.46","5fa4725a186c050edc3bcc20","650c16f0f2faf8d7a0d14c09","651c1d906f385036f4234cca","null","null","<p style=""font-size: 60px; font-family: BACS"">JZOAkrAJu</p>","","","","","","","","",""
"html-keyboard-response","298","427432","0.0-14.0-0.47","5fa4725a186c050edc3bcc20","650c16f0f2faf8d7a0d14c09","651c1d906f385036f4234cca","null","null","<p style=""font-size: 60px; font-family: BACS"">UaZmaUbG</p>","","","","","","","","",""
"html-keyboard-response","299","428445","0.0-14.0-0.48","5fa4725a186c050edc3bcc20","650c16f0f2faf8d7a0d14c09","651c1d906f385036f4234cca","null","null","<p style=""font-size: 60px; font-family: BACS"">CchtdPMd</p>","","","","","","","","",""
"html-keyboard-response","300","429454","0.0-14.0-0.49","5fa4725a186c050edc3bcc20","650c16f0f2faf8d7a0d14c09","651c1d906f385036f4234cca","null","null","<p style=""font-size: 60px; font-family: BACS"">dKDthYDE</p>","","","","","","","","",""
"html-keyboard-response","301","430464","0.0-14.0-0.50","5fa4725a186c050edc3bcc20","650c16f0f2faf8d7a0d14c09","651c1d906f385036f4234cca","null","null","<p style=""font-size: 60px; font-family: BACS"">ORbkCdt</p>","","","","","","","","",""
"html-keyboard-response","302","431475","0.0-14.0-0.51","5fa4725a186c050edc3bcc20","650c16f0f2faf8d7a0d14c09","651c1d906f385036f4234cca","null","null","<p style=""font-size: 60px; font-family: BACS"">Gabkrab</p>","","","","","","","","",""
"html-keyboard-response","303","432489","0.0-14.0-0.52","5fa4725a186c050edc3bcc20","650c16f0f2faf8d7a0d14c09","651c1d906f385036f4234cca","null","null","<p style=""font-size: 60px; font-family: BACS"">ALOrlLYGA</p>","","","","","","","","",""
"html-keyboard-response","304","433497","0.0-14.0-0.53","5fa4725a186c050edc3bcc20","650c16f0f2faf8d7a0d14c09","651c1d906f385036f4234cca","null","null","<p style=""font-size: 60px; font-family: BACS"">ORbktAY</p>","","","","","","","","",""
"html-keyboard-response","305","434508","0.0-14.0-0.54","5fa4725a186c050edc3bcc20","650c16f0f2faf8d7a0d14c09","651c1d906f385036f4234cca","null","null","<p style=""font-size: 60px; font-family: BACS"">YuaNdrab</p>","","","","","","","","",""
"html-keyboard-response","306","435522","0.0-14.0-0.55","5fa4725a186c050edc3bcc20","650c16f0f2faf8d7a0d14c09","651c1d906f385036f4234cca","null","null","<p style=""font-size: 60px; font-family: BACS"">kMbTRDmh</p>","","","","","","","","",""
"html-keyboard-response","307","436533","0.0-14.0-0.56","5fa4725a186c050edc3bcc20","650c16f0f2faf8d7a0d14c09","651c1d906f385036f4234cca","null","null","<p style=""font-size: 60px; font-family: BACS"">JZOAkLYGA</p>","","","","","","","","",""
"html-keyboard-response","308","437543","0.0-14.0-0.57","5fa4725a186c050edc3bcc20","650c16f0f2faf8d7a0d14c09","651c1d906f385036f4234cca","null","null","<p style=""font-size: 60px; font-family: BACS"">DmAMEtAY</p>","","","","","","","","",""
"html-keyboard-response","309","438553","0.0-14.0-0.58","5fa4725a186c050edc3bcc20","650c16f0f2faf8d7a0d14c09","651c1d906f385036f4234cca","null","null","<p style=""font-size: 60px; font-family: BACS"">UYZlZLYGA</p>","","","","","","","","",""
"html-keyboard-response","310","439560","0.0-14.0-0.59","5fa4725a186c050edc3bcc20","650c16f0f2faf8d7a0d14c09","651c1d906f385036f4234cca","null","null","<p style=""font-size: 60px; font-family: BACS"">CRdBdYDE</p>","","","","","","","","",""
"html-keyboard-response","311","440576","0.0-14.0-0.60","5fa4725a186c050edc3bcc20","650c16f0f2faf8d7a0d14c09","651c1d906f385036f4234cca","null","null","<p style=""font-size: 60px; font-family: BACS"">rcmuvrab</p>","","","","","","","","",""
"html-keyboard-response","312","441584","0.0-14.0-0.61","5fa4725a186c050edc3bcc20","650c16f0f2faf8d7a0d14c09","651c1d906f385036f4234cca","null","null","<p style=""font-size: 60px; font-family: BACS"">tcYbdCdt</p>","","","","","","","","",""
"html-keyboard-response","313","442596","0.0-14.0-0.62","5fa4725a186c050edc3bcc20","650c16f0f2faf8d7a0d14c09","651c1d906f385036f4234cca","null","null","<p style=""font-size: 60px; font-family: BACS"">kMbTRtAY</p>","","","","","","","","",""
"html-keyboard-response","314","443607","0.0-14.0-0.63","5fa4725a186c050edc3bcc20","650c16f0f2faf8d7a0d14c09","651c1d906f385036f4234cca","null","null","<p style=""font-size: 60px; font-family: BACS"">bYuQrab</p>","","","","","","","","",""
"html-keyboard-response","315","444619","0.0-14.0-0.64","5fa4725a186c050edc3bcc20","650c16f0f2faf8d7a0d14c09","651c1d906f385036f4234cca","null","null","<p style=""font-size: 60px; font-family: BACS"">rcmuvLYGA</p>","","","","","","","","",""
"html-keyboard-response","316","445634","0.0-14.0-0.65","5fa4725a186c050edc3bcc20","650c16f0f2faf8d7a0d14c09","651c1d906f385036f4234cca","null","null","<p style=""font-size: 60px; font-family: BACS"">tcYbdPMd</p>","","","","","","","","",""
"html-keyboard-response","317","446647","0.0-14.0-0.66","5fa4725a186c050edc3bcc20","650c16f0f2faf8d7a0d14c09","651c1d906f385036f4234cca","null","null","<p style=""font-size: 60px; font-family: BACS"">CchtdCdt</p>","","","","","","","","",""
"html-keyboard-response","318","447658","0.0-14.0-0.67","5fa4725a186c050edc3bcc20","650c16f0f2faf8d7a0d14c09","651c1d906f385036f4234cca","null","null","<p style=""font-size: 60px; font-family: BACS"">ORbkYDE</p>","","","","","","","","",""
"html-keyboard-response","319","448667","0.0-14.0-0.68","5fa4725a186c050edc3bcc20","650c16f0f2faf8d7a0d14c09","651c1d906f385036f4234cca","null","null","<p style=""font-size: 60px; font-family: BACS"">kMbTRCdt</p>","","","","","","","","",""
"html-keyboard-response","320","449681","0.0-14.0-0.69","5fa4725a186c050edc3bcc20","650c16f0f2faf8d7a0d14c09","651c1d906f385036f4234cca","null","null","<p style=""font-size: 60px; font-family: BACS"">UdYUQUbG</p>","","","","","","","","",""
"html-keyboard-response","321","450692","0.0-14.0-0.70","5fa4725a186c050edc3bcc20","650c16f0f2faf8d7a0d14c09","651c1d906f385036f4234cca","null","null","<p style=""font-size: 60px; font-family: BACS"">DmAMEPMd</p>","","","","","","","","",""
"html-keyboard-response","322","451704","0.0-14.0-0.71","5fa4725a186c050edc3bcc20","650c16f0f2faf8d7a0d14c09","651c1d906f385036f4234cca","null","null","<p style=""font-size: 60px; font-family: BACS"">CchtdtAY</p>","","","","","","","","",""
"html-keyboard-response","323","452716","0.0-14.0-0.72","5fa4725a186c050edc3bcc20","650c16f0f2faf8d7a0d14c09","651c1d906f385036f4234cca","null","null","<p style=""font-size: 60px; font-family: BACS"">UdYUQrab</p>","","","","","","","","",""
"html-keyboard-response","324","453725","0.0-14.0-0.73","5fa4725a186c050edc3bcc20","650c16f0f2faf8d7a0d14c09","651c1d906f385036f4234cca","null","null","<p style=""font-size: 60px; font-family: BACS"">dKDthDmh</p>","","","","","","","","",""
"html-keyboard-response","325","454737","0.0-14.0-0.74","5fa4725a186c050edc3bcc20","650c16f0f2faf8d7a0d14c09","651c1d906f385036f4234cca","null","null","<p style=""font-size: 60px; font-family: BACS"">BlmclYDE</p>","","","","","","","","",""
"html-keyboard-response","326","455747","0.0-14.0-0.75","5fa4725a186c050edc3bcc20","650c16f0f2faf8d7a0d14c09","651c1d906f385036f4234cca","null","null","<p style=""font-size: 60px; font-family: BACS"">QcQAJrab</p>","","","","","","","","",""
"html-keyboard-response","327","456759","0.0-14.0-0.76","5fa4725a186c050edc3bcc20","650c16f0f2faf8d7a0d14c09","651c1d906f385036f4234cca","null","null","<p style=""font-size: 60px; font-family: BACS"">YmBdPMd</p>","","","","","","","","",""
"html-keyboard-response","328","457772","0.0-14.0-0.77","5fa4725a186c050edc3bcc20","650c16f0f2faf8d7a0d14c09","651c1d906f385036f4234cca","null","null","<p style=""font-size: 60px; font-family: BACS"">UdYUQuUY</p>","","","","","","","","",""
"html-keyboard-response","329","458786","0.0-14.0-0.78","5fa4725a186c050edc3bcc20","650c16f0f2faf8d7a0d14c09","651c1d906f385036f4234cca","null","null","<p style=""font-size: 60px; font-family: BACS"">tcYbdDmh</p>","","","","","","","","",""
"html-keyboard-response","330","459794","0.0-14.0-0.79","5fa4725a186c050edc3bcc20","650c16f0f2faf8d7a0d14c09","651c1d906f385036f4234cca","null","null","<p style=""font-size: 60px; font-family: BACS"">rcmuvuUY</p>","","","","","","","","",""
"html-keyboard-response","331","481553","0.0-15.0","5fa4725a186c050edc3bcc20","650c16f0f2faf8d7a0d14c09","651c1d906f385036f4234cca","21758"," ","<p>Great, you've seen the fourth block of words. You may now take a short break.</p>
      <p>Press the spacebar when you're ready to continue.</p>","","","","","","","","",""
"html-keyboard-response","332","482565","0.0-16.0-0.0","5fa4725a186c050edc3bcc20","650c16f0f2faf8d7a0d14c09","651c1d906f385036f4234cca","null","null","<p style=""font-size: 60px; font-family: BACS"">tcYbdYDE</p>","","","","","","","","",""
"html-keyboard-response","333","483577","0.0-16.0-0.1","5fa4725a186c050edc3bcc20","650c16f0f2faf8d7a0d14c09","651c1d906f385036f4234cca","null","null","<p style=""font-size: 60px; font-family: BACS"">tcYbdYDE</p>","","","","","","","","",""
"html-keyboard-response","334","484592","0.0-16.0-0.2","5fa4725a186c050edc3bcc20","650c16f0f2faf8d7a0d14c09","651c1d906f385036f4234cca","null","null","<p style=""font-size: 60px; font-family: BACS"">tcYbdYDE</p>","","","","","","","","",""
"html-keyboard-response","335","485594","0.0-16.0-0.3","5fa4725a186c050edc3bcc20","650c16f0f2faf8d7a0d14c09","651c1d906f385036f4234cca","null","null","<p style=""font-size: 60px; font-family: BACS"">tcYbdYDE</p>","","","","","","","","",""
"html-keyboard-response","336","486597","0.0-16.0-0.4","5fa4725a186c050edc3bcc20","650c16f0f2faf8d7a0d14c09","651c1d906f385036f4234cca","null","null","<p style=""font-size: 60px; font-family: BACS"">tcYbdYDE</p>","","","","","","","","",""
"html-keyboard-response","337","487609","0.0-16.0-0.5","5fa4725a186c050edc3bcc20","650c16f0f2faf8d7a0d14c09","651c1d906f385036f4234cca","null","null","<p style=""font-size: 60px; font-family: BACS"">tcYbdYDE</p>","","","","","","","","",""
"html-keyboard-response","338","488621","0.0-16.0-0.6","5fa4725a186c050edc3bcc20","650c16f0f2faf8d7a0d14c09","651c1d906f385036f4234cca","null","null","<p style=""font-size: 60px; font-family: BACS"">tcYbdYDE</p>","","","","","","","","",""
"html-keyboard-response","339","489623","0.0-16.0-0.7","5fa4725a186c050edc3bcc20","650c16f0f2faf8d7a0d14c09","651c1d906f385036f4234cca","null","null","<p style=""font-size: 60px; font-family: BACS"">tcYbdYDE</p>","","","","","","","","",""
"html-keyboard-response","340","490632","0.0-16.0-0.8","5fa4725a186c050edc3bcc20","650c16f0f2faf8d7a0d14c09","651c1d906f385036f4234cca","null","null","<p style=""font-size: 60px; font-family: BACS"">tcYbdYDE</p>","","","","","","","","",""
"html-keyboard-response","341","491643","0.0-16.0-0.9","5fa4725a186c050edc3bcc20","650c16f0f2faf8d7a0d14c09","651c1d906f385036f4234cca","null","null","<p style=""font-size: 60px; font-family: BACS"">tcYbdYDE</p>","","","","","","","","",""
"html-keyboard-response","342","492654","0.0-16.0-0.10","5fa4725a186c050edc3bcc20","650c16f0f2faf8d7a0d14c09","651c1d906f385036f4234cca","null","null","<p style=""font-size: 60px; font-family: BACS"">tcYbdYDE</p>","","","","","","","","",""
"html-keyboard-response","343","493664","0.0-16.0-0.11","5fa4725a186c050edc3bcc20","650c16f0f2faf8d7a0d14c09","651c1d906f385036f4234cca","null","null","<p style=""font-size: 60px; font-family: BACS"">tcYbdYDE</p>","","","","","","","","",""
"html-keyboard-response","344","494676","0.0-16.0-0.12","5fa4725a186c050edc3bcc20","650c16f0f2faf8d7a0d14c09","651c1d906f385036f4234cca","null","null","<p style=""font-size: 60px; font-family: BACS"">tcYbdYDE</p>","","","","","","","","",""
"html-keyboard-response","345","495686","0.0-16.0-0.13","5fa4725a186c050edc3bcc20","650c16f0f2faf8d7a0d14c09","651c1d906f385036f4234cca","null","null","<p style=""font-size: 60px; font-family: BACS"">tcYbdYDE</p>","","","","","","","","",""
"html-keyboard-response","346","496689","0.0-16.0-0.14","5fa4725a186c050edc3bcc20","650c16f0f2faf8d7a0d14c09","651c1d906f385036f4234cca","null","null","<p style=""font-size: 60px; font-family: BACS"">tcYbdYDE</p>","","","","","","","","",""
"html-keyboard-response","347","497701","0.0-16.0-0.15","5fa4725a186c050edc3bcc20","650c16f0f2faf8d7a0d14c09","651c1d906f385036f4234cca","null","null","<p style=""font-size: 60px; font-family: BACS"">tcYbdYDE</p>","","","","","","","","",""
"html-keyboard-response","348","498709","0.0-16.0-0.16","5fa4725a186c050edc3bcc20","650c16f0f2faf8d7a0d14c09","651c1d906f385036f4234cca","null","null","<p style=""font-size: 60px; font-family: BACS"">tcYbdYDE</p>","","","","","","","","",""
"html-keyboard-response","349","499722","0.0-16.0-0.17","5fa4725a186c050edc3bcc20","650c16f0f2faf8d7a0d14c09","651c1d906f385036f4234cca","null","null","<p style=""font-size: 60px; font-family: BACS"">tcYbdYDE</p>","","","","","","","","",""
"html-keyboard-response","350","500735","0.0-16.0-0.18","5fa4725a186c050edc3bcc20","650c16f0f2faf8d7a0d14c09","651c1d906f385036f4234cca","null","null","<p style=""font-size: 60px; font-family: BACS"">tcYbdYDE</p>","","","","","","","","",""
"html-keyboard-response","351","501746","0.0-16.0-0.19","5fa4725a186c050edc3bcc20","650c16f0f2faf8d7a0d14c09","651c1d906f385036f4234cca","null","null","<p style=""font-size: 60px; font-family: BACS"">tcYbdYDE</p>","","","","","","","","",""
"html-keyboard-response","352","502758","0.0-16.0-0.20","5fa4725a186c050edc3bcc20","650c16f0f2faf8d7a0d14c09","651c1d906f385036f4234cca","null","null","<p style=""font-size: 60px; font-family: BACS"">tcYbdYDE</p>","","","","","","","","",""
"html-keyboard-response","353","503771","0.0-16.0-0.21","5fa4725a186c050edc3bcc20","650c16f0f2faf8d7a0d14c09","651c1d906f385036f4234cca","null","null","<p style=""font-size: 60px; font-family: BACS"">tcYbdYDE</p>","","","","","","","","",""
"html-keyboard-response","354","504775","0.0-16.0-0.22","5fa4725a186c050edc3bcc20","650c16f0f2faf8d7a0d14c09","651c1d906f385036f4234cca","null","null","<p style=""font-size: 60px; font-family: BACS"">tcYbdYDE</p>","","","","","","","","",""
"html-keyboard-response","355","505788","0.0-16.0-0.23","5fa4725a186c050edc3bcc20","650c16f0f2faf8d7a0d14c09","651c1d906f385036f4234cca","null","null","<p style=""font-size: 60px; font-family: BACS"">tcYbdYDE</p>","","","","","","","","",""
"html-keyboard-response","356","506795","0.0-16.0-0.24","5fa4725a186c050edc3bcc20","650c16f0f2faf8d7a0d14c09","651c1d906f385036f4234cca","null","null","<p style=""font-size: 60px; font-family: BACS"">tcYbdYDE</p>","","","","","","","","",""
"html-keyboard-response","357","507806","0.0-16.0-0.25","5fa4725a186c050edc3bcc20","650c16f0f2faf8d7a0d14c09","651c1d906f385036f4234cca","null","null","<p style=""font-size: 60px; font-family: BACS"">tcYbdYDE</p>","","","","","","","","",""
"html-keyboard-response","358","508816","0.0-16.0-0.26","5fa4725a186c050edc3bcc20","650c16f0f2faf8d7a0d14c09","651c1d906f385036f4234cca","null","null","<p style=""font-size: 60px; font-family: BACS"">tcYbdYDE</p>","","","","","","","","",""
"html-keyboard-response","359","509825","0.0-16.0-0.27","5fa4725a186c050edc3bcc20","650c16f0f2faf8d7a0d14c09","651c1d906f385036f4234cca","null","null","<p style=""font-size: 60px; font-family: BACS"">tcYbdYDE</p>","","","","","","","","",""
"html-keyboard-response","360","510837","0.0-16.0-0.28","5fa4725a186c050edc3bcc20","650c16f0f2faf8d7a0d14c09","651c1d906f385036f4234cca","null","null","<p style=""font-size: 60px; font-family: BACS"">tcYbdYDE</p>","","","","","","","","",""
"html-keyboard-response","361","511849","0.0-16.0-0.29","5fa4725a186c050edc3bcc20","650c16f0f2faf8d7a0d14c09","651c1d906f385036f4234cca","null","null","<p style=""font-size: 60px; font-family: BACS"">tcYbdYDE</p>","","","","","","","","",""
"html-keyboard-response","362","512859","0.0-16.0-0.30","5fa4725a186c050edc3bcc20","650c16f0f2faf8d7a0d14c09","651c1d906f385036f4234cca","null","null","<p style=""font-size: 60px; font-family: BACS"">tcYbdYDE</p>","","","","","","","","",""
"html-keyboard-response","363","513872","0.0-16.0-0.31","5fa4725a186c050edc3bcc20","650c16f0f2faf8d7a0d14c09","651c1d906f385036f4234cca","null","null","<p style=""font-size: 60px; font-family: BACS"">tcYbdYDE</p>","","","","","","","","",""
"html-keyboard-response","364","514883","0.0-16.0-0.32","5fa4725a186c050edc3bcc20","650c16f0f2faf8d7a0d14c09","651c1d906f385036f4234cca","null","null","<p style=""font-size: 60px; font-family: BACS"">tcYbdYDE</p>","","","","","","","","",""
"html-keyboard-response","365","515893","0.0-16.0-0.33","5fa4725a186c050edc3bcc20","650c16f0f2faf8d7a0d14c09","651c1d906f385036f4234cca","null","null","<p style=""font-size: 60px; font-family: BACS"">tcYbdYDE</p>","","","","","","","","",""
"html-keyboard-response","366","516901","0.0-16.0-0.34","5fa4725a186c050edc3bcc20","650c16f0f2faf8d7a0d14c09","651c1d906f385036f4234cca","null","null","<p style=""font-size: 60px; font-family: BACS"">tcYbdYDE</p>","","","","","","","","",""
"html-keyboard-response","367","517913","0.0-16.0-0.35","5fa4725a186c050edc3bcc20","650c16f0f2faf8d7a0d14c09","651c1d906f385036f4234cca","null","null","<p style=""font-size: 60px; font-family: BACS"">tcYbdYDE</p>","","","","","","","","",""
"html-keyboard-response","368","518918","0.0-16.0-0.36","5fa4725a186c050edc3bcc20","650c16f0f2faf8d7a0d14c09","651c1d906f385036f4234cca","null","null","<p style=""font-size: 60px; font-family: BACS"">tcYbdYDE</p>","","","","","","","","",""
"html-keyboard-response","369","519931","0.0-16.0-0.37","5fa4725a186c050edc3bcc20","650c16f0f2faf8d7a0d14c09","651c1d906f385036f4234cca","null","null","<p style=""font-size: 60px; font-family: BACS"">tcYbdYDE</p>","","","","","","","","",""
"html-keyboard-response","370","520946","0.0-16.0-0.38","5fa4725a186c050edc3bcc20","650c16f0f2faf8d7a0d14c09","651c1d906f385036f4234cca","null","null","<p style=""font-size: 60px; font-family: BACS"">tcYbdYDE</p>","","","","","","","","",""
"html-keyboard-response","371","521961","0.0-16.0-0.39","5fa4725a186c050edc3bcc20","650c16f0f2faf8d7a0d14c09","651c1d906f385036f4234cca","null","null","<p style=""font-size: 60px; font-family: BACS"">tcYbdYDE</p>","","","","","","","","",""
"html-keyboard-response","372","522974","0.0-16.0-0.40","5fa4725a186c050edc3bcc20","650c16f0f2faf8d7a0d14c09","651c1d906f385036f4234cca","null","null","<p style=""font-size: 60px; font-family: BACS"">tcYbdYDE</p>","","","","","","","","",""
"html-keyboard-response","373","523986","0.0-16.0-0.41","5fa4725a186c050edc3bcc20","650c16f0f2faf8d7a0d14c09","651c1d906f385036f4234cca","null","null","<p style=""font-size: 60px; font-family: BACS"">tcYbdYDE</p>","","","","","","","","",""
"html-keyboard-response","374","524995","0.0-16.0-0.42","5fa4725a186c050edc3bcc20","650c16f0f2faf8d7a0d14c09","651c1d906f385036f4234cca","null","null","<p style=""font-size: 60px; font-family: BACS"">tcYbdYDE</p>","","","","","","","","",""
"html-keyboard-response","375","526008","0.0-16.0-0.43","5fa4725a186c050edc3bcc20","650c16f0f2faf8d7a0d14c09","651c1d906f385036f4234cca","null","null","<p style=""font-size: 60px; font-family: BACS"">tcYbdYDE</p>","","","","","","","","",""
"html-keyboard-response","376","527022","0.0-16.0-0.44","5fa4725a186c050edc3bcc20","650c16f0f2faf8d7a0d14c09","651c1d906f385036f4234cca","null","null","<p style=""font-size: 60px; font-family: BACS"">tcYbdYDE</p>","","","","","","","","",""
"html-keyboard-response","377","528028","0.0-16.0-0.45","5fa4725a186c050edc3bcc20","650c16f0f2faf8d7a0d14c09","651c1d906f385036f4234cca","null","null","<p style=""font-size: 60px; font-family: BACS"">tcYbdYDE</p>","","","","","","","","",""
"html-keyboard-response","378","529044","0.0-16.0-0.46","5fa4725a186c050edc3bcc20","650c16f0f2faf8d7a0d14c09","651c1d906f385036f4234cca","null","null","<p style=""font-size: 60px; font-family: BACS"">tcYbdYDE</p>","","","","","","","","",""
"html-keyboard-response","379","530053","0.0-16.0-0.47","5fa4725a186c050edc3bcc20","650c16f0f2faf8d7a0d14c09","651c1d906f385036f4234cca","null","null","<p style=""font-size: 60px; font-family: BACS"">tcYbdYDE</p>","","","","","","","","",""
"html-keyboard-response","380","531060","0.0-16.0-0.48","5fa4725a186c050edc3bcc20","650c16f0f2faf8d7a0d14c09","651c1d906f385036f4234cca","null","null","<p style=""font-size: 60px; font-family: BACS"">tcYbdYDE</p>","","","","","","","","",""
"html-keyboard-response","381","532070","0.0-16.0-0.49","5fa4725a186c050edc3bcc20","650c16f0f2faf8d7a0d14c09","651c1d906f385036f4234cca","null","null","<p style=""font-size: 60px; font-family: BACS"">tcYbdYDE</p>","","","","","","","","",""
"html-keyboard-response","382","533080","0.0-16.0-0.50","5fa4725a186c050edc3bcc20","650c16f0f2faf8d7a0d14c09","651c1d906f385036f4234cca","null","null","<p style=""font-size: 60px; font-family: BACS"">tcYbdYDE</p>","","","","","","","","",""
"html-keyboard-response","383","534088","0.0-16.0-0.51","5fa4725a186c050edc3bcc20","650c16f0f2faf8d7a0d14c09","651c1d906f385036f4234cca","null","null","<p style=""font-size: 60px; font-family: BACS"">tcYbdYDE</p>","","","","","","","","",""
"html-keyboard-response","384","535090","0.0-16.0-0.52","5fa4725a186c050edc3bcc20","650c16f0f2faf8d7a0d14c09","651c1d906f385036f4234cca","null","null","<p style=""font-size: 60px; font-family: BACS"">tcYbdYDE</p>","","","","","","","","",""
"html-keyboard-response","385","536093","0.0-16.0-0.53","5fa4725a186c050edc3bcc20","650c16f0f2faf8d7a0d14c09","651c1d906f385036f4234cca","null","null","<p style=""font-size: 60px; font-family: BACS"">tcYbdYDE</p>","","","","","","","","",""
"html-keyboard-response","386","537106","0.0-16.0-0.54","5fa4725a186c050edc3bcc20","650c16f0f2faf8d7a0d14c09","651c1d906f385036f4234cca","null","null","<p style=""font-size: 60px; font-family: BACS"">tcYbdYDE</p>","","","","","","","","",""
"html-keyboard-response","387","538120","0.0-16.0-0.55","5fa4725a186c050edc3bcc20","650c16f0f2faf8d7a0d14c09","651c1d906f385036f4234cca","null","null","<p style=""font-size: 60px; font-family: BACS"">tcYbdYDE</p>","","","","","","","","",""
"html-keyboard-response","388","539131","0.0-16.0-0.56","5fa4725a186c050edc3bcc20","650c16f0f2faf8d7a0d14c09","651c1d906f385036f4234cca","null","null","<p style=""font-size: 60px; font-family: BACS"">tcYbdYDE</p>","","","","","","","","",""
"html-keyboard-response","389","540141","0.0-16.0-0.57","5fa4725a186c050edc3bcc20","650c16f0f2faf8d7a0d14c09","651c1d906f385036f4234cca","null","null","<p style=""font-size: 60px; font-family: BACS"">tcYbdYDE</p>","","","","","","","","",""
"html-keyboard-response","390","541153","0.0-16.0-0.58","5fa4725a186c050edc3bcc20","650c16f0f2faf8d7a0d14c09","651c1d906f385036f4234cca","null","null","<p style=""font-size: 60px; font-family: BACS"">tcYbdYDE</p>","","","","","","","","",""
"html-keyboard-response","391","542162","0.0-16.0-0.59","5fa4725a186c050edc3bcc20","650c16f0f2faf8d7a0d14c09","651c1d906f385036f4234cca","null","null","<p style=""font-size: 60px; font-family: BACS"">tcYbdYDE</p>","","","","","","","","",""
"html-keyboard-response","392","543174","0.0-16.0-0.60","5fa4725a186c050edc3bcc20","650c16f0f2faf8d7a0d14c09","651c1d906f385036f4234cca","null","null","<p style=""font-size: 60px; font-family: BACS"">tcYbdYDE</p>","","","","","","","","",""
"html-keyboard-response","393","544183","0.0-16.0-0.61","5fa4725a186c050edc3bcc20","650c16f0f2faf8d7a0d14c09","651c1d906f385036f4234cca","null","null","<p style=""font-size: 60px; font-family: BACS"">tcYbdYDE</p>","","","","","","","","",""
"html-keyboard-response","394","545195","0.0-16.0-0.62","5fa4725a186c050edc3bcc20","650c16f0f2faf8d7a0d14c09","651c1d906f385036f4234cca","null","null","<p style=""font-size: 60px; font-family: BACS"">tcYbdYDE</p>","","","","","","","","",""
"html-keyboard-response","395","546204","0.0-16.0-0.63","5fa4725a186c050edc3bcc20","650c16f0f2faf8d7a0d14c09","651c1d906f385036f4234cca","null","null","<p style=""font-size: 60px; font-family: BACS"">tcYbdYDE</p>","","","","","","","","",""
"html-keyboard-response","396","547216","0.0-16.0-0.64","5fa4725a186c050edc3bcc20","650c16f0f2faf8d7a0d14c09","651c1d906f385036f4234cca","null","null","<p style=""font-size: 60px; font-family: BACS"">tcYbdYDE</p>","","","","","","","","",""
"html-keyboard-response","397","548227","0.0-16.0-0.65","5fa4725a186c050edc3bcc20","650c16f0f2faf8d7a0d14c09","651c1d906f385036f4234cca","null","null","<p style=""font-size: 60px; font-family: BACS"">tcYbdYDE</p>","","","","","","","","",""
"html-keyboard-response","398","549239","0.0-16.0-0.66","5fa4725a186c050edc3bcc20","650c16f0f2faf8d7a0d14c09","651c1d906f385036f4234cca","null","null","<p style=""font-size: 60px; font-family: BACS"">tcYbdYDE</p>","","","","","","","","",""
