"trial_type","trial_index","time_elapsed","internal_node_id","subject_id","study_id","session_id","rt","response","stimulus","success","item","task","correct_response","testing_condition","correct","target","confound","name"
"pavlovia","0","1055","0.0-0.0","602bb123612bfe330818d4ef","650c16f0f2faf8d7a0d14c09","651c1e015a3f15cef621aaa9","","","","","","","","","","","",""
"survey-html-form","1","8605","0.0-1.0","602bb123612bfe330818d4ef","650c16f0f2faf8d7a0d14c09","651c1e015a3f15cef621aaa9","7537","{""ID"":""602bb123612bfe330818d4ef""}","","","","","","","","","",""
"html-keyboard-response","2","14635","0.0-2.0","602bb123612bfe330818d4ef","650c16f0f2faf8d7a0d14c09","651c1e015a3f15cef621aaa9","6028"," ","<p style=""font-size: 15px;"">Before beginning, we ask that you read the consent information and confirm your agreement to participate in the experiment.</p>
      <p style=""font-size: 15px;""> We ask that you remember that this is a research project and that your participation is entirely voluntary. You can stop your participation at any time, without needing to provide any explanation. The study we're asking you to participate in aims at examining how readers process written words. You will be engaged in a session of apprximately 20 minutes, followed by a brief questionnaire. You will have the opportunity to take a few breaks during the experiment. You will be paid £4 for your participation, corresponding to a rate of £8/hour. While this experiment looks at cognitive faculties, this experiment doesn't constitute clinical proof of eventual pathologies.</p>
      <p style=""font-size: 15px;"">All of the information collected thanks to yours and others' participation will be held in a secure password-protected server, and will not be shared with anyone not authorised to view it. Your personal information will be kept with an arbitrary participant ID. Thanks to this data anonymity process, any researcher analysing the data won't be able to track the information back to a specific participant. Therefore, this process will make identifying you impossibile, even when results from the study will be published in scientific reviews, presented at congresses, or at any other public forum. More generally, the collected data will be treated in accordance with the laws on privacy and conformity to the Legislative Degree n. 196 ""Code regarding the protection of personal data"" of the 30th of June 2003 and to the European Regulation 2016/670 (General Data Protection Regulation - GDPR). The Data Protection Officer is Avv. Valentina Carollo, who can be contacted at the following email addresses: <a href=""mailto:dpo@sissa.it"">dpo@sissa.it</a> or <a href=""mailto:rpd@sissa.it"">rpd@sissa.it</a> - PEC: <a href=""mailto:protocollo@pec.sissa.it"">protocollo@pec.sissa.it</a>.</p>
      <p style=""font-size: 15px;""> Before expressing your consent to participate, we would like to remind you again that in case you need explanations on any aspect of the experimental procedure, the researcher is at your disposition (<a href=""mailto:aliebelt@sissa.it"">aliebelt@sissa.it</a>, <a href=""mailto:davide.crepaldi@sissa.it"">davide.crepaldi@sissa.it</a>).</p>
      <p style=""font-size: 15px;"">If you would like to download the informed consent form, you can do so here: <a href=""BASL-Informed_Consent.pdf"" download>informed consent form</a>.</p>
      <p style=""font-size: 15px;"">We ask that you press the spacebar to proceed to the consent section.</p>","","","","","","","","",""
"survey-html-form","3","23316","0.0-3.0","602bb123612bfe330818d4ef","650c16f0f2faf8d7a0d14c09","651c1e015a3f15cef621aaa9","8678","{""consent1"":""YES"",""consent2"":""YES"",""consent3"":""YES"",""consent4"":""YES"",""consent5"":""YES"",""consent6"":""YES""}","","","","","","","","","",""
"fullscreen","4","169121","0.0-4.0","602bb123612bfe330818d4ef","650c16f0f2faf8d7a0d14c09","651c1e015a3f15cef621aaa9","","","","true","","","","","","","",""
"html-keyboard-response","5","193427","0.0-5.0","602bb123612bfe330818d4ef","650c16f0f2faf8d7a0d14c09","651c1e015a3f15cef621aaa9","24304"," ","<p>Welcome, and thank you very much for your time!</p>
      <p>In this experiment, you'll be a language expert who's been asked to take a look at words that Earth has received in its first communication with aliens. Your task, in this first part of the experiment, is to pay close attention to the words you'll be shown; later, world leaders will ask you questions on what you saw. The words will be shown to you quite quickly; it seems that the aliens were in a hurry :-)</p>
      <p>Press the spacebar to continue.<p>","","","","","","","","",""
"html-keyboard-response","6","193483","0.0-6.0","602bb123612bfe330818d4ef","650c16f0f2faf8d7a0d14c09","651c1e015a3f15cef621aaa9","null","null","<p style=""font-size: 120px; font-family: BACS""> </p>","","","","","","","","",""
"html-keyboard-response","7","199444","0.0-7.0","602bb123612bfe330818d4ef","650c16f0f2faf8d7a0d14c09","651c1e015a3f15cef621aaa9","5960"," ","<p>Here is an example of the words you'll see:</p>
      <img src='esempio.png' height='400px'>
      <p>When you're ready to begin, press the spacebar.</p></div>","","","","","","","","",""
"html-keyboard-response","8","200458","0.0-8.0-0.0","602bb123612bfe330818d4ef","650c16f0f2faf8d7a0d14c09","651c1e015a3f15cef621aaa9","null","null","<p style=""font-size: 60px; font-family: BACS"">lZcubLd</p>","","","","","","","","",""
"html-keyboard-response","9","201471","0.0-8.0-0.1","602bb123612bfe330818d4ef","650c16f0f2faf8d7a0d14c09","651c1e015a3f15cef621aaa9","null","null","<p style=""font-size: 60px; font-family: BACS"">OMlTmtKP</p>","","","","","","","","",""
"html-keyboard-response","10","202487","0.0-8.0-0.2","602bb123612bfe330818d4ef","650c16f0f2faf8d7a0d14c09","651c1e015a3f15cef621aaa9","null","null","<p style=""font-size: 60px; font-family: BACS"">MkmEdOBT</p>","","","","","","","","",""
"html-keyboard-response","11","203495","0.0-8.0-0.3","602bb123612bfe330818d4ef","650c16f0f2faf8d7a0d14c09","651c1e015a3f15cef621aaa9","null","null","<p style=""font-size: 60px; font-family: BACS"">UJmrLYGA</p>","","","","","","","","",""
"html-keyboard-response","12","204506","0.0-8.0-0.4","602bb123612bfe330818d4ef","650c16f0f2faf8d7a0d14c09","651c1e015a3f15cef621aaa9","null","null","<p style=""font-size: 60px; font-family: BACS"">kcCRtOBT</p>","","","","","","","","",""
"html-keyboard-response","13","205519","0.0-8.0-0.5","602bb123612bfe330818d4ef","650c16f0f2faf8d7a0d14c09","651c1e015a3f15cef621aaa9","null","null","<p style=""font-size: 60px; font-family: BACS"">rdLJaLYGA</p>","","","","","","","","",""
"html-keyboard-response","14","206523","0.0-8.0-0.6","602bb123612bfe330818d4ef","650c16f0f2faf8d7a0d14c09","651c1e015a3f15cef621aaa9","null","null","<p style=""font-size: 60px; font-family: BACS"">kLvdNlGc</p>","","","","","","","","",""
"html-keyboard-response","15","207534","0.0-8.0-0.7","602bb123612bfe330818d4ef","650c16f0f2faf8d7a0d14c09","651c1e015a3f15cef621aaa9","null","null","<p style=""font-size: 60px; font-family: BACS"">OmtlDOBT</p>","","","","","","","","",""
"html-keyboard-response","16","208547","0.0-8.0-0.8","602bb123612bfe330818d4ef","650c16f0f2faf8d7a0d14c09","651c1e015a3f15cef621aaa9","null","null","<p style=""font-size: 60px; font-family: BACS"">DkTCPOPE</p>","","","","","","","","",""
"html-keyboard-response","17","209548","0.0-8.0-0.9","602bb123612bfe330818d4ef","650c16f0f2faf8d7a0d14c09","651c1e015a3f15cef621aaa9","null","null","<p style=""font-size: 60px; font-family: BACS"">kPOtmtKP</p>","","","","","","","","",""
"html-keyboard-response","18","210553","0.0-8.0-0.10","602bb123612bfe330818d4ef","650c16f0f2faf8d7a0d14c09","651c1e015a3f15cef621aaa9","null","null","<p style=""font-size: 60px; font-family: BACS"">OmtlDEcR</p>","","","","","","","","",""
"html-keyboard-response","19","211567","0.0-8.0-0.11","602bb123612bfe330818d4ef","650c16f0f2faf8d7a0d14c09","651c1e015a3f15cef621aaa9","null","null","<p style=""font-size: 60px; font-family: BACS"">UdYUQLYGA</p>","","","","","","","","",""
"html-keyboard-response","20","212579","0.0-8.0-0.12","602bb123612bfe330818d4ef","650c16f0f2faf8d7a0d14c09","651c1e015a3f15cef621aaa9","null","null","<p style=""font-size: 60px; font-family: BACS"">MkmEdEcR</p>","","","","","","","","",""
"html-keyboard-response","21","213581","0.0-8.0-0.13","602bb123612bfe330818d4ef","650c16f0f2faf8d7a0d14c09","651c1e015a3f15cef621aaa9","null","null","<p style=""font-size: 60px; font-family: BACS"">OmtlDmtKP</p>","","","","","","","","",""
"html-keyboard-response","22","214596","0.0-8.0-0.14","602bb123612bfe330818d4ef","650c16f0f2faf8d7a0d14c09","651c1e015a3f15cef621aaa9","null","null","<p style=""font-size: 60px; font-family: BACS"">MkmEdOPE</p>","","","","","","","","",""
"html-keyboard-response","23","215603","0.0-8.0-0.15","602bb123612bfe330818d4ef","650c16f0f2faf8d7a0d14c09","651c1e015a3f15cef621aaa9","null","null","<p style=""font-size: 60px; font-family: BACS"">auYAklGc</p>","","","","","","","","",""
"html-keyboard-response","24","216607","0.0-8.0-0.16","602bb123612bfe330818d4ef","650c16f0f2faf8d7a0d14c09","651c1e015a3f15cef621aaa9","null","null","<p style=""font-size: 60px; font-family: BACS"">ZNLOvdUr</p>","","","","","","","","",""
"html-keyboard-response","25","217624","0.0-8.0-0.17","602bb123612bfe330818d4ef","650c16f0f2faf8d7a0d14c09","651c1e015a3f15cef621aaa9","null","null","<p style=""font-size: 60px; font-family: BACS"">JmNkLYGA</p>","","","","","","","","",""
"html-keyboard-response","26","218635","0.0-8.0-0.18","602bb123612bfe330818d4ef","650c16f0f2faf8d7a0d14c09","651c1e015a3f15cef621aaa9","null","null","<p style=""font-size: 60px; font-family: BACS"">UdYUQbLd</p>","","","","","","","","",""
"html-keyboard-response","27","219639","0.0-8.0-0.19","602bb123612bfe330818d4ef","650c16f0f2faf8d7a0d14c09","651c1e015a3f15cef621aaa9","null","null","<p style=""font-size: 60px; font-family: BACS"">lZcudUr</p>","","","","","","","","",""
"html-keyboard-response","28","220643","0.0-8.0-0.20","602bb123612bfe330818d4ef","650c16f0f2faf8d7a0d14c09","651c1e015a3f15cef621aaa9","null","null","<p style=""font-size: 60px; font-family: BACS"">bmbNlGc</p>","","","","","","","","",""
"html-keyboard-response","29","221654","0.0-8.0-0.21","602bb123612bfe330818d4ef","650c16f0f2faf8d7a0d14c09","651c1e015a3f15cef621aaa9","null","null","<p style=""font-size: 60px; font-family: BACS"">hYDmtOPE</p>","","","","","","","","",""
"html-keyboard-response","30","222664","0.0-8.0-0.22","602bb123612bfe330818d4ef","650c16f0f2faf8d7a0d14c09","651c1e015a3f15cef621aaa9","null","null","<p style=""font-size: 60px; font-family: BACS"">vblrdUr</p>","","","","","","","","",""
"html-keyboard-response","31","223679","0.0-8.0-0.23","602bb123612bfe330818d4ef","650c16f0f2faf8d7a0d14c09","651c1e015a3f15cef621aaa9","null","null","<p style=""font-size: 60px; font-family: BACS"">lZculGc</p>","","","","","","","","",""
"html-keyboard-response","32","224689","0.0-8.0-0.24","602bb123612bfe330818d4ef","650c16f0f2faf8d7a0d14c09","651c1e015a3f15cef621aaa9","null","null","<p style=""font-size: 60px; font-family: BACS"">UJmrJcL</p>","","","","","","","","",""
"html-keyboard-response","33","225695","0.0-8.0-0.25","602bb123612bfe330818d4ef","650c16f0f2faf8d7a0d14c09","651c1e015a3f15cef621aaa9","null","null","<p style=""font-size: 60px; font-family: BACS"">rdLJabLd</p>","","","","","","","","",""
"html-keyboard-response","34","226696","0.0-8.0-0.26","602bb123612bfe330818d4ef","650c16f0f2faf8d7a0d14c09","651c1e015a3f15cef621aaa9","null","null","<p style=""font-size: 60px; font-family: BACS"">kPOtOPE</p>","","","","","","","","",""
"html-keyboard-response","35","227706","0.0-8.0-0.27","602bb123612bfe330818d4ef","650c16f0f2faf8d7a0d14c09","651c1e015a3f15cef621aaa9","null","null","<p style=""font-size: 60px; font-family: BACS"">auYAkbLd</p>","","","","","","","","",""
"html-keyboard-response","36","228708","0.0-8.0-0.28","602bb123612bfe330818d4ef","650c16f0f2faf8d7a0d14c09","651c1e015a3f15cef621aaa9","null","null","<p style=""font-size: 60px; font-family: BACS"">bmbNdUr</p>","","","","","","","","",""
"html-keyboard-response","37","229721","0.0-8.0-0.29","602bb123612bfe330818d4ef","650c16f0f2faf8d7a0d14c09","651c1e015a3f15cef621aaa9","null","null","<p style=""font-size: 60px; font-family: BACS"">OcYMmtKP</p>","","","","","","","","",""
"html-keyboard-response","38","230729","0.0-8.0-0.30","602bb123612bfe330818d4ef","650c16f0f2faf8d7a0d14c09","651c1e015a3f15cef621aaa9","null","null","<p style=""font-size: 60px; font-family: BACS"">bmbNLYGA</p>","","","","","","","","",""
"html-keyboard-response","39","231731","0.0-8.0-0.31","602bb123612bfe330818d4ef","650c16f0f2faf8d7a0d14c09","651c1e015a3f15cef621aaa9","null","null","<p style=""font-size: 60px; font-family: BACS"">hYDmtEcR</p>","","","","","","","","",""
"html-keyboard-response","40","232741","0.0-8.0-0.32","602bb123612bfe330818d4ef","650c16f0f2faf8d7a0d14c09","651c1e015a3f15cef621aaa9","null","null","<p style=""font-size: 60px; font-family: BACS"">DkTCPOBT</p>","","","","","","","","",""
"html-keyboard-response","41","233747","0.0-8.0-0.33","602bb123612bfe330818d4ef","650c16f0f2faf8d7a0d14c09","651c1e015a3f15cef621aaa9","null","null","<p style=""font-size: 60px; font-family: BACS"">JmNklGc</p>","","","","","","","","",""
"html-keyboard-response","42","234761","0.0-8.0-0.34","602bb123612bfe330818d4ef","650c16f0f2faf8d7a0d14c09","651c1e015a3f15cef621aaa9","null","null","<p style=""font-size: 60px; font-family: BACS"">auYAkJcL</p>","","","","","","","","",""
"html-keyboard-response","43","235770","0.0-8.0-0.35","602bb123612bfe330818d4ef","650c16f0f2faf8d7a0d14c09","651c1e015a3f15cef621aaa9","null","null","<p style=""font-size: 60px; font-family: BACS"">kcCRtOtM</p>","","","","","","","","",""
"html-keyboard-response","44","236785","0.0-8.0-0.36","602bb123612bfe330818d4ef","650c16f0f2faf8d7a0d14c09","651c1e015a3f15cef621aaa9","null","null","<p style=""font-size: 60px; font-family: BACS"">lZcuJcL</p>","","","","","","","","",""
"html-keyboard-response","45","237789","0.0-8.0-0.37","602bb123612bfe330818d4ef","650c16f0f2faf8d7a0d14c09","651c1e015a3f15cef621aaa9","null","null","<p style=""font-size: 60px; font-family: BACS"">kPOtEcR</p>","","","","","","","","",""
"html-keyboard-response","46","238798","0.0-8.0-0.38","602bb123612bfe330818d4ef","650c16f0f2faf8d7a0d14c09","651c1e015a3f15cef621aaa9","null","null","<p style=""font-size: 60px; font-family: BACS"">DkTCPOtM</p>","","","","","","","","",""
"html-keyboard-response","47","239801","0.0-8.0-0.39","602bb123612bfe330818d4ef","650c16f0f2faf8d7a0d14c09","651c1e015a3f15cef621aaa9","null","null","<p style=""font-size: 60px; font-family: BACS"">OcYMEcR</p>","","","","","","","","",""
"html-keyboard-response","48","240816","0.0-8.0-0.40","602bb123612bfe330818d4ef","650c16f0f2faf8d7a0d14c09","651c1e015a3f15cef621aaa9","null","null","<p style=""font-size: 60px; font-family: BACS"">UJmrdUr</p>","","","","","","","","",""
"html-keyboard-response","49","241832","0.0-8.0-0.41","602bb123612bfe330818d4ef","650c16f0f2faf8d7a0d14c09","651c1e015a3f15cef621aaa9","null","null","<p style=""font-size: 60px; font-family: BACS"">DkTCPmtKP</p>","","","","","","","","",""
"html-keyboard-response","50","242835","0.0-8.0-0.42","602bb123612bfe330818d4ef","650c16f0f2faf8d7a0d14c09","651c1e015a3f15cef621aaa9","null","null","<p style=""font-size: 60px; font-family: BACS"">UdYUQlGc</p>","","","","","","","","",""
"html-keyboard-response","51","243836","0.0-8.0-0.43","602bb123612bfe330818d4ef","650c16f0f2faf8d7a0d14c09","651c1e015a3f15cef621aaa9","null","null","<p style=""font-size: 60px; font-family: BACS"">hBmMCOBT</p>","","","","","","","","",""
"html-keyboard-response","52","244838","0.0-8.0-0.44","602bb123612bfe330818d4ef","650c16f0f2faf8d7a0d14c09","651c1e015a3f15cef621aaa9","null","null","<p style=""font-size: 60px; font-family: BACS"">vblrbLd</p>","","","","","","","","",""
"html-keyboard-response","53","245844","0.0-8.0-0.45","602bb123612bfe330818d4ef","650c16f0f2faf8d7a0d14c09","651c1e015a3f15cef621aaa9","null","null","<p style=""font-size: 60px; font-family: BACS"">ZNLOvJcL</p>","","","","","","","","",""
"html-keyboard-response","54","246858","0.0-8.0-0.46","602bb123612bfe330818d4ef","650c16f0f2faf8d7a0d14c09","651c1e015a3f15cef621aaa9","null","null","<p style=""font-size: 60px; font-family: BACS"">MkmEdOtM</p>","","","","","","","","",""
"html-keyboard-response","55","247871","0.0-8.0-0.47","602bb123612bfe330818d4ef","650c16f0f2faf8d7a0d14c09","651c1e015a3f15cef621aaa9","null","null","<p style=""font-size: 60px; font-family: BACS"">kLvdNdUr</p>","","","","","","","","",""
"html-keyboard-response","56","248873","0.0-8.0-0.48","602bb123612bfe330818d4ef","650c16f0f2faf8d7a0d14c09","651c1e015a3f15cef621aaa9","null","null","<p style=""font-size: 60px; font-family: BACS"">OmtlDOPE</p>","","","","","","","","",""
"html-keyboard-response","57","249880","0.0-8.0-0.49","602bb123612bfe330818d4ef","650c16f0f2faf8d7a0d14c09","651c1e015a3f15cef621aaa9","null","null","<p style=""font-size: 60px; font-family: BACS"">DMRPEcR</p>","","","","","","","","",""
"html-keyboard-response","58","250895","0.0-8.0-0.50","602bb123612bfe330818d4ef","650c16f0f2faf8d7a0d14c09","651c1e015a3f15cef621aaa9","null","null","<p style=""font-size: 60px; font-family: BACS"">ZNLOvbLd</p>","","","","","","","","",""
"html-keyboard-response","59","251907","0.0-8.0-0.51","602bb123612bfe330818d4ef","650c16f0f2faf8d7a0d14c09","651c1e015a3f15cef621aaa9","null","null","<p style=""font-size: 60px; font-family: BACS"">kLvdNLYGA</p>","","","","","","","","",""
"html-keyboard-response","60","252918","0.0-8.0-0.52","602bb123612bfe330818d4ef","650c16f0f2faf8d7a0d14c09","651c1e015a3f15cef621aaa9","null","null","<p style=""font-size: 60px; font-family: BACS"">DMRPOBT</p>","","","","","","","","",""
"html-keyboard-response","61","253924","0.0-8.0-0.53","602bb123612bfe330818d4ef","650c16f0f2faf8d7a0d14c09","651c1e015a3f15cef621aaa9","null","null","<p style=""font-size: 60px; font-family: BACS"">vblrLYGA</p>","","","","","","","","",""
"html-keyboard-response","62","254933","0.0-8.0-0.54","602bb123612bfe330818d4ef","650c16f0f2faf8d7a0d14c09","651c1e015a3f15cef621aaa9","null","null","<p style=""font-size: 60px; font-family: BACS"">kLvdNJcL</p>","","","","","","","","",""
"html-keyboard-response","63","255949","0.0-8.0-0.55","602bb123612bfe330818d4ef","650c16f0f2faf8d7a0d14c09","651c1e015a3f15cef621aaa9","null","null","<p style=""font-size: 60px; font-family: BACS"">OMlTEcR</p>","","","","","","","","",""
"html-keyboard-response","64","256966","0.0-8.0-0.56","602bb123612bfe330818d4ef","650c16f0f2faf8d7a0d14c09","651c1e015a3f15cef621aaa9","null","null","<p style=""font-size: 60px; font-family: BACS"">hBmMCOPE</p>","","","","","","","","",""
"html-keyboard-response","65","257977","0.0-8.0-0.57","602bb123612bfe330818d4ef","650c16f0f2faf8d7a0d14c09","651c1e015a3f15cef621aaa9","null","null","<p style=""font-size: 60px; font-family: BACS"">JmNkdUr</p>","","","","","","","","",""
"html-keyboard-response","66","258986","0.0-8.0-0.58","602bb123612bfe330818d4ef","650c16f0f2faf8d7a0d14c09","651c1e015a3f15cef621aaa9","null","null","<p style=""font-size: 60px; font-family: BACS"">OcYMOPE</p>","","","","","","","","",""
"html-keyboard-response","67","259998","0.0-8.0-0.59","602bb123612bfe330818d4ef","650c16f0f2faf8d7a0d14c09","651c1e015a3f15cef621aaa9","null","null","<p style=""font-size: 60px; font-family: BACS"">UJmrlGc</p>","","","","","","","","",""
"html-keyboard-response","68","261003","0.0-8.0-0.60","602bb123612bfe330818d4ef","650c16f0f2faf8d7a0d14c09","651c1e015a3f15cef621aaa9","null","null","<p style=""font-size: 60px; font-family: BACS"">JmNkbLd</p>","","","","","","","","",""
"html-keyboard-response","69","262015","0.0-8.0-0.61","602bb123612bfe330818d4ef","650c16f0f2faf8d7a0d14c09","651c1e015a3f15cef621aaa9","null","null","<p style=""font-size: 60px; font-family: BACS"">OcYMOtM</p>","","","","","","","","",""
"html-keyboard-response","70","263028","0.0-8.0-0.62","602bb123612bfe330818d4ef","650c16f0f2faf8d7a0d14c09","651c1e015a3f15cef621aaa9","null","null","<p style=""font-size: 60px; font-family: BACS"">vblrJcL</p>","","","","","","","","",""
"html-keyboard-response","71","264040","0.0-8.0-0.63","602bb123612bfe330818d4ef","650c16f0f2faf8d7a0d14c09","651c1e015a3f15cef621aaa9","null","null","<p style=""font-size: 60px; font-family: BACS"">hYDmtOtM</p>","","","","","","","","",""
"html-keyboard-response","72","265049","0.0-8.0-0.64","602bb123612bfe330818d4ef","650c16f0f2faf8d7a0d14c09","651c1e015a3f15cef621aaa9","null","null","<p style=""font-size: 60px; font-family: BACS"">auYAkLYGA</p>","","","","","","","","",""
"html-keyboard-response","73","266051","0.0-8.0-0.65","602bb123612bfe330818d4ef","650c16f0f2faf8d7a0d14c09","651c1e015a3f15cef621aaa9","null","null","<p style=""font-size: 60px; font-family: BACS"">hBmMCOtM</p>","","","","","","","","",""
"html-keyboard-response","74","267066","0.0-8.0-0.66","602bb123612bfe330818d4ef","650c16f0f2faf8d7a0d14c09","651c1e015a3f15cef621aaa9","null","null","<p style=""font-size: 60px; font-family: BACS"">rdLJaJcL</p>","","","","","","","","",""
"html-keyboard-response","75","268075","0.0-8.0-0.67","602bb123612bfe330818d4ef","650c16f0f2faf8d7a0d14c09","651c1e015a3f15cef621aaa9","null","null","<p style=""font-size: 60px; font-family: BACS"">kPOtOBT</p>","","","","","","","","",""
"html-keyboard-response","76","269077","0.0-8.0-0.68","602bb123612bfe330818d4ef","650c16f0f2faf8d7a0d14c09","651c1e015a3f15cef621aaa9","null","null","<p style=""font-size: 60px; font-family: BACS"">hBmMCmtKP</p>","","","","","","","","",""
"html-keyboard-response","77","270091","0.0-8.0-0.69","602bb123612bfe330818d4ef","650c16f0f2faf8d7a0d14c09","651c1e015a3f15cef621aaa9","null","null","<p style=""font-size: 60px; font-family: BACS"">bmbNbLd</p>","","","","","","","","",""
"html-keyboard-response","78","271098","0.0-8.0-0.70","602bb123612bfe330818d4ef","650c16f0f2faf8d7a0d14c09","651c1e015a3f15cef621aaa9","null","null","<p style=""font-size: 60px; font-family: BACS"">kcCRtEcR</p>","","","","","","","","",""
"html-keyboard-response","79","272102","0.0-8.0-0.71","602bb123612bfe330818d4ef","650c16f0f2faf8d7a0d14c09","651c1e015a3f15cef621aaa9","null","null","<p style=""font-size: 60px; font-family: BACS"">hYDmtmtKP</p>","","","","","","","","",""
"html-keyboard-response","80","273116","0.0-8.0-0.72","602bb123612bfe330818d4ef","650c16f0f2faf8d7a0d14c09","651c1e015a3f15cef621aaa9","null","null","<p style=""font-size: 60px; font-family: BACS"">OMlTOBT</p>","","","","","","","","",""
"html-keyboard-response","81","274132","0.0-8.0-0.73","602bb123612bfe330818d4ef","650c16f0f2faf8d7a0d14c09","651c1e015a3f15cef621aaa9","null","null","<p style=""font-size: 60px; font-family: BACS"">DMRPOtM</p>","","","","","","","","",""
"html-keyboard-response","82","275149","0.0-8.0-0.74","602bb123612bfe330818d4ef","650c16f0f2faf8d7a0d14c09","651c1e015a3f15cef621aaa9","null","null","<p style=""font-size: 60px; font-family: BACS"">rdLJadUr</p>","","","","","","","","",""
"html-keyboard-response","83","276151","0.0-8.0-0.75","602bb123612bfe330818d4ef","650c16f0f2faf8d7a0d14c09","651c1e015a3f15cef621aaa9","null","null","<p style=""font-size: 60px; font-family: BACS"">ZNLOvlGc</p>","","","","","","","","",""
"html-keyboard-response","84","277159","0.0-8.0-0.76","602bb123612bfe330818d4ef","650c16f0f2faf8d7a0d14c09","651c1e015a3f15cef621aaa9","null","null","<p style=""font-size: 60px; font-family: BACS"">OMlTOtM</p>","","","","","","","","",""
"html-keyboard-response","85","278161","0.0-8.0-0.77","602bb123612bfe330818d4ef","650c16f0f2faf8d7a0d14c09","651c1e015a3f15cef621aaa9","null","null","<p style=""font-size: 60px; font-family: BACS"">kcCRtOPE</p>","","","","","","","","",""
"html-keyboard-response","86","279163","0.0-8.0-0.78","602bb123612bfe330818d4ef","650c16f0f2faf8d7a0d14c09","651c1e015a3f15cef621aaa9","null","null","<p style=""font-size: 60px; font-family: BACS"">UdYUQJcL</p>","","","","","","","","",""
"html-keyboard-response","87","280166","0.0-8.0-0.79","602bb123612bfe330818d4ef","650c16f0f2faf8d7a0d14c09","651c1e015a3f15cef621aaa9","null","null","<p style=""font-size: 60px; font-family: BACS"">DMRPmtKP</p>","","","","","","","","",""
"html-keyboard-response","88","286265","0.0-9.0","602bb123612bfe330818d4ef","650c16f0f2faf8d7a0d14c09","651c1e015a3f15cef621aaa9","6097"," ","<p>Great, you've seen the first block of words. You may now take a short break.</p>
      <p>Press the spacebar when you're ready to continue.</p>","","","","","","","","",""
"html-keyboard-response","89","287269","0.0-10.0-0.0","602bb123612bfe330818d4ef","650c16f0f2faf8d7a0d14c09","651c1e015a3f15cef621aaa9","null","null","<p style=""font-size: 60px; font-family: BACS"">UdYUQbLd</p>","","","","","","","","",""
"html-keyboard-response","90","288278","0.0-10.0-0.1","602bb123612bfe330818d4ef","650c16f0f2faf8d7a0d14c09","651c1e015a3f15cef621aaa9","null","null","<p style=""font-size: 60px; font-family: BACS"">bmbNLYGA</p>","","","","","","","","",""
"html-keyboard-response","91","289280","0.0-10.0-0.2","602bb123612bfe330818d4ef","650c16f0f2faf8d7a0d14c09","651c1e015a3f15cef621aaa9","null","null","<p style=""font-size: 60px; font-family: BACS"">hBmMCOtM</p>","","","","","","","","",""
"html-keyboard-response","92","290294","0.0-10.0-0.3","602bb123612bfe330818d4ef","650c16f0f2faf8d7a0d14c09","651c1e015a3f15cef621aaa9","null","null","<p style=""font-size: 60px; font-family: BACS"">rdLJaJcL</p>","","","","","","","","",""
"html-keyboard-response","93","291308","0.0-10.0-0.4","602bb123612bfe330818d4ef","650c16f0f2faf8d7a0d14c09","651c1e015a3f15cef621aaa9","null","null","<p style=""font-size: 60px; font-family: BACS"">JmNklGc</p>","","","","","","","","",""
"html-keyboard-response","94","292309","0.0-10.0-0.5","602bb123612bfe330818d4ef","650c16f0f2faf8d7a0d14c09","651c1e015a3f15cef621aaa9","null","null","<p style=""font-size: 60px; font-family: BACS"">kcCRtEcR</p>","","","","","","","","",""
"html-keyboard-response","95","293318","0.0-10.0-0.6","602bb123612bfe330818d4ef","650c16f0f2faf8d7a0d14c09","651c1e015a3f15cef621aaa9","null","null","<p style=""font-size: 60px; font-family: BACS"">auYAkJcL</p>","","","","","","","","",""
"html-keyboard-response","96","294321","0.0-10.0-0.7","602bb123612bfe330818d4ef","650c16f0f2faf8d7a0d14c09","651c1e015a3f15cef621aaa9","null","null","<p style=""font-size: 60px; font-family: BACS"">OMlTEcR</p>","","","","","","","","",""
"html-keyboard-response","97","295328","0.0-10.0-0.8","602bb123612bfe330818d4ef","650c16f0f2faf8d7a0d14c09","651c1e015a3f15cef621aaa9","null","null","<p style=""font-size: 60px; font-family: BACS"">kLvdNdUr</p>","","","","","","","","",""
"html-keyboard-response","98","296341","0.0-10.0-0.9","602bb123612bfe330818d4ef","650c16f0f2faf8d7a0d14c09","651c1e015a3f15cef621aaa9","null","null","<p style=""font-size: 60px; font-family: BACS"">JmNkbLd</p>","","","","","","","","",""
"html-keyboard-response","99","297351","0.0-10.0-0.10","602bb123612bfe330818d4ef","650c16f0f2faf8d7a0d14c09","651c1e015a3f15cef621aaa9","null","null","<p style=""font-size: 60px; font-family: BACS"">MkmEdOPE</p>","","","","","","","","",""
"html-keyboard-response","100","298356","0.0-10.0-0.11","602bb123612bfe330818d4ef","650c16f0f2faf8d7a0d14c09","651c1e015a3f15cef621aaa9","null","null","<p style=""font-size: 60px; font-family: BACS"">UdYUQJcL</p>","","","","","","","","",""
"html-keyboard-response","101","299361","0.0-10.0-0.12","602bb123612bfe330818d4ef","650c16f0f2faf8d7a0d14c09","651c1e015a3f15cef621aaa9","null","null","<p style=""font-size: 60px; font-family: BACS"">auYAkbLd</p>","","","","","","","","",""
"html-keyboard-response","102","300362","0.0-10.0-0.13","602bb123612bfe330818d4ef","650c16f0f2faf8d7a0d14c09","651c1e015a3f15cef621aaa9","null","null","<p style=""font-size: 60px; font-family: BACS"">OmtlDOBT</p>","","","","","","","","",""
"html-keyboard-response","103","301372","0.0-10.0-0.14","602bb123612bfe330818d4ef","650c16f0f2faf8d7a0d14c09","651c1e015a3f15cef621aaa9","null","null","<p style=""font-size: 60px; font-family: BACS"">vblrdUr</p>","","","","","","","","",""
"html-keyboard-response","104","302388","0.0-10.0-0.15","602bb123612bfe330818d4ef","650c16f0f2faf8d7a0d14c09","651c1e015a3f15cef621aaa9","null","null","<p style=""font-size: 60px; font-family: BACS"">UJmrLYGA</p>","","","","","","","","",""
"html-keyboard-response","105","303396","0.0-10.0-0.16","602bb123612bfe330818d4ef","650c16f0f2faf8d7a0d14c09","651c1e015a3f15cef621aaa9","null","null","<p style=""font-size: 60px; font-family: BACS"">hBmMCOBT</p>","","","","","","","","",""
"html-keyboard-response","106","304410","0.0-10.0-0.17","602bb123612bfe330818d4ef","650c16f0f2faf8d7a0d14c09","651c1e015a3f15cef621aaa9","null","null","<p style=""font-size: 60px; font-family: BACS"">rdLJadUr</p>","","","","","","","","",""
"html-keyboard-response","107","305412","0.0-10.0-0.18","602bb123612bfe330818d4ef","650c16f0f2faf8d7a0d14c09","651c1e015a3f15cef621aaa9","null","null","<p style=""font-size: 60px; font-family: BACS"">DMRPOtM</p>","","","","","","","","",""
"html-keyboard-response","108","306426","0.0-10.0-0.19","602bb123612bfe330818d4ef","650c16f0f2faf8d7a0d14c09","651c1e015a3f15cef621aaa9","null","null","<p style=""font-size: 60px; font-family: BACS"">ZNLOvlGc</p>","","","","","","","","",""
"html-keyboard-response","109","307433","0.0-10.0-0.20","602bb123612bfe330818d4ef","650c16f0f2faf8d7a0d14c09","651c1e015a3f15cef621aaa9","null","null","<p style=""font-size: 60px; font-family: BACS"">hBmMCOPE</p>","","","","","","","","",""
"html-keyboard-response","110","308440","0.0-10.0-0.21","602bb123612bfe330818d4ef","650c16f0f2faf8d7a0d14c09","651c1e015a3f15cef621aaa9","null","null","<p style=""font-size: 60px; font-family: BACS"">bmbNdUr</p>","","","","","","","","",""
"html-keyboard-response","111","309451","0.0-10.0-0.22","602bb123612bfe330818d4ef","650c16f0f2faf8d7a0d14c09","651c1e015a3f15cef621aaa9","null","null","<p style=""font-size: 60px; font-family: BACS"">hBmMCmtKP</p>","","","","","","","","",""
"html-keyboard-response","112","310466","0.0-10.0-0.23","602bb123612bfe330818d4ef","650c16f0f2faf8d7a0d14c09","651c1e015a3f15cef621aaa9","null","null","<p style=""font-size: 60px; font-family: BACS"">vblrbLd</p>","","","","","","","","",""
"html-keyboard-response","113","311484","0.0-10.0-0.24","602bb123612bfe330818d4ef","650c16f0f2faf8d7a0d14c09","651c1e015a3f15cef621aaa9","null","null","<p style=""font-size: 60px; font-family: BACS"">rdLJaLYGA</p>","","","","","","","","",""
"html-keyboard-response","114","312486","0.0-10.0-0.25","602bb123612bfe330818d4ef","650c16f0f2faf8d7a0d14c09","651c1e015a3f15cef621aaa9","null","null","<p style=""font-size: 60px; font-family: BACS"">kcCRtOtM</p>","","","","","","","","",""
"html-keyboard-response","115","313502","0.0-10.0-0.26","602bb123612bfe330818d4ef","650c16f0f2faf8d7a0d14c09","651c1e015a3f15cef621aaa9","null","null","<p style=""font-size: 60px; font-family: BACS"">kLvdNLYGA</p>","","","","","","","","",""
"html-keyboard-response","116","314513","0.0-10.0-0.27","602bb123612bfe330818d4ef","650c16f0f2faf8d7a0d14c09","651c1e015a3f15cef621aaa9","null","null","<p style=""font-size: 60px; font-family: BACS"">ZNLOvdUr</p>","","","","","","","","",""
"html-keyboard-response","117","315529","0.0-10.0-0.28","602bb123612bfe330818d4ef","650c16f0f2faf8d7a0d14c09","651c1e015a3f15cef621aaa9","null","null","<p style=""font-size: 60px; font-family: BACS"">UdYUQLYGA</p>","","","","","","","","",""
"html-keyboard-response","118","316534","0.0-10.0-0.29","602bb123612bfe330818d4ef","650c16f0f2faf8d7a0d14c09","651c1e015a3f15cef621aaa9","null","null","<p style=""font-size: 60px; font-family: BACS"">UJmrdUr</p>","","","","","","","","",""
"html-keyboard-response","119","317542","0.0-10.0-0.30","602bb123612bfe330818d4ef","650c16f0f2faf8d7a0d14c09","651c1e015a3f15cef621aaa9","null","null","<p style=""font-size: 60px; font-family: BACS"">rdLJabLd</p>","","","","","","","","",""
"html-keyboard-response","120","318552","0.0-10.0-0.31","602bb123612bfe330818d4ef","650c16f0f2faf8d7a0d14c09","651c1e015a3f15cef621aaa9","null","null","<p style=""font-size: 60px; font-family: BACS"">DMRPEcR</p>","","","","","","","","",""
"html-keyboard-response","121","319560","0.0-10.0-0.32","602bb123612bfe330818d4ef","650c16f0f2faf8d7a0d14c09","651c1e015a3f15cef621aaa9","null","null","<p style=""font-size: 60px; font-family: BACS"">MkmEdOBT</p>","","","","","","","","",""
"html-keyboard-response","122","320568","0.0-10.0-0.33","602bb123612bfe330818d4ef","650c16f0f2faf8d7a0d14c09","651c1e015a3f15cef621aaa9","null","null","<p style=""font-size: 60px; font-family: BACS"">OmtlDmtKP</p>","","","","","","","","",""
"html-keyboard-response","123","321583","0.0-10.0-0.34","602bb123612bfe330818d4ef","650c16f0f2faf8d7a0d14c09","651c1e015a3f15cef621aaa9","null","null","<p style=""font-size: 60px; font-family: BACS"">auYAkLYGA</p>","","","","","","","","",""
"html-keyboard-response","124","322586","0.0-10.0-0.35","602bb123612bfe330818d4ef","650c16f0f2faf8d7a0d14c09","651c1e015a3f15cef621aaa9","null","null","<p style=""font-size: 60px; font-family: BACS"">OMlTOBT</p>","","","","","","","","",""
"html-keyboard-response","125","323603","0.0-10.0-0.36","602bb123612bfe330818d4ef","650c16f0f2faf8d7a0d14c09","651c1e015a3f15cef621aaa9","null","null","<p style=""font-size: 60px; font-family: BACS"">kcCRtOPE</p>","","","","","","","","",""
"html-keyboard-response","126","324620","0.0-10.0-0.37","602bb123612bfe330818d4ef","650c16f0f2faf8d7a0d14c09","651c1e015a3f15cef621aaa9","null","null","<p style=""font-size: 60px; font-family: BACS"">MkmEdEcR</p>","","","","","","","","",""
"html-keyboard-response","127","325635","0.0-10.0-0.38","602bb123612bfe330818d4ef","650c16f0f2faf8d7a0d14c09","651c1e015a3f15cef621aaa9","null","null","<p style=""font-size: 60px; font-family: BACS"">kPOtOBT</p>","","","","","","","","",""
"html-keyboard-response","128","326650","0.0-10.0-0.39","602bb123612bfe330818d4ef","650c16f0f2faf8d7a0d14c09","651c1e015a3f15cef621aaa9","null","null","<p style=""font-size: 60px; font-family: BACS"">vblrJcL</p>","","","","","","","","",""
"html-keyboard-response","129","327662","0.0-10.0-0.40","602bb123612bfe330818d4ef","650c16f0f2faf8d7a0d14c09","651c1e015a3f15cef621aaa9","null","null","<p style=""font-size: 60px; font-family: BACS"">lZcudUr</p>","","","","","","","","",""
"html-keyboard-response","130","328679","0.0-10.0-0.41","602bb123612bfe330818d4ef","650c16f0f2faf8d7a0d14c09","651c1e015a3f15cef621aaa9","null","null","<p style=""font-size: 60px; font-family: BACS"">kLvdNJcL</p>","","","","","","","","",""
"html-keyboard-response","131","329691","0.0-10.0-0.42","602bb123612bfe330818d4ef","650c16f0f2faf8d7a0d14c09","651c1e015a3f15cef621aaa9","null","null","<p style=""font-size: 60px; font-family: BACS"">auYAklGc</p>","","","","","","","","",""
"html-keyboard-response","132","330697","0.0-10.0-0.43","602bb123612bfe330818d4ef","650c16f0f2faf8d7a0d14c09","651c1e015a3f15cef621aaa9","null","null","<p style=""font-size: 60px; font-family: BACS"">kPOtEcR</p>","","","","","","","","",""
"html-keyboard-response","133","331702","0.0-10.0-0.44","602bb123612bfe330818d4ef","650c16f0f2faf8d7a0d14c09","651c1e015a3f15cef621aaa9","null","null","<p style=""font-size: 60px; font-family: BACS"">bmbNlGc</p>","","","","","","","","",""
"html-keyboard-response","134","332715","0.0-10.0-0.45","602bb123612bfe330818d4ef","650c16f0f2faf8d7a0d14c09","651c1e015a3f15cef621aaa9","null","null","<p style=""font-size: 60px; font-family: BACS"">OmtlDEcR</p>","","","","","","","","",""
"html-keyboard-response","135","333729","0.0-10.0-0.46","602bb123612bfe330818d4ef","650c16f0f2faf8d7a0d14c09","651c1e015a3f15cef621aaa9","null","null","<p style=""font-size: 60px; font-family: BACS"">OMlTOtM</p>","","","","","","","","",""
"html-keyboard-response","136","334730","0.0-10.0-0.47","602bb123612bfe330818d4ef","650c16f0f2faf8d7a0d14c09","651c1e015a3f15cef621aaa9","null","null","<p style=""font-size: 60px; font-family: BACS"">ZNLOvbLd</p>","","","","","","","","",""
"html-keyboard-response","137","335742","0.0-10.0-0.48","602bb123612bfe330818d4ef","650c16f0f2faf8d7a0d14c09","651c1e015a3f15cef621aaa9","null","null","<p style=""font-size: 60px; font-family: BACS"">UJmrlGc</p>","","","","","","","","",""
"html-keyboard-response","138","336755","0.0-10.0-0.49","602bb123612bfe330818d4ef","650c16f0f2faf8d7a0d14c09","651c1e015a3f15cef621aaa9","null","null","<p style=""font-size: 60px; font-family: BACS"">OmtlDOPE</p>","","","","","","","","",""
"html-keyboard-response","139","337764","0.0-10.0-0.50","602bb123612bfe330818d4ef","650c16f0f2faf8d7a0d14c09","651c1e015a3f15cef621aaa9","null","null","<p style=""font-size: 60px; font-family: BACS"">lZculGc</p>","","","","","","","","",""
"html-keyboard-response","140","338779","0.0-10.0-0.51","602bb123612bfe330818d4ef","650c16f0f2faf8d7a0d14c09","651c1e015a3f15cef621aaa9","null","null","<p style=""font-size: 60px; font-family: BACS"">vblrLYGA</p>","","","","","","","","",""
"html-keyboard-response","141","339785","0.0-10.0-0.52","602bb123612bfe330818d4ef","650c16f0f2faf8d7a0d14c09","651c1e015a3f15cef621aaa9","null","null","<p style=""font-size: 60px; font-family: BACS"">bmbNbLd</p>","","","","","","","","",""
"html-keyboard-response","142","340793","0.0-10.0-0.53","602bb123612bfe330818d4ef","650c16f0f2faf8d7a0d14c09","651c1e015a3f15cef621aaa9","null","null","<p style=""font-size: 60px; font-family: BACS"">kPOtOPE</p>","","","","","","","","",""
"html-keyboard-response","143","341800","0.0-10.0-0.54","602bb123612bfe330818d4ef","650c16f0f2faf8d7a0d14c09","651c1e015a3f15cef621aaa9","null","null","<p style=""font-size: 60px; font-family: BACS"">OcYMOtM</p>","","","","","","","","",""
"html-keyboard-response","144","342810","0.0-10.0-0.55","602bb123612bfe330818d4ef","650c16f0f2faf8d7a0d14c09","651c1e015a3f15cef621aaa9","null","null","<p style=""font-size: 60px; font-family: BACS"">DkTCPmtKP</p>","","","","","","","","",""
"html-keyboard-response","145","343811","0.0-10.0-0.56","602bb123612bfe330818d4ef","650c16f0f2faf8d7a0d14c09","651c1e015a3f15cef621aaa9","null","null","<p style=""font-size: 60px; font-family: BACS"">DMRPOBT</p>","","","","","","","","",""
"html-keyboard-response","146","344814","0.0-10.0-0.57","602bb123612bfe330818d4ef","650c16f0f2faf8d7a0d14c09","651c1e015a3f15cef621aaa9","null","null","<p style=""font-size: 60px; font-family: BACS"">ZNLOvJcL</p>","","","","","","","","",""
"html-keyboard-response","147","345820","0.0-10.0-0.58","602bb123612bfe330818d4ef","650c16f0f2faf8d7a0d14c09","651c1e015a3f15cef621aaa9","null","null","<p style=""font-size: 60px; font-family: BACS"">hYDmtmtKP</p>","","","","","","","","",""
"html-keyboard-response","148","346828","0.0-10.0-0.59","602bb123612bfe330818d4ef","650c16f0f2faf8d7a0d14c09","651c1e015a3f15cef621aaa9","null","null","<p style=""font-size: 60px; font-family: BACS"">DkTCPOPE</p>","","","","","","","","",""
"html-keyboard-response","149","347837","0.0-10.0-0.60","602bb123612bfe330818d4ef","650c16f0f2faf8d7a0d14c09","651c1e015a3f15cef621aaa9","null","null","<p style=""font-size: 60px; font-family: BACS"">hYDmtOtM</p>","","","","","","","","",""
"html-keyboard-response","150","348854","0.0-10.0-0.61","602bb123612bfe330818d4ef","650c16f0f2faf8d7a0d14c09","651c1e015a3f15cef621aaa9","null","null","<p style=""font-size: 60px; font-family: BACS"">kLvdNlGc</p>","","","","","","","","",""
"html-keyboard-response","151","349856","0.0-10.0-0.62","602bb123612bfe330818d4ef","650c16f0f2faf8d7a0d14c09","651c1e015a3f15cef621aaa9","null","null","<p style=""font-size: 60px; font-family: BACS"">JmNkLYGA</p>","","","","","","","","",""
"html-keyboard-response","152","350869","0.0-10.0-0.63","602bb123612bfe330818d4ef","650c16f0f2faf8d7a0d14c09","651c1e015a3f15cef621aaa9","null","null","<p style=""font-size: 60px; font-family: BACS"">OcYMOPE</p>","","","","","","","","",""
"html-keyboard-response","153","351881","0.0-10.0-0.64","602bb123612bfe330818d4ef","650c16f0f2faf8d7a0d14c09","651c1e015a3f15cef621aaa9","null","null","<p style=""font-size: 60px; font-family: BACS"">lZcuJcL</p>","","","","","","","","",""
"html-keyboard-response","154","352888","0.0-10.0-0.65","602bb123612bfe330818d4ef","650c16f0f2faf8d7a0d14c09","651c1e015a3f15cef621aaa9","null","null","<p style=""font-size: 60px; font-family: BACS"">DkTCPOtM</p>","","","","","","","","",""
"html-keyboard-response","155","353904","0.0-10.0-0.66","602bb123612bfe330818d4ef","650c16f0f2faf8d7a0d14c09","651c1e015a3f15cef621aaa9","null","null","<p style=""font-size: 60px; font-family: BACS"">JmNkdUr</p>","","","","","","","","",""
"html-keyboard-response","156","354911","0.0-10.0-0.67","602bb123612bfe330818d4ef","650c16f0f2faf8d7a0d14c09","651c1e015a3f15cef621aaa9","null","null","<p style=""font-size: 60px; font-family: BACS"">kcCRtOBT</p>","","","","","","","","",""
"html-keyboard-response","157","355925","0.0-10.0-0.68","602bb123612bfe330818d4ef","650c16f0f2faf8d7a0d14c09","651c1e015a3f15cef621aaa9","null","null","<p style=""font-size: 60px; font-family: BACS"">OcYMEcR</p>","","","","","","","","",""
"html-keyboard-response","158","356932","0.0-10.0-0.69","602bb123612bfe330818d4ef","650c16f0f2faf8d7a0d14c09","651c1e015a3f15cef621aaa9","null","null","<p style=""font-size: 60px; font-family: BACS"">lZcubLd</p>","","","","","","","","",""
"html-keyboard-response","159","357937","0.0-10.0-0.70","602bb123612bfe330818d4ef","650c16f0f2faf8d7a0d14c09","651c1e015a3f15cef621aaa9","null","null","<p style=""font-size: 60px; font-family: BACS"">hYDmtEcR</p>","","","","","","","","",""
"html-keyboard-response","160","358944","0.0-10.0-0.71","602bb123612bfe330818d4ef","650c16f0f2faf8d7a0d14c09","651c1e015a3f15cef621aaa9","null","null","<p style=""font-size: 60px; font-family: BACS"">OMlTmtKP</p>","","","","","","","","",""
"html-keyboard-response","161","359958","0.0-10.0-0.72","602bb123612bfe330818d4ef","650c16f0f2faf8d7a0d14c09","651c1e015a3f15cef621aaa9","null","null","<p style=""font-size: 60px; font-family: BACS"">MkmEdOtM</p>","","","","","","","","",""
"html-keyboard-response","162","360961","0.0-10.0-0.73","602bb123612bfe330818d4ef","650c16f0f2faf8d7a0d14c09","651c1e015a3f15cef621aaa9","null","null","<p style=""font-size: 60px; font-family: BACS"">DMRPmtKP</p>","","","","","","","","",""
"html-keyboard-response","163","361978","0.0-10.0-0.74","602bb123612bfe330818d4ef","650c16f0f2faf8d7a0d14c09","651c1e015a3f15cef621aaa9","null","null","<p style=""font-size: 60px; font-family: BACS"">UdYUQlGc</p>","","","","","","","","",""
"html-keyboard-response","164","362980","0.0-10.0-0.75","602bb123612bfe330818d4ef","650c16f0f2faf8d7a0d14c09","651c1e015a3f15cef621aaa9","null","null","<p style=""font-size: 60px; font-family: BACS"">kPOtmtKP</p>","","","","","","","","",""
"html-keyboard-response","165","363993","0.0-10.0-0.76","602bb123612bfe330818d4ef","650c16f0f2faf8d7a0d14c09","651c1e015a3f15cef621aaa9","null","null","<p style=""font-size: 60px; font-family: BACS"">DkTCPOBT</p>","","","","","","","","",""
"html-keyboard-response","166","365004","0.0-10.0-0.77","602bb123612bfe330818d4ef","650c16f0f2faf8d7a0d14c09","651c1e015a3f15cef621aaa9","null","null","<p style=""font-size: 60px; font-family: BACS"">hYDmtOPE</p>","","","","","","","","",""
"html-keyboard-response","167","366006","0.0-10.0-0.78","602bb123612bfe330818d4ef","650c16f0f2faf8d7a0d14c09","651c1e015a3f15cef621aaa9","null","null","<p style=""font-size: 60px; font-family: BACS"">UJmrJcL</p>","","","","","","","","",""
"html-keyboard-response","168","367013","0.0-10.0-0.79","602bb123612bfe330818d4ef","650c16f0f2faf8d7a0d14c09","651c1e015a3f15cef621aaa9","null","null","<p style=""font-size: 60px; font-family: BACS"">OcYMmtKP</p>","","","","","","","","",""
"html-keyboard-response","169","371054","0.0-11.0","602bb123612bfe330818d4ef","650c16f0f2faf8d7a0d14c09","651c1e015a3f15cef621aaa9","4040"," ","<p>Great, you've seen the second block of words. You may now take a short break.</p>
      <p>Press the spacebar when you're ready to continue.</p>","","","","","","","","",""
"html-keyboard-response","170","372058","0.0-12.0-0.0","602bb123612bfe330818d4ef","650c16f0f2faf8d7a0d14c09","651c1e015a3f15cef621aaa9","null","null","<p style=""font-size: 60px; font-family: BACS"">ZNLOvJcL</p>","","","","","","","","",""
"html-keyboard-response","171","373071","0.0-12.0-0.1","602bb123612bfe330818d4ef","650c16f0f2faf8d7a0d14c09","651c1e015a3f15cef621aaa9","null","null","<p style=""font-size: 60px; font-family: BACS"">kcCRtOtM</p>","","","","","","","","",""
"html-keyboard-response","172","374082","0.0-12.0-0.2","602bb123612bfe330818d4ef","650c16f0f2faf8d7a0d14c09","651c1e015a3f15cef621aaa9","null","null","<p style=""font-size: 60px; font-family: BACS"">JmNklGc</p>","","","","","","","","",""
"html-keyboard-response","173","375093","0.0-12.0-0.3","602bb123612bfe330818d4ef","650c16f0f2faf8d7a0d14c09","651c1e015a3f15cef621aaa9","null","null","<p style=""font-size: 60px; font-family: BACS"">vblrbLd</p>","","","","","","","","",""
"html-keyboard-response","174","376097","0.0-12.0-0.4","602bb123612bfe330818d4ef","650c16f0f2faf8d7a0d14c09","651c1e015a3f15cef621aaa9","null","null","<p style=""font-size: 60px; font-family: BACS"">JmNkdUr</p>","","","","","","","","",""
"html-keyboard-response","175","377114","0.0-12.0-0.5","602bb123612bfe330818d4ef","650c16f0f2faf8d7a0d14c09","651c1e015a3f15cef621aaa9","null","null","<p style=""font-size: 60px; font-family: BACS"">ZNLOvbLd</p>","","","","","","","","",""
"html-keyboard-response","176","378130","0.0-12.0-0.6","602bb123612bfe330818d4ef","650c16f0f2faf8d7a0d14c09","651c1e015a3f15cef621aaa9","null","null","<p style=""font-size: 60px; font-family: BACS"">bmbNLYGA</p>","","","","","","","","",""
"html-keyboard-response","177","379139","0.0-12.0-0.7","602bb123612bfe330818d4ef","650c16f0f2faf8d7a0d14c09","651c1e015a3f15cef621aaa9","null","null","<p style=""font-size: 60px; font-family: BACS"">MkmEdOBT</p>","","","","","","","","",""
"html-keyboard-response","178","380149","0.0-12.0-0.8","602bb123612bfe330818d4ef","650c16f0f2faf8d7a0d14c09","651c1e015a3f15cef621aaa9","null","null","<p style=""font-size: 60px; font-family: BACS"">rdLJaLYGA</p>","","","","","","","","",""
"html-keyboard-response","179","381159","0.0-12.0-0.9","602bb123612bfe330818d4ef","650c16f0f2faf8d7a0d14c09","651c1e015a3f15cef621aaa9","null","null","<p style=""font-size: 60px; font-family: BACS"">ZNLOvlGc</p>","","","","","","","","",""
"html-keyboard-response","180","382171","0.0-12.0-0.10","602bb123612bfe330818d4ef","650c16f0f2faf8d7a0d14c09","651c1e015a3f15cef621aaa9","null","null","<p style=""font-size: 60px; font-family: BACS"">kPOtEcR</p>","","","","","","","","",""
"html-keyboard-response","181","383175","0.0-12.0-0.11","602bb123612bfe330818d4ef","650c16f0f2faf8d7a0d14c09","651c1e015a3f15cef621aaa9","null","null","<p style=""font-size: 60px; font-family: BACS"">UdYUQlGc</p>","","","","","","","","",""
"html-keyboard-response","182","384180","0.0-12.0-0.12","602bb123612bfe330818d4ef","650c16f0f2faf8d7a0d14c09","651c1e015a3f15cef621aaa9","null","null","<p style=""font-size: 60px; font-family: BACS"">auYAkbLd</p>","","","","","","","","",""
"html-keyboard-response","183","385195","0.0-12.0-0.13","602bb123612bfe330818d4ef","650c16f0f2faf8d7a0d14c09","651c1e015a3f15cef621aaa9","null","null","<p style=""font-size: 60px; font-family: BACS"">hYDmtEcR</p>","","","","","","","","",""
"html-keyboard-response","184","386204","0.0-12.0-0.14","602bb123612bfe330818d4ef","650c16f0f2faf8d7a0d14c09","651c1e015a3f15cef621aaa9","null","null","<p style=""font-size: 60px; font-family: BACS"">DkTCPOtM</p>","","","","","","","","",""
"html-keyboard-response","185","387221","0.0-12.0-0.15","602bb123612bfe330818d4ef","650c16f0f2faf8d7a0d14c09","651c1e015a3f15cef621aaa9","null","null","<p style=""font-size: 60px; font-family: BACS"">UJmrJcL</p>","","","","","","","","",""
"html-keyboard-response","186","388236","0.0-12.0-0.16","602bb123612bfe330818d4ef","650c16f0f2faf8d7a0d14c09","651c1e015a3f15cef621aaa9","null","null","<p style=""font-size: 60px; font-family: BACS"">MkmEdOtM</p>","","","","","","","","",""
"html-keyboard-response","187","389254","0.0-12.0-0.17","602bb123612bfe330818d4ef","650c16f0f2faf8d7a0d14c09","651c1e015a3f15cef621aaa9","null","null","<p style=""font-size: 60px; font-family: BACS"">UdYUQbLd</p>","","","","","","","","",""
"html-keyboard-response","188","390265","0.0-12.0-0.18","602bb123612bfe330818d4ef","650c16f0f2faf8d7a0d14c09","651c1e015a3f15cef621aaa9","null","null","<p style=""font-size: 60px; font-family: BACS"">DkTCPmtKP</p>","","","","","","","","",""
"html-keyboard-response","189","391267","0.0-12.0-0.19","602bb123612bfe330818d4ef","650c16f0f2faf8d7a0d14c09","651c1e015a3f15cef621aaa9","null","null","<p style=""font-size: 60px; font-family: BACS"">DMRPOBT</p>","","","","","","","","",""
"html-keyboard-response","190","392268","0.0-12.0-0.20","602bb123612bfe330818d4ef","650c16f0f2faf8d7a0d14c09","651c1e015a3f15cef621aaa9","null","null","<p style=""font-size: 60px; font-family: BACS"">rdLJabLd</p>","","","","","","","","",""
"html-keyboard-response","191","393277","0.0-12.0-0.21","602bb123612bfe330818d4ef","650c16f0f2faf8d7a0d14c09","651c1e015a3f15cef621aaa9","null","null","<p style=""font-size: 60px; font-family: BACS"">DkTCPOPE</p>","","","","","","","","",""
"html-keyboard-response","192","394292","0.0-12.0-0.22","602bb123612bfe330818d4ef","650c16f0f2faf8d7a0d14c09","651c1e015a3f15cef621aaa9","null","null","<p style=""font-size: 60px; font-family: BACS"">UdYUQLYGA</p>","","","","","","","","",""
"html-keyboard-response","193","395306","0.0-12.0-0.23","602bb123612bfe330818d4ef","650c16f0f2faf8d7a0d14c09","651c1e015a3f15cef621aaa9","null","null","<p style=""font-size: 60px; font-family: BACS"">hYDmtmtKP</p>","","","","","","","","",""
"html-keyboard-response","194","396321","0.0-12.0-0.24","602bb123612bfe330818d4ef","650c16f0f2faf8d7a0d14c09","651c1e015a3f15cef621aaa9","null","null","<p style=""font-size: 60px; font-family: BACS"">bmbNbLd</p>","","","","","","","","",""
"html-keyboard-response","195","397333","0.0-12.0-0.25","602bb123612bfe330818d4ef","650c16f0f2faf8d7a0d14c09","651c1e015a3f15cef621aaa9","null","null","<p style=""font-size: 60px; font-family: BACS"">OcYMOtM</p>","","","","","","","","",""
"html-keyboard-response","196","398344","0.0-12.0-0.26","602bb123612bfe330818d4ef","650c16f0f2faf8d7a0d14c09","651c1e015a3f15cef621aaa9","null","null","<p style=""font-size: 60px; font-family: BACS"">kLvdNdUr</p>","","","","","","","","",""
"html-keyboard-response","197","399350","0.0-12.0-0.27","602bb123612bfe330818d4ef","650c16f0f2faf8d7a0d14c09","651c1e015a3f15cef621aaa9","null","null","<p style=""font-size: 60px; font-family: BACS"">OMlTOtM</p>","","","","","","","","",""
"html-keyboard-response","198","400354","0.0-12.0-0.28","602bb123612bfe330818d4ef","650c16f0f2faf8d7a0d14c09","651c1e015a3f15cef621aaa9","null","null","<p style=""font-size: 60px; font-family: BACS"">kcCRtOPE</p>","","","","","","","","",""
"html-keyboard-response","199","401372","0.0-12.0-0.29","602bb123612bfe330818d4ef","650c16f0f2faf8d7a0d14c09","651c1e015a3f15cef621aaa9","null","null","<p style=""font-size: 60px; font-family: BACS"">DMRPmtKP</p>","","","","","","","","",""
"html-keyboard-response","200","402379","0.0-12.0-0.30","602bb123612bfe330818d4ef","650c16f0f2faf8d7a0d14c09","651c1e015a3f15cef621aaa9","null","null","<p style=""font-size: 60px; font-family: BACS"">lZcuJcL</p>","","","","","","","","",""
"html-keyboard-response","201","403381","0.0-12.0-0.31","602bb123612bfe330818d4ef","650c16f0f2faf8d7a0d14c09","651c1e015a3f15cef621aaa9","null","null","<p style=""font-size: 60px; font-family: BACS"">kPOtmtKP</p>","","","","","","","","",""
"html-keyboard-response","202","404382","0.0-12.0-0.32","602bb123612bfe330818d4ef","650c16f0f2faf8d7a0d14c09","651c1e015a3f15cef621aaa9","null","null","<p style=""font-size: 60px; font-family: BACS"">auYAklGc</p>","","","","","","","","",""
"html-keyboard-response","203","405392","0.0-12.0-0.33","602bb123612bfe330818d4ef","650c16f0f2faf8d7a0d14c09","651c1e015a3f15cef621aaa9","null","null","<p style=""font-size: 60px; font-family: BACS"">vblrdUr</p>","","","","","","","","",""
"html-keyboard-response","204","406406","0.0-12.0-0.34","602bb123612bfe330818d4ef","650c16f0f2faf8d7a0d14c09","651c1e015a3f15cef621aaa9","null","null","<p style=""font-size: 60px; font-family: BACS"">kPOtOPE</p>","","","","","","","","",""
"html-keyboard-response","205","407408","0.0-12.0-0.35","602bb123612bfe330818d4ef","650c16f0f2faf8d7a0d14c09","651c1e015a3f15cef621aaa9","null","null","<p style=""font-size: 60px; font-family: BACS"">UJmrdUr</p>","","","","","","","","",""
"html-keyboard-response","206","408417","0.0-12.0-0.36","602bb123612bfe330818d4ef","650c16f0f2faf8d7a0d14c09","651c1e015a3f15cef621aaa9","null","null","<p style=""font-size: 60px; font-family: BACS"">OcYMOPE</p>","","","","","","","","",""
"html-keyboard-response","207","409432","0.0-12.0-0.37","602bb123612bfe330818d4ef","650c16f0f2faf8d7a0d14c09","651c1e015a3f15cef621aaa9","null","null","<p style=""font-size: 60px; font-family: BACS"">hYDmtOtM</p>","","","","","","","","",""
"html-keyboard-response","208","410441","0.0-12.0-0.38","602bb123612bfe330818d4ef","650c16f0f2faf8d7a0d14c09","651c1e015a3f15cef621aaa9","null","null","<p style=""font-size: 60px; font-family: BACS"">OMlTEcR</p>","","","","","","","","",""
"html-keyboard-response","209","411454","0.0-12.0-0.39","602bb123612bfe330818d4ef","650c16f0f2faf8d7a0d14c09","651c1e015a3f15cef621aaa9","null","null","<p style=""font-size: 60px; font-family: BACS"">hBmMCOPE</p>","","","","","","","","",""
"html-keyboard-response","210","412463","0.0-12.0-0.40","602bb123612bfe330818d4ef","650c16f0f2faf8d7a0d14c09","651c1e015a3f15cef621aaa9","null","null","<p style=""font-size: 60px; font-family: BACS"">auYAkJcL</p>","","","","","","","","",""
"html-keyboard-response","211","413474","0.0-12.0-0.41","602bb123612bfe330818d4ef","650c16f0f2faf8d7a0d14c09","651c1e015a3f15cef621aaa9","null","null","<p style=""font-size: 60px; font-family: BACS"">OmtlDOPE</p>","","","","","","","","",""
"html-keyboard-response","212","414489","0.0-12.0-0.42","602bb123612bfe330818d4ef","650c16f0f2faf8d7a0d14c09","651c1e015a3f15cef621aaa9","null","null","<p style=""font-size: 60px; font-family: BACS"">UJmrlGc</p>","","","","","","","","",""
"html-keyboard-response","213","415497","0.0-12.0-0.43","602bb123612bfe330818d4ef","650c16f0f2faf8d7a0d14c09","651c1e015a3f15cef621aaa9","null","null","<p style=""font-size: 60px; font-family: BACS"">rdLJaJcL</p>","","","","","","","","",""
"html-keyboard-response","214","416506","0.0-12.0-0.44","602bb123612bfe330818d4ef","650c16f0f2faf8d7a0d14c09","651c1e015a3f15cef621aaa9","null","null","<p style=""font-size: 60px; font-family: BACS"">bmbNdUr</p>","","","","","","","","",""
"html-keyboard-response","215","417516","0.0-12.0-0.45","602bb123612bfe330818d4ef","650c16f0f2faf8d7a0d14c09","651c1e015a3f15cef621aaa9","null","null","<p style=""font-size: 60px; font-family: BACS"">DMRPOtM</p>","","","","","","","","",""
"html-keyboard-response","216","418520","0.0-12.0-0.46","602bb123612bfe330818d4ef","650c16f0f2faf8d7a0d14c09","651c1e015a3f15cef621aaa9","null","null","<p style=""font-size: 60px; font-family: BACS"">kcCRtEcR</p>","","","","","","","","",""
"html-keyboard-response","217","419524","0.0-12.0-0.47","602bb123612bfe330818d4ef","650c16f0f2faf8d7a0d14c09","651c1e015a3f15cef621aaa9","null","null","<p style=""font-size: 60px; font-family: BACS"">MkmEdOPE</p>","","","","","","","","",""
"html-keyboard-response","218","420540","0.0-12.0-0.48","602bb123612bfe330818d4ef","650c16f0f2faf8d7a0d14c09","651c1e015a3f15cef621aaa9","null","null","<p style=""font-size: 60px; font-family: BACS"">vblrJcL</p>","","","","","","","","",""
"html-keyboard-response","219","421552","0.0-12.0-0.49","602bb123612bfe330818d4ef","650c16f0f2faf8d7a0d14c09","651c1e015a3f15cef621aaa9","null","null","<p style=""font-size: 60px; font-family: BACS"">hBmMCmtKP</p>","","","","","","","","",""
"html-keyboard-response","220","422568","0.0-12.0-0.50","602bb123612bfe330818d4ef","650c16f0f2faf8d7a0d14c09","651c1e015a3f15cef621aaa9","null","null","<p style=""font-size: 60px; font-family: BACS"">DMRPEcR</p>","","","","","","","","",""
"html-keyboard-response","221","423575","0.0-12.0-0.51","602bb123612bfe330818d4ef","650c16f0f2faf8d7a0d14c09","651c1e015a3f15cef621aaa9","null","null","<p style=""font-size: 60px; font-family: BACS"">lZculGc</p>","","","","","","","","",""
"html-keyboard-response","222","424584","0.0-12.0-0.52","602bb123612bfe330818d4ef","650c16f0f2faf8d7a0d14c09","651c1e015a3f15cef621aaa9","null","null","<p style=""font-size: 60px; font-family: BACS"">vblrLYGA</p>","","","","","","","","",""
"html-keyboard-response","223","425598","0.0-12.0-0.53","602bb123612bfe330818d4ef","650c16f0f2faf8d7a0d14c09","651c1e015a3f15cef621aaa9","null","null","<p style=""font-size: 60px; font-family: BACS"">UdYUQJcL</p>","","","","","","","","",""
"html-keyboard-response","224","426612","0.0-12.0-0.54","602bb123612bfe330818d4ef","650c16f0f2faf8d7a0d14c09","651c1e015a3f15cef621aaa9","null","null","<p style=""font-size: 60px; font-family: BACS"">JmNkbLd</p>","","","","","","","","",""
"html-keyboard-response","225","427615","0.0-12.0-0.55","602bb123612bfe330818d4ef","650c16f0f2faf8d7a0d14c09","651c1e015a3f15cef621aaa9","null","null","<p style=""font-size: 60px; font-family: BACS"">bmbNlGc</p>","","","","","","","","",""
"html-keyboard-response","226","428623","0.0-12.0-0.56","602bb123612bfe330818d4ef","650c16f0f2faf8d7a0d14c09","651c1e015a3f15cef621aaa9","null","null","<p style=""font-size: 60px; font-family: BACS"">OmtlDmtKP</p>","","","","","","","","",""
"html-keyboard-response","227","429633","0.0-12.0-0.57","602bb123612bfe330818d4ef","650c16f0f2faf8d7a0d14c09","651c1e015a3f15cef621aaa9","null","null","<p style=""font-size: 60px; font-family: BACS"">hBmMCOBT</p>","","","","","","","","",""
"html-keyboard-response","228","430634","0.0-12.0-0.58","602bb123612bfe330818d4ef","650c16f0f2faf8d7a0d14c09","651c1e015a3f15cef621aaa9","null","null","<p style=""font-size: 60px; font-family: BACS"">MkmEdEcR</p>","","","","","","","","",""
"html-keyboard-response","229","431647","0.0-12.0-0.59","602bb123612bfe330818d4ef","650c16f0f2faf8d7a0d14c09","651c1e015a3f15cef621aaa9","null","null","<p style=""font-size: 60px; font-family: BACS"">OMlTOBT</p>","","","","","","","","",""
"html-keyboard-response","230","432653","0.0-12.0-0.60","602bb123612bfe330818d4ef","650c16f0f2faf8d7a0d14c09","651c1e015a3f15cef621aaa9","null","null","<p style=""font-size: 60px; font-family: BACS"">hBmMCOtM</p>","","","","","","","","",""
"html-keyboard-response","231","433666","0.0-12.0-0.61","602bb123612bfe330818d4ef","650c16f0f2faf8d7a0d14c09","651c1e015a3f15cef621aaa9","null","null","<p style=""font-size: 60px; font-family: BACS"">OcYMEcR</p>","","","","","","","","",""
"html-keyboard-response","232","434671","0.0-12.0-0.62","602bb123612bfe330818d4ef","650c16f0f2faf8d7a0d14c09","651c1e015a3f15cef621aaa9","null","null","<p style=""font-size: 60px; font-family: BACS"">rdLJadUr</p>","","","","","","","","",""
"html-keyboard-response","233","435682","0.0-12.0-0.63","602bb123612bfe330818d4ef","650c16f0f2faf8d7a0d14c09","651c1e015a3f15cef621aaa9","null","null","<p style=""font-size: 60px; font-family: BACS"">OMlTmtKP</p>","","","","","","","","",""
"html-keyboard-response","234","436698","0.0-12.0-0.64","602bb123612bfe330818d4ef","650c16f0f2faf8d7a0d14c09","651c1e015a3f15cef621aaa9","null","null","<p style=""font-size: 60px; font-family: BACS"">kPOtOBT</p>","","","","","","","","",""
"html-keyboard-response","235","437714","0.0-12.0-0.65","602bb123612bfe330818d4ef","650c16f0f2faf8d7a0d14c09","651c1e015a3f15cef621aaa9","null","null","<p style=""font-size: 60px; font-family: BACS"">UJmrLYGA</p>","","","","","","","","",""
"html-keyboard-response","236","438726","0.0-12.0-0.66","602bb123612bfe330818d4ef","650c16f0f2faf8d7a0d14c09","651c1e015a3f15cef621aaa9","null","null","<p style=""font-size: 60px; font-family: BACS"">OmtlDEcR</p>","","","","","","","","",""
"html-keyboard-response","237","439742","0.0-12.0-0.67","602bb123612bfe330818d4ef","650c16f0f2faf8d7a0d14c09","651c1e015a3f15cef621aaa9","null","null","<p style=""font-size: 60px; font-family: BACS"">JmNkLYGA</p>","","","","","","","","",""
"html-keyboard-response","238","440745","0.0-12.0-0.68","602bb123612bfe330818d4ef","650c16f0f2faf8d7a0d14c09","651c1e015a3f15cef621aaa9","null","null","<p style=""font-size: 60px; font-family: BACS"">kcCRtOBT</p>","","","","","","","","",""
"html-keyboard-response","239","441753","0.0-12.0-0.69","602bb123612bfe330818d4ef","650c16f0f2faf8d7a0d14c09","651c1e015a3f15cef621aaa9","null","null","<p style=""font-size: 60px; font-family: BACS"">kLvdNLYGA</p>","","","","","","","","",""
"html-keyboard-response","240","442764","0.0-12.0-0.70","602bb123612bfe330818d4ef","650c16f0f2faf8d7a0d14c09","651c1e015a3f15cef621aaa9","null","null","<p style=""font-size: 60px; font-family: BACS"">DkTCPOBT</p>","","","","","","","","",""
"html-keyboard-response","241","443766","0.0-12.0-0.71","602bb123612bfe330818d4ef","650c16f0f2faf8d7a0d14c09","651c1e015a3f15cef621aaa9","null","null","<p style=""font-size: 60px; font-family: BACS"">OcYMmtKP</p>","","","","","","","","",""
"html-keyboard-response","242","444768","0.0-12.0-0.72","602bb123612bfe330818d4ef","650c16f0f2faf8d7a0d14c09","651c1e015a3f15cef621aaa9","null","null","<p style=""font-size: 60px; font-family: BACS"">lZcudUr</p>","","","","","","","","",""
"html-keyboard-response","243","445776","0.0-12.0-0.73","602bb123612bfe330818d4ef","650c16f0f2faf8d7a0d14c09","651c1e015a3f15cef621aaa9","null","null","<p style=""font-size: 60px; font-family: BACS"">OmtlDOBT</p>","","","","","","","","",""
"html-keyboard-response","244","446792","0.0-12.0-0.74","602bb123612bfe330818d4ef","650c16f0f2faf8d7a0d14c09","651c1e015a3f15cef621aaa9","null","null","<p style=""font-size: 60px; font-family: BACS"">ZNLOvdUr</p>","","","","","","","","",""
"html-keyboard-response","245","447800","0.0-12.0-0.75","602bb123612bfe330818d4ef","650c16f0f2faf8d7a0d14c09","651c1e015a3f15cef621aaa9","null","null","<p style=""font-size: 60px; font-family: BACS"">lZcubLd</p>","","","","","","","","",""
"html-keyboard-response","246","448816","0.0-12.0-0.76","602bb123612bfe330818d4ef","650c16f0f2faf8d7a0d14c09","651c1e015a3f15cef621aaa9","null","null","<p style=""font-size: 60px; font-family: BACS"">kLvdNJcL</p>","","","","","","","","",""
"html-keyboard-response","247","449826","0.0-12.0-0.77","602bb123612bfe330818d4ef","650c16f0f2faf8d7a0d14c09","651c1e015a3f15cef621aaa9","null","null","<p style=""font-size: 60px; font-family: BACS"">auYAkLYGA</p>","","","","","","","","",""
"html-keyboard-response","248","450834","0.0-12.0-0.78","602bb123612bfe330818d4ef","650c16f0f2faf8d7a0d14c09","651c1e015a3f15cef621aaa9","null","null","<p style=""font-size: 60px; font-family: BACS"">kLvdNlGc</p>","","","","","","","","",""
"html-keyboard-response","249","451839","0.0-12.0-0.79","602bb123612bfe330818d4ef","650c16f0f2faf8d7a0d14c09","651c1e015a3f15cef621aaa9","null","null","<p style=""font-size: 60px; font-family: BACS"">hYDmtOPE</p>","","","","","","","","",""
"html-keyboard-response","250","458050","0.0-13.0","602bb123612bfe330818d4ef","650c16f0f2faf8d7a0d14c09","651c1e015a3f15cef621aaa9","6210"," ","<p>Great, you've seen the third block of words. You may now take a short break.</p>
      <p>Press the spacebar when you're ready to continue.</p>","","","","","","","","",""
"html-keyboard-response","251","459058","0.0-14.0-0.0","602bb123612bfe330818d4ef","650c16f0f2faf8d7a0d14c09","651c1e015a3f15cef621aaa9","null","null","<p style=""font-size: 60px; font-family: BACS"">kcCRtOBT</p>","","","","","","","","",""
"html-keyboard-response","252","460068","0.0-14.0-0.1","602bb123612bfe330818d4ef","650c16f0f2faf8d7a0d14c09","651c1e015a3f15cef621aaa9","null","null","<p style=""font-size: 60px; font-family: BACS"">DkTCPmtKP</p>","","","","","","","","",""
"html-keyboard-response","253","461073","0.0-14.0-0.2","602bb123612bfe330818d4ef","650c16f0f2faf8d7a0d14c09","651c1e015a3f15cef621aaa9","null","null","<p style=""font-size: 60px; font-family: BACS"">kcCRtOPE</p>","","","","","","","","",""
"html-keyboard-response","254","462075","0.0-14.0-0.3","602bb123612bfe330818d4ef","650c16f0f2faf8d7a0d14c09","651c1e015a3f15cef621aaa9","null","null","<p style=""font-size: 60px; font-family: BACS"">DMRPOBT</p>","","","","","","","","",""
"html-keyboard-response","255","463086","0.0-14.0-0.4","602bb123612bfe330818d4ef","650c16f0f2faf8d7a0d14c09","651c1e015a3f15cef621aaa9","null","null","<p style=""font-size: 60px; font-family: BACS"">kLvdNJcL</p>","","","","","","","","",""
"html-keyboard-response","256","464090","0.0-14.0-0.5","602bb123612bfe330818d4ef","650c16f0f2faf8d7a0d14c09","651c1e015a3f15cef621aaa9","null","null","<p style=""font-size: 60px; font-family: BACS"">auYAklGc</p>","","","","","","","","",""
"html-keyboard-response","257","465100","0.0-14.0-0.6","602bb123612bfe330818d4ef","650c16f0f2faf8d7a0d14c09","651c1e015a3f15cef621aaa9","null","null","<p style=""font-size: 60px; font-family: BACS"">vblrbLd</p>","","","","","","","","",""
"html-keyboard-response","258","466106","0.0-14.0-0.7","602bb123612bfe330818d4ef","650c16f0f2faf8d7a0d14c09","651c1e015a3f15cef621aaa9","null","null","<p style=""font-size: 60px; font-family: BACS"">OmtlDEcR</p>","","","","","","","","",""
"html-keyboard-response","259","467120","0.0-14.0-0.8","602bb123612bfe330818d4ef","650c16f0f2faf8d7a0d14c09","651c1e015a3f15cef621aaa9","null","null","<p style=""font-size: 60px; font-family: BACS"">bmbNbLd</p>","","","","","","","","",""
"html-keyboard-response","260","468129","0.0-14.0-0.9","602bb123612bfe330818d4ef","650c16f0f2faf8d7a0d14c09","651c1e015a3f15cef621aaa9","null","null","<p style=""font-size: 60px; font-family: BACS"">hBmMCOPE</p>","","","","","","","","",""
"html-keyboard-response","261","469145","0.0-14.0-0.10","602bb123612bfe330818d4ef","650c16f0f2faf8d7a0d14c09","651c1e015a3f15cef621aaa9","null","null","<p style=""font-size: 60px; font-family: BACS"">DMRPEcR</p>","","","","","","","","",""
"html-keyboard-response","262","470160","0.0-14.0-0.11","602bb123612bfe330818d4ef","650c16f0f2faf8d7a0d14c09","651c1e015a3f15cef621aaa9","null","null","<p style=""font-size: 60px; font-family: BACS"">rdLJaLYGA</p>","","","","","","","","",""
"html-keyboard-response","263","471172","0.0-14.0-0.12","602bb123612bfe330818d4ef","650c16f0f2faf8d7a0d14c09","651c1e015a3f15cef621aaa9","null","null","<p style=""font-size: 60px; font-family: BACS"">JmNkbLd</p>","","","","","","","","",""
"html-keyboard-response","264","472189","0.0-14.0-0.13","602bb123612bfe330818d4ef","650c16f0f2faf8d7a0d14c09","651c1e015a3f15cef621aaa9","null","null","<p style=""font-size: 60px; font-family: BACS"">UJmrLYGA</p>","","","","","","","","",""
"html-keyboard-response","265","473195","0.0-14.0-0.14","602bb123612bfe330818d4ef","650c16f0f2faf8d7a0d14c09","651c1e015a3f15cef621aaa9","null","null","<p style=""font-size: 60px; font-family: BACS"">OcYMmtKP</p>","","","","","","","","",""
"html-keyboard-response","266","474205","0.0-14.0-0.15","602bb123612bfe330818d4ef","650c16f0f2faf8d7a0d14c09","651c1e015a3f15cef621aaa9","null","null","<p style=""font-size: 60px; font-family: BACS"">rdLJadUr</p>","","","","","","","","",""
"html-keyboard-response","267","475210","0.0-14.0-0.16","602bb123612bfe330818d4ef","650c16f0f2faf8d7a0d14c09","651c1e015a3f15cef621aaa9","null","null","<p style=""font-size: 60px; font-family: BACS"">lZcuJcL</p>","","","","","","","","",""
"html-keyboard-response","268","476226","0.0-14.0-0.17","602bb123612bfe330818d4ef","650c16f0f2faf8d7a0d14c09","651c1e015a3f15cef621aaa9","null","null","<p style=""font-size: 60px; font-family: BACS"">vblrLYGA</p>","","","","","","","","",""
"html-keyboard-response","269","477243","0.0-14.0-0.18","602bb123612bfe330818d4ef","650c16f0f2faf8d7a0d14c09","651c1e015a3f15cef621aaa9","null","null","<p style=""font-size: 60px; font-family: BACS"">OmtlDmtKP</p>","","","","","","","","",""
"html-keyboard-response","270","478250","0.0-14.0-0.19","602bb123612bfe330818d4ef","650c16f0f2faf8d7a0d14c09","651c1e015a3f15cef621aaa9","null","null","<p style=""font-size: 60px; font-family: BACS"">MkmEdOtM</p>","","","","","","","","",""
"html-keyboard-response","271","479259","0.0-14.0-0.20","602bb123612bfe330818d4ef","650c16f0f2faf8d7a0d14c09","651c1e015a3f15cef621aaa9","null","null","<p style=""font-size: 60px; font-family: BACS"">bmbNlGc</p>","","","","","","","","",""
"html-keyboard-response","272","480260","0.0-14.0-0.21","602bb123612bfe330818d4ef","650c16f0f2faf8d7a0d14c09","651c1e015a3f15cef621aaa9","null","null","<p style=""font-size: 60px; font-family: BACS"">auYAkbLd</p>","","","","","","","","",""
"html-keyboard-response","273","481277","0.0-14.0-0.22","602bb123612bfe330818d4ef","650c16f0f2faf8d7a0d14c09","651c1e015a3f15cef621aaa9","null","null","<p style=""font-size: 60px; font-family: BACS"">OmtlDOBT</p>","","","","","","","","",""
"html-keyboard-response","274","482291","0.0-14.0-0.23","602bb123612bfe330818d4ef","650c16f0f2faf8d7a0d14c09","651c1e015a3f15cef621aaa9","null","null","<p style=""font-size: 60px; font-family: BACS"">kLvdNlGc</p>","","","","","","","","",""
"html-keyboard-response","275","483300","0.0-14.0-0.24","602bb123612bfe330818d4ef","650c16f0f2faf8d7a0d14c09","651c1e015a3f15cef621aaa9","null","null","<p style=""font-size: 60px; font-family: BACS"">UJmrdUr</p>","","","","","","","","",""
"html-keyboard-response","276","484316","0.0-14.0-0.25","602bb123612bfe330818d4ef","650c16f0f2faf8d7a0d14c09","651c1e015a3f15cef621aaa9","null","null","<p style=""font-size: 60px; font-family: BACS"">rdLJaJcL</p>","","","","","","","","",""
"html-keyboard-response","277","485320","0.0-14.0-0.26","602bb123612bfe330818d4ef","650c16f0f2faf8d7a0d14c09","651c1e015a3f15cef621aaa9","null","null","<p style=""font-size: 60px; font-family: BACS"">DMRPmtKP</p>","","","","","","","","",""
"html-keyboard-response","278","486322","0.0-14.0-0.27","602bb123612bfe330818d4ef","650c16f0f2faf8d7a0d14c09","651c1e015a3f15cef621aaa9","null","null","<p style=""font-size: 60px; font-family: BACS"">kLvdNdUr</p>","","","","","","","","",""
"html-keyboard-response","279","487326","0.0-14.0-0.28","602bb123612bfe330818d4ef","650c16f0f2faf8d7a0d14c09","651c1e015a3f15cef621aaa9","null","null","<p style=""font-size: 60px; font-family: BACS"">kcCRtOtM</p>","","","","","","","","",""
"html-keyboard-response","280","488343","0.0-14.0-0.29","602bb123612bfe330818d4ef","650c16f0f2faf8d7a0d14c09","651c1e015a3f15cef621aaa9","null","null","<p style=""font-size: 60px; font-family: BACS"">ZNLOvlGc</p>","","","","","","","","",""
"html-keyboard-response","281","489355","0.0-14.0-0.30","602bb123612bfe330818d4ef","650c16f0f2faf8d7a0d14c09","651c1e015a3f15cef621aaa9","null","null","<p style=""font-size: 60px; font-family: BACS"">UdYUQJcL</p>","","","","","","","","",""
"html-keyboard-response","282","490370","0.0-14.0-0.31","602bb123612bfe330818d4ef","650c16f0f2faf8d7a0d14c09","651c1e015a3f15cef621aaa9","null","null","<p style=""font-size: 60px; font-family: BACS"">kPOtOPE</p>","","","","","","","","",""
"html-keyboard-response","283","491386","0.0-14.0-0.32","602bb123612bfe330818d4ef","650c16f0f2faf8d7a0d14c09","651c1e015a3f15cef621aaa9","null","null","<p style=""font-size: 60px; font-family: BACS"">OMlTEcR</p>","","","","","","","","",""
"html-keyboard-response","284","492393","0.0-14.0-0.33","602bb123612bfe330818d4ef","650c16f0f2faf8d7a0d14c09","651c1e015a3f15cef621aaa9","null","null","<p style=""font-size: 60px; font-family: BACS"">UdYUQbLd</p>","","","","","","","","",""
"html-keyboard-response","285","493395","0.0-14.0-0.34","602bb123612bfe330818d4ef","650c16f0f2faf8d7a0d14c09","651c1e015a3f15cef621aaa9","null","null","<p style=""font-size: 60px; font-family: BACS"">OcYMOPE</p>","","","","","","","","",""
"html-keyboard-response","286","494408","0.0-14.0-0.35","602bb123612bfe330818d4ef","650c16f0f2faf8d7a0d14c09","651c1e015a3f15cef621aaa9","null","null","<p style=""font-size: 60px; font-family: BACS"">hBmMCOtM</p>","","","","","","","","",""
"html-keyboard-response","287","495421","0.0-14.0-0.36","602bb123612bfe330818d4ef","650c16f0f2faf8d7a0d14c09","651c1e015a3f15cef621aaa9","null","null","<p style=""font-size: 60px; font-family: BACS"">lZculGc</p>","","","","","","","","",""
"html-keyboard-response","288","496426","0.0-14.0-0.37","602bb123612bfe330818d4ef","650c16f0f2faf8d7a0d14c09","651c1e015a3f15cef621aaa9","null","null","<p style=""font-size: 60px; font-family: BACS"">bmbNLYGA</p>","","","","","","","","",""
"html-keyboard-response","289","497443","0.0-14.0-0.38","602bb123612bfe330818d4ef","650c16f0f2faf8d7a0d14c09","651c1e015a3f15cef621aaa9","null","null","<p style=""font-size: 60px; font-family: BACS"">OcYMEcR</p>","","","","","","","","",""
"html-keyboard-response","290","498449","0.0-14.0-0.39","602bb123612bfe330818d4ef","650c16f0f2faf8d7a0d14c09","651c1e015a3f15cef621aaa9","null","null","<p style=""font-size: 60px; font-family: BACS"">JmNkdUr</p>","","","","","","","","",""
"html-keyboard-response","291","499452","0.0-14.0-0.40","602bb123612bfe330818d4ef","650c16f0f2faf8d7a0d14c09","651c1e015a3f15cef621aaa9","null","null","<p style=""font-size: 60px; font-family: BACS"">UdYUQLYGA</p>","","","","","","","","",""
"html-keyboard-response","292","500457","0.0-14.0-0.41","602bb123612bfe330818d4ef","650c16f0f2faf8d7a0d14c09","651c1e015a3f15cef621aaa9","null","null","<p style=""font-size: 60px; font-family: BACS"">DMRPOtM</p>","","","","","","","","",""
"html-keyboard-response","293","501459","0.0-14.0-0.42","602bb123612bfe330818d4ef","650c16f0f2faf8d7a0d14c09","651c1e015a3f15cef621aaa9","null","null","<p style=""font-size: 60px; font-family: BACS"">auYAkLYGA</p>","","","","","","","","",""
"html-keyboard-response","294","502469","0.0-14.0-0.43","602bb123612bfe330818d4ef","650c16f0f2faf8d7a0d14c09","651c1e015a3f15cef621aaa9","null","null","<p style=""font-size: 60px; font-family: BACS"">lZcubLd</p>","","","","","","","","",""
"html-keyboard-response","295","503477","0.0-14.0-0.44","602bb123612bfe330818d4ef","650c16f0f2faf8d7a0d14c09","651c1e015a3f15cef621aaa9","null","null","<p style=""font-size: 60px; font-family: BACS"">hYDmtOPE</p>","","","","","","","","",""
"html-keyboard-response","296","504479","0.0-14.0-0.45","602bb123612bfe330818d4ef","650c16f0f2faf8d7a0d14c09","651c1e015a3f15cef621aaa9","null","null","<p style=""font-size: 60px; font-family: BACS"">OMlTOtM</p>","","","","","","","","",""
"html-keyboard-response","297","505480","0.0-14.0-0.46","602bb123612bfe330818d4ef","650c16f0f2faf8d7a0d14c09","651c1e015a3f15cef621aaa9","null","null","<p style=""font-size: 60px; font-family: BACS"">hYDmtmtKP</p>","","","","","","","","",""
"html-keyboard-response","298","506493","0.0-14.0-0.47","602bb123612bfe330818d4ef","650c16f0f2faf8d7a0d14c09","651c1e015a3f15cef621aaa9","null","null","<p style=""font-size: 60px; font-family: BACS"">DkTCPOBT</p>","","","","","","","","",""
"html-keyboard-response","299","507509","0.0-14.0-0.48","602bb123612bfe330818d4ef","650c16f0f2faf8d7a0d14c09","651c1e015a3f15cef621aaa9","null","null","<p style=""font-size: 60px; font-family: BACS"">lZcudUr</p>","","","","","","","","",""
"html-keyboard-response","300","508520","0.0-14.0-0.49","602bb123612bfe330818d4ef","650c16f0f2faf8d7a0d14c09","651c1e015a3f15cef621aaa9","null","null","<p style=""font-size: 60px; font-family: BACS"">MkmEdOBT</p>","","","","","","","","",""
"html-keyboard-response","301","509525","0.0-14.0-0.50","602bb123612bfe330818d4ef","650c16f0f2faf8d7a0d14c09","651c1e015a3f15cef621aaa9","null","null","<p style=""font-size: 60px; font-family: BACS"">kPOtmtKP</p>","","","","","","","","",""
"html-keyboard-response","302","510534","0.0-14.0-0.51","602bb123612bfe330818d4ef","650c16f0f2faf8d7a0d14c09","651c1e015a3f15cef621aaa9","null","null","<p style=""font-size: 60px; font-family: BACS"">UJmrlGc</p>","","","","","","","","",""
"html-keyboard-response","303","511537","0.0-14.0-0.52","602bb123612bfe330818d4ef","650c16f0f2faf8d7a0d14c09","651c1e015a3f15cef621aaa9","null","null","<p style=""font-size: 60px; font-family: BACS"">ZNLOvJcL</p>","","","","","","","","",""
"html-keyboard-response","304","512544","0.0-14.0-0.53","602bb123612bfe330818d4ef","650c16f0f2faf8d7a0d14c09","651c1e015a3f15cef621aaa9","null","null","<p style=""font-size: 60px; font-family: BACS"">OMlTOBT</p>","","","","","","","","",""
"html-keyboard-response","305","513559","0.0-14.0-0.54","602bb123612bfe330818d4ef","650c16f0f2faf8d7a0d14c09","651c1e015a3f15cef621aaa9","null","null","<p style=""font-size: 60px; font-family: BACS"">UJmrJcL</p>","","","","","","","","",""
"html-keyboard-response","306","514576","0.0-14.0-0.55","602bb123612bfe330818d4ef","650c16f0f2faf8d7a0d14c09","651c1e015a3f15cef621aaa9","null","null","<p style=""font-size: 60px; font-family: BACS"">DkTCPOtM</p>","","","","","","","","",""
"html-keyboard-response","307","515586","0.0-14.0-0.56","602bb123612bfe330818d4ef","650c16f0f2faf8d7a0d14c09","651c1e015a3f15cef621aaa9","null","null","<p style=""font-size: 60px; font-family: BACS"">MkmEdEcR</p>","","","","","","","","",""
"html-keyboard-response","308","516594","0.0-14.0-0.57","602bb123612bfe330818d4ef","650c16f0f2faf8d7a0d14c09","651c1e015a3f15cef621aaa9","null","null","<p style=""font-size: 60px; font-family: BACS"">vblrJcL</p>","","","","","","","","",""
"html-keyboard-response","309","517598","0.0-14.0-0.58","602bb123612bfe330818d4ef","650c16f0f2faf8d7a0d14c09","651c1e015a3f15cef621aaa9","null","null","<p style=""font-size: 60px; font-family: BACS"">hYDmtOtM</p>","","","","","","","","",""
"html-keyboard-response","310","518610","0.0-14.0-0.59","602bb123612bfe330818d4ef","650c16f0f2faf8d7a0d14c09","651c1e015a3f15cef621aaa9","null","null","<p style=""font-size: 60px; font-family: BACS"">MkmEdOPE</p>","","","","","","","","",""
"html-keyboard-response","311","519627","0.0-14.0-0.60","602bb123612bfe330818d4ef","650c16f0f2faf8d7a0d14c09","651c1e015a3f15cef621aaa9","null","null","<p style=""font-size: 60px; font-family: BACS"">ZNLOvbLd</p>","","","","","","","","",""
"html-keyboard-response","312","520630","0.0-14.0-0.61","602bb123612bfe330818d4ef","650c16f0f2faf8d7a0d14c09","651c1e015a3f15cef621aaa9","null","null","<p style=""font-size: 60px; font-family: BACS"">kPOtEcR</p>","","","","","","","","",""
"html-keyboard-response","313","521646","0.0-14.0-0.62","602bb123612bfe330818d4ef","650c16f0f2faf8d7a0d14c09","651c1e015a3f15cef621aaa9","null","null","<p style=""font-size: 60px; font-family: BACS"">OMlTmtKP</p>","","","","","","","","",""
"html-keyboard-response","314","522665","0.0-14.0-0.63","602bb123612bfe330818d4ef","650c16f0f2faf8d7a0d14c09","651c1e015a3f15cef621aaa9","null","null","<p style=""font-size: 60px; font-family: BACS"">ZNLOvdUr</p>","","","","","","","","",""
"html-keyboard-response","315","523669","0.0-14.0-0.64","602bb123612bfe330818d4ef","650c16f0f2faf8d7a0d14c09","651c1e015a3f15cef621aaa9","null","null","<p style=""font-size: 60px; font-family: BACS"">kPOtOBT</p>","","","","","","","","",""
"html-keyboard-response","316","524673","0.0-14.0-0.65","602bb123612bfe330818d4ef","650c16f0f2faf8d7a0d14c09","651c1e015a3f15cef621aaa9","null","null","<p style=""font-size: 60px; font-family: BACS"">hYDmtEcR</p>","","","","","","","","",""
"html-keyboard-response","317","525679","0.0-14.0-0.66","602bb123612bfe330818d4ef","650c16f0f2faf8d7a0d14c09","651c1e015a3f15cef621aaa9","null","null","<p style=""font-size: 60px; font-family: BACS"">rdLJabLd</p>","","","","","","","","",""
"html-keyboard-response","318","526680","0.0-14.0-0.67","602bb123612bfe330818d4ef","650c16f0f2faf8d7a0d14c09","651c1e015a3f15cef621aaa9","null","null","<p style=""font-size: 60px; font-family: BACS"">hBmMCOBT</p>","","","","","","","","",""
"html-keyboard-response","319","527686","0.0-14.0-0.68","602bb123612bfe330818d4ef","650c16f0f2faf8d7a0d14c09","651c1e015a3f15cef621aaa9","null","null","<p style=""font-size: 60px; font-family: BACS"">DkTCPOPE</p>","","","","","","","","",""
"html-keyboard-response","320","528693","0.0-14.0-0.69","602bb123612bfe330818d4ef","650c16f0f2faf8d7a0d14c09","651c1e015a3f15cef621aaa9","null","null","<p style=""font-size: 60px; font-family: BACS"">JmNkLYGA</p>","","","","","","","","",""
"html-keyboard-response","321","529710","0.0-14.0-0.70","602bb123612bfe330818d4ef","650c16f0f2faf8d7a0d14c09","651c1e015a3f15cef621aaa9","null","null","<p style=""font-size: 60px; font-family: BACS"">OmtlDOPE</p>","","","","","","","","",""
"html-keyboard-response","322","530712","0.0-14.0-0.71","602bb123612bfe330818d4ef","650c16f0f2faf8d7a0d14c09","651c1e015a3f15cef621aaa9","null","null","<p style=""font-size: 60px; font-family: BACS"">JmNklGc</p>","","","","","","","","",""
"html-keyboard-response","323","531728","0.0-14.0-0.72","602bb123612bfe330818d4ef","650c16f0f2faf8d7a0d14c09","651c1e015a3f15cef621aaa9","null","null","<p style=""font-size: 60px; font-family: BACS"">bmbNdUr</p>","","","","","","","","",""
"html-keyboard-response","324","532735","0.0-14.0-0.73","602bb123612bfe330818d4ef","650c16f0f2faf8d7a0d14c09","651c1e015a3f15cef621aaa9","null","null","<p style=""font-size: 60px; font-family: BACS"">kcCRtEcR</p>","","","","","","","","",""
"html-keyboard-response","325","533737","0.0-14.0-0.74","602bb123612bfe330818d4ef","650c16f0f2faf8d7a0d14c09","651c1e015a3f15cef621aaa9","null","null","<p style=""font-size: 60px; font-family: BACS"">hBmMCmtKP</p>","","","","","","","","",""
"html-keyboard-response","326","534752","0.0-14.0-0.75","602bb123612bfe330818d4ef","650c16f0f2faf8d7a0d14c09","651c1e015a3f15cef621aaa9","null","null","<p style=""font-size: 60px; font-family: BACS"">UdYUQlGc</p>","","","","","","","","",""
"html-keyboard-response","327","535754","0.0-14.0-0.76","602bb123612bfe330818d4ef","650c16f0f2faf8d7a0d14c09","651c1e015a3f15cef621aaa9","null","null","<p style=""font-size: 60px; font-family: BACS"">OcYMOtM</p>","","","","","","","","",""
"html-keyboard-response","328","536764","0.0-14.0-0.77","602bb123612bfe330818d4ef","650c16f0f2faf8d7a0d14c09","651c1e015a3f15cef621aaa9","null","null","<p style=""font-size: 60px; font-family: BACS"">auYAkJcL</p>","","","","","","","","",""
"html-keyboard-response","329","537779","0.0-14.0-0.78","602bb123612bfe330818d4ef","650c16f0f2faf8d7a0d14c09","651c1e015a3f15cef621aaa9","null","null","<p style=""font-size: 60px; font-family: BACS"">vblrdUr</p>","","","","","","","","",""
"html-keyboard-response","330","538782","0.0-14.0-0.79","602bb123612bfe330818d4ef","650c16f0f2faf8d7a0d14c09","651c1e015a3f15cef621aaa9","null","null","<p style=""font-size: 60px; font-family: BACS"">kLvdNLYGA</p>","","","","","","","","",""
"html-keyboard-response","331","547079","0.0-15.0","602bb123612bfe330818d4ef","650c16f0f2faf8d7a0d14c09","651c1e015a3f15cef621aaa9","8297"," ","<p>Great, you've seen the fourth block of words. You may now take a short break.</p>
      <p>Press the spacebar when you're ready to continue.</p>","","","","","","","","",""
"html-keyboard-response","332","548089","0.0-16.0-0.0","602bb123612bfe330818d4ef","650c16f0f2faf8d7a0d14c09","651c1e015a3f15cef621aaa9","null","null","<p style=""font-size: 60px; font-family: BACS"">DMRPmtKP</p>","","","","","","","","",""
"html-keyboard-response","333","549097","0.0-16.0-0.1","602bb123612bfe330818d4ef","650c16f0f2faf8d7a0d14c09","651c1e015a3f15cef621aaa9","null","null","<p style=""font-size: 60px; font-family: BACS"">DMRPmtKP</p>","","","","","","","","",""
"html-keyboard-response","334","550115","0.0-16.0-0.2","602bb123612bfe330818d4ef","650c16f0f2faf8d7a0d14c09","651c1e015a3f15cef621aaa9","null","null","<p style=""font-size: 60px; font-family: BACS"">DMRPmtKP</p>","","","","","","","","",""
"html-keyboard-response","335","551128","0.0-16.0-0.3","602bb123612bfe330818d4ef","650c16f0f2faf8d7a0d14c09","651c1e015a3f15cef621aaa9","null","null","<p style=""font-size: 60px; font-family: BACS"">DMRPmtKP</p>","","","","","","","","",""
"html-keyboard-response","336","552137","0.0-16.0-0.4","602bb123612bfe330818d4ef","650c16f0f2faf8d7a0d14c09","651c1e015a3f15cef621aaa9","null","null","<p style=""font-size: 60px; font-family: BACS"">DMRPmtKP</p>","","","","","","","","",""
"html-keyboard-response","337","553146","0.0-16.0-0.5","602bb123612bfe330818d4ef","650c16f0f2faf8d7a0d14c09","651c1e015a3f15cef621aaa9","null","null","<p style=""font-size: 60px; font-family: BACS"">DMRPmtKP</p>","","","","","","","","",""
"html-keyboard-response","338","554151","0.0-16.0-0.6","602bb123612bfe330818d4ef","650c16f0f2faf8d7a0d14c09","651c1e015a3f15cef621aaa9","null","null","<p style=""font-size: 60px; font-family: BACS"">DMRPmtKP</p>","","","","","","","","",""
"html-keyboard-response","339","555156","0.0-16.0-0.7","602bb123612bfe330818d4ef","650c16f0f2faf8d7a0d14c09","651c1e015a3f15cef621aaa9","null","null","<p style=""font-size: 60px; font-family: BACS"">DMRPmtKP</p>","","","","","","","","",""
"html-keyboard-response","340","556158","0.0-16.0-0.8","602bb123612bfe330818d4ef","650c16f0f2faf8d7a0d14c09","651c1e015a3f15cef621aaa9","null","null","<p style=""font-size: 60px; font-family: BACS"">DMRPmtKP</p>","","","","","","","","",""
"html-keyboard-response","341","557160","0.0-16.0-0.9","602bb123612bfe330818d4ef","650c16f0f2faf8d7a0d14c09","651c1e015a3f15cef621aaa9","null","null","<p style=""font-size: 60px; font-family: BACS"">DMRPmtKP</p>","","","","","","","","",""
"html-keyboard-response","342","558173","0.0-16.0-0.10","602bb123612bfe330818d4ef","650c16f0f2faf8d7a0d14c09","651c1e015a3f15cef621aaa9","null","null","<p style=""font-size: 60px; font-family: BACS"">DMRPmtKP</p>","","","","","","","","",""
"html-keyboard-response","343","559189","0.0-16.0-0.11","602bb123612bfe330818d4ef","650c16f0f2faf8d7a0d14c09","651c1e015a3f15cef621aaa9","null","null","<p style=""font-size: 60px; font-family: BACS"">DMRPmtKP</p>","","","","","","","","",""
"html-keyboard-response","344","560204","0.0-16.0-0.12","602bb123612bfe330818d4ef","650c16f0f2faf8d7a0d14c09","651c1e015a3f15cef621aaa9","null","null","<p style=""font-size: 60px; font-family: BACS"">DMRPmtKP</p>","","","","","","","","",""
"html-keyboard-response","345","561218","0.0-16.0-0.13","602bb123612bfe330818d4ef","650c16f0f2faf8d7a0d14c09","651c1e015a3f15cef621aaa9","null","null","<p style=""font-size: 60px; font-family: BACS"">DMRPmtKP</p>","","","","","","","","",""
"html-keyboard-response","346","562220","0.0-16.0-0.14","602bb123612bfe330818d4ef","650c16f0f2faf8d7a0d14c09","651c1e015a3f15cef621aaa9","null","null","<p style=""font-size: 60px; font-family: BACS"">DMRPmtKP</p>","","","","","","","","",""
"html-keyboard-response","347","563229","0.0-16.0-0.15","602bb123612bfe330818d4ef","650c16f0f2faf8d7a0d14c09","651c1e015a3f15cef621aaa9","null","null","<p style=""font-size: 60px; font-family: BACS"">DMRPmtKP</p>","","","","","","","","",""
"html-keyboard-response","348","564233","0.0-16.0-0.16","602bb123612bfe330818d4ef","650c16f0f2faf8d7a0d14c09","651c1e015a3f15cef621aaa9","null","null","<p style=""font-size: 60px; font-family: BACS"">DMRPmtKP</p>","","","","","","","","",""
"html-keyboard-response","349","565238","0.0-16.0-0.17","602bb123612bfe330818d4ef","650c16f0f2faf8d7a0d14c09","651c1e015a3f15cef621aaa9","null","null","<p style=""font-size: 60px; font-family: BACS"">DMRPmtKP</p>","","","","","","","","",""
"html-keyboard-response","350","566240","0.0-16.0-0.18","602bb123612bfe330818d4ef","650c16f0f2faf8d7a0d14c09","651c1e015a3f15cef621aaa9","null","null","<p style=""font-size: 60px; font-family: BACS"">DMRPmtKP</p>","","","","","","","","",""
"html-keyboard-response","351","567256","0.0-16.0-0.19","602bb123612bfe330818d4ef","650c16f0f2faf8d7a0d14c09","651c1e015a3f15cef621aaa9","null","null","<p style=""font-size: 60px; font-family: BACS"">DMRPmtKP</p>","","","","","","","","",""
"html-keyboard-response","352","568260","0.0-16.0-0.20","602bb123612bfe330818d4ef","650c16f0f2faf8d7a0d14c09","651c1e015a3f15cef621aaa9","null","null","<p style=""font-size: 60px; font-family: BACS"">DMRPmtKP</p>","","","","","","","","",""
"html-keyboard-response","353","569270","0.0-16.0-0.21","602bb123612bfe330818d4ef","650c16f0f2faf8d7a0d14c09","651c1e015a3f15cef621aaa9","null","null","<p style=""font-size: 60px; font-family: BACS"">DMRPmtKP</p>","","","","","","","","",""
"html-keyboard-response","354","570278","0.0-16.0-0.22","602bb123612bfe330818d4ef","650c16f0f2faf8d7a0d14c09","651c1e015a3f15cef621aaa9","null","null","<p style=""font-size: 60px; font-family: BACS"">DMRPmtKP</p>","","","","","","","","",""
"html-keyboard-response","355","571290","0.0-16.0-0.23","602bb123612bfe330818d4ef","650c16f0f2faf8d7a0d14c09","651c1e015a3f15cef621aaa9","null","null","<p style=""font-size: 60px; font-family: BACS"">DMRPmtKP</p>","","","","","","","","",""
"html-keyboard-response","356","572306","0.0-16.0-0.24","602bb123612bfe330818d4ef","650c16f0f2faf8d7a0d14c09","651c1e015a3f15cef621aaa9","null","null","<p style=""font-size: 60px; font-family: BACS"">DMRPmtKP</p>","","","","","","","","",""
"html-keyboard-response","357","573314","0.0-16.0-0.25","602bb123612bfe330818d4ef","650c16f0f2faf8d7a0d14c09","651c1e015a3f15cef621aaa9","null","null","<p style=""font-size: 60px; font-family: BACS"">DMRPmtKP</p>","","","","","","","","",""
"html-keyboard-response","358","574327","0.0-16.0-0.26","602bb123612bfe330818d4ef","650c16f0f2faf8d7a0d14c09","651c1e015a3f15cef621aaa9","null","null","<p style=""font-size: 60px; font-family: BACS"">DMRPmtKP</p>","","","","","","","","",""
"html-keyboard-response","359","575343","0.0-16.0-0.27","602bb123612bfe330818d4ef","650c16f0f2faf8d7a0d14c09","651c1e015a3f15cef621aaa9","null","null","<p style=""font-size: 60px; font-family: BACS"">DMRPmtKP</p>","","","","","","","","",""
"html-keyboard-response","360","576346","0.0-16.0-0.28","602bb123612bfe330818d4ef","650c16f0f2faf8d7a0d14c09","651c1e015a3f15cef621aaa9","null","null","<p style=""font-size: 60px; font-family: BACS"">DMRPmtKP</p>","","","","","","","","",""
"html-keyboard-response","361","577354","0.0-16.0-0.29","602bb123612bfe330818d4ef","650c16f0f2faf8d7a0d14c09","651c1e015a3f15cef621aaa9","null","null","<p style=""font-size: 60px; font-family: BACS"">DMRPmtKP</p>","","","","","","","","",""
"html-keyboard-response","362","578361","0.0-16.0-0.30","602bb123612bfe330818d4ef","650c16f0f2faf8d7a0d14c09","651c1e015a3f15cef621aaa9","null","null","<p style=""font-size: 60px; font-family: BACS"">DMRPmtKP</p>","","","","","","","","",""
"html-keyboard-response","363","579374","0.0-16.0-0.31","602bb123612bfe330818d4ef","650c16f0f2faf8d7a0d14c09","651c1e015a3f15cef621aaa9","null","null","<p style=""font-size: 60px; font-family: BACS"">DMRPmtKP</p>","","","","","","","","",""
"html-keyboard-response","364","580377","0.0-16.0-0.32","602bb123612bfe330818d4ef","650c16f0f2faf8d7a0d14c09","651c1e015a3f15cef621aaa9","null","null","<p style=""font-size: 60px; font-family: BACS"">DMRPmtKP</p>","","","","","","","","",""
"html-keyboard-response","365","581389","0.0-16.0-0.33","602bb123612bfe330818d4ef","650c16f0f2faf8d7a0d14c09","651c1e015a3f15cef621aaa9","null","null","<p style=""font-size: 60px; font-family: BACS"">DMRPmtKP</p>","","","","","","","","",""
"html-keyboard-response","366","582403","0.0-16.0-0.34","602bb123612bfe330818d4ef","650c16f0f2faf8d7a0d14c09","651c1e015a3f15cef621aaa9","null","null","<p style=""font-size: 60px; font-family: BACS"">DMRPmtKP</p>","","","","","","","","",""
"html-keyboard-response","367","583418","0.0-16.0-0.35","602bb123612bfe330818d4ef","650c16f0f2faf8d7a0d14c09","651c1e015a3f15cef621aaa9","null","null","<p style=""font-size: 60px; font-family: BACS"">DMRPmtKP</p>","","","","","","","","",""
"html-keyboard-response","368","584432","0.0-16.0-0.36","602bb123612bfe330818d4ef","650c16f0f2faf8d7a0d14c09","651c1e015a3f15cef621aaa9","null","null","<p style=""font-size: 60px; font-family: BACS"">DMRPmtKP</p>","","","","","","","","",""
"html-keyboard-response","369","585446","0.0-16.0-0.37","602bb123612bfe330818d4ef","650c16f0f2faf8d7a0d14c09","651c1e015a3f15cef621aaa9","null","null","<p style=""font-size: 60px; font-family: BACS"">DMRPmtKP</p>","","","","","","","","",""
"html-keyboard-response","370","586451","0.0-16.0-0.38","602bb123612bfe330818d4ef","650c16f0f2faf8d7a0d14c09","651c1e015a3f15cef621aaa9","null","null","<p style=""font-size: 60px; font-family: BACS"">DMRPmtKP</p>","","","","","","","","",""
"html-keyboard-response","371","587468","0.0-16.0-0.39","602bb123612bfe330818d4ef","650c16f0f2faf8d7a0d14c09","651c1e015a3f15cef621aaa9","null","null","<p style=""font-size: 60px; font-family: BACS"">DMRPmtKP</p>","","","","","","","","",""
"html-keyboard-response","372","588480","0.0-16.0-0.40","602bb123612bfe330818d4ef","650c16f0f2faf8d7a0d14c09","651c1e015a3f15cef621aaa9","null","null","<p style=""font-size: 60px; font-family: BACS"">DMRPmtKP</p>","","","","","","","","",""
"html-keyboard-response","373","589488","0.0-16.0-0.41","602bb123612bfe330818d4ef","650c16f0f2faf8d7a0d14c09","651c1e015a3f15cef621aaa9","null","null","<p style=""font-size: 60px; font-family: BACS"">DMRPmtKP</p>","","","","","","","","",""
"html-keyboard-response","374","590497","0.0-16.0-0.42","602bb123612bfe330818d4ef","650c16f0f2faf8d7a0d14c09","651c1e015a3f15cef621aaa9","null","null","<p style=""font-size: 60px; font-family: BACS"">DMRPmtKP</p>","","","","","","","","",""
"html-keyboard-response","375","591512","0.0-16.0-0.43","602bb123612bfe330818d4ef","650c16f0f2faf8d7a0d14c09","651c1e015a3f15cef621aaa9","null","null","<p style=""font-size: 60px; font-family: BACS"">DMRPmtKP</p>","","","","","","","","",""
"html-keyboard-response","376","592526","0.0-16.0-0.44","602bb123612bfe330818d4ef","650c16f0f2faf8d7a0d14c09","651c1e015a3f15cef621aaa9","null","null","<p style=""font-size: 60px; font-family: BACS"">DMRPmtKP</p>","","","","","","","","",""
"html-keyboard-response","377","593532","0.0-16.0-0.45","602bb123612bfe330818d4ef","650c16f0f2faf8d7a0d14c09","651c1e015a3f15cef621aaa9","null","null","<p style=""font-size: 60px; font-family: BACS"">DMRPmtKP</p>","","","","","","","","",""
"html-keyboard-response","378","594545","0.0-16.0-0.46","602bb123612bfe330818d4ef","650c16f0f2faf8d7a0d14c09","651c1e015a3f15cef621aaa9","null","null","<p style=""font-size: 60px; font-family: BACS"">DMRPmtKP</p>","","","","","","","","",""
"html-keyboard-response","379","595546","0.0-16.0-0.47","602bb123612bfe330818d4ef","650c16f0f2faf8d7a0d14c09","651c1e015a3f15cef621aaa9","null","null","<p style=""font-size: 60px; font-family: BACS"">DMRPmtKP</p>","","","","","","","","",""
"html-keyboard-response","380","596555","0.0-16.0-0.48","602bb123612bfe330818d4ef","650c16f0f2faf8d7a0d14c09","651c1e015a3f15cef621aaa9","null","null","<p style=""font-size: 60px; font-family: BACS"">DMRPmtKP</p>","","","","","","","","",""
"html-keyboard-response","381","597571","0.0-16.0-0.49","602bb123612bfe330818d4ef","650c16f0f2faf8d7a0d14c09","651c1e015a3f15cef621aaa9","null","null","<p style=""font-size: 60px; font-family: BACS"">DMRPmtKP</p>","","","","","","","","",""
"html-keyboard-response","382","598576","0.0-16.0-0.50","602bb123612bfe330818d4ef","650c16f0f2faf8d7a0d14c09","651c1e015a3f15cef621aaa9","null","null","<p style=""font-size: 60px; font-family: BACS"">DMRPmtKP</p>","","","","","","","","",""
"html-keyboard-response","383","599586","0.0-16.0-0.51","602bb123612bfe330818d4ef","650c16f0f2faf8d7a0d14c09","651c1e015a3f15cef621aaa9","null","null","<p style=""font-size: 60px; font-family: BACS"">DMRPmtKP</p>","","","","","","","","",""
"html-keyboard-response","384","600588","0.0-16.0-0.52","602bb123612bfe330818d4ef","650c16f0f2faf8d7a0d14c09","651c1e015a3f15cef621aaa9","null","null","<p style=""font-size: 60px; font-family: BACS"">DMRPmtKP</p>","","","","","","","","",""
"html-keyboard-response","385","601590","0.0-16.0-0.53","602bb123612bfe330818d4ef","650c16f0f2faf8d7a0d14c09","651c1e015a3f15cef621aaa9","null","null","<p style=""font-size: 60px; font-family: BACS"">DMRPmtKP</p>","","","","","","","","",""
"html-keyboard-response","386","602597","0.0-16.0-0.54","602bb123612bfe330818d4ef","650c16f0f2faf8d7a0d14c09","651c1e015a3f15cef621aaa9","null","null","<p style=""font-size: 60px; font-family: BACS"">DMRPmtKP</p>","","","","","","","","",""
"html-keyboard-response","387","603599","0.0-16.0-0.55","602bb123612bfe330818d4ef","650c16f0f2faf8d7a0d14c09","651c1e015a3f15cef621aaa9","null","null","<p style=""font-size: 60px; font-family: BACS"">DMRPmtKP</p>","","","","","","","","",""
"html-keyboard-response","388","604601","0.0-16.0-0.56","602bb123612bfe330818d4ef","650c16f0f2faf8d7a0d14c09","651c1e015a3f15cef621aaa9","null","null","<p style=""font-size: 60px; font-family: BACS"">DMRPmtKP</p>","","","","","","","","",""
"html-keyboard-response","389","605616","0.0-16.0-0.57","602bb123612bfe330818d4ef","650c16f0f2faf8d7a0d14c09","651c1e015a3f15cef621aaa9","null","null","<p style=""font-size: 60px; font-family: BACS"">DMRPmtKP</p>","","","","","","","","",""
"html-keyboard-response","390","606633","0.0-16.0-0.58","602bb123612bfe330818d4ef","650c16f0f2faf8d7a0d14c09","651c1e015a3f15cef621aaa9","null","null","<p style=""font-size: 60px; font-family: BACS"">DMRPmtKP</p>","","","","","","","","",""
"html-keyboard-response","391","607634","0.0-16.0-0.59","602bb123612bfe330818d4ef","650c16f0f2faf8d7a0d14c09","651c1e015a3f15cef621aaa9","null","null","<p style=""font-size: 60px; font-family: BACS"">DMRPmtKP</p>","","","","","","","","",""
"html-keyboard-response","392","608648","0.0-16.0-0.60","602bb123612bfe330818d4ef","650c16f0f2faf8d7a0d14c09","651c1e015a3f15cef621aaa9","null","null","<p style=""font-size: 60px; font-family: BACS"">DMRPmtKP</p>","","","","","","","","",""
"html-keyboard-response","393","609664","0.0-16.0-0.61","602bb123612bfe330818d4ef","650c16f0f2faf8d7a0d14c09","651c1e015a3f15cef621aaa9","null","null","<p style=""font-size: 60px; font-family: BACS"">DMRPmtKP</p>","","","","","","","","",""
"html-keyboard-response","394","610680","0.0-16.0-0.62","602bb123612bfe330818d4ef","650c16f0f2faf8d7a0d14c09","651c1e015a3f15cef621aaa9","null","null","<p style=""font-size: 60px; font-family: BACS"">DMRPmtKP</p>","","","","","","","","",""
"html-keyboard-response","395","611695","0.0-16.0-0.63","602bb123612bfe330818d4ef","650c16f0f2faf8d7a0d14c09","651c1e015a3f15cef621aaa9","null","null","<p style=""font-size: 60px; font-family: BACS"">DMRPmtKP</p>","","","","","","","","",""
"html-keyboard-response","396","612712","0.0-16.0-0.64","602bb123612bfe330818d4ef","650c16f0f2faf8d7a0d14c09","651c1e015a3f15cef621aaa9","null","null","<p style=""font-size: 60px; font-family: BACS"">DMRPmtKP</p>","","","","","","","","",""
"html-keyboard-response","397","613724","0.0-16.0-0.65","602bb123612bfe330818d4ef","650c16f0f2faf8d7a0d14c09","651c1e015a3f15cef621aaa9","null","null","<p style=""font-size: 60px; font-family: BACS"">DMRPmtKP</p>","","","","","","","","",""
"html-keyboard-response","398","614737","0.0-16.0-0.66","602bb123612bfe330818d4ef","650c16f0f2faf8d7a0d14c09","651c1e015a3f15cef621aaa9","null","null","<p style=""font-size: 60px; font-family: BACS"">DMRPmtKP</p>","","","","","","","","",""
