trial_type,trial_index,time_elapsed,internal_node_id,subject_id,study_id,session_id,rt,response,stimulus,success,item,task,correct_response,testing_condition,correct,target,confound,name,view_history
pavlovia,0,862,0.0-0.0,64764d56699f097a96ec6e5c,650c16f0f2faf8d7a0d14c09,651c1c8ae7b1372d39070b13,,,,,,,,,,,,,
survey-html-form,1,14541,0.0-1.0,64764d56699f097a96ec6e5c,650c16f0f2faf8d7a0d14c09,651c1c8ae7b1372d39070b13,13678,"{""ID"":""64764d56699f097a96ec6e5c""}",,,,,,,,,,,
html-keyboard-response,2,20970,0.0-2.0,64764d56699f097a96ec6e5c,650c16f0f2faf8d7a0d14c09,651c1c8ae7b1372d39070b13,6427, ,"<p style=""font-size: 15px;"">Before beginning, we ask that you read the consent information and confirm your agreement to participate in the experiment.</p>
      <p style=""font-size: 15px;""> We ask that you remember that this is a research project and that your participation is entirely voluntary. You can stop your participation at any time, without needing to provide any explanation. The study we're asking you to participate in aims at examining how readers process written words. You will be engaged in a session of apprximately 20 minutes, followed by a brief questionnaire. You will have the opportunity to take a few breaks during the experiment. You will be paid £4 for your participation, corresponding to a rate of £8/hour. While this experiment looks at cognitive faculties, this experiment doesn't constitute clinical proof of eventual pathologies.</p>
      <p style=""font-size: 15px;"">All of the information collected thanks to yours and others' participation will be held in a secure password-protected server, and will not be shared with anyone not authorised to view it. Your personal information will be kept with an arbitrary participant ID. Thanks to this data anonymity process, any researcher analysing the data won't be able to track the information back to a specific participant. Therefore, this process will make identifying you impossibile, even when results from the study will be published in scientific reviews, presented at congresses, or at any other public forum. More generally, the collected data will be treated in accordance with the laws on privacy and conformity to the Legislative Degree n. 196 ""Code regarding the protection of personal data"" of the 30th of June 2003 and to the European Regulation 2016/670 (General Data Protection Regulation - GDPR). The Data Protection Officer is Avv. Valentina Carollo, who can be contacted at the following email addresses: <a href=""mailto:dpo@sissa.it"">dpo@sissa.it</a> or <a href=""mailto:rpd@sissa.it"">rpd@sissa.it</a> - PEC: <a href=""mailto:protocollo@pec.sissa.it"">protocollo@pec.sissa.it</a>.</p>
      <p style=""font-size: 15px;""> Before expressing your consent to participate, we would like to remind you again that in case you need explanations on any aspect of the experimental procedure, the researcher is at your disposition (<a href=""mailto:aliebelt@sissa.it"">aliebelt@sissa.it</a>, <a href=""mailto:davide.crepaldi@sissa.it"">davide.crepaldi@sissa.it</a>).</p>
      <p style=""font-size: 15px;"">If you would like to download the informed consent form, you can do so here: <a href=""BASL-Informed_Consent.pdf"" download>informed consent form</a>.</p>
      <p style=""font-size: 15px;"">We ask that you press the spacebar to proceed to the consent section.</p>",,,,,,,,,,
survey-html-form,3,39108,0.0-3.0,64764d56699f097a96ec6e5c,650c16f0f2faf8d7a0d14c09,651c1c8ae7b1372d39070b13,18137,"{""consent1"":""YES"",""consent2"":""YES"",""consent3"":""YES"",""consent4"":""YES"",""consent5"":""YES"",""consent6"":""YES""}",,,,,,,,,,,
fullscreen,4,47213,0.0-4.0,64764d56699f097a96ec6e5c,650c16f0f2faf8d7a0d14c09,651c1c8ae7b1372d39070b13,,,,TRUE,,,,,,,,,
html-keyboard-response,5,76916,0.0-5.0,64764d56699f097a96ec6e5c,650c16f0f2faf8d7a0d14c09,651c1c8ae7b1372d39070b13,29703, ,"<p>Welcome, and thank you very much for your time!</p>
      <p>In this experiment, you'll be a language expert who's been asked to take a look at words that Earth has received in its first communication with aliens. Your task, in this first part of the experiment, is to pay close attention to the words you'll be shown; later, world leaders will ask you questions on what you saw. The words will be shown to you quite quickly; it seems that the aliens were in a hurry :-)</p>
      <p>Press the spacebar to continue.<p>",,,,,,,,,,
html-keyboard-response,6,76969,0.0-6.0,64764d56699f097a96ec6e5c,650c16f0f2faf8d7a0d14c09,651c1c8ae7b1372d39070b13,null,null,"<p style=""font-size: 120px; font-family: BACS""> </p>",,,,,,,,,,
html-keyboard-response,7,87757,0.0-7.0,64764d56699f097a96ec6e5c,650c16f0f2faf8d7a0d14c09,651c1c8ae7b1372d39070b13,10787, ,"<p>Here is an example of the words you'll see:</p>
      <img src='esempio.png' height='400px'>
      <p>When you're ready to begin, press the spacebar.</p></div>",,,,,,,,,,
html-keyboard-response,8,88761,0.0-8.0-0.0,64764d56699f097a96ec6e5c,650c16f0f2faf8d7a0d14c09,651c1c8ae7b1372d39070b13,null,null,"<p style=""font-size: 60px; font-family: BACS"">ukYZkJdr</p>",,,,,,,,,,
html-keyboard-response,9,89764,0.0-8.0-0.1,64764d56699f097a96ec6e5c,650c16f0f2faf8d7a0d14c09,651c1c8ae7b1372d39070b13,null,null,"<p style=""font-size: 60px; font-family: BACS"">bmdABCMdP</p>",,,,,,,,,,
html-keyboard-response,10,90766,0.0-8.0-0.2,64764d56699f097a96ec6e5c,650c16f0f2faf8d7a0d14c09,651c1c8ae7b1372d39070b13,null,null,"<p style=""font-size: 60px; font-family: BACS"">LvuOGkJdr</p>",,,,,,,,,,
html-keyboard-response,11,91769,0.0-8.0-0.3,64764d56699f097a96ec6e5c,650c16f0f2faf8d7a0d14c09,651c1c8ae7b1372d39070b13,null,null,"<p style=""font-size: 60px; font-family: BACS"">DdckKmE</p>",,,,,,,,,,
html-keyboard-response,12,92770,0.0-8.0-0.4,64764d56699f097a96ec6e5c,650c16f0f2faf8d7a0d14c09,651c1c8ae7b1372d39070b13,null,null,"<p style=""font-size: 60px; font-family: BACS"">LvuOGark</p>",,,,,,,,,,
html-keyboard-response,13,93772,0.0-8.0-0.5,64764d56699f097a96ec6e5c,650c16f0f2faf8d7a0d14c09,651c1c8ae7b1372d39070b13,null,null,"<p style=""font-size: 60px; font-family: BACS"">YOZNmvG</p>",,,,,,,,,,
html-keyboard-response,14,94775,0.0-8.0-0.6,64764d56699f097a96ec6e5c,650c16f0f2faf8d7a0d14c09,651c1c8ae7b1372d39070b13,null,null,"<p style=""font-size: 60px; font-family: BACS"">bdUNuark</p>",,,,,,,,,,
html-keyboard-response,15,95777,0.0-8.0-0.7,64764d56699f097a96ec6e5c,650c16f0f2faf8d7a0d14c09,651c1c8ae7b1372d39070b13,null,null,"<p style=""font-size: 60px; font-family: BACS"">hTtBbDbMR</p>",,,,,,,,,,
html-keyboard-response,16,96781,0.0-8.0-0.8,64764d56699f097a96ec6e5c,650c16f0f2faf8d7a0d14c09,651c1c8ae7b1372d39070b13,null,null,"<p style=""font-size: 60px; font-family: BACS"">vkYGlmvG</p>",,,,,,,,,,
html-keyboard-response,17,97783,0.0-8.0-0.9,64764d56699f097a96ec6e5c,650c16f0f2faf8d7a0d14c09,651c1c8ae7b1372d39070b13,null,null,"<p style=""font-size: 60px; font-family: BACS"">kCRmDbMR</p>",,,,,,,,,,
html-keyboard-response,18,98786,0.0-8.0-0.10,64764d56699f097a96ec6e5c,650c16f0f2faf8d7a0d14c09,651c1c8ae7b1372d39070b13,null,null,"<p style=""font-size: 60px; font-family: BACS"">bmdABRCdc</p>",,,,,,,,,,
html-keyboard-response,19,99789,0.0-8.0-0.11,64764d56699f097a96ec6e5c,650c16f0f2faf8d7a0d14c09,651c1c8ae7b1372d39070b13,null,null,"<p style=""font-size: 60px; font-family: BACS"">advYOLaA</p>",,,,,,,,,,
html-keyboard-response,20,100792,0.0-8.0-0.12,64764d56699f097a96ec6e5c,650c16f0f2faf8d7a0d14c09,651c1c8ae7b1372d39070b13,null,null,"<p style=""font-size: 60px; font-family: BACS"">kabJbvUdm</p>",,,,,,,,,,
html-keyboard-response,21,101795,0.0-8.0-0.13,64764d56699f097a96ec6e5c,650c16f0f2faf8d7a0d14c09,651c1c8ae7b1372d39070b13,null,null,"<p style=""font-size: 60px; font-family: BACS"">kCRmPMYm</p>",,,,,,,,,,
html-keyboard-response,22,102797,0.0-8.0-0.14,64764d56699f097a96ec6e5c,650c16f0f2faf8d7a0d14c09,651c1c8ae7b1372d39070b13,null,null,"<p style=""font-size: 60px; font-family: BACS"">UmNJmvG</p>",,,,,,,,,,
html-keyboard-response,23,103800,0.0-8.0-0.15,64764d56699f097a96ec6e5c,650c16f0f2faf8d7a0d14c09,651c1c8ae7b1372d39070b13,null,null,"<p style=""font-size: 60px; font-family: BACS"">khmhKmE</p>",,,,,,,,,,
html-keyboard-response,24,104803,0.0-8.0-0.16,64764d56699f097a96ec6e5c,650c16f0f2faf8d7a0d14c09,651c1c8ae7b1372d39070b13,null,null,"<p style=""font-size: 60px; font-family: BACS"">CDEmYDbMR</p>",,,,,,,,,,
html-keyboard-response,25,105806,0.0-8.0-0.17,64764d56699f097a96ec6e5c,650c16f0f2faf8d7a0d14c09,651c1c8ae7b1372d39070b13,null,null,"<p style=""font-size: 60px; font-family: BACS"">ctktCMdP</p>",,,,,,,,,,
html-keyboard-response,26,106808,0.0-8.0-0.18,64764d56699f097a96ec6e5c,650c16f0f2faf8d7a0d14c09,651c1c8ae7b1372d39070b13,null,null,"<p style=""font-size: 60px; font-family: BACS"">mhtcPMYm</p>",,,,,,,,,,
html-keyboard-response,27,107811,0.0-8.0-0.19,64764d56699f097a96ec6e5c,650c16f0f2faf8d7a0d14c09,651c1c8ae7b1372d39070b13,null,null,"<p style=""font-size: 60px; font-family: BACS"">hTtBbCMdP</p>",,,,,,,,,,
html-keyboard-response,28,108814,0.0-8.0-0.20,64764d56699f097a96ec6e5c,650c16f0f2faf8d7a0d14c09,651c1c8ae7b1372d39070b13,null,null,"<p style=""font-size: 60px; font-family: BACS"">bmdABPMYm</p>",,,,,,,,,,
html-keyboard-response,29,109817,0.0-8.0-0.21,64764d56699f097a96ec6e5c,650c16f0f2faf8d7a0d14c09,651c1c8ae7b1372d39070b13,null,null,"<p style=""font-size: 60px; font-family: BACS"">UmNJkJdr</p>",,,,,,,,,,
html-keyboard-response,30,110820,0.0-8.0-0.22,64764d56699f097a96ec6e5c,650c16f0f2faf8d7a0d14c09,651c1c8ae7b1372d39070b13,null,null,"<p style=""font-size: 60px; font-family: BACS"">YdudLaA</p>",,,,,,,,,,
html-keyboard-response,31,111823,0.0-8.0-0.23,64764d56699f097a96ec6e5c,650c16f0f2faf8d7a0d14c09,651c1c8ae7b1372d39070b13,null,null,"<p style=""font-size: 60px; font-family: BACS"">khmhPMYm</p>",,,,,,,,,,
html-keyboard-response,32,112825,0.0-8.0-0.24,64764d56699f097a96ec6e5c,650c16f0f2faf8d7a0d14c09,651c1c8ae7b1372d39070b13,null,null,"<p style=""font-size: 60px; font-family: BACS"">hlctERCdc</p>",,,,,,,,,,
html-keyboard-response,33,113828,0.0-8.0-0.25,64764d56699f097a96ec6e5c,650c16f0f2faf8d7a0d14c09,651c1c8ae7b1372d39070b13,null,null,"<p style=""font-size: 60px; font-family: BACS"">bdUNuLaA</p>",,,,,,,,,,
html-keyboard-response,34,114831,0.0-8.0-0.26,64764d56699f097a96ec6e5c,650c16f0f2faf8d7a0d14c09,651c1c8ae7b1372d39070b13,null,null,"<p style=""font-size: 60px; font-family: BACS"">YdudmvG</p>",,,,,,,,,,
html-keyboard-response,35,115833,0.0-8.0-0.27,64764d56699f097a96ec6e5c,650c16f0f2faf8d7a0d14c09,651c1c8ae7b1372d39070b13,null,null,"<p style=""font-size: 60px; font-family: BACS"">kCRmCMdP</p>",,,,,,,,,,
html-keyboard-response,36,116836,0.0-8.0-0.28,64764d56699f097a96ec6e5c,650c16f0f2faf8d7a0d14c09,651c1c8ae7b1372d39070b13,null,null,"<p style=""font-size: 60px; font-family: BACS"">hlctEKmE</p>",,,,,,,,,,
html-keyboard-response,37,117839,0.0-8.0-0.29,64764d56699f097a96ec6e5c,650c16f0f2faf8d7a0d14c09,651c1c8ae7b1372d39070b13,null,null,"<p style=""font-size: 60px; font-family: BACS"">mhtcDbMR</p>",,,,,,,,,,
html-keyboard-response,38,118842,0.0-8.0-0.30,64764d56699f097a96ec6e5c,650c16f0f2faf8d7a0d14c09,651c1c8ae7b1372d39070b13,null,null,"<p style=""font-size: 60px; font-family: BACS"">kKEdMCMdP</p>",,,,,,,,,,
html-keyboard-response,39,119844,0.0-8.0-0.31,64764d56699f097a96ec6e5c,650c16f0f2faf8d7a0d14c09,651c1c8ae7b1372d39070b13,null,null,"<p style=""font-size: 60px; font-family: BACS"">YOZNkJdr</p>",,,,,,,,,,
html-keyboard-response,40,120847,0.0-8.0-0.32,64764d56699f097a96ec6e5c,650c16f0f2faf8d7a0d14c09,651c1c8ae7b1372d39070b13,null,null,"<p style=""font-size: 60px; font-family: BACS"">LvuOGmvG</p>",,,,,,,,,,
html-keyboard-response,41,121849,0.0-8.0-0.33,64764d56699f097a96ec6e5c,650c16f0f2faf8d7a0d14c09,651c1c8ae7b1372d39070b13,null,null,"<p style=""font-size: 60px; font-family: BACS"">kKEdMRCdc</p>",,,,,,,,,,
html-keyboard-response,42,122853,0.0-8.0-0.34,64764d56699f097a96ec6e5c,650c16f0f2faf8d7a0d14c09,651c1c8ae7b1372d39070b13,null,null,"<p style=""font-size: 60px; font-family: BACS"">YdudvUdm</p>",,,,,,,,,,
html-keyboard-response,43,123855,0.0-8.0-0.35,64764d56699f097a96ec6e5c,650c16f0f2faf8d7a0d14c09,651c1c8ae7b1372d39070b13,null,null,"<p style=""font-size: 60px; font-family: BACS"">khmhRCdc</p>",,,,,,,,,,
html-keyboard-response,44,124858,0.0-8.0-0.36,64764d56699f097a96ec6e5c,650c16f0f2faf8d7a0d14c09,651c1c8ae7b1372d39070b13,null,null,"<p style=""font-size: 60px; font-family: BACS"">hlctEPMYm</p>",,,,,,,,,,
html-keyboard-response,45,125861,0.0-8.0-0.37,64764d56699f097a96ec6e5c,650c16f0f2faf8d7a0d14c09,651c1c8ae7b1372d39070b13,null,null,"<p style=""font-size: 60px; font-family: BACS"">advYOark</p>",,,,,,,,,,
html-keyboard-response,46,126863,0.0-8.0-0.38,64764d56699f097a96ec6e5c,650c16f0f2faf8d7a0d14c09,651c1c8ae7b1372d39070b13,null,null,"<p style=""font-size: 60px; font-family: BACS"">CDEmYKmE</p>",,,,,,,,,,
html-keyboard-response,47,127866,0.0-8.0-0.39,64764d56699f097a96ec6e5c,650c16f0f2faf8d7a0d14c09,651c1c8ae7b1372d39070b13,null,null,"<p style=""font-size: 60px; font-family: BACS"">ukYZark</p>",,,,,,,,,,
html-keyboard-response,48,128868,0.0-8.0-0.40,64764d56699f097a96ec6e5c,650c16f0f2faf8d7a0d14c09,651c1c8ae7b1372d39070b13,null,null,"<p style=""font-size: 60px; font-family: BACS"">vkYGlkJdr</p>",,,,,,,,,,
html-keyboard-response,49,129871,0.0-8.0-0.41,64764d56699f097a96ec6e5c,650c16f0f2faf8d7a0d14c09,651c1c8ae7b1372d39070b13,null,null,"<p style=""font-size: 60px; font-family: BACS"">UmNJark</p>",,,,,,,,,,
html-keyboard-response,50,130874,0.0-8.0-0.42,64764d56699f097a96ec6e5c,650c16f0f2faf8d7a0d14c09,651c1c8ae7b1372d39070b13,null,null,"<p style=""font-size: 60px; font-family: BACS"">YdudkJdr</p>",,,,,,,,,,
html-keyboard-response,51,131878,0.0-8.0-0.43,64764d56699f097a96ec6e5c,650c16f0f2faf8d7a0d14c09,651c1c8ae7b1372d39070b13,null,null,"<p style=""font-size: 60px; font-family: BACS"">DdckDbMR</p>",,,,,,,,,,
html-keyboard-response,52,132880,0.0-8.0-0.44,64764d56699f097a96ec6e5c,650c16f0f2faf8d7a0d14c09,651c1c8ae7b1372d39070b13,null,null,"<p style=""font-size: 60px; font-family: BACS"">ctktPMYm</p>",,,,,,,,,,
html-keyboard-response,53,133883,0.0-8.0-0.45,64764d56699f097a96ec6e5c,650c16f0f2faf8d7a0d14c09,651c1c8ae7b1372d39070b13,null,null,"<p style=""font-size: 60px; font-family: BACS"">kabJbmvG</p>",,,,,,,,,,
html-keyboard-response,54,134885,0.0-8.0-0.46,64764d56699f097a96ec6e5c,650c16f0f2faf8d7a0d14c09,651c1c8ae7b1372d39070b13,null,null,"<p style=""font-size: 60px; font-family: BACS"">mhtcCMdP</p>",,,,,,,,,,
html-keyboard-response,55,135888,0.0-8.0-0.47,64764d56699f097a96ec6e5c,650c16f0f2faf8d7a0d14c09,651c1c8ae7b1372d39070b13,null,null,"<p style=""font-size: 60px; font-family: BACS"">khmhDbMR</p>",,,,,,,,,,
html-keyboard-response,56,136891,0.0-8.0-0.48,64764d56699f097a96ec6e5c,650c16f0f2faf8d7a0d14c09,651c1c8ae7b1372d39070b13,null,null,"<p style=""font-size: 60px; font-family: BACS"">bmdABKmE</p>",,,,,,,,,,
html-keyboard-response,57,137894,0.0-8.0-0.49,64764d56699f097a96ec6e5c,650c16f0f2faf8d7a0d14c09,651c1c8ae7b1372d39070b13,null,null,"<p style=""font-size: 60px; font-family: BACS"">mrOdvUdm</p>",,,,,,,,,,
html-keyboard-response,58,138896,0.0-8.0-0.50,64764d56699f097a96ec6e5c,650c16f0f2faf8d7a0d14c09,651c1c8ae7b1372d39070b13,null,null,"<p style=""font-size: 60px; font-family: BACS"">advYOmvG</p>",,,,,,,,,,
html-keyboard-response,59,139898,0.0-8.0-0.51,64764d56699f097a96ec6e5c,650c16f0f2faf8d7a0d14c09,651c1c8ae7b1372d39070b13,null,null,"<p style=""font-size: 60px; font-family: BACS"">mhtcRCdc</p>",,,,,,,,,,
html-keyboard-response,60,140900,0.0-8.0-0.52,64764d56699f097a96ec6e5c,650c16f0f2faf8d7a0d14c09,651c1c8ae7b1372d39070b13,null,null,"<p style=""font-size: 60px; font-family: BACS"">bdUNukJdr</p>",,,,,,,,,,
html-keyboard-response,61,141903,0.0-8.0-0.53,64764d56699f097a96ec6e5c,650c16f0f2faf8d7a0d14c09,651c1c8ae7b1372d39070b13,null,null,"<p style=""font-size: 60px; font-family: BACS"">kCRmKmE</p>",,,,,,,,,,
html-keyboard-response,62,142906,0.0-8.0-0.54,64764d56699f097a96ec6e5c,650c16f0f2faf8d7a0d14c09,651c1c8ae7b1372d39070b13,null,null,"<p style=""font-size: 60px; font-family: BACS"">UmNJvUdm</p>",,,,,,,,,,
html-keyboard-response,63,143908,0.0-8.0-0.55,64764d56699f097a96ec6e5c,650c16f0f2faf8d7a0d14c09,651c1c8ae7b1372d39070b13,null,null,"<p style=""font-size: 60px; font-family: BACS"">vkYGlLaA</p>",,,,,,,,,,
html-keyboard-response,64,144911,0.0-8.0-0.56,64764d56699f097a96ec6e5c,650c16f0f2faf8d7a0d14c09,651c1c8ae7b1372d39070b13,null,null,"<p style=""font-size: 60px; font-family: BACS"">CDEmYCMdP</p>",,,,,,,,,,
html-keyboard-response,65,145914,0.0-8.0-0.57,64764d56699f097a96ec6e5c,650c16f0f2faf8d7a0d14c09,651c1c8ae7b1372d39070b13,null,null,"<p style=""font-size: 60px; font-family: BACS"">kabJbLaA</p>",,,,,,,,,,
html-keyboard-response,66,146916,0.0-8.0-0.58,64764d56699f097a96ec6e5c,650c16f0f2faf8d7a0d14c09,651c1c8ae7b1372d39070b13,null,null,"<p style=""font-size: 60px; font-family: BACS"">YOZNark</p>",,,,,,,,,,
html-keyboard-response,67,147919,0.0-8.0-0.59,64764d56699f097a96ec6e5c,650c16f0f2faf8d7a0d14c09,651c1c8ae7b1372d39070b13,null,null,"<p style=""font-size: 60px; font-family: BACS"">CDEmYRCdc</p>",,,,,,,,,,
html-keyboard-response,68,148922,0.0-8.0-0.60,64764d56699f097a96ec6e5c,650c16f0f2faf8d7a0d14c09,651c1c8ae7b1372d39070b13,null,null,"<p style=""font-size: 60px; font-family: BACS"">bdUNuvUdm</p>",,,,,,,,,,
html-keyboard-response,69,149924,0.0-8.0-0.61,64764d56699f097a96ec6e5c,650c16f0f2faf8d7a0d14c09,651c1c8ae7b1372d39070b13,null,null,"<p style=""font-size: 60px; font-family: BACS"">ctktKmE</p>",,,,,,,,,,
html-keyboard-response,70,150927,0.0-8.0-0.62,64764d56699f097a96ec6e5c,650c16f0f2faf8d7a0d14c09,651c1c8ae7b1372d39070b13,null,null,"<p style=""font-size: 60px; font-family: BACS"">vkYGlvUdm</p>",,,,,,,,,,
html-keyboard-response,71,151930,0.0-8.0-0.63,64764d56699f097a96ec6e5c,650c16f0f2faf8d7a0d14c09,651c1c8ae7b1372d39070b13,null,null,"<p style=""font-size: 60px; font-family: BACS"">ctktRCdc</p>",,,,,,,,,,
html-keyboard-response,72,152932,0.0-8.0-0.64,64764d56699f097a96ec6e5c,650c16f0f2faf8d7a0d14c09,651c1c8ae7b1372d39070b13,null,null,"<p style=""font-size: 60px; font-family: BACS"">DdckCMdP</p>",,,,,,,,,,
html-keyboard-response,73,153935,0.0-8.0-0.65,64764d56699f097a96ec6e5c,650c16f0f2faf8d7a0d14c09,651c1c8ae7b1372d39070b13,null,null,"<p style=""font-size: 60px; font-family: BACS"">mrOdark</p>",,,,,,,,,,
html-keyboard-response,74,154938,0.0-8.0-0.66,64764d56699f097a96ec6e5c,650c16f0f2faf8d7a0d14c09,651c1c8ae7b1372d39070b13,null,null,"<p style=""font-size: 60px; font-family: BACS"">advYOkJdr</p>",,,,,,,,,,
html-keyboard-response,75,155941,0.0-8.0-0.67,64764d56699f097a96ec6e5c,650c16f0f2faf8d7a0d14c09,651c1c8ae7b1372d39070b13,null,null,"<p style=""font-size: 60px; font-family: BACS"">LvuOGvUdm</p>",,,,,,,,,,
html-keyboard-response,76,156943,0.0-8.0-0.68,64764d56699f097a96ec6e5c,650c16f0f2faf8d7a0d14c09,651c1c8ae7b1372d39070b13,null,null,"<p style=""font-size: 60px; font-family: BACS"">kabJbark</p>",,,,,,,,,,
html-keyboard-response,77,157946,0.0-8.0-0.69,64764d56699f097a96ec6e5c,650c16f0f2faf8d7a0d14c09,651c1c8ae7b1372d39070b13,null,null,"<p style=""font-size: 60px; font-family: BACS"">mrOdmvG</p>",,,,,,,,,,
html-keyboard-response,78,158948,0.0-8.0-0.70,64764d56699f097a96ec6e5c,650c16f0f2faf8d7a0d14c09,651c1c8ae7b1372d39070b13,null,null,"<p style=""font-size: 60px; font-family: BACS"">hTtBbKmE</p>",,,,,,,,,,
html-keyboard-response,79,159951,0.0-8.0-0.71,64764d56699f097a96ec6e5c,650c16f0f2faf8d7a0d14c09,651c1c8ae7b1372d39070b13,null,null,"<p style=""font-size: 60px; font-family: BACS"">DdckRCdc</p>",,,,,,,,,,
html-keyboard-response,80,160953,0.0-8.0-0.72,64764d56699f097a96ec6e5c,650c16f0f2faf8d7a0d14c09,651c1c8ae7b1372d39070b13,null,null,"<p style=""font-size: 60px; font-family: BACS"">kKEdMDbMR</p>",,,,,,,,,,
html-keyboard-response,81,161956,0.0-8.0-0.73,64764d56699f097a96ec6e5c,650c16f0f2faf8d7a0d14c09,651c1c8ae7b1372d39070b13,null,null,"<p style=""font-size: 60px; font-family: BACS"">mrOdLaA</p>",,,,,,,,,,
html-keyboard-response,82,162959,0.0-8.0-0.74,64764d56699f097a96ec6e5c,650c16f0f2faf8d7a0d14c09,651c1c8ae7b1372d39070b13,null,null,"<p style=""font-size: 60px; font-family: BACS"">hlctEDbMR</p>",,,,,,,,,,
html-keyboard-response,83,163961,0.0-8.0-0.75,64764d56699f097a96ec6e5c,650c16f0f2faf8d7a0d14c09,651c1c8ae7b1372d39070b13,null,null,"<p style=""font-size: 60px; font-family: BACS"">ukYZLaA</p>",,,,,,,,,,
html-keyboard-response,84,164963,0.0-8.0-0.76,64764d56699f097a96ec6e5c,650c16f0f2faf8d7a0d14c09,651c1c8ae7b1372d39070b13,null,null,"<p style=""font-size: 60px; font-family: BACS"">kKEdMPMYm</p>",,,,,,,,,,
html-keyboard-response,85,165966,0.0-8.0-0.77,64764d56699f097a96ec6e5c,650c16f0f2faf8d7a0d14c09,651c1c8ae7b1372d39070b13,null,null,"<p style=""font-size: 60px; font-family: BACS"">ukYZvUdm</p>",,,,,,,,,,
html-keyboard-response,86,166968,0.0-8.0-0.78,64764d56699f097a96ec6e5c,650c16f0f2faf8d7a0d14c09,651c1c8ae7b1372d39070b13,null,null,"<p style=""font-size: 60px; font-family: BACS"">hTtBbPMYm</p>",,,,,,,,,,
html-keyboard-response,87,167971,0.0-8.0-0.79,64764d56699f097a96ec6e5c,650c16f0f2faf8d7a0d14c09,651c1c8ae7b1372d39070b13,null,null,"<p style=""font-size: 60px; font-family: BACS"">YOZNLaA</p>",,,,,,,,,,
html-keyboard-response,88,176848,0.0-9.0,64764d56699f097a96ec6e5c,650c16f0f2faf8d7a0d14c09,651c1c8ae7b1372d39070b13,8875, ,"<p>Great, you've seen the first block of words. You may now take a short break.</p>
      <p>Press the spacebar when you're ready to continue.</p>",,,,,,,,,,
html-keyboard-response,89,177850,0.0-10.0-0.0,64764d56699f097a96ec6e5c,650c16f0f2faf8d7a0d14c09,651c1c8ae7b1372d39070b13,null,null,"<p style=""font-size: 60px; font-family: BACS"">bmdABRCdc</p>",,,,,,,,,,
html-keyboard-response,90,178852,0.0-10.0-0.1,64764d56699f097a96ec6e5c,650c16f0f2faf8d7a0d14c09,651c1c8ae7b1372d39070b13,null,null,"<p style=""font-size: 60px; font-family: BACS"">ukYZark</p>",,,,,,,,,,
html-keyboard-response,91,179855,0.0-10.0-0.2,64764d56699f097a96ec6e5c,650c16f0f2faf8d7a0d14c09,651c1c8ae7b1372d39070b13,null,null,"<p style=""font-size: 60px; font-family: BACS"">kCRmDbMR</p>",,,,,,,,,,
html-keyboard-response,92,180858,0.0-10.0-0.3,64764d56699f097a96ec6e5c,650c16f0f2faf8d7a0d14c09,651c1c8ae7b1372d39070b13,null,null,"<p style=""font-size: 60px; font-family: BACS"">ctktPMYm</p>",,,,,,,,,,
html-keyboard-response,93,181859,0.0-10.0-0.4,64764d56699f097a96ec6e5c,650c16f0f2faf8d7a0d14c09,651c1c8ae7b1372d39070b13,null,null,"<p style=""font-size: 60px; font-family: BACS"">advYOark</p>",,,,,,,,,,
html-keyboard-response,94,182862,0.0-10.0-0.5,64764d56699f097a96ec6e5c,650c16f0f2faf8d7a0d14c09,651c1c8ae7b1372d39070b13,null,null,"<p style=""font-size: 60px; font-family: BACS"">CDEmYRCdc</p>",,,,,,,,,,
html-keyboard-response,95,183865,0.0-10.0-0.6,64764d56699f097a96ec6e5c,650c16f0f2faf8d7a0d14c09,651c1c8ae7b1372d39070b13,null,null,"<p style=""font-size: 60px; font-family: BACS"">DdckCMdP</p>",,,,,,,,,,
html-keyboard-response,96,184867,0.0-10.0-0.7,64764d56699f097a96ec6e5c,650c16f0f2faf8d7a0d14c09,651c1c8ae7b1372d39070b13,null,null,"<p style=""font-size: 60px; font-family: BACS"">mhtcRCdc</p>",,,,,,,,,,
html-keyboard-response,97,185871,0.0-10.0-0.8,64764d56699f097a96ec6e5c,650c16f0f2faf8d7a0d14c09,651c1c8ae7b1372d39070b13,null,null,"<p style=""font-size: 60px; font-family: BACS"">ukYZkJdr</p>",,,,,,,,,,
html-keyboard-response,98,186874,0.0-10.0-0.9,64764d56699f097a96ec6e5c,650c16f0f2faf8d7a0d14c09,651c1c8ae7b1372d39070b13,null,null,"<p style=""font-size: 60px; font-family: BACS"">mhtcDbMR</p>",,,,,,,,,,
html-keyboard-response,99,187877,0.0-10.0-0.10,64764d56699f097a96ec6e5c,650c16f0f2faf8d7a0d14c09,651c1c8ae7b1372d39070b13,null,null,"<p style=""font-size: 60px; font-family: BACS"">UmNJvUdm</p>",,,,,,,,,,
html-keyboard-response,100,188879,0.0-10.0-0.11,64764d56699f097a96ec6e5c,650c16f0f2faf8d7a0d14c09,651c1c8ae7b1372d39070b13,null,null,"<p style=""font-size: 60px; font-family: BACS"">khmhKmE</p>",,,,,,,,,,
html-keyboard-response,101,189882,0.0-10.0-0.12,64764d56699f097a96ec6e5c,650c16f0f2faf8d7a0d14c09,651c1c8ae7b1372d39070b13,null,null,"<p style=""font-size: 60px; font-family: BACS"">LvuOGark</p>",,,,,,,,,,
html-keyboard-response,102,190884,0.0-10.0-0.13,64764d56699f097a96ec6e5c,650c16f0f2faf8d7a0d14c09,651c1c8ae7b1372d39070b13,null,null,"<p style=""font-size: 60px; font-family: BACS"">ukYZLaA</p>",,,,,,,,,,
html-keyboard-response,103,191887,0.0-10.0-0.14,64764d56699f097a96ec6e5c,650c16f0f2faf8d7a0d14c09,651c1c8ae7b1372d39070b13,null,null,"<p style=""font-size: 60px; font-family: BACS"">CDEmYCMdP</p>",,,,,,,,,,
html-keyboard-response,104,192890,0.0-10.0-0.15,64764d56699f097a96ec6e5c,650c16f0f2faf8d7a0d14c09,651c1c8ae7b1372d39070b13,null,null,"<p style=""font-size: 60px; font-family: BACS"">advYOmvG</p>",,,,,,,,,,
html-keyboard-response,105,193892,0.0-10.0-0.16,64764d56699f097a96ec6e5c,650c16f0f2faf8d7a0d14c09,651c1c8ae7b1372d39070b13,null,null,"<p style=""font-size: 60px; font-family: BACS"">DdckKmE</p>",,,,,,,,,,
html-keyboard-response,106,194895,0.0-10.0-0.17,64764d56699f097a96ec6e5c,650c16f0f2faf8d7a0d14c09,651c1c8ae7b1372d39070b13,null,null,"<p style=""font-size: 60px; font-family: BACS"">hlctEPMYm</p>",,,,,,,,,,
html-keyboard-response,107,195898,0.0-10.0-0.18,64764d56699f097a96ec6e5c,650c16f0f2faf8d7a0d14c09,651c1c8ae7b1372d39070b13,null,null,"<p style=""font-size: 60px; font-family: BACS"">UmNJark</p>",,,,,,,,,,
html-keyboard-response,108,196900,0.0-10.0-0.19,64764d56699f097a96ec6e5c,650c16f0f2faf8d7a0d14c09,651c1c8ae7b1372d39070b13,null,null,"<p style=""font-size: 60px; font-family: BACS"">kCRmCMdP</p>",,,,,,,,,,
html-keyboard-response,109,197903,0.0-10.0-0.20,64764d56699f097a96ec6e5c,650c16f0f2faf8d7a0d14c09,651c1c8ae7b1372d39070b13,null,null,"<p style=""font-size: 60px; font-family: BACS"">bdUNuLaA</p>",,,,,,,,,,
html-keyboard-response,110,198905,0.0-10.0-0.21,64764d56699f097a96ec6e5c,650c16f0f2faf8d7a0d14c09,651c1c8ae7b1372d39070b13,null,null,"<p style=""font-size: 60px; font-family: BACS"">ctktCMdP</p>",,,,,,,,,,
html-keyboard-response,111,199908,0.0-10.0-0.22,64764d56699f097a96ec6e5c,650c16f0f2faf8d7a0d14c09,651c1c8ae7b1372d39070b13,null,null,"<p style=""font-size: 60px; font-family: BACS"">ukYZvUdm</p>",,,,,,,,,,
html-keyboard-response,112,200910,0.0-10.0-0.23,64764d56699f097a96ec6e5c,650c16f0f2faf8d7a0d14c09,651c1c8ae7b1372d39070b13,null,null,"<p style=""font-size: 60px; font-family: BACS"">kabJbLaA</p>",,,,,,,,,,
html-keyboard-response,113,201913,0.0-10.0-0.24,64764d56699f097a96ec6e5c,650c16f0f2faf8d7a0d14c09,651c1c8ae7b1372d39070b13,null,null,"<p style=""font-size: 60px; font-family: BACS"">vkYGlvUdm</p>",,,,,,,,,,
html-keyboard-response,114,202915,0.0-10.0-0.25,64764d56699f097a96ec6e5c,650c16f0f2faf8d7a0d14c09,651c1c8ae7b1372d39070b13,null,null,"<p style=""font-size: 60px; font-family: BACS"">kCRmKmE</p>",,,,,,,,,,
html-keyboard-response,115,203918,0.0-10.0-0.26,64764d56699f097a96ec6e5c,650c16f0f2faf8d7a0d14c09,651c1c8ae7b1372d39070b13,null,null,"<p style=""font-size: 60px; font-family: BACS"">hTtBbCMdP</p>",,,,,,,,,,
html-keyboard-response,116,204920,0.0-10.0-0.27,64764d56699f097a96ec6e5c,650c16f0f2faf8d7a0d14c09,651c1c8ae7b1372d39070b13,null,null,"<p style=""font-size: 60px; font-family: BACS"">LvuOGkJdr</p>",,,,,,,,,,
html-keyboard-response,117,205923,0.0-10.0-0.28,64764d56699f097a96ec6e5c,650c16f0f2faf8d7a0d14c09,651c1c8ae7b1372d39070b13,null,null,"<p style=""font-size: 60px; font-family: BACS"">mrOdark</p>",,,,,,,,,,
html-keyboard-response,118,206926,0.0-10.0-0.29,64764d56699f097a96ec6e5c,650c16f0f2faf8d7a0d14c09,651c1c8ae7b1372d39070b13,null,null,"<p style=""font-size: 60px; font-family: BACS"">khmhPMYm</p>",,,,,,,,,,
html-keyboard-response,119,207928,0.0-10.0-0.30,64764d56699f097a96ec6e5c,650c16f0f2faf8d7a0d14c09,651c1c8ae7b1372d39070b13,null,null,"<p style=""font-size: 60px; font-family: BACS"">vkYGlLaA</p>",,,,,,,,,,
html-keyboard-response,120,208931,0.0-10.0-0.31,64764d56699f097a96ec6e5c,650c16f0f2faf8d7a0d14c09,651c1c8ae7b1372d39070b13,null,null,"<p style=""font-size: 60px; font-family: BACS"">kKEdMRCdc</p>",,,,,,,,,,
html-keyboard-response,121,209933,0.0-10.0-0.32,64764d56699f097a96ec6e5c,650c16f0f2faf8d7a0d14c09,651c1c8ae7b1372d39070b13,null,null,"<p style=""font-size: 60px; font-family: BACS"">mrOdmvG</p>",,,,,,,,,,
html-keyboard-response,122,210936,0.0-10.0-0.33,64764d56699f097a96ec6e5c,650c16f0f2faf8d7a0d14c09,651c1c8ae7b1372d39070b13,null,null,"<p style=""font-size: 60px; font-family: BACS"">kabJbvUdm</p>",,,,,,,,,,
html-keyboard-response,123,211938,0.0-10.0-0.34,64764d56699f097a96ec6e5c,650c16f0f2faf8d7a0d14c09,651c1c8ae7b1372d39070b13,null,null,"<p style=""font-size: 60px; font-family: BACS"">vkYGlmvG</p>",,,,,,,,,,
html-keyboard-response,124,212941,0.0-10.0-0.35,64764d56699f097a96ec6e5c,650c16f0f2faf8d7a0d14c09,651c1c8ae7b1372d39070b13,null,null,"<p style=""font-size: 60px; font-family: BACS"">UmNJkJdr</p>",,,,,,,,,,
html-keyboard-response,125,213944,0.0-10.0-0.36,64764d56699f097a96ec6e5c,650c16f0f2faf8d7a0d14c09,651c1c8ae7b1372d39070b13,null,null,"<p style=""font-size: 60px; font-family: BACS"">CDEmYKmE</p>",,,,,,,,,,
html-keyboard-response,126,214946,0.0-10.0-0.37,64764d56699f097a96ec6e5c,650c16f0f2faf8d7a0d14c09,651c1c8ae7b1372d39070b13,null,null,"<p style=""font-size: 60px; font-family: BACS"">YdudkJdr</p>",,,,,,,,,,
html-keyboard-response,127,215949,0.0-10.0-0.38,64764d56699f097a96ec6e5c,650c16f0f2faf8d7a0d14c09,651c1c8ae7b1372d39070b13,null,null,"<p style=""font-size: 60px; font-family: BACS"">kabJbmvG</p>",,,,,,,,,,
html-keyboard-response,128,216951,0.0-10.0-0.39,64764d56699f097a96ec6e5c,650c16f0f2faf8d7a0d14c09,651c1c8ae7b1372d39070b13,null,null,"<p style=""font-size: 60px; font-family: BACS"">kCRmPMYm</p>",,,,,,,,,,
html-keyboard-response,129,217954,0.0-10.0-0.40,64764d56699f097a96ec6e5c,650c16f0f2faf8d7a0d14c09,651c1c8ae7b1372d39070b13,null,null,"<p style=""font-size: 60px; font-family: BACS"">mhtcCMdP</p>",,,,,,,,,,
html-keyboard-response,130,218957,0.0-10.0-0.41,64764d56699f097a96ec6e5c,650c16f0f2faf8d7a0d14c09,651c1c8ae7b1372d39070b13,null,null,"<p style=""font-size: 60px; font-family: BACS"">kKEdMPMYm</p>",,,,,,,,,,
html-keyboard-response,131,219959,0.0-10.0-0.42,64764d56699f097a96ec6e5c,650c16f0f2faf8d7a0d14c09,651c1c8ae7b1372d39070b13,null,null,"<p style=""font-size: 60px; font-family: BACS"">hTtBbKmE</p>",,,,,,,,,,
html-keyboard-response,132,220962,0.0-10.0-0.43,64764d56699f097a96ec6e5c,650c16f0f2faf8d7a0d14c09,651c1c8ae7b1372d39070b13,null,null,"<p style=""font-size: 60px; font-family: BACS"">bdUNuvUdm</p>",,,,,,,,,,
html-keyboard-response,133,221964,0.0-10.0-0.44,64764d56699f097a96ec6e5c,650c16f0f2faf8d7a0d14c09,651c1c8ae7b1372d39070b13,null,null,"<p style=""font-size: 60px; font-family: BACS"">YOZNLaA</p>",,,,,,,,,,
html-keyboard-response,134,222967,0.0-10.0-0.45,64764d56699f097a96ec6e5c,650c16f0f2faf8d7a0d14c09,651c1c8ae7b1372d39070b13,null,null,"<p style=""font-size: 60px; font-family: BACS"">bmdABKmE</p>",,,,,,,,,,
html-keyboard-response,135,223969,0.0-10.0-0.46,64764d56699f097a96ec6e5c,650c16f0f2faf8d7a0d14c09,651c1c8ae7b1372d39070b13,null,null,"<p style=""font-size: 60px; font-family: BACS"">vkYGlkJdr</p>",,,,,,,,,,
html-keyboard-response,136,224972,0.0-10.0-0.47,64764d56699f097a96ec6e5c,650c16f0f2faf8d7a0d14c09,651c1c8ae7b1372d39070b13,null,null,"<p style=""font-size: 60px; font-family: BACS"">ctktKmE</p>",,,,,,,,,,
html-keyboard-response,137,225974,0.0-10.0-0.48,64764d56699f097a96ec6e5c,650c16f0f2faf8d7a0d14c09,651c1c8ae7b1372d39070b13,null,null,"<p style=""font-size: 60px; font-family: BACS"">kKEdMCMdP</p>",,,,,,,,,,
html-keyboard-response,138,226977,0.0-10.0-0.49,64764d56699f097a96ec6e5c,650c16f0f2faf8d7a0d14c09,651c1c8ae7b1372d39070b13,null,null,"<p style=""font-size: 60px; font-family: BACS"">khmhDbMR</p>",,,,,,,,,,
html-keyboard-response,139,227981,0.0-10.0-0.50,64764d56699f097a96ec6e5c,650c16f0f2faf8d7a0d14c09,651c1c8ae7b1372d39070b13,null,null,"<p style=""font-size: 60px; font-family: BACS"">advYOLaA</p>",,,,,,,,,,
html-keyboard-response,140,228984,0.0-10.0-0.51,64764d56699f097a96ec6e5c,650c16f0f2faf8d7a0d14c09,651c1c8ae7b1372d39070b13,null,null,"<p style=""font-size: 60px; font-family: BACS"">UmNJmvG</p>",,,,,,,,,,
html-keyboard-response,141,229986,0.0-10.0-0.52,64764d56699f097a96ec6e5c,650c16f0f2faf8d7a0d14c09,651c1c8ae7b1372d39070b13,null,null,"<p style=""font-size: 60px; font-family: BACS"">advYOkJdr</p>",,,,,,,,,,
html-keyboard-response,142,230989,0.0-10.0-0.53,64764d56699f097a96ec6e5c,650c16f0f2faf8d7a0d14c09,651c1c8ae7b1372d39070b13,null,null,"<p style=""font-size: 60px; font-family: BACS"">CDEmYDbMR</p>",,,,,,,,,,
html-keyboard-response,143,231991,0.0-10.0-0.54,64764d56699f097a96ec6e5c,650c16f0f2faf8d7a0d14c09,651c1c8ae7b1372d39070b13,null,null,"<p style=""font-size: 60px; font-family: BACS"">bdUNuark</p>",,,,,,,,,,
html-keyboard-response,144,232994,0.0-10.0-0.55,64764d56699f097a96ec6e5c,650c16f0f2faf8d7a0d14c09,651c1c8ae7b1372d39070b13,null,null,"<p style=""font-size: 60px; font-family: BACS"">hTtBbPMYm</p>",,,,,,,,,,
html-keyboard-response,145,233997,0.0-10.0-0.56,64764d56699f097a96ec6e5c,650c16f0f2faf8d7a0d14c09,651c1c8ae7b1372d39070b13,null,null,"<p style=""font-size: 60px; font-family: BACS"">hlctEDbMR</p>",,,,,,,,,,
html-keyboard-response,146,235000,0.0-10.0-0.57,64764d56699f097a96ec6e5c,650c16f0f2faf8d7a0d14c09,651c1c8ae7b1372d39070b13,null,null,"<p style=""font-size: 60px; font-family: BACS"">YOZNmvG</p>",,,,,,,,,,
html-keyboard-response,147,236002,0.0-10.0-0.58,64764d56699f097a96ec6e5c,650c16f0f2faf8d7a0d14c09,651c1c8ae7b1372d39070b13,null,null,"<p style=""font-size: 60px; font-family: BACS"">LvuOGvUdm</p>",,,,,,,,,,
html-keyboard-response,148,237005,0.0-10.0-0.59,64764d56699f097a96ec6e5c,650c16f0f2faf8d7a0d14c09,651c1c8ae7b1372d39070b13,null,null,"<p style=""font-size: 60px; font-family: BACS"">DdckDbMR</p>",,,,,,,,,,
html-keyboard-response,149,238007,0.0-10.0-0.60,64764d56699f097a96ec6e5c,650c16f0f2faf8d7a0d14c09,651c1c8ae7b1372d39070b13,null,null,"<p style=""font-size: 60px; font-family: BACS"">YdudvUdm</p>",,,,,,,,,,
html-keyboard-response,150,239010,0.0-10.0-0.61,64764d56699f097a96ec6e5c,650c16f0f2faf8d7a0d14c09,651c1c8ae7b1372d39070b13,null,null,"<p style=""font-size: 60px; font-family: BACS"">YOZNkJdr</p>",,,,,,,,,,
html-keyboard-response,151,240012,0.0-10.0-0.62,64764d56699f097a96ec6e5c,650c16f0f2faf8d7a0d14c09,651c1c8ae7b1372d39070b13,null,null,"<p style=""font-size: 60px; font-family: BACS"">mhtcPMYm</p>",,,,,,,,,,
html-keyboard-response,152,241014,0.0-10.0-0.63,64764d56699f097a96ec6e5c,650c16f0f2faf8d7a0d14c09,651c1c8ae7b1372d39070b13,null,null,"<p style=""font-size: 60px; font-family: BACS"">LvuOGmvG</p>",,,,,,,,,,
html-keyboard-response,153,242017,0.0-10.0-0.64,64764d56699f097a96ec6e5c,650c16f0f2faf8d7a0d14c09,651c1c8ae7b1372d39070b13,null,null,"<p style=""font-size: 60px; font-family: BACS"">YOZNark</p>",,,,,,,,,,
html-keyboard-response,154,243020,0.0-10.0-0.65,64764d56699f097a96ec6e5c,650c16f0f2faf8d7a0d14c09,651c1c8ae7b1372d39070b13,null,null,"<p style=""font-size: 60px; font-family: BACS"">kKEdMDbMR</p>",,,,,,,,,,
html-keyboard-response,155,244022,0.0-10.0-0.66,64764d56699f097a96ec6e5c,650c16f0f2faf8d7a0d14c09,651c1c8ae7b1372d39070b13,null,null,"<p style=""font-size: 60px; font-family: BACS"">hlctERCdc</p>",,,,,,,,,,
html-keyboard-response,156,245024,0.0-10.0-0.67,64764d56699f097a96ec6e5c,650c16f0f2faf8d7a0d14c09,651c1c8ae7b1372d39070b13,null,null,"<p style=""font-size: 60px; font-family: BACS"">mrOdvUdm</p>",,,,,,,,,,
html-keyboard-response,157,246027,0.0-10.0-0.68,64764d56699f097a96ec6e5c,650c16f0f2faf8d7a0d14c09,651c1c8ae7b1372d39070b13,null,null,"<p style=""font-size: 60px; font-family: BACS"">bmdABPMYm</p>",,,,,,,,,,
html-keyboard-response,158,247029,0.0-10.0-0.69,64764d56699f097a96ec6e5c,650c16f0f2faf8d7a0d14c09,651c1c8ae7b1372d39070b13,null,null,"<p style=""font-size: 60px; font-family: BACS"">YdudLaA</p>",,,,,,,,,,
html-keyboard-response,159,248032,0.0-10.0-0.70,64764d56699f097a96ec6e5c,650c16f0f2faf8d7a0d14c09,651c1c8ae7b1372d39070b13,null,null,"<p style=""font-size: 60px; font-family: BACS"">bdUNukJdr</p>",,,,,,,,,,
html-keyboard-response,160,249035,0.0-10.0-0.71,64764d56699f097a96ec6e5c,650c16f0f2faf8d7a0d14c09,651c1c8ae7b1372d39070b13,null,null,"<p style=""font-size: 60px; font-family: BACS"">mrOdLaA</p>",,,,,,,,,,
html-keyboard-response,161,250037,0.0-10.0-0.72,64764d56699f097a96ec6e5c,650c16f0f2faf8d7a0d14c09,651c1c8ae7b1372d39070b13,null,null,"<p style=""font-size: 60px; font-family: BACS"">ctktRCdc</p>",,,,,,,,,,
html-keyboard-response,162,251039,0.0-10.0-0.73,64764d56699f097a96ec6e5c,650c16f0f2faf8d7a0d14c09,651c1c8ae7b1372d39070b13,null,null,"<p style=""font-size: 60px; font-family: BACS"">hTtBbDbMR</p>",,,,,,,,,,
html-keyboard-response,163,252042,0.0-10.0-0.74,64764d56699f097a96ec6e5c,650c16f0f2faf8d7a0d14c09,651c1c8ae7b1372d39070b13,null,null,"<p style=""font-size: 60px; font-family: BACS"">hlctEKmE</p>",,,,,,,,,,
html-keyboard-response,164,253044,0.0-10.0-0.75,64764d56699f097a96ec6e5c,650c16f0f2faf8d7a0d14c09,651c1c8ae7b1372d39070b13,null,null,"<p style=""font-size: 60px; font-family: BACS"">DdckRCdc</p>",,,,,,,,,,
html-keyboard-response,165,254047,0.0-10.0-0.76,64764d56699f097a96ec6e5c,650c16f0f2faf8d7a0d14c09,651c1c8ae7b1372d39070b13,null,null,"<p style=""font-size: 60px; font-family: BACS"">kabJbark</p>",,,,,,,,,,
html-keyboard-response,166,255049,0.0-10.0-0.77,64764d56699f097a96ec6e5c,650c16f0f2faf8d7a0d14c09,651c1c8ae7b1372d39070b13,null,null,"<p style=""font-size: 60px; font-family: BACS"">khmhRCdc</p>",,,,,,,,,,
html-keyboard-response,167,256052,0.0-10.0-0.78,64764d56699f097a96ec6e5c,650c16f0f2faf8d7a0d14c09,651c1c8ae7b1372d39070b13,null,null,"<p style=""font-size: 60px; font-family: BACS"">bmdABCMdP</p>",,,,,,,,,,
html-keyboard-response,168,257054,0.0-10.0-0.79,64764d56699f097a96ec6e5c,650c16f0f2faf8d7a0d14c09,651c1c8ae7b1372d39070b13,null,null,"<p style=""font-size: 60px; font-family: BACS"">YdudmvG</p>",,,,,,,,,,
html-keyboard-response,169,296034,0.0-11.0,64764d56699f097a96ec6e5c,650c16f0f2faf8d7a0d14c09,651c1c8ae7b1372d39070b13,38979, ,"<p>Great, you've seen the second block of words. You may now take a short break.</p>
      <p>Press the spacebar when you're ready to continue.</p>",,,,,,,,,,
html-keyboard-response,170,297037,0.0-12.0-0.0,64764d56699f097a96ec6e5c,650c16f0f2faf8d7a0d14c09,651c1c8ae7b1372d39070b13,null,null,"<p style=""font-size: 60px; font-family: BACS"">mrOdmvG</p>",,,,,,,,,,
html-keyboard-response,171,298040,0.0-12.0-0.1,64764d56699f097a96ec6e5c,650c16f0f2faf8d7a0d14c09,651c1c8ae7b1372d39070b13,null,null,"<p style=""font-size: 60px; font-family: BACS"">mhtcRCdc</p>",,,,,,,,,,
html-keyboard-response,172,299042,0.0-12.0-0.2,64764d56699f097a96ec6e5c,650c16f0f2faf8d7a0d14c09,651c1c8ae7b1372d39070b13,null,null,"<p style=""font-size: 60px; font-family: BACS"">UmNJark</p>",,,,,,,,,,
html-keyboard-response,173,300044,0.0-12.0-0.3,64764d56699f097a96ec6e5c,650c16f0f2faf8d7a0d14c09,651c1c8ae7b1372d39070b13,null,null,"<p style=""font-size: 60px; font-family: BACS"">LvuOGmvG</p>",,,,,,,,,,
html-keyboard-response,174,301047,0.0-12.0-0.4,64764d56699f097a96ec6e5c,650c16f0f2faf8d7a0d14c09,651c1c8ae7b1372d39070b13,null,null,"<p style=""font-size: 60px; font-family: BACS"">mhtcDbMR</p>",,,,,,,,,,
html-keyboard-response,175,302049,0.0-12.0-0.5,64764d56699f097a96ec6e5c,650c16f0f2faf8d7a0d14c09,651c1c8ae7b1372d39070b13,null,null,"<p style=""font-size: 60px; font-family: BACS"">CDEmYKmE</p>",,,,,,,,,,
html-keyboard-response,176,303052,0.0-12.0-0.6,64764d56699f097a96ec6e5c,650c16f0f2faf8d7a0d14c09,651c1c8ae7b1372d39070b13,null,null,"<p style=""font-size: 60px; font-family: BACS"">DdckDbMR</p>",,,,,,,,,,
html-keyboard-response,177,304054,0.0-12.0-0.7,64764d56699f097a96ec6e5c,650c16f0f2faf8d7a0d14c09,651c1c8ae7b1372d39070b13,null,null,"<p style=""font-size: 60px; font-family: BACS"">ctktCMdP</p>",,,,,,,,,,
html-keyboard-response,178,305056,0.0-12.0-0.8,64764d56699f097a96ec6e5c,650c16f0f2faf8d7a0d14c09,651c1c8ae7b1372d39070b13,null,null,"<p style=""font-size: 60px; font-family: BACS"">mhtcPMYm</p>",,,,,,,,,,
html-keyboard-response,179,306058,0.0-12.0-0.9,64764d56699f097a96ec6e5c,650c16f0f2faf8d7a0d14c09,651c1c8ae7b1372d39070b13,null,null,"<p style=""font-size: 60px; font-family: BACS"">khmhRCdc</p>",,,,,,,,,,
html-keyboard-response,180,307060,0.0-12.0-0.10,64764d56699f097a96ec6e5c,650c16f0f2faf8d7a0d14c09,651c1c8ae7b1372d39070b13,null,null,"<p style=""font-size: 60px; font-family: BACS"">advYOLaA</p>",,,,,,,,,,
html-keyboard-response,181,308063,0.0-12.0-0.11,64764d56699f097a96ec6e5c,650c16f0f2faf8d7a0d14c09,651c1c8ae7b1372d39070b13,null,null,"<p style=""font-size: 60px; font-family: BACS"">CDEmYRCdc</p>",,,,,,,,,,
html-keyboard-response,182,309065,0.0-12.0-0.12,64764d56699f097a96ec6e5c,650c16f0f2faf8d7a0d14c09,651c1c8ae7b1372d39070b13,null,null,"<p style=""font-size: 60px; font-family: BACS"">kabJbvUdm</p>",,,,,,,,,,
html-keyboard-response,183,310067,0.0-12.0-0.13,64764d56699f097a96ec6e5c,650c16f0f2faf8d7a0d14c09,651c1c8ae7b1372d39070b13,null,null,"<p style=""font-size: 60px; font-family: BACS"">LvuOGkJdr</p>",,,,,,,,,,
html-keyboard-response,184,311070,0.0-12.0-0.14,64764d56699f097a96ec6e5c,650c16f0f2faf8d7a0d14c09,651c1c8ae7b1372d39070b13,null,null,"<p style=""font-size: 60px; font-family: BACS"">CDEmYDbMR</p>",,,,,,,,,,
html-keyboard-response,185,312072,0.0-12.0-0.15,64764d56699f097a96ec6e5c,650c16f0f2faf8d7a0d14c09,651c1c8ae7b1372d39070b13,null,null,"<p style=""font-size: 60px; font-family: BACS"">hlctERCdc</p>",,,,,,,,,,
html-keyboard-response,186,313074,0.0-12.0-0.16,64764d56699f097a96ec6e5c,650c16f0f2faf8d7a0d14c09,651c1c8ae7b1372d39070b13,null,null,"<p style=""font-size: 60px; font-family: BACS"">kKEdMPMYm</p>",,,,,,,,,,
html-keyboard-response,187,314076,0.0-12.0-0.17,64764d56699f097a96ec6e5c,650c16f0f2faf8d7a0d14c09,651c1c8ae7b1372d39070b13,null,null,"<p style=""font-size: 60px; font-family: BACS"">bdUNukJdr</p>",,,,,,,,,,
html-keyboard-response,188,315079,0.0-12.0-0.18,64764d56699f097a96ec6e5c,650c16f0f2faf8d7a0d14c09,651c1c8ae7b1372d39070b13,null,null,"<p style=""font-size: 60px; font-family: BACS"">mrOdark</p>",,,,,,,,,,
html-keyboard-response,189,316081,0.0-12.0-0.19,64764d56699f097a96ec6e5c,650c16f0f2faf8d7a0d14c09,651c1c8ae7b1372d39070b13,null,null,"<p style=""font-size: 60px; font-family: BACS"">kKEdMRCdc</p>",,,,,,,,,,
html-keyboard-response,190,317084,0.0-12.0-0.20,64764d56699f097a96ec6e5c,650c16f0f2faf8d7a0d14c09,651c1c8ae7b1372d39070b13,null,null,"<p style=""font-size: 60px; font-family: BACS"">vkYGlvUdm</p>",,,,,,,,,,
html-keyboard-response,191,318087,0.0-12.0-0.21,64764d56699f097a96ec6e5c,650c16f0f2faf8d7a0d14c09,651c1c8ae7b1372d39070b13,null,null,"<p style=""font-size: 60px; font-family: BACS"">kCRmCMdP</p>",,,,,,,,,,
html-keyboard-response,192,319089,0.0-12.0-0.22,64764d56699f097a96ec6e5c,650c16f0f2faf8d7a0d14c09,651c1c8ae7b1372d39070b13,null,null,"<p style=""font-size: 60px; font-family: BACS"">bmdABRCdc</p>",,,,,,,,,,
html-keyboard-response,193,320092,0.0-12.0-0.23,64764d56699f097a96ec6e5c,650c16f0f2faf8d7a0d14c09,651c1c8ae7b1372d39070b13,null,null,"<p style=""font-size: 60px; font-family: BACS"">ctktKmE</p>",,,,,,,,,,
html-keyboard-response,194,321094,0.0-12.0-0.24,64764d56699f097a96ec6e5c,650c16f0f2faf8d7a0d14c09,651c1c8ae7b1372d39070b13,null,null,"<p style=""font-size: 60px; font-family: BACS"">DdckRCdc</p>",,,,,,,,,,
html-keyboard-response,195,322097,0.0-12.0-0.25,64764d56699f097a96ec6e5c,650c16f0f2faf8d7a0d14c09,651c1c8ae7b1372d39070b13,null,null,"<p style=""font-size: 60px; font-family: BACS"">mrOdvUdm</p>",,,,,,,,,,
html-keyboard-response,196,323100,0.0-12.0-0.26,64764d56699f097a96ec6e5c,650c16f0f2faf8d7a0d14c09,651c1c8ae7b1372d39070b13,null,null,"<p style=""font-size: 60px; font-family: BACS"">YOZNark</p>",,,,,,,,,,
html-keyboard-response,197,324102,0.0-12.0-0.27,64764d56699f097a96ec6e5c,650c16f0f2faf8d7a0d14c09,651c1c8ae7b1372d39070b13,null,null,"<p style=""font-size: 60px; font-family: BACS"">bmdABKmE</p>",,,,,,,,,,
html-keyboard-response,198,325105,0.0-12.0-0.28,64764d56699f097a96ec6e5c,650c16f0f2faf8d7a0d14c09,651c1c8ae7b1372d39070b13,null,null,"<p style=""font-size: 60px; font-family: BACS"">mhtcCMdP</p>",,,,,,,,,,
html-keyboard-response,199,326107,0.0-12.0-0.29,64764d56699f097a96ec6e5c,650c16f0f2faf8d7a0d14c09,651c1c8ae7b1372d39070b13,null,null,"<p style=""font-size: 60px; font-family: BACS"">khmhDbMR</p>",,,,,,,,,,
html-keyboard-response,200,327109,0.0-12.0-0.30,64764d56699f097a96ec6e5c,650c16f0f2faf8d7a0d14c09,651c1c8ae7b1372d39070b13,null,null,"<p style=""font-size: 60px; font-family: BACS"">hlctEPMYm</p>",,,,,,,,,,
html-keyboard-response,201,328112,0.0-12.0-0.31,64764d56699f097a96ec6e5c,650c16f0f2faf8d7a0d14c09,651c1c8ae7b1372d39070b13,null,null,"<p style=""font-size: 60px; font-family: BACS"">mrOdLaA</p>",,,,,,,,,,
html-keyboard-response,202,329115,0.0-12.0-0.32,64764d56699f097a96ec6e5c,650c16f0f2faf8d7a0d14c09,651c1c8ae7b1372d39070b13,null,null,"<p style=""font-size: 60px; font-family: BACS"">ctktRCdc</p>",,,,,,,,,,
html-keyboard-response,203,330117,0.0-12.0-0.33,64764d56699f097a96ec6e5c,650c16f0f2faf8d7a0d14c09,651c1c8ae7b1372d39070b13,null,null,"<p style=""font-size: 60px; font-family: BACS"">khmhPMYm</p>",,,,,,,,,,
html-keyboard-response,204,331120,0.0-12.0-0.34,64764d56699f097a96ec6e5c,650c16f0f2faf8d7a0d14c09,651c1c8ae7b1372d39070b13,null,null,"<p style=""font-size: 60px; font-family: BACS"">kCRmKmE</p>",,,,,,,,,,
html-keyboard-response,205,332123,0.0-12.0-0.35,64764d56699f097a96ec6e5c,650c16f0f2faf8d7a0d14c09,651c1c8ae7b1372d39070b13,null,null,"<p style=""font-size: 60px; font-family: BACS"">YOZNmvG</p>",,,,,,,,,,
html-keyboard-response,206,333125,0.0-12.0-0.36,64764d56699f097a96ec6e5c,650c16f0f2faf8d7a0d14c09,651c1c8ae7b1372d39070b13,null,null,"<p style=""font-size: 60px; font-family: BACS"">advYOark</p>",,,,,,,,,,
html-keyboard-response,207,334128,0.0-12.0-0.37,64764d56699f097a96ec6e5c,650c16f0f2faf8d7a0d14c09,651c1c8ae7b1372d39070b13,null,null,"<p style=""font-size: 60px; font-family: BACS"">hlctEDbMR</p>",,,,,,,,,,
html-keyboard-response,208,335130,0.0-12.0-0.38,64764d56699f097a96ec6e5c,650c16f0f2faf8d7a0d14c09,651c1c8ae7b1372d39070b13,null,null,"<p style=""font-size: 60px; font-family: BACS"">bmdABCMdP</p>",,,,,,,,,,
html-keyboard-response,209,336133,0.0-12.0-0.39,64764d56699f097a96ec6e5c,650c16f0f2faf8d7a0d14c09,651c1c8ae7b1372d39070b13,null,null,"<p style=""font-size: 60px; font-family: BACS"">kCRmPMYm</p>",,,,,,,,,,
html-keyboard-response,210,337135,0.0-12.0-0.40,64764d56699f097a96ec6e5c,650c16f0f2faf8d7a0d14c09,651c1c8ae7b1372d39070b13,null,null,"<p style=""font-size: 60px; font-family: BACS"">vkYGlLaA</p>",,,,,,,,,,
html-keyboard-response,211,338138,0.0-12.0-0.41,64764d56699f097a96ec6e5c,650c16f0f2faf8d7a0d14c09,651c1c8ae7b1372d39070b13,null,null,"<p style=""font-size: 60px; font-family: BACS"">UmNJvUdm</p>",,,,,,,,,,
html-keyboard-response,212,339140,0.0-12.0-0.42,64764d56699f097a96ec6e5c,650c16f0f2faf8d7a0d14c09,651c1c8ae7b1372d39070b13,null,null,"<p style=""font-size: 60px; font-family: BACS"">CDEmYCMdP</p>",,,,,,,,,,
html-keyboard-response,213,340142,0.0-12.0-0.43,64764d56699f097a96ec6e5c,650c16f0f2faf8d7a0d14c09,651c1c8ae7b1372d39070b13,null,null,"<p style=""font-size: 60px; font-family: BACS"">YdudmvG</p>",,,,,,,,,,
html-keyboard-response,214,341145,0.0-12.0-0.44,64764d56699f097a96ec6e5c,650c16f0f2faf8d7a0d14c09,651c1c8ae7b1372d39070b13,null,null,"<p style=""font-size: 60px; font-family: BACS"">ukYZark</p>",,,,,,,,,,
html-keyboard-response,215,342147,0.0-12.0-0.45,64764d56699f097a96ec6e5c,650c16f0f2faf8d7a0d14c09,651c1c8ae7b1372d39070b13,null,null,"<p style=""font-size: 60px; font-family: BACS"">hlctEKmE</p>",,,,,,,,,,
html-keyboard-response,216,343150,0.0-12.0-0.46,64764d56699f097a96ec6e5c,650c16f0f2faf8d7a0d14c09,651c1c8ae7b1372d39070b13,null,null,"<p style=""font-size: 60px; font-family: BACS"">bdUNuark</p>",,,,,,,,,,
html-keyboard-response,217,344152,0.0-12.0-0.47,64764d56699f097a96ec6e5c,650c16f0f2faf8d7a0d14c09,651c1c8ae7b1372d39070b13,null,null,"<p style=""font-size: 60px; font-family: BACS"">vkYGlkJdr</p>",,,,,,,,,,
html-keyboard-response,218,345154,0.0-12.0-0.48,64764d56699f097a96ec6e5c,650c16f0f2faf8d7a0d14c09,651c1c8ae7b1372d39070b13,null,null,"<p style=""font-size: 60px; font-family: BACS"">hTtBbDbMR</p>",,,,,,,,,,
html-keyboard-response,219,346155,0.0-12.0-0.49,64764d56699f097a96ec6e5c,650c16f0f2faf8d7a0d14c09,651c1c8ae7b1372d39070b13,null,null,"<p style=""font-size: 60px; font-family: BACS"">vkYGlmvG</p>",,,,,,,,,,
html-keyboard-response,220,347158,0.0-12.0-0.50,64764d56699f097a96ec6e5c,650c16f0f2faf8d7a0d14c09,651c1c8ae7b1372d39070b13,null,null,"<p style=""font-size: 60px; font-family: BACS"">ukYZLaA</p>",,,,,,,,,,
html-keyboard-response,221,348160,0.0-12.0-0.51,64764d56699f097a96ec6e5c,650c16f0f2faf8d7a0d14c09,651c1c8ae7b1372d39070b13,null,null,"<p style=""font-size: 60px; font-family: BACS"">bmdABPMYm</p>",,,,,,,,,,
html-keyboard-response,222,349163,0.0-12.0-0.52,64764d56699f097a96ec6e5c,650c16f0f2faf8d7a0d14c09,651c1c8ae7b1372d39070b13,null,null,"<p style=""font-size: 60px; font-family: BACS"">YOZNkJdr</p>",,,,,,,,,,
html-keyboard-response,223,350165,0.0-12.0-0.53,64764d56699f097a96ec6e5c,650c16f0f2faf8d7a0d14c09,651c1c8ae7b1372d39070b13,null,null,"<p style=""font-size: 60px; font-family: BACS"">LvuOGvUdm</p>",,,,,,,,,,
html-keyboard-response,224,351168,0.0-12.0-0.54,64764d56699f097a96ec6e5c,650c16f0f2faf8d7a0d14c09,651c1c8ae7b1372d39070b13,null,null,"<p style=""font-size: 60px; font-family: BACS"">YOZNLaA</p>",,,,,,,,,,
html-keyboard-response,225,352171,0.0-12.0-0.55,64764d56699f097a96ec6e5c,650c16f0f2faf8d7a0d14c09,651c1c8ae7b1372d39070b13,null,null,"<p style=""font-size: 60px; font-family: BACS"">UmNJmvG</p>",,,,,,,,,,
html-keyboard-response,226,353173,0.0-12.0-0.56,64764d56699f097a96ec6e5c,650c16f0f2faf8d7a0d14c09,651c1c8ae7b1372d39070b13,null,null,"<p style=""font-size: 60px; font-family: BACS"">YdudvUdm</p>",,,,,,,,,,
html-keyboard-response,227,354175,0.0-12.0-0.57,64764d56699f097a96ec6e5c,650c16f0f2faf8d7a0d14c09,651c1c8ae7b1372d39070b13,null,null,"<p style=""font-size: 60px; font-family: BACS"">kabJbark</p>",,,,,,,,,,
html-keyboard-response,228,355178,0.0-12.0-0.58,64764d56699f097a96ec6e5c,650c16f0f2faf8d7a0d14c09,651c1c8ae7b1372d39070b13,null,null,"<p style=""font-size: 60px; font-family: BACS"">YdudLaA</p>",,,,,,,,,,
html-keyboard-response,229,356180,0.0-12.0-0.59,64764d56699f097a96ec6e5c,650c16f0f2faf8d7a0d14c09,651c1c8ae7b1372d39070b13,null,null,"<p style=""font-size: 60px; font-family: BACS"">advYOmvG</p>",,,,,,,,,,
html-keyboard-response,230,357183,0.0-12.0-0.60,64764d56699f097a96ec6e5c,650c16f0f2faf8d7a0d14c09,651c1c8ae7b1372d39070b13,null,null,"<p style=""font-size: 60px; font-family: BACS"">DdckCMdP</p>",,,,,,,,,,
html-keyboard-response,231,358185,0.0-12.0-0.61,64764d56699f097a96ec6e5c,650c16f0f2faf8d7a0d14c09,651c1c8ae7b1372d39070b13,null,null,"<p style=""font-size: 60px; font-family: BACS"">kabJbmvG</p>",,,,,,,,,,
html-keyboard-response,232,359187,0.0-12.0-0.62,64764d56699f097a96ec6e5c,650c16f0f2faf8d7a0d14c09,651c1c8ae7b1372d39070b13,null,null,"<p style=""font-size: 60px; font-family: BACS"">ctktPMYm</p>",,,,,,,,,,
html-keyboard-response,233,360190,0.0-12.0-0.63,64764d56699f097a96ec6e5c,650c16f0f2faf8d7a0d14c09,651c1c8ae7b1372d39070b13,null,null,"<p style=""font-size: 60px; font-family: BACS"">YdudkJdr</p>",,,,,,,,,,
html-keyboard-response,234,361192,0.0-12.0-0.64,64764d56699f097a96ec6e5c,650c16f0f2faf8d7a0d14c09,651c1c8ae7b1372d39070b13,null,null,"<p style=""font-size: 60px; font-family: BACS"">kKEdMDbMR</p>",,,,,,,,,,
html-keyboard-response,235,362195,0.0-12.0-0.65,64764d56699f097a96ec6e5c,650c16f0f2faf8d7a0d14c09,651c1c8ae7b1372d39070b13,null,null,"<p style=""font-size: 60px; font-family: BACS"">kabJbLaA</p>",,,,,,,,,,
html-keyboard-response,236,363196,0.0-12.0-0.66,64764d56699f097a96ec6e5c,650c16f0f2faf8d7a0d14c09,651c1c8ae7b1372d39070b13,null,null,"<p style=""font-size: 60px; font-family: BACS"">ukYZvUdm</p>",,,,,,,,,,
html-keyboard-response,237,364198,0.0-12.0-0.67,64764d56699f097a96ec6e5c,650c16f0f2faf8d7a0d14c09,651c1c8ae7b1372d39070b13,null,null,"<p style=""font-size: 60px; font-family: BACS"">LvuOGark</p>",,,,,,,,,,
html-keyboard-response,238,365200,0.0-12.0-0.68,64764d56699f097a96ec6e5c,650c16f0f2faf8d7a0d14c09,651c1c8ae7b1372d39070b13,null,null,"<p style=""font-size: 60px; font-family: BACS"">hTtBbKmE</p>",,,,,,,,,,
html-keyboard-response,239,366203,0.0-12.0-0.69,64764d56699f097a96ec6e5c,650c16f0f2faf8d7a0d14c09,651c1c8ae7b1372d39070b13,null,null,"<p style=""font-size: 60px; font-family: BACS"">kCRmDbMR</p>",,,,,,,,,,
html-keyboard-response,240,367205,0.0-12.0-0.70,64764d56699f097a96ec6e5c,650c16f0f2faf8d7a0d14c09,651c1c8ae7b1372d39070b13,null,null,"<p style=""font-size: 60px; font-family: BACS"">hTtBbCMdP</p>",,,,,,,,,,
html-keyboard-response,241,368207,0.0-12.0-0.71,64764d56699f097a96ec6e5c,650c16f0f2faf8d7a0d14c09,651c1c8ae7b1372d39070b13,null,null,"<p style=""font-size: 60px; font-family: BACS"">khmhKmE</p>",,,,,,,,,,
html-keyboard-response,242,369209,0.0-12.0-0.72,64764d56699f097a96ec6e5c,650c16f0f2faf8d7a0d14c09,651c1c8ae7b1372d39070b13,null,null,"<p style=""font-size: 60px; font-family: BACS"">bdUNuLaA</p>",,,,,,,,,,
html-keyboard-response,243,370212,0.0-12.0-0.73,64764d56699f097a96ec6e5c,650c16f0f2faf8d7a0d14c09,651c1c8ae7b1372d39070b13,null,null,"<p style=""font-size: 60px; font-family: BACS"">ukYZkJdr</p>",,,,,,,,,,
html-keyboard-response,244,371215,0.0-12.0-0.74,64764d56699f097a96ec6e5c,650c16f0f2faf8d7a0d14c09,651c1c8ae7b1372d39070b13,null,null,"<p style=""font-size: 60px; font-family: BACS"">bdUNuvUdm</p>",,,,,,,,,,
html-keyboard-response,245,372217,0.0-12.0-0.75,64764d56699f097a96ec6e5c,650c16f0f2faf8d7a0d14c09,651c1c8ae7b1372d39070b13,null,null,"<p style=""font-size: 60px; font-family: BACS"">UmNJkJdr</p>",,,,,,,,,,
html-keyboard-response,246,373219,0.0-12.0-0.76,64764d56699f097a96ec6e5c,650c16f0f2faf8d7a0d14c09,651c1c8ae7b1372d39070b13,null,null,"<p style=""font-size: 60px; font-family: BACS"">kKEdMCMdP</p>",,,,,,,,,,
html-keyboard-response,247,374222,0.0-12.0-0.77,64764d56699f097a96ec6e5c,650c16f0f2faf8d7a0d14c09,651c1c8ae7b1372d39070b13,null,null,"<p style=""font-size: 60px; font-family: BACS"">advYOkJdr</p>",,,,,,,,,,
html-keyboard-response,248,375224,0.0-12.0-0.78,64764d56699f097a96ec6e5c,650c16f0f2faf8d7a0d14c09,651c1c8ae7b1372d39070b13,null,null,"<p style=""font-size: 60px; font-family: BACS"">DdckKmE</p>",,,,,,,,,,
html-keyboard-response,249,376227,0.0-12.0-0.79,64764d56699f097a96ec6e5c,650c16f0f2faf8d7a0d14c09,651c1c8ae7b1372d39070b13,null,null,"<p style=""font-size: 60px; font-family: BACS"">hTtBbPMYm</p>",,,,,,,,,,
html-keyboard-response,250,412597,0.0-13.0,64764d56699f097a96ec6e5c,650c16f0f2faf8d7a0d14c09,651c1c8ae7b1372d39070b13,36369, ,"<p>Great, you've seen the third block of words. You may now take a short break.</p>
      <p>Press the spacebar when you're ready to continue.</p>",,,,,,,,,,
html-keyboard-response,251,413599,0.0-14.0-0.0,64764d56699f097a96ec6e5c,650c16f0f2faf8d7a0d14c09,651c1c8ae7b1372d39070b13,null,null,"<p style=""font-size: 60px; font-family: BACS"">khmhRCdc</p>",,,,,,,,,,
html-keyboard-response,252,414602,0.0-14.0-0.1,64764d56699f097a96ec6e5c,650c16f0f2faf8d7a0d14c09,651c1c8ae7b1372d39070b13,null,null,"<p style=""font-size: 60px; font-family: BACS"">CDEmYKmE</p>",,,,,,,,,,
html-keyboard-response,253,415604,0.0-14.0-0.2,64764d56699f097a96ec6e5c,650c16f0f2faf8d7a0d14c09,651c1c8ae7b1372d39070b13,null,null,"<p style=""font-size: 60px; font-family: BACS"">DdckCMdP</p>",,,,,,,,,,
html-keyboard-response,254,416607,0.0-14.0-0.3,64764d56699f097a96ec6e5c,650c16f0f2faf8d7a0d14c09,651c1c8ae7b1372d39070b13,null,null,"<p style=""font-size: 60px; font-family: BACS"">hlctEPMYm</p>",,,,,,,,,,
html-keyboard-response,255,417609,0.0-14.0-0.4,64764d56699f097a96ec6e5c,650c16f0f2faf8d7a0d14c09,651c1c8ae7b1372d39070b13,null,null,"<p style=""font-size: 60px; font-family: BACS"">khmhKmE</p>",,,,,,,,,,
html-keyboard-response,256,418612,0.0-14.0-0.5,64764d56699f097a96ec6e5c,650c16f0f2faf8d7a0d14c09,651c1c8ae7b1372d39070b13,null,null,"<p style=""font-size: 60px; font-family: BACS"">bmdABPMYm</p>",,,,,,,,,,
html-keyboard-response,257,419614,0.0-14.0-0.6,64764d56699f097a96ec6e5c,650c16f0f2faf8d7a0d14c09,651c1c8ae7b1372d39070b13,null,null,"<p style=""font-size: 60px; font-family: BACS"">ukYZvUdm</p>",,,,,,,,,,
html-keyboard-response,258,420617,0.0-14.0-0.7,64764d56699f097a96ec6e5c,650c16f0f2faf8d7a0d14c09,651c1c8ae7b1372d39070b13,null,null,"<p style=""font-size: 60px; font-family: BACS"">YOZNark</p>",,,,,,,,,,
html-keyboard-response,259,421620,0.0-14.0-0.8,64764d56699f097a96ec6e5c,650c16f0f2faf8d7a0d14c09,651c1c8ae7b1372d39070b13,null,null,"<p style=""font-size: 60px; font-family: BACS"">LvuOGkJdr</p>",,,,,,,,,,
html-keyboard-response,260,422622,0.0-14.0-0.9,64764d56699f097a96ec6e5c,650c16f0f2faf8d7a0d14c09,651c1c8ae7b1372d39070b13,null,null,"<p style=""font-size: 60px; font-family: BACS"">bdUNuark</p>",,,,,,,,,,
html-keyboard-response,261,423625,0.0-14.0-0.10,64764d56699f097a96ec6e5c,650c16f0f2faf8d7a0d14c09,651c1c8ae7b1372d39070b13,null,null,"<p style=""font-size: 60px; font-family: BACS"">YdudLaA</p>",,,,,,,,,,
html-keyboard-response,262,424627,0.0-14.0-0.11,64764d56699f097a96ec6e5c,650c16f0f2faf8d7a0d14c09,651c1c8ae7b1372d39070b13,null,null,"<p style=""font-size: 60px; font-family: BACS"">mrOdmvG</p>",,,,,,,,,,
html-keyboard-response,263,425630,0.0-14.0-0.12,64764d56699f097a96ec6e5c,650c16f0f2faf8d7a0d14c09,651c1c8ae7b1372d39070b13,null,null,"<p style=""font-size: 60px; font-family: BACS"">hTtBbKmE</p>",,,,,,,,,,
html-keyboard-response,264,426633,0.0-14.0-0.13,64764d56699f097a96ec6e5c,650c16f0f2faf8d7a0d14c09,651c1c8ae7b1372d39070b13,null,null,"<p style=""font-size: 60px; font-family: BACS"">ctktCMdP</p>",,,,,,,,,,
html-keyboard-response,265,427635,0.0-14.0-0.14,64764d56699f097a96ec6e5c,650c16f0f2faf8d7a0d14c09,651c1c8ae7b1372d39070b13,null,null,"<p style=""font-size: 60px; font-family: BACS"">kCRmPMYm</p>",,,,,,,,,,
html-keyboard-response,266,428638,0.0-14.0-0.15,64764d56699f097a96ec6e5c,650c16f0f2faf8d7a0d14c09,651c1c8ae7b1372d39070b13,null,null,"<p style=""font-size: 60px; font-family: BACS"">mrOdark</p>",,,,,,,,,,
html-keyboard-response,267,429640,0.0-14.0-0.16,64764d56699f097a96ec6e5c,650c16f0f2faf8d7a0d14c09,651c1c8ae7b1372d39070b13,null,null,"<p style=""font-size: 60px; font-family: BACS"">kabJbmvG</p>",,,,,,,,,,
html-keyboard-response,268,430643,0.0-14.0-0.17,64764d56699f097a96ec6e5c,650c16f0f2faf8d7a0d14c09,651c1c8ae7b1372d39070b13,null,null,"<p style=""font-size: 60px; font-family: BACS"">vkYGlvUdm</p>",,,,,,,,,,
html-keyboard-response,269,431644,0.0-14.0-0.18,64764d56699f097a96ec6e5c,650c16f0f2faf8d7a0d14c09,651c1c8ae7b1372d39070b13,null,null,"<p style=""font-size: 60px; font-family: BACS"">DdckKmE</p>",,,,,,,,,,
html-keyboard-response,270,432647,0.0-14.0-0.19,64764d56699f097a96ec6e5c,650c16f0f2faf8d7a0d14c09,651c1c8ae7b1372d39070b13,null,null,"<p style=""font-size: 60px; font-family: BACS"">advYOkJdr</p>",,,,,,,,,,
html-keyboard-response,271,433650,0.0-14.0-0.20,64764d56699f097a96ec6e5c,650c16f0f2faf8d7a0d14c09,651c1c8ae7b1372d39070b13,null,null,"<p style=""font-size: 60px; font-family: BACS"">kCRmDbMR</p>",,,,,,,,,,
html-keyboard-response,272,434652,0.0-14.0-0.21,64764d56699f097a96ec6e5c,650c16f0f2faf8d7a0d14c09,651c1c8ae7b1372d39070b13,null,null,"<p style=""font-size: 60px; font-family: BACS"">ctktKmE</p>",,,,,,,,,,
html-keyboard-response,273,435655,0.0-14.0-0.22,64764d56699f097a96ec6e5c,650c16f0f2faf8d7a0d14c09,651c1c8ae7b1372d39070b13,null,null,"<p style=""font-size: 60px; font-family: BACS"">YdudvUdm</p>",,,,,,,,,,
html-keyboard-response,274,436657,0.0-14.0-0.23,64764d56699f097a96ec6e5c,650c16f0f2faf8d7a0d14c09,651c1c8ae7b1372d39070b13,null,null,"<p style=""font-size: 60px; font-family: BACS"">bmdABKmE</p>",,,,,,,,,,
html-keyboard-response,275,437660,0.0-14.0-0.24,64764d56699f097a96ec6e5c,650c16f0f2faf8d7a0d14c09,651c1c8ae7b1372d39070b13,null,null,"<p style=""font-size: 60px; font-family: BACS"">UmNJkJdr</p>",,,,,,,,,,
html-keyboard-response,276,438662,0.0-14.0-0.25,64764d56699f097a96ec6e5c,650c16f0f2faf8d7a0d14c09,651c1c8ae7b1372d39070b13,null,null,"<p style=""font-size: 60px; font-family: BACS"">ukYZLaA</p>",,,,,,,,,,
html-keyboard-response,277,439665,0.0-14.0-0.26,64764d56699f097a96ec6e5c,650c16f0f2faf8d7a0d14c09,651c1c8ae7b1372d39070b13,null,null,"<p style=""font-size: 60px; font-family: BACS"">hlctERCdc</p>",,,,,,,,,,
html-keyboard-response,278,440667,0.0-14.0-0.27,64764d56699f097a96ec6e5c,650c16f0f2faf8d7a0d14c09,651c1c8ae7b1372d39070b13,null,null,"<p style=""font-size: 60px; font-family: BACS"">UmNJvUdm</p>",,,,,,,,,,
html-keyboard-response,279,441670,0.0-14.0-0.28,64764d56699f097a96ec6e5c,650c16f0f2faf8d7a0d14c09,651c1c8ae7b1372d39070b13,null,null,"<p style=""font-size: 60px; font-family: BACS"">mhtcCMdP</p>",,,,,,,,,,
html-keyboard-response,280,442672,0.0-14.0-0.29,64764d56699f097a96ec6e5c,650c16f0f2faf8d7a0d14c09,651c1c8ae7b1372d39070b13,null,null,"<p style=""font-size: 60px; font-family: BACS"">YOZNLaA</p>",,,,,,,,,,
html-keyboard-response,281,443674,0.0-14.0-0.30,64764d56699f097a96ec6e5c,650c16f0f2faf8d7a0d14c09,651c1c8ae7b1372d39070b13,null,null,"<p style=""font-size: 60px; font-family: BACS"">ukYZark</p>",,,,,,,,,,
html-keyboard-response,282,444677,0.0-14.0-0.31,64764d56699f097a96ec6e5c,650c16f0f2faf8d7a0d14c09,651c1c8ae7b1372d39070b13,null,null,"<p style=""font-size: 60px; font-family: BACS"">CDEmYDbMR</p>",,,,,,,,,,
html-keyboard-response,283,445680,0.0-14.0-0.32,64764d56699f097a96ec6e5c,650c16f0f2faf8d7a0d14c09,651c1c8ae7b1372d39070b13,null,null,"<p style=""font-size: 60px; font-family: BACS"">bdUNuLaA</p>",,,,,,,,,,
html-keyboard-response,284,446682,0.0-14.0-0.33,64764d56699f097a96ec6e5c,650c16f0f2faf8d7a0d14c09,651c1c8ae7b1372d39070b13,null,null,"<p style=""font-size: 60px; font-family: BACS"">YOZNkJdr</p>",,,,,,,,,,
html-keyboard-response,285,447685,0.0-14.0-0.34,64764d56699f097a96ec6e5c,650c16f0f2faf8d7a0d14c09,651c1c8ae7b1372d39070b13,null,null,"<p style=""font-size: 60px; font-family: BACS"">advYOLaA</p>",,,,,,,,,,
html-keyboard-response,286,448687,0.0-14.0-0.35,64764d56699f097a96ec6e5c,650c16f0f2faf8d7a0d14c09,651c1c8ae7b1372d39070b13,null,null,"<p style=""font-size: 60px; font-family: BACS"">kabJbvUdm</p>",,,,,,,,,,
html-keyboard-response,287,449690,0.0-14.0-0.36,64764d56699f097a96ec6e5c,650c16f0f2faf8d7a0d14c09,651c1c8ae7b1372d39070b13,null,null,"<p style=""font-size: 60px; font-family: BACS"">hTtBbDbMR</p>",,,,,,,,,,
html-keyboard-response,288,450693,0.0-14.0-0.37,64764d56699f097a96ec6e5c,650c16f0f2faf8d7a0d14c09,651c1c8ae7b1372d39070b13,null,null,"<p style=""font-size: 60px; font-family: BACS"">kabJbark</p>",,,,,,,,,,
html-keyboard-response,289,451695,0.0-14.0-0.38,64764d56699f097a96ec6e5c,650c16f0f2faf8d7a0d14c09,651c1c8ae7b1372d39070b13,null,null,"<p style=""font-size: 60px; font-family: BACS"">mrOdLaA</p>",,,,,,,,,,
html-keyboard-response,290,452698,0.0-14.0-0.39,64764d56699f097a96ec6e5c,650c16f0f2faf8d7a0d14c09,651c1c8ae7b1372d39070b13,null,null,"<p style=""font-size: 60px; font-family: BACS"">ukYZkJdr</p>",,,,,,,,,,
html-keyboard-response,291,453699,0.0-14.0-0.40,64764d56699f097a96ec6e5c,650c16f0f2faf8d7a0d14c09,651c1c8ae7b1372d39070b13,null,null,"<p style=""font-size: 60px; font-family: BACS"">mhtcRCdc</p>",,,,,,,,,,
html-keyboard-response,292,454702,0.0-14.0-0.41,64764d56699f097a96ec6e5c,650c16f0f2faf8d7a0d14c09,651c1c8ae7b1372d39070b13,null,null,"<p style=""font-size: 60px; font-family: BACS"">kKEdMPMYm</p>",,,,,,,,,,
html-keyboard-response,293,455704,0.0-14.0-0.42,64764d56699f097a96ec6e5c,650c16f0f2faf8d7a0d14c09,651c1c8ae7b1372d39070b13,null,null,"<p style=""font-size: 60px; font-family: BACS"">advYOark</p>",,,,,,,,,,
html-keyboard-response,294,456707,0.0-14.0-0.43,64764d56699f097a96ec6e5c,650c16f0f2faf8d7a0d14c09,651c1c8ae7b1372d39070b13,null,null,"<p style=""font-size: 60px; font-family: BACS"">vkYGlkJdr</p>",,,,,,,,,,
html-keyboard-response,295,457709,0.0-14.0-0.44,64764d56699f097a96ec6e5c,650c16f0f2faf8d7a0d14c09,651c1c8ae7b1372d39070b13,null,null,"<p style=""font-size: 60px; font-family: BACS"">bdUNuvUdm</p>",,,,,,,,,,
html-keyboard-response,296,458712,0.0-14.0-0.45,64764d56699f097a96ec6e5c,650c16f0f2faf8d7a0d14c09,651c1c8ae7b1372d39070b13,null,null,"<p style=""font-size: 60px; font-family: BACS"">YdudmvG</p>",,,,,,,,,,
html-keyboard-response,297,459714,0.0-14.0-0.46,64764d56699f097a96ec6e5c,650c16f0f2faf8d7a0d14c09,651c1c8ae7b1372d39070b13,null,null,"<p style=""font-size: 60px; font-family: BACS"">CDEmYRCdc</p>",,,,,,,,,,
html-keyboard-response,298,460717,0.0-14.0-0.47,64764d56699f097a96ec6e5c,650c16f0f2faf8d7a0d14c09,651c1c8ae7b1372d39070b13,null,null,"<p style=""font-size: 60px; font-family: BACS"">YdudkJdr</p>",,,,,,,,,,
html-keyboard-response,299,461719,0.0-14.0-0.48,64764d56699f097a96ec6e5c,650c16f0f2faf8d7a0d14c09,651c1c8ae7b1372d39070b13,null,null,"<p style=""font-size: 60px; font-family: BACS"">YOZNmvG</p>",,,,,,,,,,
html-keyboard-response,300,462721,0.0-14.0-0.49,64764d56699f097a96ec6e5c,650c16f0f2faf8d7a0d14c09,651c1c8ae7b1372d39070b13,null,null,"<p style=""font-size: 60px; font-family: BACS"">ctktPMYm</p>",,,,,,,,,,
html-keyboard-response,301,463724,0.0-14.0-0.50,64764d56699f097a96ec6e5c,650c16f0f2faf8d7a0d14c09,651c1c8ae7b1372d39070b13,null,null,"<p style=""font-size: 60px; font-family: BACS"">CDEmYCMdP</p>",,,,,,,,,,
html-keyboard-response,302,464726,0.0-14.0-0.51,64764d56699f097a96ec6e5c,650c16f0f2faf8d7a0d14c09,651c1c8ae7b1372d39070b13,null,null,"<p style=""font-size: 60px; font-family: BACS"">ctktRCdc</p>",,,,,,,,,,
html-keyboard-response,303,465729,0.0-14.0-0.52,64764d56699f097a96ec6e5c,650c16f0f2faf8d7a0d14c09,651c1c8ae7b1372d39070b13,null,null,"<p style=""font-size: 60px; font-family: BACS"">khmhPMYm</p>",,,,,,,,,,
html-keyboard-response,304,466731,0.0-14.0-0.53,64764d56699f097a96ec6e5c,650c16f0f2faf8d7a0d14c09,651c1c8ae7b1372d39070b13,null,null,"<p style=""font-size: 60px; font-family: BACS"">kCRmKmE</p>",,,,,,,,,,
html-keyboard-response,305,467734,0.0-14.0-0.54,64764d56699f097a96ec6e5c,650c16f0f2faf8d7a0d14c09,651c1c8ae7b1372d39070b13,null,null,"<p style=""font-size: 60px; font-family: BACS"">kKEdMRCdc</p>",,,,,,,,,,
html-keyboard-response,306,468736,0.0-14.0-0.55,64764d56699f097a96ec6e5c,650c16f0f2faf8d7a0d14c09,651c1c8ae7b1372d39070b13,null,null,"<p style=""font-size: 60px; font-family: BACS"">DdckDbMR</p>",,,,,,,,,,
html-keyboard-response,307,469739,0.0-14.0-0.56,64764d56699f097a96ec6e5c,650c16f0f2faf8d7a0d14c09,651c1c8ae7b1372d39070b13,null,null,"<p style=""font-size: 60px; font-family: BACS"">kCRmCMdP</p>",,,,,,,,,,
html-keyboard-response,308,470741,0.0-14.0-0.57,64764d56699f097a96ec6e5c,650c16f0f2faf8d7a0d14c09,651c1c8ae7b1372d39070b13,null,null,"<p style=""font-size: 60px; font-family: BACS"">hTtBbPMYm</p>",,,,,,,,,,
html-keyboard-response,309,471744,0.0-14.0-0.58,64764d56699f097a96ec6e5c,650c16f0f2faf8d7a0d14c09,651c1c8ae7b1372d39070b13,null,null,"<p style=""font-size: 60px; font-family: BACS"">advYOmvG</p>",,,,,,,,,,
html-keyboard-response,310,472746,0.0-14.0-0.59,64764d56699f097a96ec6e5c,650c16f0f2faf8d7a0d14c09,651c1c8ae7b1372d39070b13,null,null,"<p style=""font-size: 60px; font-family: BACS"">bmdABCMdP</p>",,,,,,,,,,
html-keyboard-response,311,473749,0.0-14.0-0.60,64764d56699f097a96ec6e5c,650c16f0f2faf8d7a0d14c09,651c1c8ae7b1372d39070b13,null,null,"<p style=""font-size: 60px; font-family: BACS"">UmNJark</p>",,,,,,,,,,
html-keyboard-response,312,474751,0.0-14.0-0.61,64764d56699f097a96ec6e5c,650c16f0f2faf8d7a0d14c09,651c1c8ae7b1372d39070b13,null,null,"<p style=""font-size: 60px; font-family: BACS"">LvuOGmvG</p>",,,,,,,,,,
html-keyboard-response,313,475754,0.0-14.0-0.62,64764d56699f097a96ec6e5c,650c16f0f2faf8d7a0d14c09,651c1c8ae7b1372d39070b13,null,null,"<p style=""font-size: 60px; font-family: BACS"">bmdABRCdc</p>",,,,,,,,,,
html-keyboard-response,314,476756,0.0-14.0-0.63,64764d56699f097a96ec6e5c,650c16f0f2faf8d7a0d14c09,651c1c8ae7b1372d39070b13,null,null,"<p style=""font-size: 60px; font-family: BACS"">vkYGlLaA</p>",,,,,,,,,,
html-keyboard-response,315,477759,0.0-14.0-0.64,64764d56699f097a96ec6e5c,650c16f0f2faf8d7a0d14c09,651c1c8ae7b1372d39070b13,null,null,"<p style=""font-size: 60px; font-family: BACS"">hlctEDbMR</p>",,,,,,,,,,
html-keyboard-response,316,478761,0.0-14.0-0.65,64764d56699f097a96ec6e5c,650c16f0f2faf8d7a0d14c09,651c1c8ae7b1372d39070b13,null,null,"<p style=""font-size: 60px; font-family: BACS"">vkYGlmvG</p>",,,,,,,,,,
html-keyboard-response,317,479764,0.0-14.0-0.66,64764d56699f097a96ec6e5c,650c16f0f2faf8d7a0d14c09,651c1c8ae7b1372d39070b13,null,null,"<p style=""font-size: 60px; font-family: BACS"">kKEdMDbMR</p>",,,,,,,,,,
html-keyboard-response,318,480767,0.0-14.0-0.67,64764d56699f097a96ec6e5c,650c16f0f2faf8d7a0d14c09,651c1c8ae7b1372d39070b13,null,null,"<p style=""font-size: 60px; font-family: BACS"">mhtcPMYm</p>",,,,,,,,,,
html-keyboard-response,319,481769,0.0-14.0-0.68,64764d56699f097a96ec6e5c,650c16f0f2faf8d7a0d14c09,651c1c8ae7b1372d39070b13,null,null,"<p style=""font-size: 60px; font-family: BACS"">bdUNukJdr</p>",,,,,,,,,,
html-keyboard-response,320,482771,0.0-14.0-0.69,64764d56699f097a96ec6e5c,650c16f0f2faf8d7a0d14c09,651c1c8ae7b1372d39070b13,null,null,"<p style=""font-size: 60px; font-family: BACS"">UmNJmvG</p>",,,,,,,,,,
html-keyboard-response,321,483774,0.0-14.0-0.70,64764d56699f097a96ec6e5c,650c16f0f2faf8d7a0d14c09,651c1c8ae7b1372d39070b13,null,null,"<p style=""font-size: 60px; font-family: BACS"">kabJbLaA</p>",,,,,,,,,,
html-keyboard-response,322,484776,0.0-14.0-0.71,64764d56699f097a96ec6e5c,650c16f0f2faf8d7a0d14c09,651c1c8ae7b1372d39070b13,null,null,"<p style=""font-size: 60px; font-family: BACS"">mhtcDbMR</p>",,,,,,,,,,
html-keyboard-response,323,485779,0.0-14.0-0.72,64764d56699f097a96ec6e5c,650c16f0f2faf8d7a0d14c09,651c1c8ae7b1372d39070b13,null,null,"<p style=""font-size: 60px; font-family: BACS"">hTtBbCMdP</p>",,,,,,,,,,
html-keyboard-response,324,486781,0.0-14.0-0.73,64764d56699f097a96ec6e5c,650c16f0f2faf8d7a0d14c09,651c1c8ae7b1372d39070b13,null,null,"<p style=""font-size: 60px; font-family: BACS"">LvuOGark</p>",,,,,,,,,,
html-keyboard-response,325,487783,0.0-14.0-0.74,64764d56699f097a96ec6e5c,650c16f0f2faf8d7a0d14c09,651c1c8ae7b1372d39070b13,null,null,"<p style=""font-size: 60px; font-family: BACS"">khmhDbMR</p>",,,,,,,,,,
html-keyboard-response,326,488786,0.0-14.0-0.75,64764d56699f097a96ec6e5c,650c16f0f2faf8d7a0d14c09,651c1c8ae7b1372d39070b13,null,null,"<p style=""font-size: 60px; font-family: BACS"">kKEdMCMdP</p>",,,,,,,,,,
html-keyboard-response,327,489788,0.0-14.0-0.76,64764d56699f097a96ec6e5c,650c16f0f2faf8d7a0d14c09,651c1c8ae7b1372d39070b13,null,null,"<p style=""font-size: 60px; font-family: BACS"">LvuOGvUdm</p>",,,,,,,,,,
html-keyboard-response,328,490791,0.0-14.0-0.77,64764d56699f097a96ec6e5c,650c16f0f2faf8d7a0d14c09,651c1c8ae7b1372d39070b13,null,null,"<p style=""font-size: 60px; font-family: BACS"">DdckRCdc</p>",,,,,,,,,,
html-keyboard-response,329,491793,0.0-14.0-0.78,64764d56699f097a96ec6e5c,650c16f0f2faf8d7a0d14c09,651c1c8ae7b1372d39070b13,null,null,"<p style=""font-size: 60px; font-family: BACS"">mrOdvUdm</p>",,,,,,,,,,
html-keyboard-response,330,492795,0.0-14.0-0.79,64764d56699f097a96ec6e5c,650c16f0f2faf8d7a0d14c09,651c1c8ae7b1372d39070b13,null,null,"<p style=""font-size: 60px; font-family: BACS"">hlctEKmE</p>",,,,,,,,,,
html-keyboard-response,331,553971,0.0-15.0,64764d56699f097a96ec6e5c,650c16f0f2faf8d7a0d14c09,651c1c8ae7b1372d39070b13,61175, ,"<p>Great, you've seen the fourth block of words. You may now take a short break.</p>
      <p>Press the spacebar when you're ready to continue.</p>",,,,,,,,,,
html-keyboard-response,332,554974,0.0-16.0-0.0,64764d56699f097a96ec6e5c,650c16f0f2faf8d7a0d14c09,651c1c8ae7b1372d39070b13,null,null,"<p style=""font-size: 60px; font-family: BACS"">YOZNLaA</p>",,,,,,,,,,
html-keyboard-response,333,555976,0.0-16.0-0.1,64764d56699f097a96ec6e5c,650c16f0f2faf8d7a0d14c09,651c1c8ae7b1372d39070b13,null,null,"<p style=""font-size: 60px; font-family: BACS"">YOZNLaA</p>",,,,,,,,,,
html-keyboard-response,334,556979,0.0-16.0-0.2,64764d56699f097a96ec6e5c,650c16f0f2faf8d7a0d14c09,651c1c8ae7b1372d39070b13,null,null,"<p style=""font-size: 60px; font-family: BACS"">YOZNLaA</p>",,,,,,,,,,
html-keyboard-response,335,557981,0.0-16.0-0.3,64764d56699f097a96ec6e5c,650c16f0f2faf8d7a0d14c09,651c1c8ae7b1372d39070b13,null,null,"<p style=""font-size: 60px; font-family: BACS"">YOZNLaA</p>",,,,,,,,,,
html-keyboard-response,336,558984,0.0-16.0-0.4,64764d56699f097a96ec6e5c,650c16f0f2faf8d7a0d14c09,651c1c8ae7b1372d39070b13,null,null,"<p style=""font-size: 60px; font-family: BACS"">YOZNLaA</p>",,,,,,,,,,
html-keyboard-response,337,559986,0.0-16.0-0.5,64764d56699f097a96ec6e5c,650c16f0f2faf8d7a0d14c09,651c1c8ae7b1372d39070b13,null,null,"<p style=""font-size: 60px; font-family: BACS"">YOZNLaA</p>",,,,,,,,,,
html-keyboard-response,338,560989,0.0-16.0-0.6,64764d56699f097a96ec6e5c,650c16f0f2faf8d7a0d14c09,651c1c8ae7b1372d39070b13,null,null,"<p style=""font-size: 60px; font-family: BACS"">YOZNLaA</p>",,,,,,,,,,
html-keyboard-response,339,561991,0.0-16.0-0.7,64764d56699f097a96ec6e5c,650c16f0f2faf8d7a0d14c09,651c1c8ae7b1372d39070b13,null,null,"<p style=""font-size: 60px; font-family: BACS"">YOZNLaA</p>",,,,,,,,,,
html-keyboard-response,340,562993,0.0-16.0-0.8,64764d56699f097a96ec6e5c,650c16f0f2faf8d7a0d14c09,651c1c8ae7b1372d39070b13,null,null,"<p style=""font-size: 60px; font-family: BACS"">YOZNLaA</p>",,,,,,,,,,
html-keyboard-response,341,563996,0.0-16.0-0.9,64764d56699f097a96ec6e5c,650c16f0f2faf8d7a0d14c09,651c1c8ae7b1372d39070b13,null,null,"<p style=""font-size: 60px; font-family: BACS"">YOZNLaA</p>",,,,,,,,,,
html-keyboard-response,342,564998,0.0-16.0-0.10,64764d56699f097a96ec6e5c,650c16f0f2faf8d7a0d14c09,651c1c8ae7b1372d39070b13,null,null,"<p style=""font-size: 60px; font-family: BACS"">YOZNLaA</p>",,,,,,,,,,
html-keyboard-response,343,566001,0.0-16.0-0.11,64764d56699f097a96ec6e5c,650c16f0f2faf8d7a0d14c09,651c1c8ae7b1372d39070b13,null,null,"<p style=""font-size: 60px; font-family: BACS"">YOZNLaA</p>",,,,,,,,,,
html-keyboard-response,344,567003,0.0-16.0-0.12,64764d56699f097a96ec6e5c,650c16f0f2faf8d7a0d14c09,651c1c8ae7b1372d39070b13,null,null,"<p style=""font-size: 60px; font-family: BACS"">YOZNLaA</p>",,,,,,,,,,
html-keyboard-response,345,568005,0.0-16.0-0.13,64764d56699f097a96ec6e5c,650c16f0f2faf8d7a0d14c09,651c1c8ae7b1372d39070b13,null,null,"<p style=""font-size: 60px; font-family: BACS"">YOZNLaA</p>",,,,,,,,,,
html-keyboard-response,346,569008,0.0-16.0-0.14,64764d56699f097a96ec6e5c,650c16f0f2faf8d7a0d14c09,651c1c8ae7b1372d39070b13,null,null,"<p style=""font-size: 60px; font-family: BACS"">YOZNLaA</p>",,,,,,,,,,
html-keyboard-response,347,570010,0.0-16.0-0.15,64764d56699f097a96ec6e5c,650c16f0f2faf8d7a0d14c09,651c1c8ae7b1372d39070b13,null,null,"<p style=""font-size: 60px; font-family: BACS"">YOZNLaA</p>",,,,,,,,,,
html-keyboard-response,348,571012,0.0-16.0-0.16,64764d56699f097a96ec6e5c,650c16f0f2faf8d7a0d14c09,651c1c8ae7b1372d39070b13,null,null,"<p style=""font-size: 60px; font-family: BACS"">YOZNLaA</p>",,,,,,,,,,
html-keyboard-response,349,572015,0.0-16.0-0.17,64764d56699f097a96ec6e5c,650c16f0f2faf8d7a0d14c09,651c1c8ae7b1372d39070b13,null,null,"<p style=""font-size: 60px; font-family: BACS"">YOZNLaA</p>",,,,,,,,,,
html-keyboard-response,350,573017,0.0-16.0-0.18,64764d56699f097a96ec6e5c,650c16f0f2faf8d7a0d14c09,651c1c8ae7b1372d39070b13,null,null,"<p style=""font-size: 60px; font-family: BACS"">YOZNLaA</p>",,,,,,,,,,
html-keyboard-response,351,574020,0.0-16.0-0.19,64764d56699f097a96ec6e5c,650c16f0f2faf8d7a0d14c09,651c1c8ae7b1372d39070b13,null,null,"<p style=""font-size: 60px; font-family: BACS"">YOZNLaA</p>",,,,,,,,,,
html-keyboard-response,352,575022,0.0-16.0-0.20,64764d56699f097a96ec6e5c,650c16f0f2faf8d7a0d14c09,651c1c8ae7b1372d39070b13,null,null,"<p style=""font-size: 60px; font-family: BACS"">YOZNLaA</p>",,,,,,,,,,
html-keyboard-response,353,576025,0.0-16.0-0.21,64764d56699f097a96ec6e5c,650c16f0f2faf8d7a0d14c09,651c1c8ae7b1372d39070b13,null,null,"<p style=""font-size: 60px; font-family: BACS"">YOZNLaA</p>",,,,,,,,,,
html-keyboard-response,354,577027,0.0-16.0-0.22,64764d56699f097a96ec6e5c,650c16f0f2faf8d7a0d14c09,651c1c8ae7b1372d39070b13,null,null,"<p style=""font-size: 60px; font-family: BACS"">YOZNLaA</p>",,,,,,,,,,
html-keyboard-response,355,578030,0.0-16.0-0.23,64764d56699f097a96ec6e5c,650c16f0f2faf8d7a0d14c09,651c1c8ae7b1372d39070b13,null,null,"<p style=""font-size: 60px; font-family: BACS"">YOZNLaA</p>",,,,,,,,,,
html-keyboard-response,356,579032,0.0-16.0-0.24,64764d56699f097a96ec6e5c,650c16f0f2faf8d7a0d14c09,651c1c8ae7b1372d39070b13,null,null,"<p style=""font-size: 60px; font-family: BACS"">YOZNLaA</p>",,,,,,,,,,
html-keyboard-response,357,580034,0.0-16.0-0.25,64764d56699f097a96ec6e5c,650c16f0f2faf8d7a0d14c09,651c1c8ae7b1372d39070b13,null,null,"<p style=""font-size: 60px; font-family: BACS"">YOZNLaA</p>",,,,,,,,,,
html-keyboard-response,358,581037,0.0-16.0-0.26,64764d56699f097a96ec6e5c,650c16f0f2faf8d7a0d14c09,651c1c8ae7b1372d39070b13,null,null,"<p style=""font-size: 60px; font-family: BACS"">YOZNLaA</p>",,,,,,,,,,
html-keyboard-response,359,582039,0.0-16.0-0.27,64764d56699f097a96ec6e5c,650c16f0f2faf8d7a0d14c09,651c1c8ae7b1372d39070b13,null,null,"<p style=""font-size: 60px; font-family: BACS"">YOZNLaA</p>",,,,,,,,,,
html-keyboard-response,360,583042,0.0-16.0-0.28,64764d56699f097a96ec6e5c,650c16f0f2faf8d7a0d14c09,651c1c8ae7b1372d39070b13,null,null,"<p style=""font-size: 60px; font-family: BACS"">YOZNLaA</p>",,,,,,,,,,
html-keyboard-response,361,584044,0.0-16.0-0.29,64764d56699f097a96ec6e5c,650c16f0f2faf8d7a0d14c09,651c1c8ae7b1372d39070b13,null,null,"<p style=""font-size: 60px; font-family: BACS"">YOZNLaA</p>",,,,,,,,,,
html-keyboard-response,362,585046,0.0-16.0-0.30,64764d56699f097a96ec6e5c,650c16f0f2faf8d7a0d14c09,651c1c8ae7b1372d39070b13,null,null,"<p style=""font-size: 60px; font-family: BACS"">YOZNLaA</p>",,,,,,,,,,
html-keyboard-response,363,586049,0.0-16.0-0.31,64764d56699f097a96ec6e5c,650c16f0f2faf8d7a0d14c09,651c1c8ae7b1372d39070b13,null,null,"<p style=""font-size: 60px; font-family: BACS"">YOZNLaA</p>",,,,,,,,,,
html-keyboard-response,364,587051,0.0-16.0-0.32,64764d56699f097a96ec6e5c,650c16f0f2faf8d7a0d14c09,651c1c8ae7b1372d39070b13,null,null,"<p style=""font-size: 60px; font-family: BACS"">YOZNLaA</p>",,,,,,,,,,
html-keyboard-response,365,588054,0.0-16.0-0.33,64764d56699f097a96ec6e5c,650c16f0f2faf8d7a0d14c09,651c1c8ae7b1372d39070b13,null,null,"<p style=""font-size: 60px; font-family: BACS"">YOZNLaA</p>",,,,,,,,,,
html-keyboard-response,366,589056,0.0-16.0-0.34,64764d56699f097a96ec6e5c,650c16f0f2faf8d7a0d14c09,651c1c8ae7b1372d39070b13,null,null,"<p style=""font-size: 60px; font-family: BACS"">YOZNLaA</p>",,,,,,,,,,
html-keyboard-response,367,590059,0.0-16.0-0.35,64764d56699f097a96ec6e5c,650c16f0f2faf8d7a0d14c09,651c1c8ae7b1372d39070b13,null,null,"<p style=""font-size: 60px; font-family: BACS"">YOZNLaA</p>",,,,,,,,,,
html-keyboard-response,368,591061,0.0-16.0-0.36,64764d56699f097a96ec6e5c,650c16f0f2faf8d7a0d14c09,651c1c8ae7b1372d39070b13,null,null,"<p style=""font-size: 60px; font-family: BACS"">YOZNLaA</p>",,,,,,,,,,
html-keyboard-response,369,592064,0.0-16.0-0.37,64764d56699f097a96ec6e5c,650c16f0f2faf8d7a0d14c09,651c1c8ae7b1372d39070b13,null,null,"<p style=""font-size: 60px; font-family: BACS"">YOZNLaA</p>",,,,,,,,,,
html-keyboard-response,370,593066,0.0-16.0-0.38,64764d56699f097a96ec6e5c,650c16f0f2faf8d7a0d14c09,651c1c8ae7b1372d39070b13,null,null,"<p style=""font-size: 60px; font-family: BACS"">YOZNLaA</p>",,,,,,,,,,
html-keyboard-response,371,594068,0.0-16.0-0.39,64764d56699f097a96ec6e5c,650c16f0f2faf8d7a0d14c09,651c1c8ae7b1372d39070b13,null,null,"<p style=""font-size: 60px; font-family: BACS"">YOZNLaA</p>",,,,,,,,,,
html-keyboard-response,372,595070,0.0-16.0-0.40,64764d56699f097a96ec6e5c,650c16f0f2faf8d7a0d14c09,651c1c8ae7b1372d39070b13,null,null,"<p style=""font-size: 60px; font-family: BACS"">YOZNLaA</p>",,,,,,,,,,
html-keyboard-response,373,596073,0.0-16.0-0.41,64764d56699f097a96ec6e5c,650c16f0f2faf8d7a0d14c09,651c1c8ae7b1372d39070b13,null,null,"<p style=""font-size: 60px; font-family: BACS"">YOZNLaA</p>",,,,,,,,,,
html-keyboard-response,374,597075,0.0-16.0-0.42,64764d56699f097a96ec6e5c,650c16f0f2faf8d7a0d14c09,651c1c8ae7b1372d39070b13,null,null,"<p style=""font-size: 60px; font-family: BACS"">YOZNLaA</p>",,,,,,,,,,
html-keyboard-response,375,598077,0.0-16.0-0.43,64764d56699f097a96ec6e5c,650c16f0f2faf8d7a0d14c09,651c1c8ae7b1372d39070b13,null,null,"<p style=""font-size: 60px; font-family: BACS"">YOZNLaA</p>",,,,,,,,,,
html-keyboard-response,376,599080,0.0-16.0-0.44,64764d56699f097a96ec6e5c,650c16f0f2faf8d7a0d14c09,651c1c8ae7b1372d39070b13,null,null,"<p style=""font-size: 60px; font-family: BACS"">YOZNLaA</p>",,,,,,,,,,
html-keyboard-response,377,600082,0.0-16.0-0.45,64764d56699f097a96ec6e5c,650c16f0f2faf8d7a0d14c09,651c1c8ae7b1372d39070b13,null,null,"<p style=""font-size: 60px; font-family: BACS"">YOZNLaA</p>",,,,,,,,,,
html-keyboard-response,378,601084,0.0-16.0-0.46,64764d56699f097a96ec6e5c,650c16f0f2faf8d7a0d14c09,651c1c8ae7b1372d39070b13,null,null,"<p style=""font-size: 60px; font-family: BACS"">YOZNLaA</p>",,,,,,,,,,
html-keyboard-response,379,602087,0.0-16.0-0.47,64764d56699f097a96ec6e5c,650c16f0f2faf8d7a0d14c09,651c1c8ae7b1372d39070b13,null,null,"<p style=""font-size: 60px; font-family: BACS"">YOZNLaA</p>",,,,,,,,,,
html-keyboard-response,380,603089,0.0-16.0-0.48,64764d56699f097a96ec6e5c,650c16f0f2faf8d7a0d14c09,651c1c8ae7b1372d39070b13,null,null,"<p style=""font-size: 60px; font-family: BACS"">YOZNLaA</p>",,,,,,,,,,
html-keyboard-response,381,604092,0.0-16.0-0.49,64764d56699f097a96ec6e5c,650c16f0f2faf8d7a0d14c09,651c1c8ae7b1372d39070b13,null,null,"<p style=""font-size: 60px; font-family: BACS"">YOZNLaA</p>",,,,,,,,,,
html-keyboard-response,382,605094,0.0-16.0-0.50,64764d56699f097a96ec6e5c,650c16f0f2faf8d7a0d14c09,651c1c8ae7b1372d39070b13,null,null,"<p style=""font-size: 60px; font-family: BACS"">YOZNLaA</p>",,,,,,,,,,
html-keyboard-response,383,606096,0.0-16.0-0.51,64764d56699f097a96ec6e5c,650c16f0f2faf8d7a0d14c09,651c1c8ae7b1372d39070b13,null,null,"<p style=""font-size: 60px; font-family: BACS"">YOZNLaA</p>",,,,,,,,,,
html-keyboard-response,384,607098,0.0-16.0-0.52,64764d56699f097a96ec6e5c,650c16f0f2faf8d7a0d14c09,651c1c8ae7b1372d39070b13,null,null,"<p style=""font-size: 60px; font-family: BACS"">YOZNLaA</p>",,,,,,,,,,
html-keyboard-response,385,608100,0.0-16.0-0.53,64764d56699f097a96ec6e5c,650c16f0f2faf8d7a0d14c09,651c1c8ae7b1372d39070b13,null,null,"<p style=""font-size: 60px; font-family: BACS"">YOZNLaA</p>",,,,,,,,,,
html-keyboard-response,386,609103,0.0-16.0-0.54,64764d56699f097a96ec6e5c,650c16f0f2faf8d7a0d14c09,651c1c8ae7b1372d39070b13,null,null,"<p style=""font-size: 60px; font-family: BACS"">YOZNLaA</p>",,,,,,,,,,
html-keyboard-response,387,610105,0.0-16.0-0.55,64764d56699f097a96ec6e5c,650c16f0f2faf8d7a0d14c09,651c1c8ae7b1372d39070b13,null,null,"<p style=""font-size: 60px; font-family: BACS"">YOZNLaA</p>",,,,,,,,,,
html-keyboard-response,388,611107,0.0-16.0-0.56,64764d56699f097a96ec6e5c,650c16f0f2faf8d7a0d14c09,651c1c8ae7b1372d39070b13,null,null,"<p style=""font-size: 60px; font-family: BACS"">YOZNLaA</p>",,,,,,,,,,
html-keyboard-response,389,612110,0.0-16.0-0.57,64764d56699f097a96ec6e5c,650c16f0f2faf8d7a0d14c09,651c1c8ae7b1372d39070b13,null,null,"<p style=""font-size: 60px; font-family: BACS"">YOZNLaA</p>",,,,,,,,,,
html-keyboard-response,390,613112,0.0-16.0-0.58,64764d56699f097a96ec6e5c,650c16f0f2faf8d7a0d14c09,651c1c8ae7b1372d39070b13,null,null,"<p style=""font-size: 60px; font-family: BACS"">YOZNLaA</p>",,,,,,,,,,
html-keyboard-response,391,614115,0.0-16.0-0.59,64764d56699f097a96ec6e5c,650c16f0f2faf8d7a0d14c09,651c1c8ae7b1372d39070b13,null,null,"<p style=""font-size: 60px; font-family: BACS"">YOZNLaA</p>",,,,,,,,,,
html-keyboard-response,392,615117,0.0-16.0-0.60,64764d56699f097a96ec6e5c,650c16f0f2faf8d7a0d14c09,651c1c8ae7b1372d39070b13,null,null,"<p style=""font-size: 60px; font-family: BACS"">YOZNLaA</p>",,,,,,,,,,
html-keyboard-response,393,616120,0.0-16.0-0.61,64764d56699f097a96ec6e5c,650c16f0f2faf8d7a0d14c09,651c1c8ae7b1372d39070b13,null,null,"<p style=""font-size: 60px; font-family: BACS"">YOZNLaA</p>",,,,,,,,,,
html-keyboard-response,394,617122,0.0-16.0-0.62,64764d56699f097a96ec6e5c,650c16f0f2faf8d7a0d14c09,651c1c8ae7b1372d39070b13,null,null,"<p style=""font-size: 60px; font-family: BACS"">YOZNLaA</p>",,,,,,,,,,
html-keyboard-response,395,618124,0.0-16.0-0.63,64764d56699f097a96ec6e5c,650c16f0f2faf8d7a0d14c09,651c1c8ae7b1372d39070b13,null,null,"<p style=""font-size: 60px; font-family: BACS"">YOZNLaA</p>",,,,,,,,,,
html-keyboard-response,396,619127,0.0-16.0-0.64,64764d56699f097a96ec6e5c,650c16f0f2faf8d7a0d14c09,651c1c8ae7b1372d39070b13,null,null,"<p style=""font-size: 60px; font-family: BACS"">YOZNLaA</p>",,,,,,,,,,
html-keyboard-response,397,620129,0.0-16.0-0.65,64764d56699f097a96ec6e5c,650c16f0f2faf8d7a0d14c09,651c1c8ae7b1372d39070b13,null,null,"<p style=""font-size: 60px; font-family: BACS"">YOZNLaA</p>",,,,,,,,,,
html-keyboard-response,398,621132,0.0-16.0-0.66,64764d56699f097a96ec6e5c,650c16f0f2faf8d7a0d14c09,651c1c8ae7b1372d39070b13,null,null,"<p style=""font-size: 60px; font-family: BACS"">YOZNLaA</p>",,,,,,,,,,
html-keyboard-response,399,622135,0.0-16.0-0.67,64764d56699f097a96ec6e5c,650c16f0f2faf8d7a0d14c09,651c1c8ae7b1372d39070b13,null,null,"<p style=""font-size: 60px; font-family: BACS"">YOZNLaA</p>",,,,,,,,,,
html-keyboard-response,400,623137,0.0-16.0-0.68,64764d56699f097a96ec6e5c,650c16f0f2faf8d7a0d14c09,651c1c8ae7b1372d39070b13,null,null,"<p style=""font-size: 60px; font-family: BACS"">YOZNLaA</p>",,,,,,,,,,
html-keyboard-response,401,624140,0.0-16.0-0.69,64764d56699f097a96ec6e5c,650c16f0f2faf8d7a0d14c09,651c1c8ae7b1372d39070b13,null,null,"<p style=""font-size: 60px; font-family: BACS"">YOZNLaA</p>",,,,,,,,,,
html-keyboard-response,402,625142,0.0-16.0-0.70,64764d56699f097a96ec6e5c,650c16f0f2faf8d7a0d14c09,651c1c8ae7b1372d39070b13,null,null,"<p style=""font-size: 60px; font-family: BACS"">YOZNLaA</p>",,,,,,,,,,
html-keyboard-response,403,626144,0.0-16.0-0.71,64764d56699f097a96ec6e5c,650c16f0f2faf8d7a0d14c09,651c1c8ae7b1372d39070b13,null,null,"<p style=""font-size: 60px; font-family: BACS"">YOZNLaA</p>",,,,,,,,,,
html-keyboard-response,404,627146,0.0-16.0-0.72,64764d56699f097a96ec6e5c,650c16f0f2faf8d7a0d14c09,651c1c8ae7b1372d39070b13,null,null,"<p style=""font-size: 60px; font-family: BACS"">YOZNLaA</p>",,,,,,,,,,
html-keyboard-response,405,628149,0.0-16.0-0.73,64764d56699f097a96ec6e5c,650c16f0f2faf8d7a0d14c09,651c1c8ae7b1372d39070b13,null,null,"<p style=""font-size: 60px; font-family: BACS"">YOZNLaA</p>",,,,,,,,,,
html-keyboard-response,406,629151,0.0-16.0-0.74,64764d56699f097a96ec6e5c,650c16f0f2faf8d7a0d14c09,651c1c8ae7b1372d39070b13,null,null,"<p style=""font-size: 60px; font-family: BACS"">YOZNLaA</p>",,,,,,,,,,
html-keyboard-response,407,630154,0.0-16.0-0.75,64764d56699f097a96ec6e5c,650c16f0f2faf8d7a0d14c09,651c1c8ae7b1372d39070b13,null,null,"<p style=""font-size: 60px; font-family: BACS"">YOZNLaA</p>",,,,,,,,,,
html-keyboard-response,408,631156,0.0-16.0-0.76,64764d56699f097a96ec6e5c,650c16f0f2faf8d7a0d14c09,651c1c8ae7b1372d39070b13,null,null,"<p style=""font-size: 60px; font-family: BACS"">YOZNLaA</p>",,,,,,,,,,
html-keyboard-response,409,632159,0.0-16.0-0.77,64764d56699f097a96ec6e5c,650c16f0f2faf8d7a0d14c09,651c1c8ae7b1372d39070b13,null,null,"<p style=""font-size: 60px; font-family: BACS"">YOZNLaA</p>",,,,,,,,,,
html-keyboard-response,410,633162,0.0-16.0-0.78,64764d56699f097a96ec6e5c,650c16f0f2faf8d7a0d14c09,651c1c8ae7b1372d39070b13,null,null,"<p style=""font-size: 60px; font-family: BACS"">YOZNLaA</p>",,,,,,,,,,
html-keyboard-response,411,634164,0.0-16.0-0.79,64764d56699f097a96ec6e5c,650c16f0f2faf8d7a0d14c09,651c1c8ae7b1372d39070b13,null,null,"<p style=""font-size: 60px; font-family: BACS"">YOZNLaA</p>",,,,,,,,,,
html-keyboard-response,412,1119453,0.0-17.0,64764d56699f097a96ec6e5c,650c16f0f2faf8d7a0d14c09,651c1c8ae7b1372d39070b13,485298, ,"<p>Great, you've seen the fifth block of words. You may now take a short break.</p>
      <p>Press the spacebar when you're ready to continue.</p>",,,,,,,,,,
html-keyboard-response,413,1120456,0.0-18.0-0.0,64764d56699f097a96ec6e5c,650c16f0f2faf8d7a0d14c09,651c1c8ae7b1372d39070b13,null,null,"<p style=""font-size: 60px; font-family: BACS"">advYOkJdr</p>",,,,,,,,,,
html-keyboard-response,414,1121459,0.0-18.0-0.1,64764d56699f097a96ec6e5c,650c16f0f2faf8d7a0d14c09,651c1c8ae7b1372d39070b13,null,null,"<p style=""font-size: 60px; font-family: BACS"">vkYGlmvG</p>",,,,,,,,,,
html-keyboard-response,415,1122461,0.0-18.0-0.2,64764d56699f097a96ec6e5c,650c16f0f2faf8d7a0d14c09,651c1c8ae7b1372d39070b13,null,null,"<p style=""font-size: 60px; font-family: BACS"">CDEmYCMdP</p>",,,,,,,,,,
html-keyboard-response,416,1123464,0.0-18.0-0.3,64764d56699f097a96ec6e5c,650c16f0f2faf8d7a0d14c09,651c1c8ae7b1372d39070b13,null,null,"<p style=""font-size: 60px; font-family: BACS"">kCRmDbMR</p>",,,,,,,,,,
html-keyboard-response,417,1124465,0.0-18.0-0.4,64764d56699f097a96ec6e5c,650c16f0f2faf8d7a0d14c09,651c1c8ae7b1372d39070b13,null,null,"<p style=""font-size: 60px; font-family: BACS"">hlctEPMYm</p>",,,,,,,,,,
html-keyboard-response,418,1125468,0.0-18.0-0.5,64764d56699f097a96ec6e5c,650c16f0f2faf8d7a0d14c09,651c1c8ae7b1372d39070b13,null,null,"<p style=""font-size: 60px; font-family: BACS"">UmNJmvG</p>",,,,,,,,,,
html-keyboard-response,419,1126470,0.0-18.0-0.6,64764d56699f097a96ec6e5c,650c16f0f2faf8d7a0d14c09,651c1c8ae7b1372d39070b13,null,null,"<p style=""font-size: 60px; font-family: BACS"">kKEdMRCdc</p>",,,,,,,,,,
html-keyboard-response,420,1127473,0.0-18.0-0.7,64764d56699f097a96ec6e5c,650c16f0f2faf8d7a0d14c09,651c1c8ae7b1372d39070b13,null,null,"<p style=""font-size: 60px; font-family: BACS"">ukYZkJdr</p>",,,,,,,,,,
html-keyboard-response,421,1128475,0.0-18.0-0.8,64764d56699f097a96ec6e5c,650c16f0f2faf8d7a0d14c09,651c1c8ae7b1372d39070b13,null,null,"<p style=""font-size: 60px; font-family: BACS"">mrOdLaA</p>",,,,,,,,,,
html-keyboard-response,422,1129478,0.0-18.0-0.9,64764d56699f097a96ec6e5c,650c16f0f2faf8d7a0d14c09,651c1c8ae7b1372d39070b13,null,null,"<p style=""font-size: 60px; font-family: BACS"">LvuOGmvG</p>",,,,,,,,,,
html-keyboard-response,423,1130480,0.0-18.0-0.10,64764d56699f097a96ec6e5c,650c16f0f2faf8d7a0d14c09,651c1c8ae7b1372d39070b13,null,null,"<p style=""font-size: 60px; font-family: BACS"">advYOLaA</p>",,,,,,,,,,
html-keyboard-response,424,1131483,0.0-18.0-0.11,64764d56699f097a96ec6e5c,650c16f0f2faf8d7a0d14c09,651c1c8ae7b1372d39070b13,null,null,"<p style=""font-size: 60px; font-family: BACS"">hTtBbKmE</p>",,,,,,,,,,
html-keyboard-response,425,1132486,0.0-18.0-0.12,64764d56699f097a96ec6e5c,650c16f0f2faf8d7a0d14c09,651c1c8ae7b1372d39070b13,null,null,"<p style=""font-size: 60px; font-family: BACS"">kabJbvUdm</p>",,,,,,,,,,
html-keyboard-response,426,1133488,0.0-18.0-0.13,64764d56699f097a96ec6e5c,650c16f0f2faf8d7a0d14c09,651c1c8ae7b1372d39070b13,null,null,"<p style=""font-size: 60px; font-family: BACS"">ukYZLaA</p>",,,,,,,,,,
html-keyboard-response,427,1134491,0.0-18.0-0.14,64764d56699f097a96ec6e5c,650c16f0f2faf8d7a0d14c09,651c1c8ae7b1372d39070b13,null,null,"<p style=""font-size: 60px; font-family: BACS"">mhtcPMYm</p>",,,,,,,,,,
html-keyboard-response,428,1135493,0.0-18.0-0.15,64764d56699f097a96ec6e5c,650c16f0f2faf8d7a0d14c09,651c1c8ae7b1372d39070b13,null,null,"<p style=""font-size: 60px; font-family: BACS"">YdudmvG</p>",,,,,,,,,,
html-keyboard-response,429,1136496,0.0-18.0-0.16,64764d56699f097a96ec6e5c,650c16f0f2faf8d7a0d14c09,651c1c8ae7b1372d39070b13,null,null,"<p style=""font-size: 60px; font-family: BACS"">ctktKmE</p>",,,,,,,,,,
html-keyboard-response,430,1137498,0.0-18.0-0.17,64764d56699f097a96ec6e5c,650c16f0f2faf8d7a0d14c09,651c1c8ae7b1372d39070b13,null,null,"<p style=""font-size: 60px; font-family: BACS"">mrOdmvG</p>",,,,,,,,,,
html-keyboard-response,431,1138500,0.0-18.0-0.18,64764d56699f097a96ec6e5c,650c16f0f2faf8d7a0d14c09,651c1c8ae7b1372d39070b13,null,null,"<p style=""font-size: 60px; font-family: BACS"">ctktCMdP</p>",,,,,,,,,,
html-keyboard-response,432,1139503,0.0-18.0-0.19,64764d56699f097a96ec6e5c,650c16f0f2faf8d7a0d14c09,651c1c8ae7b1372d39070b13,null,null,"<p style=""font-size: 60px; font-family: BACS"">kKEdMDbMR</p>",,,,,,,,,,
html-keyboard-response,433,1140506,0.0-18.0-0.20,64764d56699f097a96ec6e5c,650c16f0f2faf8d7a0d14c09,651c1c8ae7b1372d39070b13,null,null,"<p style=""font-size: 60px; font-family: BACS"">YOZNmvG</p>",,,,,,,,,,
html-keyboard-response,434,1141508,0.0-18.0-0.21,64764d56699f097a96ec6e5c,650c16f0f2faf8d7a0d14c09,651c1c8ae7b1372d39070b13,null,null,"<p style=""font-size: 60px; font-family: BACS"">YdudvUdm</p>",,,,,,,,,,
html-keyboard-response,435,1142511,0.0-18.0-0.22,64764d56699f097a96ec6e5c,650c16f0f2faf8d7a0d14c09,651c1c8ae7b1372d39070b13,null,null,"<p style=""font-size: 60px; font-family: BACS"">bmdABKmE</p>",,,,,,,,,,
html-keyboard-response,436,1143513,0.0-18.0-0.23,64764d56699f097a96ec6e5c,650c16f0f2faf8d7a0d14c09,651c1c8ae7b1372d39070b13,null,null,"<p style=""font-size: 60px; font-family: BACS"">UmNJvUdm</p>",,,,,,,,,,
html-keyboard-response,437,1144516,0.0-18.0-0.24,64764d56699f097a96ec6e5c,650c16f0f2faf8d7a0d14c09,651c1c8ae7b1372d39070b13,null,null,"<p style=""font-size: 60px; font-family: BACS"">vkYGlLaA</p>",,,,,,,,,,
html-keyboard-response,438,1145518,0.0-18.0-0.25,64764d56699f097a96ec6e5c,650c16f0f2faf8d7a0d14c09,651c1c8ae7b1372d39070b13,null,null,"<p style=""font-size: 60px; font-family: BACS"">khmhRCdc</p>",,,,,,,,,,
html-keyboard-response,439,1146521,0.0-18.0-0.26,64764d56699f097a96ec6e5c,650c16f0f2faf8d7a0d14c09,651c1c8ae7b1372d39070b13,null,null,"<p style=""font-size: 60px; font-family: BACS"">vkYGlvUdm</p>",,,,,,,,,,
html-keyboard-response,440,1147524,0.0-18.0-0.27,64764d56699f097a96ec6e5c,650c16f0f2faf8d7a0d14c09,651c1c8ae7b1372d39070b13,null,null,"<p style=""font-size: 60px; font-family: BACS"">kabJbark</p>",,,,,,,,,,
html-keyboard-response,441,1148526,0.0-18.0-0.28,64764d56699f097a96ec6e5c,650c16f0f2faf8d7a0d14c09,651c1c8ae7b1372d39070b13,null,null,"<p style=""font-size: 60px; font-family: BACS"">bmdABPMYm</p>",,,,,,,,,,
html-keyboard-response,442,1149529,0.0-18.0-0.29,64764d56699f097a96ec6e5c,650c16f0f2faf8d7a0d14c09,651c1c8ae7b1372d39070b13,null,null,"<p style=""font-size: 60px; font-family: BACS"">kabJbmvG</p>",,,,,,,,,,
html-keyboard-response,443,1150531,0.0-18.0-0.30,64764d56699f097a96ec6e5c,650c16f0f2faf8d7a0d14c09,651c1c8ae7b1372d39070b13,null,null,"<p style=""font-size: 60px; font-family: BACS"">bdUNuLaA</p>",,,,,,,,,,
html-keyboard-response,444,1151534,0.0-18.0-0.31,64764d56699f097a96ec6e5c,650c16f0f2faf8d7a0d14c09,651c1c8ae7b1372d39070b13,null,null,"<p style=""font-size: 60px; font-family: BACS"">mhtcRCdc</p>",,,,,,,,,,
html-keyboard-response,445,1152536,0.0-18.0-0.32,64764d56699f097a96ec6e5c,650c16f0f2faf8d7a0d14c09,651c1c8ae7b1372d39070b13,null,null,"<p style=""font-size: 60px; font-family: BACS"">CDEmYKmE</p>",,,,,,,,,,
html-keyboard-response,446,1153539,0.0-18.0-0.33,64764d56699f097a96ec6e5c,650c16f0f2faf8d7a0d14c09,651c1c8ae7b1372d39070b13,null,null,"<p style=""font-size: 60px; font-family: BACS"">mhtcCMdP</p>",,,,,,,,,,
html-keyboard-response,447,1154542,0.0-18.0-0.34,64764d56699f097a96ec6e5c,650c16f0f2faf8d7a0d14c09,651c1c8ae7b1372d39070b13,null,null,"<p style=""font-size: 60px; font-family: BACS"">LvuOGkJdr</p>",,,,,,,,,,
html-keyboard-response,448,1155544,0.0-18.0-0.35,64764d56699f097a96ec6e5c,650c16f0f2faf8d7a0d14c09,651c1c8ae7b1372d39070b13,null,null,"<p style=""font-size: 60px; font-family: BACS"">DdckCMdP</p>",,,,,,,,,,
html-keyboard-response,449,1156546,0.0-18.0-0.36,64764d56699f097a96ec6e5c,650c16f0f2faf8d7a0d14c09,651c1c8ae7b1372d39070b13,null,null,"<p style=""font-size: 60px; font-family: BACS"">bmdABRCdc</p>",,,,,,,,,,
html-keyboard-response,450,1157549,0.0-18.0-0.37,64764d56699f097a96ec6e5c,650c16f0f2faf8d7a0d14c09,651c1c8ae7b1372d39070b13,null,null,"<p style=""font-size: 60px; font-family: BACS"">LvuOGvUdm</p>",,,,,,,,,,
html-keyboard-response,451,1158551,0.0-18.0-0.38,64764d56699f097a96ec6e5c,650c16f0f2faf8d7a0d14c09,651c1c8ae7b1372d39070b13,null,null,"<p style=""font-size: 60px; font-family: BACS"">UmNJark</p>",,,,,,,,,,
html-keyboard-response,452,1159554,0.0-18.0-0.39,64764d56699f097a96ec6e5c,650c16f0f2faf8d7a0d14c09,651c1c8ae7b1372d39070b13,null,null,"<p style=""font-size: 60px; font-family: BACS"">bdUNukJdr</p>",,,,,,,,,,
html-keyboard-response,453,1160555,0.0-18.0-0.40,64764d56699f097a96ec6e5c,650c16f0f2faf8d7a0d14c09,651c1c8ae7b1372d39070b13,null,null,"<p style=""font-size: 60px; font-family: BACS"">LvuOGark</p>",,,,,,,,,,
html-keyboard-response,454,1161558,0.0-18.0-0.41,64764d56699f097a96ec6e5c,650c16f0f2faf8d7a0d14c09,651c1c8ae7b1372d39070b13,null,null,"<p style=""font-size: 60px; font-family: BACS"">khmhDbMR</p>",,,,,,,,,,
html-keyboard-response,455,1162561,0.0-18.0-0.42,64764d56699f097a96ec6e5c,650c16f0f2faf8d7a0d14c09,651c1c8ae7b1372d39070b13,null,null,"<p style=""font-size: 60px; font-family: BACS"">hTtBbPMYm</p>",,,,,,,,,,
html-keyboard-response,456,1163563,0.0-18.0-0.43,64764d56699f097a96ec6e5c,650c16f0f2faf8d7a0d14c09,651c1c8ae7b1372d39070b13,null,null,"<p style=""font-size: 60px; font-family: BACS"">YdudLaA</p>",,,,,,,,,,
html-keyboard-response,457,1164565,0.0-18.0-0.44,64764d56699f097a96ec6e5c,650c16f0f2faf8d7a0d14c09,651c1c8ae7b1372d39070b13,null,null,"<p style=""font-size: 60px; font-family: BACS"">kCRmCMdP</p>",,,,,,,,,,
html-keyboard-response,458,1165568,0.0-18.0-0.45,64764d56699f097a96ec6e5c,650c16f0f2faf8d7a0d14c09,651c1c8ae7b1372d39070b13,null,null,"<p style=""font-size: 60px; font-family: BACS"">bdUNuark</p>",,,,,,,,,,
html-keyboard-response,459,1166570,0.0-18.0-0.46,64764d56699f097a96ec6e5c,650c16f0f2faf8d7a0d14c09,651c1c8ae7b1372d39070b13,null,null,"<p style=""font-size: 60px; font-family: BACS"">khmhKmE</p>",,,,,,,,,,
html-keyboard-response,460,1167573,0.0-18.0-0.47,64764d56699f097a96ec6e5c,650c16f0f2faf8d7a0d14c09,651c1c8ae7b1372d39070b13,null,null,"<p style=""font-size: 60px; font-family: BACS"">kKEdMCMdP</p>",,,,,,,,,,
html-keyboard-response,461,1168575,0.0-18.0-0.48,64764d56699f097a96ec6e5c,650c16f0f2faf8d7a0d14c09,651c1c8ae7b1372d39070b13,null,null,"<p style=""font-size: 60px; font-family: BACS"">kCRmPMYm</p>",,,,,,,,,,
html-keyboard-response,462,1169578,0.0-18.0-0.49,64764d56699f097a96ec6e5c,650c16f0f2faf8d7a0d14c09,651c1c8ae7b1372d39070b13,null,null,"<p style=""font-size: 60px; font-family: BACS"">DdckKmE</p>",,,,,,,,,,
html-keyboard-response,463,1170580,0.0-18.0-0.50,64764d56699f097a96ec6e5c,650c16f0f2faf8d7a0d14c09,651c1c8ae7b1372d39070b13,null,null,"<p style=""font-size: 60px; font-family: BACS"">hlctEDbMR</p>",,,,,,,,,,
html-keyboard-response,464,1171583,0.0-18.0-0.51,64764d56699f097a96ec6e5c,650c16f0f2faf8d7a0d14c09,651c1c8ae7b1372d39070b13,null,null,"<p style=""font-size: 60px; font-family: BACS"">CDEmYRCdc</p>",,,,,,,,,,
html-keyboard-response,465,1172586,0.0-18.0-0.52,64764d56699f097a96ec6e5c,650c16f0f2faf8d7a0d14c09,651c1c8ae7b1372d39070b13,null,null,"<p style=""font-size: 60px; font-family: BACS"">ctktPMYm</p>",,,,,,,,,,
