"trial_type","trial_index","time_elapsed","internal_node_id","subject_id","study_id","session_id","rt","response","stimulus","success","item","task","correct_response","testing_condition","correct","target","confound","name"
"pavlovia","0","965","0.0-0.0","5f19fa0f3e85b20d0336258c","650c16f0f2faf8d7a0d14c09","651c0ad947f72aaa4e9ec00b","","","","","","","","","","","",""
"survey-html-form","1","15322","0.0-1.0","5f19fa0f3e85b20d0336258c","650c16f0f2faf8d7a0d14c09","651c0ad947f72aaa4e9ec00b","14354","{""ID"":""5f19fa0f3e85b20d0336258c""}","","","","","","","","","",""
"html-keyboard-response","2","28943","0.0-2.0","5f19fa0f3e85b20d0336258c","650c16f0f2faf8d7a0d14c09","651c0ad947f72aaa4e9ec00b","13618"," ","<p style=""font-size: 15px;"">Before beginning, we ask that you read the consent information and confirm your agreement to participate in the experiment.</p>
      <p style=""font-size: 15px;""> We ask that you remember that this is a research project and that your participation is entirely voluntary. You can stop your participation at any time, without needing to provide any explanation. The study we're asking you to participate in aims at examining how readers process written words. You will be engaged in a session of apprximately 20 minutes, followed by a brief questionnaire. You will have the opportunity to take a few breaks during the experiment. You will be paid £4 for your participation, corresponding to a rate of £8/hour. While this experiment looks at cognitive faculties, this experiment doesn't constitute clinical proof of eventual pathologies.</p>
      <p style=""font-size: 15px;"">All of the information collected thanks to yours and others' participation will be held in a secure password-protected server, and will not be shared with anyone not authorised to view it. Your personal information will be kept with an arbitrary participant ID. Thanks to this data anonymity process, any researcher analysing the data won't be able to track the information back to a specific participant. Therefore, this process will make identifying you impossibile, even when results from the study will be published in scientific reviews, presented at congresses, or at any other public forum. More generally, the collected data will be treated in accordance with the laws on privacy and conformity to the Legislative Degree n. 196 ""Code regarding the protection of personal data"" of the 30th of June 2003 and to the European Regulation 2016/670 (General Data Protection Regulation - GDPR). The Data Protection Officer is Avv. Valentina Carollo, who can be contacted at the following email addresses: <a href=""mailto:dpo@sissa.it"">dpo@sissa.it</a> or <a href=""mailto:rpd@sissa.it"">rpd@sissa.it</a> - PEC: <a href=""mailto:protocollo@pec.sissa.it"">protocollo@pec.sissa.it</a>.</p>
      <p style=""font-size: 15px;""> Before expressing your consent to participate, we would like to remind you again that in case you need explanations on any aspect of the experimental procedure, the researcher is at your disposition (<a href=""mailto:aliebelt@sissa.it"">aliebelt@sissa.it</a>, <a href=""mailto:davide.crepaldi@sissa.it"">davide.crepaldi@sissa.it</a>).</p>
      <p style=""font-size: 15px;"">If you would like to download the informed consent form, you can do so here: <a href=""BASL-Informed_Consent.pdf"" download>informed consent form</a>.</p>
      <p style=""font-size: 15px;"">We ask that you press the spacebar to proceed to the consent section.</p>","","","","","","","","",""
"survey-html-form","3","40324","0.0-3.0","5f19fa0f3e85b20d0336258c","650c16f0f2faf8d7a0d14c09","651c0ad947f72aaa4e9ec00b","11377","{""consent1"":""YES"",""consent2"":""YES"",""consent3"":""YES"",""consent4"":""YES"",""consent5"":""YES"",""consent6"":""YES""}","","","","","","","","","",""
"fullscreen","4","47171","0.0-4.0","5f19fa0f3e85b20d0336258c","650c16f0f2faf8d7a0d14c09","651c0ad947f72aaa4e9ec00b","","","","true","","","","","","","",""
"html-keyboard-response","5","49161","0.0-5.0","5f19fa0f3e85b20d0336258c","650c16f0f2faf8d7a0d14c09","651c0ad947f72aaa4e9ec00b","1988"," ","<p>Welcome, and thank you very much for your time!</p>
      <p>In this experiment, you'll be a language expert who's been asked to take a look at words that Earth has received in its first communication with aliens. Your task, in this first part of the experiment, is to pay close attention to the words you'll be shown; later, world leaders will ask you questions on what you saw. The words will be shown to you quite quickly; it seems that the aliens were in a hurry :-)</p>
      <p>Press the spacebar to continue.<p>","","","","","","","","",""
"html-keyboard-response","6","49215","0.0-6.0","5f19fa0f3e85b20d0336258c","650c16f0f2faf8d7a0d14c09","651c0ad947f72aaa4e9ec00b","null","null","<p style=""font-size: 120px; font-family: BACS""> </p>","","","","","","","","",""
"html-keyboard-response","7","54974","0.0-7.0","5f19fa0f3e85b20d0336258c","650c16f0f2faf8d7a0d14c09","651c0ad947f72aaa4e9ec00b","5758"," ","<p>Here is an example of the words you'll see:</p>
      <img src='esempio.png' height='400px'>
      <p>When you're ready to begin, press the spacebar.</p></div>","","","","","","","","",""
"html-keyboard-response","8","55990","0.0-8.0-0.0","5f19fa0f3e85b20d0336258c","650c16f0f2faf8d7a0d14c09","651c0ad947f72aaa4e9ec00b","null","null","<p style=""font-size: 60px; font-family: BACS"">EdBbYBO</p>","","","","","","","","",""
"html-keyboard-response","9","56993","0.0-8.0-0.1","5f19fa0f3e85b20d0336258c","650c16f0f2faf8d7a0d14c09","651c0ad947f72aaa4e9ec00b","null","null","<p style=""font-size: 60px; font-family: BACS"">EMYKTmTm</p>","","","","","","","","",""
"html-keyboard-response","10","58004","0.0-8.0-0.2","5f19fa0f3e85b20d0336258c","650c16f0f2faf8d7a0d14c09","651c0ad947f72aaa4e9ec00b","null","null","<p style=""font-size: 60px; font-family: BACS"">PCPDhYBO</p>","","","","","","","","",""
"html-keyboard-response","11","59014","0.0-8.0-0.3","5f19fa0f3e85b20d0336258c","650c16f0f2faf8d7a0d14c09","651c0ad947f72aaa4e9ec00b","null","null","<p style=""font-size: 60px; font-family: BACS"">LuNZdYAJ</p>","","","","","","","","",""
"html-keyboard-response","12","60026","0.0-8.0-0.4","5f19fa0f3e85b20d0336258c","650c16f0f2faf8d7a0d14c09","651c0ad947f72aaa4e9ec00b","null","null","<p style=""font-size: 60px; font-family: BACS"">DBlhYKPB</p>","","","","","","","","",""
"html-keyboard-response","13","61032","0.0-8.0-0.5","5f19fa0f3e85b20d0336258c","650c16f0f2faf8d7a0d14c09","651c0ad947f72aaa4e9ec00b","null","null","<p style=""font-size: 60px; font-family: BACS"">htmhCmtKP</p>","","","","","","","","",""
"html-keyboard-response","14","62049","0.0-8.0-0.6","5f19fa0f3e85b20d0336258c","650c16f0f2faf8d7a0d14c09","651c0ad947f72aaa4e9ec00b","null","null","<p style=""font-size: 60px; font-family: BACS"">rLkmcbm</p>","","","","","","","","",""
"html-keyboard-response","15","63064","0.0-8.0-0.7","5f19fa0f3e85b20d0336258c","650c16f0f2faf8d7a0d14c09","651c0ad947f72aaa4e9ec00b","null","null","<p style=""font-size: 60px; font-family: BACS"">PMPtkTmTm</p>","","","","","","","","",""
"html-keyboard-response","16","64082","0.0-8.0-0.8","5f19fa0f3e85b20d0336258c","650c16f0f2faf8d7a0d14c09","651c0ad947f72aaa4e9ec00b","null","null","<p style=""font-size: 60px; font-family: BACS"">PCPDhdTAh</p>","","","","","","","","",""
"html-keyboard-response","17","65084","0.0-8.0-0.9","5f19fa0f3e85b20d0336258c","650c16f0f2faf8d7a0d14c09","651c0ad947f72aaa4e9ec00b","null","null","<p style=""font-size: 60px; font-family: BACS"">JAdLmAld</p>","","","","","","","","",""
"html-keyboard-response","18","66086","0.0-8.0-0.10","5f19fa0f3e85b20d0336258c","650c16f0f2faf8d7a0d14c09","651c0ad947f72aaa4e9ec00b","null","null","<p style=""font-size: 60px; font-family: BACS"">vYLUaQr</p>","","","","","","","","",""
"html-keyboard-response","19","67102","0.0-8.0-0.11","5f19fa0f3e85b20d0336258c","650c16f0f2faf8d7a0d14c09","651c0ad947f72aaa4e9ec00b","null","null","<p style=""font-size: 60px; font-family: BACS"">JauQdYAJ</p>","","","","","","","","",""
"html-keyboard-response","20","68103","0.0-8.0-0.12","5f19fa0f3e85b20d0336258c","650c16f0f2faf8d7a0d14c09","651c0ad947f72aaa4e9ec00b","null","null","<p style=""font-size: 60px; font-family: BACS"">PMPtkmtKP</p>","","","","","","","","",""
"html-keyboard-response","21","69111","0.0-8.0-0.13","5f19fa0f3e85b20d0336258c","650c16f0f2faf8d7a0d14c09","651c0ad947f72aaa4e9ec00b","null","null","<p style=""font-size: 60px; font-family: BACS"">UJmrdYAJ</p>","","","","","","","","",""
"html-keyboard-response","22","70123","0.0-8.0-0.14","5f19fa0f3e85b20d0336258c","650c16f0f2faf8d7a0d14c09","651c0ad947f72aaa4e9ec00b","null","null","<p style=""font-size: 60px; font-family: BACS"">DOchldTAh</p>","","","","","","","","",""
"html-keyboard-response","23","71125","0.0-8.0-0.15","5f19fa0f3e85b20d0336258c","650c16f0f2faf8d7a0d14c09","651c0ad947f72aaa4e9ec00b","null","null","<p style=""font-size: 60px; font-family: BACS"">JAdLmaQr</p>","","","","","","","","",""
"html-keyboard-response","24","72130","0.0-8.0-0.16","5f19fa0f3e85b20d0336258c","650c16f0f2faf8d7a0d14c09","651c0ad947f72aaa4e9ec00b","null","null","<p style=""font-size: 60px; font-family: BACS"">bROCmtKP</p>","","","","","","","","",""
"html-keyboard-response","25","73142","0.0-8.0-0.17","5f19fa0f3e85b20d0336258c","650c16f0f2faf8d7a0d14c09","651c0ad947f72aaa4e9ec00b","null","null","<p style=""font-size: 60px; font-family: BACS"">vAuNlcbm</p>","","","","","","","","",""
"html-keyboard-response","26","74159","0.0-8.0-0.18","5f19fa0f3e85b20d0336258c","650c16f0f2faf8d7a0d14c09","651c0ad947f72aaa4e9ec00b","null","null","<p style=""font-size: 60px; font-family: BACS"">rLkmaQr</p>","","","","","","","","",""
"html-keyboard-response","27","75161","0.0-8.0-0.19","5f19fa0f3e85b20d0336258c","650c16f0f2faf8d7a0d14c09","651c0ad947f72aaa4e9ec00b","null","null","<p style=""font-size: 60px; font-family: BACS"">aOLZUuda</p>","","","","","","","","",""
"html-keyboard-response","28","76164","0.0-8.0-0.20","5f19fa0f3e85b20d0336258c","650c16f0f2faf8d7a0d14c09","651c0ad947f72aaa4e9ec00b","null","null","<p style=""font-size: 60px; font-family: BACS"">EdBbYKPB</p>","","","","","","","","",""
"html-keyboard-response","29","77178","0.0-8.0-0.21","5f19fa0f3e85b20d0336258c","650c16f0f2faf8d7a0d14c09","651c0ad947f72aaa4e9ec00b","null","null","<p style=""font-size: 60px; font-family: BACS"">UJmrcbm</p>","","","","","","","","",""
"html-keyboard-response","30","78183","0.0-8.0-0.22","5f19fa0f3e85b20d0336258c","650c16f0f2faf8d7a0d14c09","651c0ad947f72aaa4e9ec00b","null","null","<p style=""font-size: 60px; font-family: BACS"">ctktmtKP</p>","","","","","","","","",""
"html-keyboard-response","31","79186","0.0-8.0-0.23","5f19fa0f3e85b20d0336258c","650c16f0f2faf8d7a0d14c09","651c0ad947f72aaa4e9ec00b","null","null","<p style=""font-size: 60px; font-family: BACS"">JauQuda</p>","","","","","","","","",""
"html-keyboard-response","32","80202","0.0-8.0-0.24","5f19fa0f3e85b20d0336258c","650c16f0f2faf8d7a0d14c09","651c0ad947f72aaa4e9ec00b","null","null","<p style=""font-size: 60px; font-family: BACS"">bROCTmTm</p>","","","","","","","","",""
"html-keyboard-response","33","81217","0.0-8.0-0.25","5f19fa0f3e85b20d0336258c","650c16f0f2faf8d7a0d14c09","651c0ad947f72aaa4e9ec00b","null","null","<p style=""font-size: 60px; font-family: BACS"">mUOcOAld</p>","","","","","","","","",""
"html-keyboard-response","34","82233","0.0-8.0-0.26","5f19fa0f3e85b20d0336258c","650c16f0f2faf8d7a0d14c09","651c0ad947f72aaa4e9ec00b","null","null","<p style=""font-size: 60px; font-family: BACS"">PMPtkYBO</p>","","","","","","","","",""
"html-keyboard-response","35","83241","0.0-8.0-0.27","5f19fa0f3e85b20d0336258c","650c16f0f2faf8d7a0d14c09","651c0ad947f72aaa4e9ec00b","null","null","<p style=""font-size: 60px; font-family: BACS"">DOchlmtKP</p>","","","","","","","","",""
"html-keyboard-response","36","84256","0.0-8.0-0.28","5f19fa0f3e85b20d0336258c","650c16f0f2faf8d7a0d14c09","651c0ad947f72aaa4e9ec00b","null","null","<p style=""font-size: 60px; font-family: BACS"">htmhCYKPB</p>","","","","","","","","",""
"html-keyboard-response","37","85263","0.0-8.0-0.29","5f19fa0f3e85b20d0336258c","650c16f0f2faf8d7a0d14c09","651c0ad947f72aaa4e9ec00b","null","null","<p style=""font-size: 60px; font-family: BACS"">DBlhTmTm</p>","","","","","","","","",""
"html-keyboard-response","38","86279","0.0-8.0-0.30","5f19fa0f3e85b20d0336258c","650c16f0f2faf8d7a0d14c09","651c0ad947f72aaa4e9ec00b","null","null","<p style=""font-size: 60px; font-family: BACS"">ZcGdNAld</p>","","","","","","","","",""
"html-keyboard-response","39","87282","0.0-8.0-0.31","5f19fa0f3e85b20d0336258c","650c16f0f2faf8d7a0d14c09","651c0ad947f72aaa4e9ec00b","null","null","<p style=""font-size: 60px; font-family: BACS"">EMYKdTAh</p>","","","","","","","","",""
"html-keyboard-response","40","88292","0.0-8.0-0.32","5f19fa0f3e85b20d0336258c","650c16f0f2faf8d7a0d14c09","651c0ad947f72aaa4e9ec00b","null","null","<p style=""font-size: 60px; font-family: BACS"">ZcGdNdYAJ</p>","","","","","","","","",""
"html-keyboard-response","41","89293","0.0-8.0-0.33","5f19fa0f3e85b20d0336258c","650c16f0f2faf8d7a0d14c09","651c0ad947f72aaa4e9ec00b","null","null","<p style=""font-size: 60px; font-family: BACS"">aOLZUaQr</p>","","","","","","","","",""
"html-keyboard-response","42","90301","0.0-8.0-0.34","5f19fa0f3e85b20d0336258c","650c16f0f2faf8d7a0d14c09","651c0ad947f72aaa4e9ec00b","null","null","<p style=""font-size: 60px; font-family: BACS"">LuNZuda</p>","","","","","","","","",""
"html-keyboard-response","43","91312","0.0-8.0-0.35","5f19fa0f3e85b20d0336258c","650c16f0f2faf8d7a0d14c09","651c0ad947f72aaa4e9ec00b","null","null","<p style=""font-size: 60px; font-family: BACS"">ctktYBO</p>","","","","","","","","",""
"html-keyboard-response","44","92320","0.0-8.0-0.36","5f19fa0f3e85b20d0336258c","650c16f0f2faf8d7a0d14c09","651c0ad947f72aaa4e9ec00b","null","null","<p style=""font-size: 60px; font-family: BACS"">EPMDkdTAh</p>","","","","","","","","",""
"html-keyboard-response","45","93331","0.0-8.0-0.37","5f19fa0f3e85b20d0336258c","650c16f0f2faf8d7a0d14c09","651c0ad947f72aaa4e9ec00b","null","null","<p style=""font-size: 60px; font-family: BACS"">UJmrAld</p>","","","","","","","","",""
"html-keyboard-response","46","94333","0.0-8.0-0.38","5f19fa0f3e85b20d0336258c","650c16f0f2faf8d7a0d14c09","651c0ad947f72aaa4e9ec00b","null","null","<p style=""font-size: 60px; font-family: BACS"">ZcGdNuda</p>","","","","","","","","",""
"html-keyboard-response","47","95350","0.0-8.0-0.39","5f19fa0f3e85b20d0336258c","650c16f0f2faf8d7a0d14c09","651c0ad947f72aaa4e9ec00b","null","null","<p style=""font-size: 60px; font-family: BACS"">DBlhdTAh</p>","","","","","","","","",""
"html-keyboard-response","48","96353","0.0-8.0-0.40","5f19fa0f3e85b20d0336258c","650c16f0f2faf8d7a0d14c09","651c0ad947f72aaa4e9ec00b","null","null","<p style=""font-size: 60px; font-family: BACS"">EPMDkYKPB</p>","","","","","","","","",""
"html-keyboard-response","49","97368","0.0-8.0-0.41","5f19fa0f3e85b20d0336258c","650c16f0f2faf8d7a0d14c09","651c0ad947f72aaa4e9ec00b","null","null","<p style=""font-size: 60px; font-family: BACS"">JAdLmdYAJ</p>","","","","","","","","",""
"html-keyboard-response","50","98371","0.0-8.0-0.42","5f19fa0f3e85b20d0336258c","650c16f0f2faf8d7a0d14c09","651c0ad947f72aaa4e9ec00b","null","null","<p style=""font-size: 60px; font-family: BACS"">EdBbdTAh</p>","","","","","","","","",""
"html-keyboard-response","51","99374","0.0-8.0-0.43","5f19fa0f3e85b20d0336258c","650c16f0f2faf8d7a0d14c09","651c0ad947f72aaa4e9ec00b","null","null","<p style=""font-size: 60px; font-family: BACS"">PCPDhmtKP</p>","","","","","","","","",""
"html-keyboard-response","52","100381","0.0-8.0-0.44","5f19fa0f3e85b20d0336258c","650c16f0f2faf8d7a0d14c09","651c0ad947f72aaa4e9ec00b","null","null","<p style=""font-size: 60px; font-family: BACS"">mUOcOuda</p>","","","","","","","","",""
"html-keyboard-response","53","101387","0.0-8.0-0.45","5f19fa0f3e85b20d0336258c","650c16f0f2faf8d7a0d14c09","651c0ad947f72aaa4e9ec00b","null","null","<p style=""font-size: 60px; font-family: BACS"">EMYKYKPB</p>","","","","","","","","",""
"html-keyboard-response","54","102388","0.0-8.0-0.46","5f19fa0f3e85b20d0336258c","650c16f0f2faf8d7a0d14c09","651c0ad947f72aaa4e9ec00b","null","null","<p style=""font-size: 60px; font-family: BACS"">mUOcOdYAJ</p>","","","","","","","","",""
"html-keyboard-response","55","103390","0.0-8.0-0.47","5f19fa0f3e85b20d0336258c","650c16f0f2faf8d7a0d14c09","651c0ad947f72aaa4e9ec00b","null","null","<p style=""font-size: 60px; font-family: BACS"">JAdLmcbm</p>","","","","","","","","",""
"html-keyboard-response","56","104391","0.0-8.0-0.48","5f19fa0f3e85b20d0336258c","650c16f0f2faf8d7a0d14c09","651c0ad947f72aaa4e9ec00b","null","null","<p style=""font-size: 60px; font-family: BACS"">DBlhYBO</p>","","","","","","","","",""
"html-keyboard-response","57","105393","0.0-8.0-0.49","5f19fa0f3e85b20d0336258c","650c16f0f2faf8d7a0d14c09","651c0ad947f72aaa4e9ec00b","null","null","<p style=""font-size: 60px; font-family: BACS"">UJmraQr</p>","","","","","","","","",""
"html-keyboard-response","58","106395","0.0-8.0-0.50","5f19fa0f3e85b20d0336258c","650c16f0f2faf8d7a0d14c09","651c0ad947f72aaa4e9ec00b","null","null","<p style=""font-size: 60px; font-family: BACS"">rLkmAld</p>","","","","","","","","",""
"html-keyboard-response","59","107409","0.0-8.0-0.51","5f19fa0f3e85b20d0336258c","650c16f0f2faf8d7a0d14c09","651c0ad947f72aaa4e9ec00b","null","null","<p style=""font-size: 60px; font-family: BACS"">htmhCTmTm</p>","","","","","","","","",""
"html-keyboard-response","60","108414","0.0-8.0-0.52","5f19fa0f3e85b20d0336258c","650c16f0f2faf8d7a0d14c09","651c0ad947f72aaa4e9ec00b","null","null","<p style=""font-size: 60px; font-family: BACS"">rLkmuda</p>","","","","","","","","",""
"html-keyboard-response","61","109430","0.0-8.0-0.53","5f19fa0f3e85b20d0336258c","650c16f0f2faf8d7a0d14c09","651c0ad947f72aaa4e9ec00b","null","null","<p style=""font-size: 60px; font-family: BACS"">EPMDkmtKP</p>","","","","","","","","",""
"html-keyboard-response","62","110437","0.0-8.0-0.54","5f19fa0f3e85b20d0336258c","650c16f0f2faf8d7a0d14c09","651c0ad947f72aaa4e9ec00b","null","null","<p style=""font-size: 60px; font-family: BACS"">bROCYKPB</p>","","","","","","","","",""
"html-keyboard-response","63","111450","0.0-8.0-0.55","5f19fa0f3e85b20d0336258c","650c16f0f2faf8d7a0d14c09","651c0ad947f72aaa4e9ec00b","null","null","<p style=""font-size: 60px; font-family: BACS"">PCPDhTmTm</p>","","","","","","","","",""
"html-keyboard-response","64","112466","0.0-8.0-0.56","5f19fa0f3e85b20d0336258c","650c16f0f2faf8d7a0d14c09","651c0ad947f72aaa4e9ec00b","null","null","<p style=""font-size: 60px; font-family: BACS"">ctktdTAh</p>","","","","","","","","",""
"html-keyboard-response","65","113469","0.0-8.0-0.57","5f19fa0f3e85b20d0336258c","650c16f0f2faf8d7a0d14c09","651c0ad947f72aaa4e9ec00b","null","null","<p style=""font-size: 60px; font-family: BACS"">vAuNluda</p>","","","","","","","","",""
"html-keyboard-response","66","114486","0.0-8.0-0.58","5f19fa0f3e85b20d0336258c","650c16f0f2faf8d7a0d14c09","651c0ad947f72aaa4e9ec00b","null","null","<p style=""font-size: 60px; font-family: BACS"">mUOcOaQr</p>","","","","","","","","",""
"html-keyboard-response","67","115488","0.0-8.0-0.59","5f19fa0f3e85b20d0336258c","650c16f0f2faf8d7a0d14c09","651c0ad947f72aaa4e9ec00b","null","null","<p style=""font-size: 60px; font-family: BACS"">aOLZUcbm</p>","","","","","","","","",""
"html-keyboard-response","68","116489","0.0-8.0-0.60","5f19fa0f3e85b20d0336258c","650c16f0f2faf8d7a0d14c09","651c0ad947f72aaa4e9ec00b","null","null","<p style=""font-size: 60px; font-family: BACS"">vAuNldYAJ</p>","","","","","","","","",""
"html-keyboard-response","69","117506","0.0-8.0-0.61","5f19fa0f3e85b20d0336258c","650c16f0f2faf8d7a0d14c09","651c0ad947f72aaa4e9ec00b","null","null","<p style=""font-size: 60px; font-family: BACS"">LuNZAld</p>","","","","","","","","",""
"html-keyboard-response","70","118508","0.0-8.0-0.62","5f19fa0f3e85b20d0336258c","650c16f0f2faf8d7a0d14c09","651c0ad947f72aaa4e9ec00b","null","null","<p style=""font-size: 60px; font-family: BACS"">DOchlTmTm</p>","","","","","","","","",""
"html-keyboard-response","71","119523","0.0-8.0-0.63","5f19fa0f3e85b20d0336258c","650c16f0f2faf8d7a0d14c09","651c0ad947f72aaa4e9ec00b","null","null","<p style=""font-size: 60px; font-family: BACS"">vYLUcbm</p>","","","","","","","","",""
"html-keyboard-response","72","120526","0.0-8.0-0.64","5f19fa0f3e85b20d0336258c","650c16f0f2faf8d7a0d14c09","651c0ad947f72aaa4e9ec00b","null","null","<p style=""font-size: 60px; font-family: BACS"">EdBbmtKP</p>","","","","","","","","",""
"html-keyboard-response","73","121543","0.0-8.0-0.65","5f19fa0f3e85b20d0336258c","650c16f0f2faf8d7a0d14c09","651c0ad947f72aaa4e9ec00b","null","null","<p style=""font-size: 60px; font-family: BACS"">JauQAld</p>","","","","","","","","",""
"html-keyboard-response","74","122545","0.0-8.0-0.66","5f19fa0f3e85b20d0336258c","650c16f0f2faf8d7a0d14c09","651c0ad947f72aaa4e9ec00b","null","null","<p style=""font-size: 60px; font-family: BACS"">ZcGdNaQr</p>","","","","","","","","",""
"html-keyboard-response","75","123561","0.0-8.0-0.67","5f19fa0f3e85b20d0336258c","650c16f0f2faf8d7a0d14c09","651c0ad947f72aaa4e9ec00b","null","null","<p style=""font-size: 60px; font-family: BACS"">LuNZcbm</p>","","","","","","","","",""
"html-keyboard-response","76","124564","0.0-8.0-0.68","5f19fa0f3e85b20d0336258c","650c16f0f2faf8d7a0d14c09","651c0ad947f72aaa4e9ec00b","null","null","<p style=""font-size: 60px; font-family: BACS"">EPMDkYBO</p>","","","","","","","","",""
"html-keyboard-response","77","125567","0.0-8.0-0.69","5f19fa0f3e85b20d0336258c","650c16f0f2faf8d7a0d14c09","651c0ad947f72aaa4e9ec00b","null","null","<p style=""font-size: 60px; font-family: BACS"">ctktTmTm</p>","","","","","","","","",""
"html-keyboard-response","78","126582","0.0-8.0-0.70","5f19fa0f3e85b20d0336258c","650c16f0f2faf8d7a0d14c09","651c0ad947f72aaa4e9ec00b","null","null","<p style=""font-size: 60px; font-family: BACS"">PMPtkYKPB</p>","","","","","","","","",""
"html-keyboard-response","79","127584","0.0-8.0-0.71","5f19fa0f3e85b20d0336258c","650c16f0f2faf8d7a0d14c09","651c0ad947f72aaa4e9ec00b","null","null","<p style=""font-size: 60px; font-family: BACS"">htmhCYBO</p>","","","","","","","","",""
"html-keyboard-response","80","128585","0.0-8.0-0.72","5f19fa0f3e85b20d0336258c","650c16f0f2faf8d7a0d14c09","651c0ad947f72aaa4e9ec00b","null","null","<p style=""font-size: 60px; font-family: BACS"">bROCdTAh</p>","","","","","","","","",""
"html-keyboard-response","81","129588","0.0-8.0-0.73","5f19fa0f3e85b20d0336258c","650c16f0f2faf8d7a0d14c09","651c0ad947f72aaa4e9ec00b","null","null","<p style=""font-size: 60px; font-family: BACS"">JauQcbm</p>","","","","","","","","",""
"html-keyboard-response","82","130603","0.0-8.0-0.74","5f19fa0f3e85b20d0336258c","650c16f0f2faf8d7a0d14c09","651c0ad947f72aaa4e9ec00b","null","null","<p style=""font-size: 60px; font-family: BACS"">aOLZUAld</p>","","","","","","","","",""
"html-keyboard-response","83","131608","0.0-8.0-0.75","5f19fa0f3e85b20d0336258c","650c16f0f2faf8d7a0d14c09","651c0ad947f72aaa4e9ec00b","null","null","<p style=""font-size: 60px; font-family: BACS"">vYLUdYAJ</p>","","","","","","","","",""
"html-keyboard-response","84","132624","0.0-8.0-0.76","5f19fa0f3e85b20d0336258c","650c16f0f2faf8d7a0d14c09","651c0ad947f72aaa4e9ec00b","null","null","<p style=""font-size: 60px; font-family: BACS"">vAuNlaQr</p>","","","","","","","","",""
"html-keyboard-response","85","133641","0.0-8.0-0.77","5f19fa0f3e85b20d0336258c","650c16f0f2faf8d7a0d14c09","651c0ad947f72aaa4e9ec00b","null","null","<p style=""font-size: 60px; font-family: BACS"">vYLUuda</p>","","","","","","","","",""
"html-keyboard-response","86","134643","0.0-8.0-0.78","5f19fa0f3e85b20d0336258c","650c16f0f2faf8d7a0d14c09","651c0ad947f72aaa4e9ec00b","null","null","<p style=""font-size: 60px; font-family: BACS"">DOchlYKPB</p>","","","","","","","","",""
"html-keyboard-response","87","135659","0.0-8.0-0.79","5f19fa0f3e85b20d0336258c","650c16f0f2faf8d7a0d14c09","651c0ad947f72aaa4e9ec00b","null","null","<p style=""font-size: 60px; font-family: BACS"">EMYKYBO</p>","","","","","","","","",""
"html-keyboard-response","88","141734","0.0-9.0","5f19fa0f3e85b20d0336258c","650c16f0f2faf8d7a0d14c09","651c0ad947f72aaa4e9ec00b","6074"," ","<p>Great, you've seen the first block of words. You may now take a short break.</p>
      <p>Press the spacebar when you're ready to continue.</p>","","","","","","","","",""
"html-keyboard-response","89","142749","0.0-10.0-0.0","5f19fa0f3e85b20d0336258c","650c16f0f2faf8d7a0d14c09","651c0ad947f72aaa4e9ec00b","null","null","<p style=""font-size: 60px; font-family: BACS"">ctktmtKP</p>","","","","","","","","",""
"html-keyboard-response","90","143752","0.0-10.0-0.1","5f19fa0f3e85b20d0336258c","650c16f0f2faf8d7a0d14c09","651c0ad947f72aaa4e9ec00b","null","null","<p style=""font-size: 60px; font-family: BACS"">EPMDkYBO</p>","","","","","","","","",""
"html-keyboard-response","91","144753","0.0-10.0-0.2","5f19fa0f3e85b20d0336258c","650c16f0f2faf8d7a0d14c09","651c0ad947f72aaa4e9ec00b","null","null","<p style=""font-size: 60px; font-family: BACS"">LuNZdYAJ</p>","","","","","","","","",""
"html-keyboard-response","92","145770","0.0-10.0-0.3","5f19fa0f3e85b20d0336258c","650c16f0f2faf8d7a0d14c09","651c0ad947f72aaa4e9ec00b","null","null","<p style=""font-size: 60px; font-family: BACS"">rLkmcbm</p>","","","","","","","","",""
"html-keyboard-response","93","146771","0.0-10.0-0.4","5f19fa0f3e85b20d0336258c","650c16f0f2faf8d7a0d14c09","651c0ad947f72aaa4e9ec00b","null","null","<p style=""font-size: 60px; font-family: BACS"">aOLZUAld</p>","","","","","","","","",""
"html-keyboard-response","94","147773","0.0-10.0-0.5","5f19fa0f3e85b20d0336258c","650c16f0f2faf8d7a0d14c09","651c0ad947f72aaa4e9ec00b","null","null","<p style=""font-size: 60px; font-family: BACS"">mUOcOaQr</p>","","","","","","","","",""
"html-keyboard-response","95","148790","0.0-10.0-0.6","5f19fa0f3e85b20d0336258c","650c16f0f2faf8d7a0d14c09","651c0ad947f72aaa4e9ec00b","null","null","<p style=""font-size: 60px; font-family: BACS"">JauQcbm</p>","","","","","","","","",""
"html-keyboard-response","96","149793","0.0-10.0-0.7","5f19fa0f3e85b20d0336258c","650c16f0f2faf8d7a0d14c09","651c0ad947f72aaa4e9ec00b","null","null","<p style=""font-size: 60px; font-family: BACS"">bROCTmTm</p>","","","","","","","","",""
"html-keyboard-response","97","150807","0.0-10.0-0.8","5f19fa0f3e85b20d0336258c","650c16f0f2faf8d7a0d14c09","651c0ad947f72aaa4e9ec00b","null","null","<p style=""font-size: 60px; font-family: BACS"">UJmraQr</p>","","","","","","","","",""
"html-keyboard-response","98","151811","0.0-10.0-0.9","5f19fa0f3e85b20d0336258c","650c16f0f2faf8d7a0d14c09","651c0ad947f72aaa4e9ec00b","null","null","<p style=""font-size: 60px; font-family: BACS"">DOchlmtKP</p>","","","","","","","","",""
"html-keyboard-response","99","152828","0.0-10.0-0.10","5f19fa0f3e85b20d0336258c","650c16f0f2faf8d7a0d14c09","651c0ad947f72aaa4e9ec00b","null","null","<p style=""font-size: 60px; font-family: BACS"">ctktdTAh</p>","","","","","","","","",""
"html-keyboard-response","100","153830","0.0-10.0-0.11","5f19fa0f3e85b20d0336258c","650c16f0f2faf8d7a0d14c09","651c0ad947f72aaa4e9ec00b","null","null","<p style=""font-size: 60px; font-family: BACS"">LuNZuda</p>","","","","","","","","",""
"html-keyboard-response","101","154846","0.0-10.0-0.12","5f19fa0f3e85b20d0336258c","650c16f0f2faf8d7a0d14c09","651c0ad947f72aaa4e9ec00b","null","null","<p style=""font-size: 60px; font-family: BACS"">EPMDkYKPB</p>","","","","","","","","",""
"html-keyboard-response","102","155848","0.0-10.0-0.13","5f19fa0f3e85b20d0336258c","650c16f0f2faf8d7a0d14c09","651c0ad947f72aaa4e9ec00b","null","null","<p style=""font-size: 60px; font-family: BACS"">JauQuda</p>","","","","","","","","",""
"html-keyboard-response","103","156851","0.0-10.0-0.14","5f19fa0f3e85b20d0336258c","650c16f0f2faf8d7a0d14c09","651c0ad947f72aaa4e9ec00b","null","null","<p style=""font-size: 60px; font-family: BACS"">htmhCmtKP</p>","","","","","","","","",""
"html-keyboard-response","104","157868","0.0-10.0-0.15","5f19fa0f3e85b20d0336258c","650c16f0f2faf8d7a0d14c09","651c0ad947f72aaa4e9ec00b","null","null","<p style=""font-size: 60px; font-family: BACS"">mUOcOuda</p>","","","","","","","","",""
"html-keyboard-response","105","158885","0.0-10.0-0.16","5f19fa0f3e85b20d0336258c","650c16f0f2faf8d7a0d14c09","651c0ad947f72aaa4e9ec00b","null","null","<p style=""font-size: 60px; font-family: BACS"">EMYKTmTm</p>","","","","","","","","",""
"html-keyboard-response","106","159886","0.0-10.0-0.17","5f19fa0f3e85b20d0336258c","650c16f0f2faf8d7a0d14c09","651c0ad947f72aaa4e9ec00b","null","null","<p style=""font-size: 60px; font-family: BACS"">ZcGdNuda</p>","","","","","","","","",""
"html-keyboard-response","107","160888","0.0-10.0-0.18","5f19fa0f3e85b20d0336258c","650c16f0f2faf8d7a0d14c09","651c0ad947f72aaa4e9ec00b","null","null","<p style=""font-size: 60px; font-family: BACS"">rLkmaQr</p>","","","","","","","","",""
"html-keyboard-response","108","161903","0.0-10.0-0.19","5f19fa0f3e85b20d0336258c","650c16f0f2faf8d7a0d14c09","651c0ad947f72aaa4e9ec00b","null","null","<p style=""font-size: 60px; font-family: BACS"">aOLZUuda</p>","","","","","","","","",""
"html-keyboard-response","109","162906","0.0-10.0-0.20","5f19fa0f3e85b20d0336258c","650c16f0f2faf8d7a0d14c09","651c0ad947f72aaa4e9ec00b","null","null","<p style=""font-size: 60px; font-family: BACS"">JauQdYAJ</p>","","","","","","","","",""
"html-keyboard-response","110","163923","0.0-10.0-0.21","5f19fa0f3e85b20d0336258c","650c16f0f2faf8d7a0d14c09","651c0ad947f72aaa4e9ec00b","null","null","<p style=""font-size: 60px; font-family: BACS"">htmhCYBO</p>","","","","","","","","",""
"html-keyboard-response","111","164941","0.0-10.0-0.22","5f19fa0f3e85b20d0336258c","650c16f0f2faf8d7a0d14c09","651c0ad947f72aaa4e9ec00b","null","null","<p style=""font-size: 60px; font-family: BACS"">JAdLmAld</p>","","","","","","","","",""
"html-keyboard-response","112","165942","0.0-10.0-0.23","5f19fa0f3e85b20d0336258c","650c16f0f2faf8d7a0d14c09","651c0ad947f72aaa4e9ec00b","null","null","<p style=""font-size: 60px; font-family: BACS"">ctktYBO</p>","","","","","","","","",""
"html-keyboard-response","113","166944","0.0-10.0-0.24","5f19fa0f3e85b20d0336258c","650c16f0f2faf8d7a0d14c09","651c0ad947f72aaa4e9ec00b","null","null","<p style=""font-size: 60px; font-family: BACS"">JAdLmaQr</p>","","","","","","","","",""
"html-keyboard-response","114","167946","0.0-10.0-0.25","5f19fa0f3e85b20d0336258c","650c16f0f2faf8d7a0d14c09","651c0ad947f72aaa4e9ec00b","null","null","<p style=""font-size: 60px; font-family: BACS"">aOLZUcbm</p>","","","","","","","","",""
"html-keyboard-response","115","168962","0.0-10.0-0.26","5f19fa0f3e85b20d0336258c","650c16f0f2faf8d7a0d14c09","651c0ad947f72aaa4e9ec00b","null","null","<p style=""font-size: 60px; font-family: BACS"">htmhCYKPB</p>","","","","","","","","",""
"html-keyboard-response","116","169965","0.0-10.0-0.27","5f19fa0f3e85b20d0336258c","650c16f0f2faf8d7a0d14c09","651c0ad947f72aaa4e9ec00b","null","null","<p style=""font-size: 60px; font-family: BACS"">PCPDhYBO</p>","","","","","","","","",""
"html-keyboard-response","117","170966","0.0-10.0-0.28","5f19fa0f3e85b20d0336258c","650c16f0f2faf8d7a0d14c09","651c0ad947f72aaa4e9ec00b","null","null","<p style=""font-size: 60px; font-family: BACS"">UJmrcbm</p>","","","","","","","","",""
"html-keyboard-response","118","171984","0.0-10.0-0.29","5f19fa0f3e85b20d0336258c","650c16f0f2faf8d7a0d14c09","651c0ad947f72aaa4e9ec00b","null","null","<p style=""font-size: 60px; font-family: BACS"">bROCdTAh</p>","","","","","","","","",""
"html-keyboard-response","119","172986","0.0-10.0-0.30","5f19fa0f3e85b20d0336258c","650c16f0f2faf8d7a0d14c09","651c0ad947f72aaa4e9ec00b","null","null","<p style=""font-size: 60px; font-family: BACS"">mUOcOAld</p>","","","","","","","","",""
"html-keyboard-response","120","174000","0.0-10.0-0.31","5f19fa0f3e85b20d0336258c","650c16f0f2faf8d7a0d14c09","651c0ad947f72aaa4e9ec00b","null","null","<p style=""font-size: 60px; font-family: BACS"">PCPDhmtKP</p>","","","","","","","","",""
"html-keyboard-response","121","175003","0.0-10.0-0.32","5f19fa0f3e85b20d0336258c","650c16f0f2faf8d7a0d14c09","651c0ad947f72aaa4e9ec00b","null","null","<p style=""font-size: 60px; font-family: BACS"">ZcGdNaQr</p>","","","","","","","","",""
"html-keyboard-response","122","176019","0.0-10.0-0.33","5f19fa0f3e85b20d0336258c","650c16f0f2faf8d7a0d14c09","651c0ad947f72aaa4e9ec00b","null","null","<p style=""font-size: 60px; font-family: BACS"">DOchlYKPB</p>","","","","","","","","",""
"html-keyboard-response","123","177023","0.0-10.0-0.34","5f19fa0f3e85b20d0336258c","650c16f0f2faf8d7a0d14c09","651c0ad947f72aaa4e9ec00b","null","null","<p style=""font-size: 60px; font-family: BACS"">vAuNluda</p>","","","","","","","","",""
"html-keyboard-response","124","178039","0.0-10.0-0.35","5f19fa0f3e85b20d0336258c","650c16f0f2faf8d7a0d14c09","651c0ad947f72aaa4e9ec00b","null","null","<p style=""font-size: 60px; font-family: BACS"">DBlhYBO</p>","","","","","","","","",""
"html-keyboard-response","125","179040","0.0-10.0-0.36","5f19fa0f3e85b20d0336258c","650c16f0f2faf8d7a0d14c09","651c0ad947f72aaa4e9ec00b","null","null","<p style=""font-size: 60px; font-family: BACS"">rLkmAld</p>","","","","","","","","",""
"html-keyboard-response","126","180057","0.0-10.0-0.37","5f19fa0f3e85b20d0336258c","650c16f0f2faf8d7a0d14c09","651c0ad947f72aaa4e9ec00b","null","null","<p style=""font-size: 60px; font-family: BACS"">bROCYKPB</p>","","","","","","","","",""
"html-keyboard-response","127","181059","0.0-10.0-0.38","5f19fa0f3e85b20d0336258c","650c16f0f2faf8d7a0d14c09","651c0ad947f72aaa4e9ec00b","null","null","<p style=""font-size: 60px; font-family: BACS"">aOLZUaQr</p>","","","","","","","","",""
"html-keyboard-response","128","182063","0.0-10.0-0.39","5f19fa0f3e85b20d0336258c","650c16f0f2faf8d7a0d14c09","651c0ad947f72aaa4e9ec00b","null","null","<p style=""font-size: 60px; font-family: BACS"">EMYKYKPB</p>","","","","","","","","",""
"html-keyboard-response","129","183078","0.0-10.0-0.40","5f19fa0f3e85b20d0336258c","650c16f0f2faf8d7a0d14c09","651c0ad947f72aaa4e9ec00b","null","null","<p style=""font-size: 60px; font-family: BACS"">htmhCTmTm</p>","","","","","","","","",""
"html-keyboard-response","130","184093","0.0-10.0-0.41","5f19fa0f3e85b20d0336258c","650c16f0f2faf8d7a0d14c09","651c0ad947f72aaa4e9ec00b","null","null","<p style=""font-size: 60px; font-family: BACS"">mUOcOdYAJ</p>","","","","","","","","",""
"html-keyboard-response","131","185098","0.0-10.0-0.42","5f19fa0f3e85b20d0336258c","650c16f0f2faf8d7a0d14c09","651c0ad947f72aaa4e9ec00b","null","null","<p style=""font-size: 60px; font-family: BACS"">ctktTmTm</p>","","","","","","","","",""
"html-keyboard-response","132","186115","0.0-10.0-0.43","5f19fa0f3e85b20d0336258c","650c16f0f2faf8d7a0d14c09","651c0ad947f72aaa4e9ec00b","null","null","<p style=""font-size: 60px; font-family: BACS"">PMPtkYKPB</p>","","","","","","","","",""
"html-keyboard-response","133","187116","0.0-10.0-0.44","5f19fa0f3e85b20d0336258c","650c16f0f2faf8d7a0d14c09","651c0ad947f72aaa4e9ec00b","null","null","<p style=""font-size: 60px; font-family: BACS"">ZcGdNAld</p>","","","","","","","","",""
"html-keyboard-response","134","188117","0.0-10.0-0.45","5f19fa0f3e85b20d0336258c","650c16f0f2faf8d7a0d14c09","651c0ad947f72aaa4e9ec00b","null","null","<p style=""font-size: 60px; font-family: BACS"">EMYKdTAh</p>","","","","","","","","",""
"html-keyboard-response","135","189118","0.0-10.0-0.46","5f19fa0f3e85b20d0336258c","650c16f0f2faf8d7a0d14c09","651c0ad947f72aaa4e9ec00b","null","null","<p style=""font-size: 60px; font-family: BACS"">EPMDkmtKP</p>","","","","","","","","",""
"html-keyboard-response","136","190120","0.0-10.0-0.47","5f19fa0f3e85b20d0336258c","650c16f0f2faf8d7a0d14c09","651c0ad947f72aaa4e9ec00b","null","null","<p style=""font-size: 60px; font-family: BACS"">EdBbdTAh</p>","","","","","","","","",""
"html-keyboard-response","137","191137","0.0-10.0-0.48","5f19fa0f3e85b20d0336258c","650c16f0f2faf8d7a0d14c09","651c0ad947f72aaa4e9ec00b","null","null","<p style=""font-size: 60px; font-family: BACS"">vAuNlcbm</p>","","","","","","","","",""
"html-keyboard-response","138","192154","0.0-10.0-0.49","5f19fa0f3e85b20d0336258c","650c16f0f2faf8d7a0d14c09","651c0ad947f72aaa4e9ec00b","null","null","<p style=""font-size: 60px; font-family: BACS"">JauQAld</p>","","","","","","","","",""
"html-keyboard-response","139","193170","0.0-10.0-0.50","5f19fa0f3e85b20d0336258c","650c16f0f2faf8d7a0d14c09","651c0ad947f72aaa4e9ec00b","null","null","<p style=""font-size: 60px; font-family: BACS"">PCPDhdTAh</p>","","","","","","","","",""
"html-keyboard-response","140","194175","0.0-10.0-0.51","5f19fa0f3e85b20d0336258c","650c16f0f2faf8d7a0d14c09","651c0ad947f72aaa4e9ec00b","null","null","<p style=""font-size: 60px; font-family: BACS"">EdBbmtKP</p>","","","","","","","","",""
"html-keyboard-response","141","195191","0.0-10.0-0.52","5f19fa0f3e85b20d0336258c","650c16f0f2faf8d7a0d14c09","651c0ad947f72aaa4e9ec00b","null","null","<p style=""font-size: 60px; font-family: BACS"">LuNZcbm</p>","","","","","","","","",""
"html-keyboard-response","142","196193","0.0-10.0-0.53","5f19fa0f3e85b20d0336258c","650c16f0f2faf8d7a0d14c09","651c0ad947f72aaa4e9ec00b","null","null","<p style=""font-size: 60px; font-family: BACS"">PMPtkYBO</p>","","","","","","","","",""
"html-keyboard-response","143","197209","0.0-10.0-0.54","5f19fa0f3e85b20d0336258c","650c16f0f2faf8d7a0d14c09","651c0ad947f72aaa4e9ec00b","null","null","<p style=""font-size: 60px; font-family: BACS"">UJmrAld</p>","","","","","","","","",""
"html-keyboard-response","144","198212","0.0-10.0-0.55","5f19fa0f3e85b20d0336258c","650c16f0f2faf8d7a0d14c09","651c0ad947f72aaa4e9ec00b","null","null","<p style=""font-size: 60px; font-family: BACS"">JAdLmcbm</p>","","","","","","","","",""
"html-keyboard-response","145","199213","0.0-10.0-0.56","5f19fa0f3e85b20d0336258c","650c16f0f2faf8d7a0d14c09","651c0ad947f72aaa4e9ec00b","null","null","<p style=""font-size: 60px; font-family: BACS"">DOchlTmTm</p>","","","","","","","","",""
"html-keyboard-response","146","200230","0.0-10.0-0.57","5f19fa0f3e85b20d0336258c","650c16f0f2faf8d7a0d14c09","651c0ad947f72aaa4e9ec00b","null","null","<p style=""font-size: 60px; font-family: BACS"">vAuNlaQr</p>","","","","","","","","",""
"html-keyboard-response","147","201232","0.0-10.0-0.58","5f19fa0f3e85b20d0336258c","650c16f0f2faf8d7a0d14c09","651c0ad947f72aaa4e9ec00b","null","null","<p style=""font-size: 60px; font-family: BACS"">bROCmtKP</p>","","","","","","","","",""
"html-keyboard-response","148","202249","0.0-10.0-0.59","5f19fa0f3e85b20d0336258c","650c16f0f2faf8d7a0d14c09","651c0ad947f72aaa4e9ec00b","null","null","<p style=""font-size: 60px; font-family: BACS"">EPMDkdTAh</p>","","","","","","","","",""
"html-keyboard-response","149","203266","0.0-10.0-0.60","5f19fa0f3e85b20d0336258c","650c16f0f2faf8d7a0d14c09","651c0ad947f72aaa4e9ec00b","null","null","<p style=""font-size: 60px; font-family: BACS"">ZcGdNdYAJ</p>","","","","","","","","",""
"html-keyboard-response","150","204268","0.0-10.0-0.61","5f19fa0f3e85b20d0336258c","650c16f0f2faf8d7a0d14c09","651c0ad947f72aaa4e9ec00b","null","null","<p style=""font-size: 60px; font-family: BACS"">EMYKYBO</p>","","","","","","","","",""
"html-keyboard-response","151","205270","0.0-10.0-0.62","5f19fa0f3e85b20d0336258c","650c16f0f2faf8d7a0d14c09","651c0ad947f72aaa4e9ec00b","null","null","<p style=""font-size: 60px; font-family: BACS"">vYLUaQr</p>","","","","","","","","",""
"html-keyboard-response","152","206286","0.0-10.0-0.63","5f19fa0f3e85b20d0336258c","650c16f0f2faf8d7a0d14c09","651c0ad947f72aaa4e9ec00b","null","null","<p style=""font-size: 60px; font-family: BACS"">PMPtkTmTm</p>","","","","","","","","",""
"html-keyboard-response","153","207287","0.0-10.0-0.64","5f19fa0f3e85b20d0336258c","650c16f0f2faf8d7a0d14c09","651c0ad947f72aaa4e9ec00b","null","null","<p style=""font-size: 60px; font-family: BACS"">vYLUdYAJ</p>","","","","","","","","",""
"html-keyboard-response","154","208289","0.0-10.0-0.65","5f19fa0f3e85b20d0336258c","650c16f0f2faf8d7a0d14c09","651c0ad947f72aaa4e9ec00b","null","null","<p style=""font-size: 60px; font-family: BACS"">LuNZAld</p>","","","","","","","","",""
"html-keyboard-response","155","209291","0.0-10.0-0.66","5f19fa0f3e85b20d0336258c","650c16f0f2faf8d7a0d14c09","651c0ad947f72aaa4e9ec00b","null","null","<p style=""font-size: 60px; font-family: BACS"">EdBbYKPB</p>","","","","","","","","",""
"html-keyboard-response","156","210305","0.0-10.0-0.67","5f19fa0f3e85b20d0336258c","650c16f0f2faf8d7a0d14c09","651c0ad947f72aaa4e9ec00b","null","null","<p style=""font-size: 60px; font-family: BACS"">rLkmuda</p>","","","","","","","","",""
"html-keyboard-response","157","211311","0.0-10.0-0.68","5f19fa0f3e85b20d0336258c","650c16f0f2faf8d7a0d14c09","651c0ad947f72aaa4e9ec00b","null","null","<p style=""font-size: 60px; font-family: BACS"">DBlhdTAh</p>","","","","","","","","",""
"html-keyboard-response","158","212327","0.0-10.0-0.69","5f19fa0f3e85b20d0336258c","650c16f0f2faf8d7a0d14c09","651c0ad947f72aaa4e9ec00b","null","null","<p style=""font-size: 60px; font-family: BACS"">EdBbYBO</p>","","","","","","","","",""
"html-keyboard-response","159","213343","0.0-10.0-0.70","5f19fa0f3e85b20d0336258c","650c16f0f2faf8d7a0d14c09","651c0ad947f72aaa4e9ec00b","null","null","<p style=""font-size: 60px; font-family: BACS"">DOchldTAh</p>","","","","","","","","",""
"html-keyboard-response","160","214345","0.0-10.0-0.71","5f19fa0f3e85b20d0336258c","650c16f0f2faf8d7a0d14c09","651c0ad947f72aaa4e9ec00b","null","null","<p style=""font-size: 60px; font-family: BACS"">JAdLmdYAJ</p>","","","","","","","","",""
"html-keyboard-response","161","215348","0.0-10.0-0.72","5f19fa0f3e85b20d0336258c","650c16f0f2faf8d7a0d14c09","651c0ad947f72aaa4e9ec00b","null","null","<p style=""font-size: 60px; font-family: BACS"">DBlhTmTm</p>","","","","","","","","",""
"html-keyboard-response","162","216363","0.0-10.0-0.73","5f19fa0f3e85b20d0336258c","650c16f0f2faf8d7a0d14c09","651c0ad947f72aaa4e9ec00b","null","null","<p style=""font-size: 60px; font-family: BACS"">PMPtkmtKP</p>","","","","","","","","",""
"html-keyboard-response","163","217366","0.0-10.0-0.74","5f19fa0f3e85b20d0336258c","650c16f0f2faf8d7a0d14c09","651c0ad947f72aaa4e9ec00b","null","null","<p style=""font-size: 60px; font-family: BACS"">UJmrdYAJ</p>","","","","","","","","",""
"html-keyboard-response","164","218367","0.0-10.0-0.75","5f19fa0f3e85b20d0336258c","650c16f0f2faf8d7a0d14c09","651c0ad947f72aaa4e9ec00b","null","null","<p style=""font-size: 60px; font-family: BACS"">DBlhYKPB</p>","","","","","","","","",""
"html-keyboard-response","165","219370","0.0-10.0-0.76","5f19fa0f3e85b20d0336258c","650c16f0f2faf8d7a0d14c09","651c0ad947f72aaa4e9ec00b","null","null","<p style=""font-size: 60px; font-family: BACS"">PCPDhTmTm</p>","","","","","","","","",""
"html-keyboard-response","166","220386","0.0-10.0-0.77","5f19fa0f3e85b20d0336258c","650c16f0f2faf8d7a0d14c09","651c0ad947f72aaa4e9ec00b","null","null","<p style=""font-size: 60px; font-family: BACS"">vYLUuda</p>","","","","","","","","",""
"html-keyboard-response","167","221388","0.0-10.0-0.78","5f19fa0f3e85b20d0336258c","650c16f0f2faf8d7a0d14c09","651c0ad947f72aaa4e9ec00b","null","null","<p style=""font-size: 60px; font-family: BACS"">vAuNldYAJ</p>","","","","","","","","",""
"html-keyboard-response","168","222404","0.0-10.0-0.79","5f19fa0f3e85b20d0336258c","650c16f0f2faf8d7a0d14c09","651c0ad947f72aaa4e9ec00b","null","null","<p style=""font-size: 60px; font-family: BACS"">vYLUcbm</p>","","","","","","","","",""
"html-keyboard-response","169","230085","0.0-11.0","5f19fa0f3e85b20d0336258c","650c16f0f2faf8d7a0d14c09","651c0ad947f72aaa4e9ec00b","7680"," ","<p>Great, you've seen the second block of words. You may now take a short break.</p>
      <p>Press the spacebar when you're ready to continue.</p>","","","","","","","","",""
"html-keyboard-response","170","231098","0.0-12.0-0.0","5f19fa0f3e85b20d0336258c","650c16f0f2faf8d7a0d14c09","651c0ad947f72aaa4e9ec00b","null","null","<p style=""font-size: 60px; font-family: BACS"">htmhCYKPB</p>","","","","","","","","",""
"html-keyboard-response","171","232113","0.0-12.0-0.1","5f19fa0f3e85b20d0336258c","650c16f0f2faf8d7a0d14c09","651c0ad947f72aaa4e9ec00b","null","null","<p style=""font-size: 60px; font-family: BACS"">EMYKdTAh</p>","","","","","","","","",""
"html-keyboard-response","172","233116","0.0-12.0-0.2","5f19fa0f3e85b20d0336258c","650c16f0f2faf8d7a0d14c09","651c0ad947f72aaa4e9ec00b","null","null","<p style=""font-size: 60px; font-family: BACS"">UJmrdYAJ</p>","","","","","","","","",""
"html-keyboard-response","173","234119","0.0-12.0-0.3","5f19fa0f3e85b20d0336258c","650c16f0f2faf8d7a0d14c09","651c0ad947f72aaa4e9ec00b","null","null","<p style=""font-size: 60px; font-family: BACS"">DOchlTmTm</p>","","","","","","","","",""
"html-keyboard-response","174","235121","0.0-12.0-0.4","5f19fa0f3e85b20d0336258c","650c16f0f2faf8d7a0d14c09","651c0ad947f72aaa4e9ec00b","null","null","<p style=""font-size: 60px; font-family: BACS"">vAuNlcbm</p>","","","","","","","","",""
"html-keyboard-response","175","236135","0.0-12.0-0.5","5f19fa0f3e85b20d0336258c","650c16f0f2faf8d7a0d14c09","651c0ad947f72aaa4e9ec00b","null","null","<p style=""font-size: 60px; font-family: BACS"">LuNZdYAJ</p>","","","","","","","","",""
"html-keyboard-response","176","237137","0.0-12.0-0.6","5f19fa0f3e85b20d0336258c","650c16f0f2faf8d7a0d14c09","651c0ad947f72aaa4e9ec00b","null","null","<p style=""font-size: 60px; font-family: BACS"">PMPtkmtKP</p>","","","","","","","","",""
"html-keyboard-response","177","238154","0.0-12.0-0.7","5f19fa0f3e85b20d0336258c","650c16f0f2faf8d7a0d14c09","651c0ad947f72aaa4e9ec00b","null","null","<p style=""font-size: 60px; font-family: BACS"">mUOcOuda</p>","","","","","","","","",""
"html-keyboard-response","178","239158","0.0-12.0-0.8","5f19fa0f3e85b20d0336258c","650c16f0f2faf8d7a0d14c09","651c0ad947f72aaa4e9ec00b","null","null","<p style=""font-size: 60px; font-family: BACS"">PMPtkYKPB</p>","","","","","","","","",""
"html-keyboard-response","179","240175","0.0-12.0-0.9","5f19fa0f3e85b20d0336258c","650c16f0f2faf8d7a0d14c09","651c0ad947f72aaa4e9ec00b","null","null","<p style=""font-size: 60px; font-family: BACS"">EPMDkYBO</p>","","","","","","","","",""
"html-keyboard-response","180","241176","0.0-12.0-0.10","5f19fa0f3e85b20d0336258c","650c16f0f2faf8d7a0d14c09","651c0ad947f72aaa4e9ec00b","null","null","<p style=""font-size: 60px; font-family: BACS"">JAdLmdYAJ</p>","","","","","","","","",""
"html-keyboard-response","181","242192","0.0-12.0-0.11","5f19fa0f3e85b20d0336258c","650c16f0f2faf8d7a0d14c09","651c0ad947f72aaa4e9ec00b","null","null","<p style=""font-size: 60px; font-family: BACS"">DBlhTmTm</p>","","","","","","","","",""
"html-keyboard-response","182","243196","0.0-12.0-0.12","5f19fa0f3e85b20d0336258c","650c16f0f2faf8d7a0d14c09","651c0ad947f72aaa4e9ec00b","null","null","<p style=""font-size: 60px; font-family: BACS"">rLkmaQr</p>","","","","","","","","",""
"html-keyboard-response","183","244212","0.0-12.0-0.13","5f19fa0f3e85b20d0336258c","650c16f0f2faf8d7a0d14c09","651c0ad947f72aaa4e9ec00b","null","null","<p style=""font-size: 60px; font-family: BACS"">ZcGdNdYAJ</p>","","","","","","","","",""
"html-keyboard-response","184","245214","0.0-12.0-0.14","5f19fa0f3e85b20d0336258c","650c16f0f2faf8d7a0d14c09","651c0ad947f72aaa4e9ec00b","null","null","<p style=""font-size: 60px; font-family: BACS"">DBlhYBO</p>","","","","","","","","",""
"html-keyboard-response","185","246229","0.0-12.0-0.15","5f19fa0f3e85b20d0336258c","650c16f0f2faf8d7a0d14c09","651c0ad947f72aaa4e9ec00b","null","null","<p style=""font-size: 60px; font-family: BACS"">ZcGdNaQr</p>","","","","","","","","",""
"html-keyboard-response","186","247233","0.0-12.0-0.16","5f19fa0f3e85b20d0336258c","650c16f0f2faf8d7a0d14c09","651c0ad947f72aaa4e9ec00b","null","null","<p style=""font-size: 60px; font-family: BACS"">DOchldTAh</p>","","","","","","","","",""
"html-keyboard-response","187","248234","0.0-12.0-0.17","5f19fa0f3e85b20d0336258c","650c16f0f2faf8d7a0d14c09","651c0ad947f72aaa4e9ec00b","null","null","<p style=""font-size: 60px; font-family: BACS"">aOLZUcbm</p>","","","","","","","","",""
"html-keyboard-response","188","249235","0.0-12.0-0.18","5f19fa0f3e85b20d0336258c","650c16f0f2faf8d7a0d14c09","651c0ad947f72aaa4e9ec00b","null","null","<p style=""font-size: 60px; font-family: BACS"">EPMDkdTAh</p>","","","","","","","","",""
"html-keyboard-response","189","250251","0.0-12.0-0.19","5f19fa0f3e85b20d0336258c","650c16f0f2faf8d7a0d14c09","651c0ad947f72aaa4e9ec00b","null","null","<p style=""font-size: 60px; font-family: BACS"">vAuNluda</p>","","","","","","","","",""
"html-keyboard-response","190","251254","0.0-12.0-0.20","5f19fa0f3e85b20d0336258c","650c16f0f2faf8d7a0d14c09","651c0ad947f72aaa4e9ec00b","null","null","<p style=""font-size: 60px; font-family: BACS"">JauQdYAJ</p>","","","","","","","","",""
"html-keyboard-response","191","252269","0.0-12.0-0.21","5f19fa0f3e85b20d0336258c","650c16f0f2faf8d7a0d14c09","651c0ad947f72aaa4e9ec00b","null","null","<p style=""font-size: 60px; font-family: BACS"">ctktTmTm</p>","","","","","","","","",""
"html-keyboard-response","192","253272","0.0-12.0-0.22","5f19fa0f3e85b20d0336258c","650c16f0f2faf8d7a0d14c09","651c0ad947f72aaa4e9ec00b","null","null","<p style=""font-size: 60px; font-family: BACS"">EdBbYKPB</p>","","","","","","","","",""
"html-keyboard-response","193","254289","0.0-12.0-0.23","5f19fa0f3e85b20d0336258c","650c16f0f2faf8d7a0d14c09","651c0ad947f72aaa4e9ec00b","null","null","<p style=""font-size: 60px; font-family: BACS"">EMYKYBO</p>","","","","","","","","",""
"html-keyboard-response","194","255293","0.0-12.0-0.24","5f19fa0f3e85b20d0336258c","650c16f0f2faf8d7a0d14c09","651c0ad947f72aaa4e9ec00b","null","null","<p style=""font-size: 60px; font-family: BACS"">JAdLmaQr</p>","","","","","","","","",""
"html-keyboard-response","195","256309","0.0-12.0-0.25","5f19fa0f3e85b20d0336258c","650c16f0f2faf8d7a0d14c09","651c0ad947f72aaa4e9ec00b","null","null","<p style=""font-size: 60px; font-family: BACS"">PCPDhmtKP</p>","","","","","","","","",""
"html-keyboard-response","196","257326","0.0-12.0-0.26","5f19fa0f3e85b20d0336258c","650c16f0f2faf8d7a0d14c09","651c0ad947f72aaa4e9ec00b","null","null","<p style=""font-size: 60px; font-family: BACS"">mUOcOAld</p>","","","","","","","","",""
"html-keyboard-response","197","258328","0.0-12.0-0.27","5f19fa0f3e85b20d0336258c","650c16f0f2faf8d7a0d14c09","651c0ad947f72aaa4e9ec00b","null","null","<p style=""font-size: 60px; font-family: BACS"">DOchlmtKP</p>","","","","","","","","",""
"html-keyboard-response","198","259331","0.0-12.0-0.28","5f19fa0f3e85b20d0336258c","650c16f0f2faf8d7a0d14c09","651c0ad947f72aaa4e9ec00b","null","null","<p style=""font-size: 60px; font-family: BACS"">EMYKTmTm</p>","","","","","","","","",""
"html-keyboard-response","199","260347","0.0-12.0-0.29","5f19fa0f3e85b20d0336258c","650c16f0f2faf8d7a0d14c09","651c0ad947f72aaa4e9ec00b","null","null","<p style=""font-size: 60px; font-family: BACS"">bROCmtKP</p>","","","","","","","","",""
"html-keyboard-response","200","261363","0.0-12.0-0.30","5f19fa0f3e85b20d0336258c","650c16f0f2faf8d7a0d14c09","651c0ad947f72aaa4e9ec00b","null","null","<p style=""font-size: 60px; font-family: BACS"">ctktdTAh</p>","","","","","","","","",""
"html-keyboard-response","201","262366","0.0-12.0-0.31","5f19fa0f3e85b20d0336258c","650c16f0f2faf8d7a0d14c09","651c0ad947f72aaa4e9ec00b","null","null","<p style=""font-size: 60px; font-family: BACS"">EdBbYBO</p>","","","","","","","","",""
"html-keyboard-response","202","263368","0.0-12.0-0.32","5f19fa0f3e85b20d0336258c","650c16f0f2faf8d7a0d14c09","651c0ad947f72aaa4e9ec00b","null","null","<p style=""font-size: 60px; font-family: BACS"">JauQAld</p>","","","","","","","","",""
"html-keyboard-response","203","264384","0.0-12.0-0.33","5f19fa0f3e85b20d0336258c","650c16f0f2faf8d7a0d14c09","651c0ad947f72aaa4e9ec00b","null","null","<p style=""font-size: 60px; font-family: BACS"">bROCdTAh</p>","","","","","","","","",""
"html-keyboard-response","204","265402","0.0-12.0-0.34","5f19fa0f3e85b20d0336258c","650c16f0f2faf8d7a0d14c09","651c0ad947f72aaa4e9ec00b","null","null","<p style=""font-size: 60px; font-family: BACS"">rLkmuda</p>","","","","","","","","",""
"html-keyboard-response","205","266418","0.0-12.0-0.35","5f19fa0f3e85b20d0336258c","650c16f0f2faf8d7a0d14c09","651c0ad947f72aaa4e9ec00b","null","null","<p style=""font-size: 60px; font-family: BACS"">EPMDkYKPB</p>","","","","","","","","",""
"html-keyboard-response","206","267422","0.0-12.0-0.36","5f19fa0f3e85b20d0336258c","650c16f0f2faf8d7a0d14c09","651c0ad947f72aaa4e9ec00b","null","null","<p style=""font-size: 60px; font-family: BACS"">JAdLmcbm</p>","","","","","","","","",""
"html-keyboard-response","207","268437","0.0-12.0-0.37","5f19fa0f3e85b20d0336258c","650c16f0f2faf8d7a0d14c09","651c0ad947f72aaa4e9ec00b","null","null","<p style=""font-size: 60px; font-family: BACS"">htmhCTmTm</p>","","","","","","","","",""
"html-keyboard-response","208","269439","0.0-12.0-0.38","5f19fa0f3e85b20d0336258c","650c16f0f2faf8d7a0d14c09","651c0ad947f72aaa4e9ec00b","null","null","<p style=""font-size: 60px; font-family: BACS"">DBlhYKPB</p>","","","","","","","","",""
"html-keyboard-response","209","270443","0.0-12.0-0.39","5f19fa0f3e85b20d0336258c","650c16f0f2faf8d7a0d14c09","651c0ad947f72aaa4e9ec00b","null","null","<p style=""font-size: 60px; font-family: BACS"">vYLUcbm</p>","","","","","","","","",""
"html-keyboard-response","210","271459","0.0-12.0-0.40","5f19fa0f3e85b20d0336258c","650c16f0f2faf8d7a0d14c09","651c0ad947f72aaa4e9ec00b","null","null","<p style=""font-size: 60px; font-family: BACS"">PCPDhYBO</p>","","","","","","","","",""
"html-keyboard-response","211","272476","0.0-12.0-0.41","5f19fa0f3e85b20d0336258c","650c16f0f2faf8d7a0d14c09","651c0ad947f72aaa4e9ec00b","null","null","<p style=""font-size: 60px; font-family: BACS"">vYLUuda</p>","","","","","","","","",""
"html-keyboard-response","212","273481","0.0-12.0-0.42","5f19fa0f3e85b20d0336258c","650c16f0f2faf8d7a0d14c09","651c0ad947f72aaa4e9ec00b","null","null","<p style=""font-size: 60px; font-family: BACS"">htmhCYBO</p>","","","","","","","","",""
"html-keyboard-response","213","274497","0.0-12.0-0.43","5f19fa0f3e85b20d0336258c","650c16f0f2faf8d7a0d14c09","651c0ad947f72aaa4e9ec00b","null","null","<p style=""font-size: 60px; font-family: BACS"">bROCTmTm</p>","","","","","","","","",""
"html-keyboard-response","214","275513","0.0-12.0-0.44","5f19fa0f3e85b20d0336258c","650c16f0f2faf8d7a0d14c09","651c0ad947f72aaa4e9ec00b","null","null","<p style=""font-size: 60px; font-family: BACS"">ZcGdNuda</p>","","","","","","","","",""
"html-keyboard-response","215","276515","0.0-12.0-0.45","5f19fa0f3e85b20d0336258c","650c16f0f2faf8d7a0d14c09","651c0ad947f72aaa4e9ec00b","null","null","<p style=""font-size: 60px; font-family: BACS"">UJmraQr</p>","","","","","","","","",""
"html-keyboard-response","216","277518","0.0-12.0-0.46","5f19fa0f3e85b20d0336258c","650c16f0f2faf8d7a0d14c09","651c0ad947f72aaa4e9ec00b","null","null","<p style=""font-size: 60px; font-family: BACS"">aOLZUuda</p>","","","","","","","","",""
"html-keyboard-response","217","278534","0.0-12.0-0.47","5f19fa0f3e85b20d0336258c","650c16f0f2faf8d7a0d14c09","651c0ad947f72aaa4e9ec00b","null","null","<p style=""font-size: 60px; font-family: BACS"">mUOcOdYAJ</p>","","","","","","","","",""
"html-keyboard-response","218","279536","0.0-12.0-0.48","5f19fa0f3e85b20d0336258c","650c16f0f2faf8d7a0d14c09","651c0ad947f72aaa4e9ec00b","null","null","<p style=""font-size: 60px; font-family: BACS"">htmhCmtKP</p>","","","","","","","","",""
"html-keyboard-response","219","280552","0.0-12.0-0.49","5f19fa0f3e85b20d0336258c","650c16f0f2faf8d7a0d14c09","651c0ad947f72aaa4e9ec00b","null","null","<p style=""font-size: 60px; font-family: BACS"">rLkmAld</p>","","","","","","","","",""
"html-keyboard-response","220","281556","0.0-12.0-0.50","5f19fa0f3e85b20d0336258c","650c16f0f2faf8d7a0d14c09","651c0ad947f72aaa4e9ec00b","null","null","<p style=""font-size: 60px; font-family: BACS"">EdBbdTAh</p>","","","","","","","","",""
"html-keyboard-response","221","282572","0.0-12.0-0.51","5f19fa0f3e85b20d0336258c","650c16f0f2faf8d7a0d14c09","651c0ad947f72aaa4e9ec00b","null","null","<p style=""font-size: 60px; font-family: BACS"">LuNZcbm</p>","","","","","","","","",""
"html-keyboard-response","222","283589","0.0-12.0-0.52","5f19fa0f3e85b20d0336258c","650c16f0f2faf8d7a0d14c09","651c0ad947f72aaa4e9ec00b","null","null","<p style=""font-size: 60px; font-family: BACS"">vAuNldYAJ</p>","","","","","","","","",""
"html-keyboard-response","223","284590","0.0-12.0-0.53","5f19fa0f3e85b20d0336258c","650c16f0f2faf8d7a0d14c09","651c0ad947f72aaa4e9ec00b","null","null","<p style=""font-size: 60px; font-family: BACS"">PCPDhdTAh</p>","","","","","","","","",""
"html-keyboard-response","224","285606","0.0-12.0-0.54","5f19fa0f3e85b20d0336258c","650c16f0f2faf8d7a0d14c09","651c0ad947f72aaa4e9ec00b","null","null","<p style=""font-size: 60px; font-family: BACS"">bROCYKPB</p>","","","","","","","","",""
"html-keyboard-response","225","286608","0.0-12.0-0.55","5f19fa0f3e85b20d0336258c","650c16f0f2faf8d7a0d14c09","651c0ad947f72aaa4e9ec00b","null","null","<p style=""font-size: 60px; font-family: BACS"">JauQuda</p>","","","","","","","","",""
"html-keyboard-response","226","287610","0.0-12.0-0.56","5f19fa0f3e85b20d0336258c","650c16f0f2faf8d7a0d14c09","651c0ad947f72aaa4e9ec00b","null","null","<p style=""font-size: 60px; font-family: BACS"">vYLUdYAJ</p>","","","","","","","","",""
"html-keyboard-response","227","288626","0.0-12.0-0.57","5f19fa0f3e85b20d0336258c","650c16f0f2faf8d7a0d14c09","651c0ad947f72aaa4e9ec00b","null","null","<p style=""font-size: 60px; font-family: BACS"">UJmrcbm</p>","","","","","","","","",""
"html-keyboard-response","228","289628","0.0-12.0-0.58","5f19fa0f3e85b20d0336258c","650c16f0f2faf8d7a0d14c09","651c0ad947f72aaa4e9ec00b","null","null","<p style=""font-size: 60px; font-family: BACS"">PCPDhTmTm</p>","","","","","","","","",""
"html-keyboard-response","229","290634","0.0-12.0-0.59","5f19fa0f3e85b20d0336258c","650c16f0f2faf8d7a0d14c09","651c0ad947f72aaa4e9ec00b","null","null","<p style=""font-size: 60px; font-family: BACS"">LuNZAld</p>","","","","","","","","",""
"html-keyboard-response","230","291648","0.0-12.0-0.60","5f19fa0f3e85b20d0336258c","650c16f0f2faf8d7a0d14c09","651c0ad947f72aaa4e9ec00b","null","null","<p style=""font-size: 60px; font-family: BACS"">vAuNlaQr</p>","","","","","","","","",""
"html-keyboard-response","231","292665","0.0-12.0-0.61","5f19fa0f3e85b20d0336258c","650c16f0f2faf8d7a0d14c09","651c0ad947f72aaa4e9ec00b","null","null","<p style=""font-size: 60px; font-family: BACS"">rLkmcbm</p>","","","","","","","","",""
"html-keyboard-response","232","293668","0.0-12.0-0.62","5f19fa0f3e85b20d0336258c","650c16f0f2faf8d7a0d14c09","651c0ad947f72aaa4e9ec00b","null","null","<p style=""font-size: 60px; font-family: BACS"">aOLZUAld</p>","","","","","","","","",""
"html-keyboard-response","233","294670","0.0-12.0-0.63","5f19fa0f3e85b20d0336258c","650c16f0f2faf8d7a0d14c09","651c0ad947f72aaa4e9ec00b","null","null","<p style=""font-size: 60px; font-family: BACS"">vYLUaQr</p>","","","","","","","","",""
"html-keyboard-response","234","295671","0.0-12.0-0.64","5f19fa0f3e85b20d0336258c","650c16f0f2faf8d7a0d14c09","651c0ad947f72aaa4e9ec00b","null","null","<p style=""font-size: 60px; font-family: BACS"">ctktYBO</p>","","","","","","","","",""
"html-keyboard-response","235","296688","0.0-12.0-0.65","5f19fa0f3e85b20d0336258c","650c16f0f2faf8d7a0d14c09","651c0ad947f72aaa4e9ec00b","null","null","<p style=""font-size: 60px; font-family: BACS"">EPMDkmtKP</p>","","","","","","","","",""
"html-keyboard-response","236","297689","0.0-12.0-0.66","5f19fa0f3e85b20d0336258c","650c16f0f2faf8d7a0d14c09","651c0ad947f72aaa4e9ec00b","null","null","<p style=""font-size: 60px; font-family: BACS"">EMYKYKPB</p>","","","","","","","","",""
"html-keyboard-response","237","298706","0.0-12.0-0.67","5f19fa0f3e85b20d0336258c","650c16f0f2faf8d7a0d14c09","651c0ad947f72aaa4e9ec00b","null","null","<p style=""font-size: 60px; font-family: BACS"">ZcGdNAld</p>","","","","","","","","",""
"html-keyboard-response","238","299709","0.0-12.0-0.68","5f19fa0f3e85b20d0336258c","650c16f0f2faf8d7a0d14c09","651c0ad947f72aaa4e9ec00b","null","null","<p style=""font-size: 60px; font-family: BACS"">PMPtkTmTm</p>","","","","","","","","",""
"html-keyboard-response","239","300723","0.0-12.0-0.69","5f19fa0f3e85b20d0336258c","650c16f0f2faf8d7a0d14c09","651c0ad947f72aaa4e9ec00b","null","null","<p style=""font-size: 60px; font-family: BACS"">mUOcOaQr</p>","","","","","","","","",""
"html-keyboard-response","240","301726","0.0-12.0-0.70","5f19fa0f3e85b20d0336258c","650c16f0f2faf8d7a0d14c09","651c0ad947f72aaa4e9ec00b","null","null","<p style=""font-size: 60px; font-family: BACS"">JauQcbm</p>","","","","","","","","",""
"html-keyboard-response","241","302729","0.0-12.0-0.71","5f19fa0f3e85b20d0336258c","650c16f0f2faf8d7a0d14c09","651c0ad947f72aaa4e9ec00b","null","null","<p style=""font-size: 60px; font-family: BACS"">EdBbmtKP</p>","","","","","","","","",""
"html-keyboard-response","242","303730","0.0-12.0-0.72","5f19fa0f3e85b20d0336258c","650c16f0f2faf8d7a0d14c09","651c0ad947f72aaa4e9ec00b","null","null","<p style=""font-size: 60px; font-family: BACS"">JAdLmAld</p>","","","","","","","","",""
"html-keyboard-response","243","304747","0.0-12.0-0.73","5f19fa0f3e85b20d0336258c","650c16f0f2faf8d7a0d14c09","651c0ad947f72aaa4e9ec00b","null","null","<p style=""font-size: 60px; font-family: BACS"">aOLZUaQr</p>","","","","","","","","",""
"html-keyboard-response","244","305762","0.0-12.0-0.74","5f19fa0f3e85b20d0336258c","650c16f0f2faf8d7a0d14c09","651c0ad947f72aaa4e9ec00b","null","null","<p style=""font-size: 60px; font-family: BACS"">LuNZuda</p>","","","","","","","","",""
"html-keyboard-response","245","306766","0.0-12.0-0.75","5f19fa0f3e85b20d0336258c","650c16f0f2faf8d7a0d14c09","651c0ad947f72aaa4e9ec00b","null","null","<p style=""font-size: 60px; font-family: BACS"">UJmrAld</p>","","","","","","","","",""
"html-keyboard-response","246","307782","0.0-12.0-0.76","5f19fa0f3e85b20d0336258c","650c16f0f2faf8d7a0d14c09","651c0ad947f72aaa4e9ec00b","null","null","<p style=""font-size: 60px; font-family: BACS"">DOchlYKPB</p>","","","","","","","","",""
"html-keyboard-response","247","308799","0.0-12.0-0.77","5f19fa0f3e85b20d0336258c","650c16f0f2faf8d7a0d14c09","651c0ad947f72aaa4e9ec00b","null","null","<p style=""font-size: 60px; font-family: BACS"">PMPtkYBO</p>","","","","","","","","",""
"html-keyboard-response","248","309801","0.0-12.0-0.78","5f19fa0f3e85b20d0336258c","650c16f0f2faf8d7a0d14c09","651c0ad947f72aaa4e9ec00b","null","null","<p style=""font-size: 60px; font-family: BACS"">DBlhdTAh</p>","","","","","","","","",""
"html-keyboard-response","249","310817","0.0-12.0-0.79","5f19fa0f3e85b20d0336258c","650c16f0f2faf8d7a0d14c09","651c0ad947f72aaa4e9ec00b","null","null","<p style=""font-size: 60px; font-family: BACS"">ctktmtKP</p>","","","","","","","","",""
"html-keyboard-response","250","316500","0.0-13.0","5f19fa0f3e85b20d0336258c","650c16f0f2faf8d7a0d14c09","651c0ad947f72aaa4e9ec00b","5682"," ","<p>Great, you've seen the third block of words. You may now take a short break.</p>
      <p>Press the spacebar when you're ready to continue.</p>","","","","","","","","",""
"html-keyboard-response","251","317510","0.0-14.0-0.0","5f19fa0f3e85b20d0336258c","650c16f0f2faf8d7a0d14c09","651c0ad947f72aaa4e9ec00b","null","null","<p style=""font-size: 60px; font-family: BACS"">aOLZUuda</p>","","","","","","","","",""
"html-keyboard-response","252","318526","0.0-14.0-0.1","5f19fa0f3e85b20d0336258c","650c16f0f2faf8d7a0d14c09","651c0ad947f72aaa4e9ec00b","null","null","<p style=""font-size: 60px; font-family: BACS"">ctktYBO</p>","","","","","","","","",""
"html-keyboard-response","253","319528","0.0-14.0-0.2","5f19fa0f3e85b20d0336258c","650c16f0f2faf8d7a0d14c09","651c0ad947f72aaa4e9ec00b","null","null","<p style=""font-size: 60px; font-family: BACS"">EMYKYKPB</p>","","","","","","","","",""
"html-keyboard-response","254","320530","0.0-14.0-0.3","5f19fa0f3e85b20d0336258c","650c16f0f2faf8d7a0d14c09","651c0ad947f72aaa4e9ec00b","null","null","<p style=""font-size: 60px; font-family: BACS"">LuNZcbm</p>","","","","","","","","",""
"html-keyboard-response","255","321545","0.0-14.0-0.4","5f19fa0f3e85b20d0336258c","650c16f0f2faf8d7a0d14c09","651c0ad947f72aaa4e9ec00b","null","null","<p style=""font-size: 60px; font-family: BACS"">aOLZUaQr</p>","","","","","","","","",""
"html-keyboard-response","256","322547","0.0-14.0-0.5","5f19fa0f3e85b20d0336258c","650c16f0f2faf8d7a0d14c09","651c0ad947f72aaa4e9ec00b","null","null","<p style=""font-size: 60px; font-family: BACS"">DBlhTmTm</p>","","","","","","","","",""
"html-keyboard-response","257","323549","0.0-14.0-0.6","5f19fa0f3e85b20d0336258c","650c16f0f2faf8d7a0d14c09","651c0ad947f72aaa4e9ec00b","null","null","<p style=""font-size: 60px; font-family: BACS"">JAdLmcbm</p>","","","","","","","","",""
"html-keyboard-response","258","324564","0.0-14.0-0.7","5f19fa0f3e85b20d0336258c","650c16f0f2faf8d7a0d14c09","651c0ad947f72aaa4e9ec00b","null","null","<p style=""font-size: 60px; font-family: BACS"">rLkmAld</p>","","","","","","","","",""
"html-keyboard-response","259","325569","0.0-14.0-0.8","5f19fa0f3e85b20d0336258c","650c16f0f2faf8d7a0d14c09","651c0ad947f72aaa4e9ec00b","null","null","<p style=""font-size: 60px; font-family: BACS"">mUOcOuda</p>","","","","","","","","",""
"html-keyboard-response","260","326584","0.0-14.0-0.9","5f19fa0f3e85b20d0336258c","650c16f0f2faf8d7a0d14c09","651c0ad947f72aaa4e9ec00b","null","null","<p style=""font-size: 60px; font-family: BACS"">PMPtkYBO</p>","","","","","","","","",""
"html-keyboard-response","261","327587","0.0-14.0-0.10","5f19fa0f3e85b20d0336258c","650c16f0f2faf8d7a0d14c09","651c0ad947f72aaa4e9ec00b","null","null","<p style=""font-size: 60px; font-family: BACS"">DOchlTmTm</p>","","","","","","","","",""
"html-keyboard-response","262","328604","0.0-14.0-0.11","5f19fa0f3e85b20d0336258c","650c16f0f2faf8d7a0d14c09","651c0ad947f72aaa4e9ec00b","null","null","<p style=""font-size: 60px; font-family: BACS"">EdBbmtKP</p>","","","","","","","","",""
"html-keyboard-response","263","329606","0.0-14.0-0.12","5f19fa0f3e85b20d0336258c","650c16f0f2faf8d7a0d14c09","651c0ad947f72aaa4e9ec00b","null","null","<p style=""font-size: 60px; font-family: BACS"">DBlhYBO</p>","","","","","","","","",""
"html-keyboard-response","264","330609","0.0-14.0-0.13","5f19fa0f3e85b20d0336258c","650c16f0f2faf8d7a0d14c09","651c0ad947f72aaa4e9ec00b","null","null","<p style=""font-size: 60px; font-family: BACS"">DOchlmtKP</p>","","","","","","","","",""
"html-keyboard-response","265","331611","0.0-14.0-0.14","5f19fa0f3e85b20d0336258c","650c16f0f2faf8d7a0d14c09","651c0ad947f72aaa4e9ec00b","null","null","<p style=""font-size: 60px; font-family: BACS"">EdBbYBO</p>","","","","","","","","",""
"html-keyboard-response","266","332626","0.0-14.0-0.15","5f19fa0f3e85b20d0336258c","650c16f0f2faf8d7a0d14c09","651c0ad947f72aaa4e9ec00b","null","null","<p style=""font-size: 60px; font-family: BACS"">PMPtkYKPB</p>","","","","","","","","",""
"html-keyboard-response","267","333629","0.0-14.0-0.16","5f19fa0f3e85b20d0336258c","650c16f0f2faf8d7a0d14c09","651c0ad947f72aaa4e9ec00b","null","null","<p style=""font-size: 60px; font-family: BACS"">EPMDkmtKP</p>","","","","","","","","",""
"html-keyboard-response","268","334631","0.0-14.0-0.17","5f19fa0f3e85b20d0336258c","650c16f0f2faf8d7a0d14c09","651c0ad947f72aaa4e9ec00b","null","null","<p style=""font-size: 60px; font-family: BACS"">JauQuda</p>","","","","","","","","",""
"html-keyboard-response","269","335637","0.0-14.0-0.18","5f19fa0f3e85b20d0336258c","650c16f0f2faf8d7a0d14c09","651c0ad947f72aaa4e9ec00b","null","null","<p style=""font-size: 60px; font-family: BACS"">ZcGdNdYAJ</p>","","","","","","","","",""
"html-keyboard-response","270","336649","0.0-14.0-0.19","5f19fa0f3e85b20d0336258c","650c16f0f2faf8d7a0d14c09","651c0ad947f72aaa4e9ec00b","null","null","<p style=""font-size: 60px; font-family: BACS"">EMYKdTAh</p>","","","","","","","","",""
"html-keyboard-response","271","337653","0.0-14.0-0.20","5f19fa0f3e85b20d0336258c","650c16f0f2faf8d7a0d14c09","651c0ad947f72aaa4e9ec00b","null","null","<p style=""font-size: 60px; font-family: BACS"">LuNZAld</p>","","","","","","","","",""
"html-keyboard-response","272","338669","0.0-14.0-0.21","5f19fa0f3e85b20d0336258c","650c16f0f2faf8d7a0d14c09","651c0ad947f72aaa4e9ec00b","null","null","<p style=""font-size: 60px; font-family: BACS"">ctktTmTm</p>","","","","","","","","",""
"html-keyboard-response","273","339685","0.0-14.0-0.22","5f19fa0f3e85b20d0336258c","650c16f0f2faf8d7a0d14c09","651c0ad947f72aaa4e9ec00b","null","null","<p style=""font-size: 60px; font-family: BACS"">aOLZUcbm</p>","","","","","","","","",""
"html-keyboard-response","274","340702","0.0-14.0-0.23","5f19fa0f3e85b20d0336258c","650c16f0f2faf8d7a0d14c09","651c0ad947f72aaa4e9ec00b","null","null","<p style=""font-size: 60px; font-family: BACS"">bROCdTAh</p>","","","","","","","","",""
"html-keyboard-response","275","341704","0.0-14.0-0.24","5f19fa0f3e85b20d0336258c","650c16f0f2faf8d7a0d14c09","651c0ad947f72aaa4e9ec00b","null","null","<p style=""font-size: 60px; font-family: BACS"">vYLUdYAJ</p>","","","","","","","","",""
"html-keyboard-response","276","342719","0.0-14.0-0.25","5f19fa0f3e85b20d0336258c","650c16f0f2faf8d7a0d14c09","651c0ad947f72aaa4e9ec00b","null","null","<p style=""font-size: 60px; font-family: BACS"">JAdLmAld</p>","","","","","","","","",""
"html-keyboard-response","277","343722","0.0-14.0-0.26","5f19fa0f3e85b20d0336258c","650c16f0f2faf8d7a0d14c09","651c0ad947f72aaa4e9ec00b","null","null","<p style=""font-size: 60px; font-family: BACS"">htmhCYKPB</p>","","","","","","","","",""
"html-keyboard-response","278","344737","0.0-14.0-0.27","5f19fa0f3e85b20d0336258c","650c16f0f2faf8d7a0d14c09","651c0ad947f72aaa4e9ec00b","null","null","<p style=""font-size: 60px; font-family: BACS"">PCPDhTmTm</p>","","","","","","","","",""
"html-keyboard-response","279","345740","0.0-14.0-0.28","5f19fa0f3e85b20d0336258c","650c16f0f2faf8d7a0d14c09","651c0ad947f72aaa4e9ec00b","null","null","<p style=""font-size: 60px; font-family: BACS"">DOchldTAh</p>","","","","","","","","",""
"html-keyboard-response","280","346742","0.0-14.0-0.29","5f19fa0f3e85b20d0336258c","650c16f0f2faf8d7a0d14c09","651c0ad947f72aaa4e9ec00b","null","null","<p style=""font-size: 60px; font-family: BACS"">JauQAld</p>","","","","","","","","",""
"html-keyboard-response","281","347743","0.0-14.0-0.30","5f19fa0f3e85b20d0336258c","650c16f0f2faf8d7a0d14c09","651c0ad947f72aaa4e9ec00b","null","null","<p style=""font-size: 60px; font-family: BACS"">rLkmaQr</p>","","","","","","","","",""
"html-keyboard-response","282","348745","0.0-14.0-0.31","5f19fa0f3e85b20d0336258c","650c16f0f2faf8d7a0d14c09","651c0ad947f72aaa4e9ec00b","null","null","<p style=""font-size: 60px; font-family: BACS"">PCPDhmtKP</p>","","","","","","","","",""
"html-keyboard-response","283","349747","0.0-14.0-0.32","5f19fa0f3e85b20d0336258c","650c16f0f2faf8d7a0d14c09","651c0ad947f72aaa4e9ec00b","null","null","<p style=""font-size: 60px; font-family: BACS"">mUOcOAld</p>","","","","","","","","",""
"html-keyboard-response","284","350762","0.0-14.0-0.33","5f19fa0f3e85b20d0336258c","650c16f0f2faf8d7a0d14c09","651c0ad947f72aaa4e9ec00b","null","null","<p style=""font-size: 60px; font-family: BACS"">EPMDkYBO</p>","","","","","","","","",""
"html-keyboard-response","285","351765","0.0-14.0-0.34","5f19fa0f3e85b20d0336258c","650c16f0f2faf8d7a0d14c09","651c0ad947f72aaa4e9ec00b","null","null","<p style=""font-size: 60px; font-family: BACS"">vAuNluda</p>","","","","","","","","",""
"html-keyboard-response","286","352781","0.0-14.0-0.35","5f19fa0f3e85b20d0336258c","650c16f0f2faf8d7a0d14c09","651c0ad947f72aaa4e9ec00b","null","null","<p style=""font-size: 60px; font-family: BACS"">JauQdYAJ</p>","","","","","","","","",""
"html-keyboard-response","287","353784","0.0-14.0-0.36","5f19fa0f3e85b20d0336258c","650c16f0f2faf8d7a0d14c09","651c0ad947f72aaa4e9ec00b","null","null","<p style=""font-size: 60px; font-family: BACS"">PMPtkTmTm</p>","","","","","","","","",""
"html-keyboard-response","288","354800","0.0-14.0-0.37","5f19fa0f3e85b20d0336258c","650c16f0f2faf8d7a0d14c09","651c0ad947f72aaa4e9ec00b","null","null","<p style=""font-size: 60px; font-family: BACS"">EdBbdTAh</p>","","","","","","","","",""
"html-keyboard-response","289","355802","0.0-14.0-0.38","5f19fa0f3e85b20d0336258c","650c16f0f2faf8d7a0d14c09","651c0ad947f72aaa4e9ec00b","null","null","<p style=""font-size: 60px; font-family: BACS"">JAdLmaQr</p>","","","","","","","","",""
"html-keyboard-response","290","356818","0.0-14.0-0.39","5f19fa0f3e85b20d0336258c","650c16f0f2faf8d7a0d14c09","651c0ad947f72aaa4e9ec00b","null","null","<p style=""font-size: 60px; font-family: BACS"">JauQcbm</p>","","","","","","","","",""
"html-keyboard-response","291","357821","0.0-14.0-0.40","5f19fa0f3e85b20d0336258c","650c16f0f2faf8d7a0d14c09","651c0ad947f72aaa4e9ec00b","null","null","<p style=""font-size: 60px; font-family: BACS"">UJmraQr</p>","","","","","","","","",""
"html-keyboard-response","292","358838","0.0-14.0-0.41","5f19fa0f3e85b20d0336258c","650c16f0f2faf8d7a0d14c09","651c0ad947f72aaa4e9ec00b","null","null","<p style=""font-size: 60px; font-family: BACS"">PMPtkmtKP</p>","","","","","","","","",""
"html-keyboard-response","293","359841","0.0-14.0-0.42","5f19fa0f3e85b20d0336258c","650c16f0f2faf8d7a0d14c09","651c0ad947f72aaa4e9ec00b","null","null","<p style=""font-size: 60px; font-family: BACS"">ZcGdNaQr</p>","","","","","","","","",""
"html-keyboard-response","294","360843","0.0-14.0-0.43","5f19fa0f3e85b20d0336258c","650c16f0f2faf8d7a0d14c09","651c0ad947f72aaa4e9ec00b","null","null","<p style=""font-size: 60px; font-family: BACS"">LuNZdYAJ</p>","","","","","","","","",""
"html-keyboard-response","295","361857","0.0-14.0-0.44","5f19fa0f3e85b20d0336258c","650c16f0f2faf8d7a0d14c09","651c0ad947f72aaa4e9ec00b","null","null","<p style=""font-size: 60px; font-family: BACS"">UJmrAld</p>","","","","","","","","",""
"html-keyboard-response","296","362860","0.0-14.0-0.45","5f19fa0f3e85b20d0336258c","650c16f0f2faf8d7a0d14c09","651c0ad947f72aaa4e9ec00b","null","null","<p style=""font-size: 60px; font-family: BACS"">ctktdTAh</p>","","","","","","","","",""
"html-keyboard-response","297","363862","0.0-14.0-0.46","5f19fa0f3e85b20d0336258c","650c16f0f2faf8d7a0d14c09","651c0ad947f72aaa4e9ec00b","null","null","<p style=""font-size: 60px; font-family: BACS"">ZcGdNuda</p>","","","","","","","","",""
"html-keyboard-response","298","364863","0.0-14.0-0.47","5f19fa0f3e85b20d0336258c","650c16f0f2faf8d7a0d14c09","651c0ad947f72aaa4e9ec00b","null","null","<p style=""font-size: 60px; font-family: BACS"">bROCTmTm</p>","","","","","","","","",""
"html-keyboard-response","299","365866","0.0-14.0-0.48","5f19fa0f3e85b20d0336258c","650c16f0f2faf8d7a0d14c09","651c0ad947f72aaa4e9ec00b","null","null","<p style=""font-size: 60px; font-family: BACS"">vAuNldYAJ</p>","","","","","","","","",""
"html-keyboard-response","300","366881","0.0-14.0-0.49","5f19fa0f3e85b20d0336258c","650c16f0f2faf8d7a0d14c09","651c0ad947f72aaa4e9ec00b","null","null","<p style=""font-size: 60px; font-family: BACS"">LuNZuda</p>","","","","","","","","",""
"html-keyboard-response","301","367882","0.0-14.0-0.50","5f19fa0f3e85b20d0336258c","650c16f0f2faf8d7a0d14c09","651c0ad947f72aaa4e9ec00b","null","null","<p style=""font-size: 60px; font-family: BACS"">ZcGdNAld</p>","","","","","","","","",""
"html-keyboard-response","302","368899","0.0-14.0-0.51","5f19fa0f3e85b20d0336258c","650c16f0f2faf8d7a0d14c09","651c0ad947f72aaa4e9ec00b","null","null","<p style=""font-size: 60px; font-family: BACS"">EPMDkYKPB</p>","","","","","","","","",""
"html-keyboard-response","303","369902","0.0-14.0-0.52","5f19fa0f3e85b20d0336258c","650c16f0f2faf8d7a0d14c09","651c0ad947f72aaa4e9ec00b","null","null","<p style=""font-size: 60px; font-family: BACS"">vYLUcbm</p>","","","","","","","","",""
"html-keyboard-response","304","370918","0.0-14.0-0.53","5f19fa0f3e85b20d0336258c","650c16f0f2faf8d7a0d14c09","651c0ad947f72aaa4e9ec00b","null","null","<p style=""font-size: 60px; font-family: BACS"">DBlhYKPB</p>","","","","","","","","",""
"html-keyboard-response","305","371921","0.0-14.0-0.54","5f19fa0f3e85b20d0336258c","650c16f0f2faf8d7a0d14c09","651c0ad947f72aaa4e9ec00b","null","null","<p style=""font-size: 60px; font-family: BACS"">vYLUaQr</p>","","","","","","","","",""
"html-keyboard-response","306","372936","0.0-14.0-0.55","5f19fa0f3e85b20d0336258c","650c16f0f2faf8d7a0d14c09","651c0ad947f72aaa4e9ec00b","null","null","<p style=""font-size: 60px; font-family: BACS"">htmhCmtKP</p>","","","","","","","","",""
"html-keyboard-response","307","373939","0.0-14.0-0.56","5f19fa0f3e85b20d0336258c","650c16f0f2faf8d7a0d14c09","651c0ad947f72aaa4e9ec00b","null","null","<p style=""font-size: 60px; font-family: BACS"">EMYKYBO</p>","","","","","","","","",""
"html-keyboard-response","308","374955","0.0-14.0-0.57","5f19fa0f3e85b20d0336258c","650c16f0f2faf8d7a0d14c09","651c0ad947f72aaa4e9ec00b","null","null","<p style=""font-size: 60px; font-family: BACS"">aOLZUAld</p>","","","","","","","","",""
"html-keyboard-response","309","375958","0.0-14.0-0.58","5f19fa0f3e85b20d0336258c","650c16f0f2faf8d7a0d14c09","651c0ad947f72aaa4e9ec00b","null","null","<p style=""font-size: 60px; font-family: BACS"">rLkmcbm</p>","","","","","","","","",""
"html-keyboard-response","310","376973","0.0-14.0-0.59","5f19fa0f3e85b20d0336258c","650c16f0f2faf8d7a0d14c09","651c0ad947f72aaa4e9ec00b","null","null","<p style=""font-size: 60px; font-family: BACS"">EPMDkdTAh</p>","","","","","","","","",""
"html-keyboard-response","311","377976","0.0-14.0-0.60","5f19fa0f3e85b20d0336258c","650c16f0f2faf8d7a0d14c09","651c0ad947f72aaa4e9ec00b","null","null","<p style=""font-size: 60px; font-family: BACS"">EdBbYKPB</p>","","","","","","","","",""
"html-keyboard-response","312","378978","0.0-14.0-0.61","5f19fa0f3e85b20d0336258c","650c16f0f2faf8d7a0d14c09","651c0ad947f72aaa4e9ec00b","null","null","<p style=""font-size: 60px; font-family: BACS"">JAdLmdYAJ</p>","","","","","","","","",""
"html-keyboard-response","313","379996","0.0-14.0-0.62","5f19fa0f3e85b20d0336258c","650c16f0f2faf8d7a0d14c09","651c0ad947f72aaa4e9ec00b","null","null","<p style=""font-size: 60px; font-family: BACS"">htmhCYBO</p>","","","","","","","","",""
"html-keyboard-response","314","381013","0.0-14.0-0.63","5f19fa0f3e85b20d0336258c","650c16f0f2faf8d7a0d14c09","651c0ad947f72aaa4e9ec00b","null","null","<p style=""font-size: 60px; font-family: BACS"">mUOcOaQr</p>","","","","","","","","",""
"html-keyboard-response","315","382017","0.0-14.0-0.64","5f19fa0f3e85b20d0336258c","650c16f0f2faf8d7a0d14c09","651c0ad947f72aaa4e9ec00b","null","null","<p style=""font-size: 60px; font-family: BACS"">bROCYKPB</p>","","","","","","","","",""
"html-keyboard-response","316","383032","0.0-14.0-0.65","5f19fa0f3e85b20d0336258c","650c16f0f2faf8d7a0d14c09","651c0ad947f72aaa4e9ec00b","null","null","<p style=""font-size: 60px; font-family: BACS"">mUOcOdYAJ</p>","","","","","","","","",""
"html-keyboard-response","317","384049","0.0-14.0-0.66","5f19fa0f3e85b20d0336258c","650c16f0f2faf8d7a0d14c09","651c0ad947f72aaa4e9ec00b","null","null","<p style=""font-size: 60px; font-family: BACS"">PCPDhdTAh</p>","","","","","","","","",""
"html-keyboard-response","318","385051","0.0-14.0-0.67","5f19fa0f3e85b20d0336258c","650c16f0f2faf8d7a0d14c09","651c0ad947f72aaa4e9ec00b","null","null","<p style=""font-size: 60px; font-family: BACS"">vAuNlaQr</p>","","","","","","","","",""
"html-keyboard-response","319","386054","0.0-14.0-0.68","5f19fa0f3e85b20d0336258c","650c16f0f2faf8d7a0d14c09","651c0ad947f72aaa4e9ec00b","null","null","<p style=""font-size: 60px; font-family: BACS"">DBlhdTAh</p>","","","","","","","","",""
"html-keyboard-response","320","387069","0.0-14.0-0.69","5f19fa0f3e85b20d0336258c","650c16f0f2faf8d7a0d14c09","651c0ad947f72aaa4e9ec00b","null","null","<p style=""font-size: 60px; font-family: BACS"">UJmrcbm</p>","","","","","","","","",""
"html-keyboard-response","321","388071","0.0-14.0-0.70","5f19fa0f3e85b20d0336258c","650c16f0f2faf8d7a0d14c09","651c0ad947f72aaa4e9ec00b","null","null","<p style=""font-size: 60px; font-family: BACS"">htmhCTmTm</p>","","","","","","","","",""
"html-keyboard-response","322","389087","0.0-14.0-0.71","5f19fa0f3e85b20d0336258c","650c16f0f2faf8d7a0d14c09","651c0ad947f72aaa4e9ec00b","null","null","<p style=""font-size: 60px; font-family: BACS"">vAuNlcbm</p>","","","","","","","","",""
"html-keyboard-response","323","390090","0.0-14.0-0.72","5f19fa0f3e85b20d0336258c","650c16f0f2faf8d7a0d14c09","651c0ad947f72aaa4e9ec00b","null","null","<p style=""font-size: 60px; font-family: BACS"">bROCmtKP</p>","","","","","","","","",""
"html-keyboard-response","324","391107","0.0-14.0-0.73","5f19fa0f3e85b20d0336258c","650c16f0f2faf8d7a0d14c09","651c0ad947f72aaa4e9ec00b","null","null","<p style=""font-size: 60px; font-family: BACS"">EMYKTmTm</p>","","","","","","","","",""
"html-keyboard-response","325","392109","0.0-14.0-0.74","5f19fa0f3e85b20d0336258c","650c16f0f2faf8d7a0d14c09","651c0ad947f72aaa4e9ec00b","null","null","<p style=""font-size: 60px; font-family: BACS"">ctktmtKP</p>","","","","","","","","",""
"html-keyboard-response","326","393111","0.0-14.0-0.75","5f19fa0f3e85b20d0336258c","650c16f0f2faf8d7a0d14c09","651c0ad947f72aaa4e9ec00b","null","null","<p style=""font-size: 60px; font-family: BACS"">rLkmuda</p>","","","","","","","","",""
"html-keyboard-response","327","394127","0.0-14.0-0.76","5f19fa0f3e85b20d0336258c","650c16f0f2faf8d7a0d14c09","651c0ad947f72aaa4e9ec00b","null","null","<p style=""font-size: 60px; font-family: BACS"">PCPDhYBO</p>","","","","","","","","",""
"html-keyboard-response","328","395130","0.0-14.0-0.77","5f19fa0f3e85b20d0336258c","650c16f0f2faf8d7a0d14c09","651c0ad947f72aaa4e9ec00b","null","null","<p style=""font-size: 60px; font-family: BACS"">UJmrdYAJ</p>","","","","","","","","",""
"html-keyboard-response","329","396146","0.0-14.0-0.78","5f19fa0f3e85b20d0336258c","650c16f0f2faf8d7a0d14c09","651c0ad947f72aaa4e9ec00b","null","null","<p style=""font-size: 60px; font-family: BACS"">DOchlYKPB</p>","","","","","","","","",""
"html-keyboard-response","330","397162","0.0-14.0-0.79","5f19fa0f3e85b20d0336258c","650c16f0f2faf8d7a0d14c09","651c0ad947f72aaa4e9ec00b","null","null","<p style=""font-size: 60px; font-family: BACS"">vYLUuda</p>","","","","","","","","",""
"html-keyboard-response","331","411708","0.0-15.0","5f19fa0f3e85b20d0336258c","650c16f0f2faf8d7a0d14c09","651c0ad947f72aaa4e9ec00b","14545"," ","<p>Great, you've seen the fourth block of words. You may now take a short break.</p>
      <p>Press the spacebar when you're ready to continue.</p>","","","","","","","","",""
"html-keyboard-response","332","412714","0.0-16.0-0.0","5f19fa0f3e85b20d0336258c","650c16f0f2faf8d7a0d14c09","651c0ad947f72aaa4e9ec00b","null","null","<p style=""font-size: 60px; font-family: BACS"">EMYKYBO</p>","","","","","","","","",""
"html-keyboard-response","333","413715","0.0-16.0-0.1","5f19fa0f3e85b20d0336258c","650c16f0f2faf8d7a0d14c09","651c0ad947f72aaa4e9ec00b","null","null","<p style=""font-size: 60px; font-family: BACS"">EMYKYBO</p>","","","","","","","","",""
"html-keyboard-response","334","414717","0.0-16.0-0.2","5f19fa0f3e85b20d0336258c","650c16f0f2faf8d7a0d14c09","651c0ad947f72aaa4e9ec00b","null","null","<p style=""font-size: 60px; font-family: BACS"">EMYKYBO</p>","","","","","","","","",""
"html-keyboard-response","335","415733","0.0-16.0-0.3","5f19fa0f3e85b20d0336258c","650c16f0f2faf8d7a0d14c09","651c0ad947f72aaa4e9ec00b","null","null","<p style=""font-size: 60px; font-family: BACS"">EMYKYBO</p>","","","","","","","","",""
"html-keyboard-response","336","416737","0.0-16.0-0.4","5f19fa0f3e85b20d0336258c","650c16f0f2faf8d7a0d14c09","651c0ad947f72aaa4e9ec00b","null","null","<p style=""font-size: 60px; font-family: BACS"">EMYKYBO</p>","","","","","","","","",""
"html-keyboard-response","337","417738","0.0-16.0-0.5","5f19fa0f3e85b20d0336258c","650c16f0f2faf8d7a0d14c09","651c0ad947f72aaa4e9ec00b","null","null","<p style=""font-size: 60px; font-family: BACS"">EMYKYBO</p>","","","","","","","","",""
"html-keyboard-response","338","418755","0.0-16.0-0.6","5f19fa0f3e85b20d0336258c","650c16f0f2faf8d7a0d14c09","651c0ad947f72aaa4e9ec00b","null","null","<p style=""font-size: 60px; font-family: BACS"">EMYKYBO</p>","","","","","","","","",""
"html-keyboard-response","339","419772","0.0-16.0-0.7","5f19fa0f3e85b20d0336258c","650c16f0f2faf8d7a0d14c09","651c0ad947f72aaa4e9ec00b","null","null","<p style=""font-size: 60px; font-family: BACS"">EMYKYBO</p>","","","","","","","","",""
"html-keyboard-response","340","420775","0.0-16.0-0.8","5f19fa0f3e85b20d0336258c","650c16f0f2faf8d7a0d14c09","651c0ad947f72aaa4e9ec00b","null","null","<p style=""font-size: 60px; font-family: BACS"">EMYKYBO</p>","","","","","","","","",""
"html-keyboard-response","341","421777","0.0-16.0-0.9","5f19fa0f3e85b20d0336258c","650c16f0f2faf8d7a0d14c09","651c0ad947f72aaa4e9ec00b","null","null","<p style=""font-size: 60px; font-family: BACS"">EMYKYBO</p>","","","","","","","","",""
"html-keyboard-response","342","422792","0.0-16.0-0.10","5f19fa0f3e85b20d0336258c","650c16f0f2faf8d7a0d14c09","651c0ad947f72aaa4e9ec00b","null","null","<p style=""font-size: 60px; font-family: BACS"">EMYKYBO</p>","","","","","","","","",""
"html-keyboard-response","343","423794","0.0-16.0-0.11","5f19fa0f3e85b20d0336258c","650c16f0f2faf8d7a0d14c09","651c0ad947f72aaa4e9ec00b","null","null","<p style=""font-size: 60px; font-family: BACS"">EMYKYBO</p>","","","","","","","","",""
"html-keyboard-response","344","424796","0.0-16.0-0.12","5f19fa0f3e85b20d0336258c","650c16f0f2faf8d7a0d14c09","651c0ad947f72aaa4e9ec00b","null","null","<p style=""font-size: 60px; font-family: BACS"">EMYKYBO</p>","","","","","","","","",""
"html-keyboard-response","345","425799","0.0-16.0-0.13","5f19fa0f3e85b20d0336258c","650c16f0f2faf8d7a0d14c09","651c0ad947f72aaa4e9ec00b","null","null","<p style=""font-size: 60px; font-family: BACS"">EMYKYBO</p>","","","","","","","","",""
"html-keyboard-response","346","426814","0.0-16.0-0.14","5f19fa0f3e85b20d0336258c","650c16f0f2faf8d7a0d14c09","651c0ad947f72aaa4e9ec00b","null","null","<p style=""font-size: 60px; font-family: BACS"">EMYKYBO</p>","","","","","","","","",""
"html-keyboard-response","347","427816","0.0-16.0-0.15","5f19fa0f3e85b20d0336258c","650c16f0f2faf8d7a0d14c09","651c0ad947f72aaa4e9ec00b","null","null","<p style=""font-size: 60px; font-family: BACS"">EMYKYBO</p>","","","","","","","","",""
"html-keyboard-response","348","428817","0.0-16.0-0.16","5f19fa0f3e85b20d0336258c","650c16f0f2faf8d7a0d14c09","651c0ad947f72aaa4e9ec00b","null","null","<p style=""font-size: 60px; font-family: BACS"">EMYKYBO</p>","","","","","","","","",""
"html-keyboard-response","349","429819","0.0-16.0-0.17","5f19fa0f3e85b20d0336258c","650c16f0f2faf8d7a0d14c09","651c0ad947f72aaa4e9ec00b","null","null","<p style=""font-size: 60px; font-family: BACS"">EMYKYBO</p>","","","","","","","","",""
"html-keyboard-response","350","430820","0.0-16.0-0.18","5f19fa0f3e85b20d0336258c","650c16f0f2faf8d7a0d14c09","651c0ad947f72aaa4e9ec00b","null","null","<p style=""font-size: 60px; font-family: BACS"">EMYKYBO</p>","","","","","","","","",""
"html-keyboard-response","351","431836","0.0-16.0-0.19","5f19fa0f3e85b20d0336258c","650c16f0f2faf8d7a0d14c09","651c0ad947f72aaa4e9ec00b","null","null","<p style=""font-size: 60px; font-family: BACS"">EMYKYBO</p>","","","","","","","","",""
"html-keyboard-response","352","432852","0.0-16.0-0.20","5f19fa0f3e85b20d0336258c","650c16f0f2faf8d7a0d14c09","651c0ad947f72aaa4e9ec00b","null","null","<p style=""font-size: 60px; font-family: BACS"">EMYKYBO</p>","","","","","","","","",""
"html-keyboard-response","353","433855","0.0-16.0-0.21","5f19fa0f3e85b20d0336258c","650c16f0f2faf8d7a0d14c09","651c0ad947f72aaa4e9ec00b","null","null","<p style=""font-size: 60px; font-family: BACS"">EMYKYBO</p>","","","","","","","","",""
"html-keyboard-response","354","434870","0.0-16.0-0.22","5f19fa0f3e85b20d0336258c","650c16f0f2faf8d7a0d14c09","651c0ad947f72aaa4e9ec00b","null","null","<p style=""font-size: 60px; font-family: BACS"">EMYKYBO</p>","","","","","","","","",""
"html-keyboard-response","355","435873","0.0-16.0-0.23","5f19fa0f3e85b20d0336258c","650c16f0f2faf8d7a0d14c09","651c0ad947f72aaa4e9ec00b","null","null","<p style=""font-size: 60px; font-family: BACS"">EMYKYBO</p>","","","","","","","","",""
"html-keyboard-response","356","436876","0.0-16.0-0.24","5f19fa0f3e85b20d0336258c","650c16f0f2faf8d7a0d14c09","651c0ad947f72aaa4e9ec00b","null","null","<p style=""font-size: 60px; font-family: BACS"">EMYKYBO</p>","","","","","","","","",""
"html-keyboard-response","357","437892","0.0-16.0-0.25","5f19fa0f3e85b20d0336258c","650c16f0f2faf8d7a0d14c09","651c0ad947f72aaa4e9ec00b","null","null","<p style=""font-size: 60px; font-family: BACS"">EMYKYBO</p>","","","","","","","","",""
"html-keyboard-response","358","438894","0.0-16.0-0.26","5f19fa0f3e85b20d0336258c","650c16f0f2faf8d7a0d14c09","651c0ad947f72aaa4e9ec00b","null","null","<p style=""font-size: 60px; font-family: BACS"">EMYKYBO</p>","","","","","","","","",""
"html-keyboard-response","359","439910","0.0-16.0-0.27","5f19fa0f3e85b20d0336258c","650c16f0f2faf8d7a0d14c09","651c0ad947f72aaa4e9ec00b","null","null","<p style=""font-size: 60px; font-family: BACS"">EMYKYBO</p>","","","","","","","","",""
"html-keyboard-response","360","440912","0.0-16.0-0.28","5f19fa0f3e85b20d0336258c","650c16f0f2faf8d7a0d14c09","651c0ad947f72aaa4e9ec00b","null","null","<p style=""font-size: 60px; font-family: BACS"">EMYKYBO</p>","","","","","","","","",""
"html-keyboard-response","361","441929","0.0-16.0-0.29","5f19fa0f3e85b20d0336258c","650c16f0f2faf8d7a0d14c09","651c0ad947f72aaa4e9ec00b","null","null","<p style=""font-size: 60px; font-family: BACS"">EMYKYBO</p>","","","","","","","","",""
"html-keyboard-response","362","442931","0.0-16.0-0.30","5f19fa0f3e85b20d0336258c","650c16f0f2faf8d7a0d14c09","651c0ad947f72aaa4e9ec00b","null","null","<p style=""font-size: 60px; font-family: BACS"">EMYKYBO</p>","","","","","","","","",""
"html-keyboard-response","363","443932","0.0-16.0-0.31","5f19fa0f3e85b20d0336258c","650c16f0f2faf8d7a0d14c09","651c0ad947f72aaa4e9ec00b","null","null","<p style=""font-size: 60px; font-family: BACS"">EMYKYBO</p>","","","","","","","","",""
"html-keyboard-response","364","444934","0.0-16.0-0.32","5f19fa0f3e85b20d0336258c","650c16f0f2faf8d7a0d14c09","651c0ad947f72aaa4e9ec00b","null","null","<p style=""font-size: 60px; font-family: BACS"">EMYKYBO</p>","","","","","","","","",""
"html-keyboard-response","365","445936","0.0-16.0-0.33","5f19fa0f3e85b20d0336258c","650c16f0f2faf8d7a0d14c09","651c0ad947f72aaa4e9ec00b","null","null","<p style=""font-size: 60px; font-family: BACS"">EMYKYBO</p>","","","","","","","","",""
"html-keyboard-response","366","446938","0.0-16.0-0.34","5f19fa0f3e85b20d0336258c","650c16f0f2faf8d7a0d14c09","651c0ad947f72aaa4e9ec00b","null","null","<p style=""font-size: 60px; font-family: BACS"">EMYKYBO</p>","","","","","","","","",""
"html-keyboard-response","367","447953","0.0-16.0-0.35","5f19fa0f3e85b20d0336258c","650c16f0f2faf8d7a0d14c09","651c0ad947f72aaa4e9ec00b","null","null","<p style=""font-size: 60px; font-family: BACS"">EMYKYBO</p>","","","","","","","","",""
"html-keyboard-response","368","448954","0.0-16.0-0.36","5f19fa0f3e85b20d0336258c","650c16f0f2faf8d7a0d14c09","651c0ad947f72aaa4e9ec00b","null","null","<p style=""font-size: 60px; font-family: BACS"">EMYKYBO</p>","","","","","","","","",""
"html-keyboard-response","369","449957","0.0-16.0-0.37","5f19fa0f3e85b20d0336258c","650c16f0f2faf8d7a0d14c09","651c0ad947f72aaa4e9ec00b","null","null","<p style=""font-size: 60px; font-family: BACS"">EMYKYBO</p>","","","","","","","","",""
"html-keyboard-response","370","450972","0.0-16.0-0.38","5f19fa0f3e85b20d0336258c","650c16f0f2faf8d7a0d14c09","651c0ad947f72aaa4e9ec00b","null","null","<p style=""font-size: 60px; font-family: BACS"">EMYKYBO</p>","","","","","","","","",""
"html-keyboard-response","371","451974","0.0-16.0-0.39","5f19fa0f3e85b20d0336258c","650c16f0f2faf8d7a0d14c09","651c0ad947f72aaa4e9ec00b","null","null","<p style=""font-size: 60px; font-family: BACS"">EMYKYBO</p>","","","","","","","","",""
"html-keyboard-response","372","452977","0.0-16.0-0.40","5f19fa0f3e85b20d0336258c","650c16f0f2faf8d7a0d14c09","651c0ad947f72aaa4e9ec00b","null","null","<p style=""font-size: 60px; font-family: BACS"">EMYKYBO</p>","","","","","","","","",""
"html-keyboard-response","373","453994","0.0-16.0-0.41","5f19fa0f3e85b20d0336258c","650c16f0f2faf8d7a0d14c09","651c0ad947f72aaa4e9ec00b","null","null","<p style=""font-size: 60px; font-family: BACS"">EMYKYBO</p>","","","","","","","","",""
"html-keyboard-response","374","454996","0.0-16.0-0.42","5f19fa0f3e85b20d0336258c","650c16f0f2faf8d7a0d14c09","651c0ad947f72aaa4e9ec00b","null","null","<p style=""font-size: 60px; font-family: BACS"">EMYKYBO</p>","","","","","","","","",""
"html-keyboard-response","375","456014","0.0-16.0-0.43","5f19fa0f3e85b20d0336258c","650c16f0f2faf8d7a0d14c09","651c0ad947f72aaa4e9ec00b","null","null","<p style=""font-size: 60px; font-family: BACS"">EMYKYBO</p>","","","","","","","","",""
"html-keyboard-response","376","457030","0.0-16.0-0.44","5f19fa0f3e85b20d0336258c","650c16f0f2faf8d7a0d14c09","651c0ad947f72aaa4e9ec00b","null","null","<p style=""font-size: 60px; font-family: BACS"">EMYKYBO</p>","","","","","","","","",""
"html-keyboard-response","377","458032","0.0-16.0-0.45","5f19fa0f3e85b20d0336258c","650c16f0f2faf8d7a0d14c09","651c0ad947f72aaa4e9ec00b","null","null","<p style=""font-size: 60px; font-family: BACS"">EMYKYBO</p>","","","","","","","","",""
"html-keyboard-response","378","459048","0.0-16.0-0.46","5f19fa0f3e85b20d0336258c","650c16f0f2faf8d7a0d14c09","651c0ad947f72aaa4e9ec00b","null","null","<p style=""font-size: 60px; font-family: BACS"">EMYKYBO</p>","","","","","","","","",""
"html-keyboard-response","379","460051","0.0-16.0-0.47","5f19fa0f3e85b20d0336258c","650c16f0f2faf8d7a0d14c09","651c0ad947f72aaa4e9ec00b","null","null","<p style=""font-size: 60px; font-family: BACS"">EMYKYBO</p>","","","","","","","","",""
"html-keyboard-response","380","461068","0.0-16.0-0.48","5f19fa0f3e85b20d0336258c","650c16f0f2faf8d7a0d14c09","651c0ad947f72aaa4e9ec00b","null","null","<p style=""font-size: 60px; font-family: BACS"">EMYKYBO</p>","","","","","","","","",""
"html-keyboard-response","381","462070","0.0-16.0-0.49","5f19fa0f3e85b20d0336258c","650c16f0f2faf8d7a0d14c09","651c0ad947f72aaa4e9ec00b","null","null","<p style=""font-size: 60px; font-family: BACS"">EMYKYBO</p>","","","","","","","","",""
"html-keyboard-response","382","463086","0.0-16.0-0.50","5f19fa0f3e85b20d0336258c","650c16f0f2faf8d7a0d14c09","651c0ad947f72aaa4e9ec00b","null","null","<p style=""font-size: 60px; font-family: BACS"">EMYKYBO</p>","","","","","","","","",""
"html-keyboard-response","383","464089","0.0-16.0-0.51","5f19fa0f3e85b20d0336258c","650c16f0f2faf8d7a0d14c09","651c0ad947f72aaa4e9ec00b","null","null","<p style=""font-size: 60px; font-family: BACS"">EMYKYBO</p>","","","","","","","","",""
"html-keyboard-response","384","465090","0.0-16.0-0.52","5f19fa0f3e85b20d0336258c","650c16f0f2faf8d7a0d14c09","651c0ad947f72aaa4e9ec00b","null","null","<p style=""font-size: 60px; font-family: BACS"">EMYKYBO</p>","","","","","","","","",""
"html-keyboard-response","385","466106","0.0-16.0-0.53","5f19fa0f3e85b20d0336258c","650c16f0f2faf8d7a0d14c09","651c0ad947f72aaa4e9ec00b","null","null","<p style=""font-size: 60px; font-family: BACS"">EMYKYBO</p>","","","","","","","","",""
"html-keyboard-response","386","467123","0.0-16.0-0.54","5f19fa0f3e85b20d0336258c","650c16f0f2faf8d7a0d14c09","651c0ad947f72aaa4e9ec00b","null","null","<p style=""font-size: 60px; font-family: BACS"">EMYKYBO</p>","","","","","","","","",""
"html-keyboard-response","387","468126","0.0-16.0-0.55","5f19fa0f3e85b20d0336258c","650c16f0f2faf8d7a0d14c09","651c0ad947f72aaa4e9ec00b","null","null","<p style=""font-size: 60px; font-family: BACS"">EMYKYBO</p>","","","","","","","","",""
"html-keyboard-response","388","469129","0.0-16.0-0.56","5f19fa0f3e85b20d0336258c","650c16f0f2faf8d7a0d14c09","651c0ad947f72aaa4e9ec00b","null","null","<p style=""font-size: 60px; font-family: BACS"">EMYKYBO</p>","","","","","","","","",""
"html-keyboard-response","389","470144","0.0-16.0-0.57","5f19fa0f3e85b20d0336258c","650c16f0f2faf8d7a0d14c09","651c0ad947f72aaa4e9ec00b","null","null","<p style=""font-size: 60px; font-family: BACS"">EMYKYBO</p>","","","","","","","","",""
"html-keyboard-response","390","471154","0.0-16.0-0.58","5f19fa0f3e85b20d0336258c","650c16f0f2faf8d7a0d14c09","651c0ad947f72aaa4e9ec00b","null","null","<p style=""font-size: 60px; font-family: BACS"">EMYKYBO</p>","","","","","","","","",""
"html-keyboard-response","391","472163","0.0-16.0-0.59","5f19fa0f3e85b20d0336258c","650c16f0f2faf8d7a0d14c09","651c0ad947f72aaa4e9ec00b","null","null","<p style=""font-size: 60px; font-family: BACS"">EMYKYBO</p>","","","","","","","","",""
"html-keyboard-response","392","473180","0.0-16.0-0.60","5f19fa0f3e85b20d0336258c","650c16f0f2faf8d7a0d14c09","651c0ad947f72aaa4e9ec00b","null","null","<p style=""font-size: 60px; font-family: BACS"">EMYKYBO</p>","","","","","","","","",""
"html-keyboard-response","393","474183","0.0-16.0-0.61","5f19fa0f3e85b20d0336258c","650c16f0f2faf8d7a0d14c09","651c0ad947f72aaa4e9ec00b","null","null","<p style=""font-size: 60px; font-family: BACS"">EMYKYBO</p>","","","","","","","","",""
"html-keyboard-response","394","475184","0.0-16.0-0.62","5f19fa0f3e85b20d0336258c","650c16f0f2faf8d7a0d14c09","651c0ad947f72aaa4e9ec00b","null","null","<p style=""font-size: 60px; font-family: BACS"">EMYKYBO</p>","","","","","","","","",""
"html-keyboard-response","395","476201","0.0-16.0-0.63","5f19fa0f3e85b20d0336258c","650c16f0f2faf8d7a0d14c09","651c0ad947f72aaa4e9ec00b","null","null","<p style=""font-size: 60px; font-family: BACS"">EMYKYBO</p>","","","","","","","","",""
"html-keyboard-response","396","477205","0.0-16.0-0.64","5f19fa0f3e85b20d0336258c","650c16f0f2faf8d7a0d14c09","651c0ad947f72aaa4e9ec00b","null","null","<p style=""font-size: 60px; font-family: BACS"">EMYKYBO</p>","","","","","","","","",""
"html-keyboard-response","397","478221","0.0-16.0-0.65","5f19fa0f3e85b20d0336258c","650c16f0f2faf8d7a0d14c09","651c0ad947f72aaa4e9ec00b","null","null","<p style=""font-size: 60px; font-family: BACS"">EMYKYBO</p>","","","","","","","","",""
"html-keyboard-response","398","479222","0.0-16.0-0.66","5f19fa0f3e85b20d0336258c","650c16f0f2faf8d7a0d14c09","651c0ad947f72aaa4e9ec00b","null","null","<p style=""font-size: 60px; font-family: BACS"">EMYKYBO</p>","","","","","","","","",""
