trial_type,trial_index,time_elapsed,internal_node_id,subject_id,study_id,session_id,rt,response,stimulus,success,item,task,correct_response,testing_condition,correct,target,confound,name,view_history
pavlovia,0,942,0.0-0.0,5fa5793490f10705755818c0,650c16f0f2faf8d7a0d14c09,651c1c1a303a74061d43ac6a,,,,,,,,,,,,,
survey-html-form,1,43909,0.0-1.0,5fa5793490f10705755818c0,650c16f0f2faf8d7a0d14c09,651c1c1a303a74061d43ac6a,42965,"{""ID"":""5fa5793490f10705755818c0""}",,,,,,,,,,,
html-keyboard-response,2,79422,0.0-2.0,5fa5793490f10705755818c0,650c16f0f2faf8d7a0d14c09,651c1c1a303a74061d43ac6a,35511, ,"<p style=""font-size: 15px;"">Before beginning, we ask that you read the consent information and confirm your agreement to participate in the experiment.</p>
      <p style=""font-size: 15px;""> We ask that you remember that this is a research project and that your participation is entirely voluntary. You can stop your participation at any time, without needing to provide any explanation. The study we're asking you to participate in aims at examining how readers process written words. You will be engaged in a session of apprximately 20 minutes, followed by a brief questionnaire. You will have the opportunity to take a few breaks during the experiment. You will be paid £4 for your participation, corresponding to a rate of £8/hour. While this experiment looks at cognitive faculties, this experiment doesn't constitute clinical proof of eventual pathologies.</p>
      <p style=""font-size: 15px;"">All of the information collected thanks to yours and others' participation will be held in a secure password-protected server, and will not be shared with anyone not authorised to view it. Your personal information will be kept with an arbitrary participant ID. Thanks to this data anonymity process, any researcher analysing the data won't be able to track the information back to a specific participant. Therefore, this process will make identifying you impossibile, even when results from the study will be published in scientific reviews, presented at congresses, or at any other public forum. More generally, the collected data will be treated in accordance with the laws on privacy and conformity to the Legislative Degree n. 196 ""Code regarding the protection of personal data"" of the 30th of June 2003 and to the European Regulation 2016/670 (General Data Protection Regulation - GDPR). The Data Protection Officer is Avv. Valentina Carollo, who can be contacted at the following email addresses: <a href=""mailto:dpo@sissa.it"">dpo@sissa.it</a> or <a href=""mailto:rpd@sissa.it"">rpd@sissa.it</a> - PEC: <a href=""mailto:protocollo@pec.sissa.it"">protocollo@pec.sissa.it</a>.</p>
      <p style=""font-size: 15px;""> Before expressing your consent to participate, we would like to remind you again that in case you need explanations on any aspect of the experimental procedure, the researcher is at your disposition (<a href=""mailto:aliebelt@sissa.it"">aliebelt@sissa.it</a>, <a href=""mailto:davide.crepaldi@sissa.it"">davide.crepaldi@sissa.it</a>).</p>
      <p style=""font-size: 15px;"">If you would like to download the informed consent form, you can do so here: <a href=""BASL-Informed_Consent.pdf"" download>informed consent form</a>.</p>
      <p style=""font-size: 15px;"">We ask that you press the spacebar to proceed to the consent section.</p>",,,,,,,,,,
survey-html-form,3,101690,0.0-3.0,5fa5793490f10705755818c0,650c16f0f2faf8d7a0d14c09,651c1c1a303a74061d43ac6a,22268,"{""consent1"":""YES"",""consent2"":""YES"",""consent3"":""YES"",""consent4"":""YES"",""consent5"":""YES"",""consent6"":""YES""}",,,,,,,,,,,
fullscreen,4,118998,0.0-4.0,5fa5793490f10705755818c0,650c16f0f2faf8d7a0d14c09,651c1c1a303a74061d43ac6a,,,,TRUE,,,,,,,,,
html-keyboard-response,5,140781,0.0-5.0,5fa5793490f10705755818c0,650c16f0f2faf8d7a0d14c09,651c1c1a303a74061d43ac6a,21780, ,"<p>Welcome, and thank you very much for your time!</p>
      <p>In this experiment, you'll be a language expert who's been asked to take a look at words that Earth has received in its first communication with aliens. Your task, in this first part of the experiment, is to pay close attention to the words you'll be shown; later, world leaders will ask you questions on what you saw. The words will be shown to you quite quickly; it seems that the aliens were in a hurry :-)</p>
      <p>Press the spacebar to continue.<p>",,,,,,,,,,
html-keyboard-response,6,140839,0.0-6.0,5fa5793490f10705755818c0,650c16f0f2faf8d7a0d14c09,651c1c1a303a74061d43ac6a,null,null,"<p style=""font-size: 120px; font-family: BACS""> </p>",,,,,,,,,,
html-keyboard-response,7,150354,0.0-7.0,5fa5793490f10705755818c0,650c16f0f2faf8d7a0d14c09,651c1c1a303a74061d43ac6a,9514, ,"<p>Here is an example of the words you'll see:</p>
      <img src='esempio.png' height='400px'>
      <p>When you're ready to begin, press the spacebar.</p></div>",,,,,,,,,,
html-keyboard-response,8,151368,0.0-8.0-0.0,5fa5793490f10705755818c0,650c16f0f2faf8d7a0d14c09,651c1c1a303a74061d43ac6a,null,null,"<p style=""font-size: 60px; font-family: BACS"">bNdmGuOAO</p>",,,,,,,,,,
html-keyboard-response,9,152393,0.0-8.0-0.1,5fa5793490f10705755818c0,650c16f0f2faf8d7a0d14c09,651c1c1a303a74061d43ac6a,null,null,"<p style=""font-size: 60px; font-family: BACS"">aYaNYaum</p>",,,,,,,,,,
html-keyboard-response,10,153398,0.0-8.0-0.2,5fa5793490f10705755818c0,650c16f0f2faf8d7a0d14c09,651c1c1a303a74061d43ac6a,null,null,"<p style=""font-size: 60px; font-family: BACS"">dYdAYDTk</p>",,,,,,,,,,
html-keyboard-response,11,154404,0.0-8.0-0.3,5fa5793490f10705755818c0,650c16f0f2faf8d7a0d14c09,651c1c1a303a74061d43ac6a,null,null,"<p style=""font-size: 60px; font-family: BACS"">lkAkJUNa</p>",,,,,,,,,,
html-keyboard-response,12,155410,0.0-8.0-0.4,5fa5793490f10705755818c0,650c16f0f2faf8d7a0d14c09,651c1c1a303a74061d43ac6a,null,null,"<p style=""font-size: 60px; font-family: BACS"">UdlGQcrdY</p>",,,,,,,,,,
html-keyboard-response,13,156433,0.0-8.0-0.5,5fa5793490f10705755818c0,650c16f0f2faf8d7a0d14c09,651c1c1a303a74061d43ac6a,null,null,"<p style=""font-size: 60px; font-family: BACS"">dYdAmCd</p>",,,,,,,,,,
html-keyboard-response,14,157441,0.0-8.0-0.6,5fa5793490f10705755818c0,650c16f0f2faf8d7a0d14c09,651c1c1a303a74061d43ac6a,null,null,"<p style=""font-size: 60px; font-family: BACS"">ORbkPTl</p>",,,,,,,,,,
html-keyboard-response,15,158449,0.0-8.0-0.7,5fa5793490f10705755818c0,650c16f0f2faf8d7a0d14c09,651c1c1a303a74061d43ac6a,null,null,"<p style=""font-size: 60px; font-family: BACS"">LAclAuOAO</p>",,,,,,,,,,
html-keyboard-response,16,159453,0.0-8.0-0.8,5fa5793490f10705755818c0,650c16f0f2faf8d7a0d14c09,651c1c1a303a74061d43ac6a,null,null,"<p style=""font-size: 60px; font-family: BACS"">dJNrLcO</p>",,,,,,,,,,
html-keyboard-response,17,160455,0.0-8.0-0.9,5fa5793490f10705755818c0,650c16f0f2faf8d7a0d14c09,651c1c1a303a74061d43ac6a,null,null,"<p style=""font-size: 60px; font-family: BACS"">bNdmGJUNa</p>",,,,,,,,,,
html-keyboard-response,18,161463,0.0-8.0-0.10,5fa5793490f10705755818c0,650c16f0f2faf8d7a0d14c09,651c1c1a303a74061d43ac6a,null,null,"<p style=""font-size: 60px; font-family: BACS"">dRbDbPTl</p>",,,,,,,,,,
html-keyboard-response,19,162476,0.0-8.0-0.11,5fa5793490f10705755818c0,650c16f0f2faf8d7a0d14c09,651c1c1a303a74061d43ac6a,null,null,"<p style=""font-size: 60px; font-family: BACS"">LAclAYaum</p>",,,,,,,,,,
html-keyboard-response,20,163505,0.0-8.0-0.12,5fa5793490f10705755818c0,650c16f0f2faf8d7a0d14c09,651c1c1a303a74061d43ac6a,null,null,"<p style=""font-size: 60px; font-family: BACS"">OZkbLcO</p>",,,,,,,,,,
html-keyboard-response,21,164516,0.0-8.0-0.13,5fa5793490f10705755818c0,650c16f0f2faf8d7a0d14c09,651c1c1a303a74061d43ac6a,null,null,"<p style=""font-size: 60px; font-family: BACS"">ORbkTbk</p>",,,,,,,,,,
html-keyboard-response,22,165521,0.0-8.0-0.14,5fa5793490f10705755818c0,650c16f0f2faf8d7a0d14c09,651c1c1a303a74061d43ac6a,null,null,"<p style=""font-size: 60px; font-family: BACS"">YObAYDTk</p>",,,,,,,,,,
html-keyboard-response,23,166533,0.0-8.0-0.15,5fa5793490f10705755818c0,650c16f0f2faf8d7a0d14c09,651c1c1a303a74061d43ac6a,null,null,"<p style=""font-size: 60px; font-family: BACS"">BECkmCd</p>",,,,,,,,,,
html-keyboard-response,24,167544,0.0-8.0-0.16,5fa5793490f10705755818c0,650c16f0f2faf8d7a0d14c09,651c1c1a303a74061d43ac6a,null,null,"<p style=""font-size: 60px; font-family: BACS"">lkAkYaum</p>",,,,,,,,,,
html-keyboard-response,25,168548,0.0-8.0-0.17,5fa5793490f10705755818c0,650c16f0f2faf8d7a0d14c09,651c1c1a303a74061d43ac6a,null,null,"<p style=""font-size: 60px; font-family: BACS"">bROCDlDT</p>",,,,,,,,,,
html-keyboard-response,26,169554,0.0-8.0-0.18,5fa5793490f10705755818c0,650c16f0f2faf8d7a0d14c09,651c1c1a303a74061d43ac6a,null,null,"<p style=""font-size: 60px; font-family: BACS"">JmNkJUNa</p>",,,,,,,,,,
html-keyboard-response,27,170586,0.0-8.0-0.19,5fa5793490f10705755818c0,650c16f0f2faf8d7a0d14c09,651c1c1a303a74061d43ac6a,null,null,"<p style=""font-size: 60px; font-family: BACS"">hTDdTbk</p>",,,,,,,,,,
html-keyboard-response,28,171592,0.0-8.0-0.20,5fa5793490f10705755818c0,650c16f0f2faf8d7a0d14c09,651c1c1a303a74061d43ac6a,null,null,"<p style=""font-size: 60px; font-family: BACS"">dRbDbYDTk</p>",,,,,,,,,,
html-keyboard-response,29,172626,0.0-8.0-0.21,5fa5793490f10705755818c0,650c16f0f2faf8d7a0d14c09,651c1c1a303a74061d43ac6a,null,null,"<p style=""font-size: 60px; font-family: BACS"">ORbkDlDT</p>",,,,,,,,,,
html-keyboard-response,30,173631,0.0-8.0-0.22,5fa5793490f10705755818c0,650c16f0f2faf8d7a0d14c09,651c1c1a303a74061d43ac6a,null,null,"<p style=""font-size: 60px; font-family: BACS"">hTtBbmCd</p>",,,,,,,,,,
html-keyboard-response,31,174643,0.0-8.0-0.23,5fa5793490f10705755818c0,650c16f0f2faf8d7a0d14c09,651c1c1a303a74061d43ac6a,null,null,"<p style=""font-size: 60px; font-family: BACS"">ZdlOuOAO</p>",,,,,,,,,,
html-keyboard-response,32,175650,0.0-8.0-0.24,5fa5793490f10705755818c0,650c16f0f2faf8d7a0d14c09,651c1c1a303a74061d43ac6a,null,null,"<p style=""font-size: 60px; font-family: BACS"">BECkYDTk</p>",,,,,,,,,,
html-keyboard-response,33,176659,0.0-8.0-0.25,5fa5793490f10705755818c0,650c16f0f2faf8d7a0d14c09,651c1c1a303a74061d43ac6a,null,null,"<p style=""font-size: 60px; font-family: BACS"">OZkbJUNa</p>",,,,,,,,,,
html-keyboard-response,34,177664,0.0-8.0-0.26,5fa5793490f10705755818c0,650c16f0f2faf8d7a0d14c09,651c1c1a303a74061d43ac6a,null,null,"<p style=""font-size: 60px; font-family: BACS"">LAclALcO</p>",,,,,,,,,,
html-keyboard-response,35,178688,0.0-8.0-0.27,5fa5793490f10705755818c0,650c16f0f2faf8d7a0d14c09,651c1c1a303a74061d43ac6a,null,null,"<p style=""font-size: 60px; font-family: BACS"">EltMBPTl</p>",,,,,,,,,,
html-keyboard-response,36,179713,0.0-8.0-0.28,5fa5793490f10705755818c0,650c16f0f2faf8d7a0d14c09,651c1c1a303a74061d43ac6a,null,null,"<p style=""font-size: 60px; font-family: BACS"">aYaNLcO</p>",,,,,,,,,,
html-keyboard-response,37,180718,0.0-8.0-0.29,5fa5793490f10705755818c0,650c16f0f2faf8d7a0d14c09,651c1c1a303a74061d43ac6a,null,null,"<p style=""font-size: 60px; font-family: BACS"">EltMBmCd</p>",,,,,,,,,,
html-keyboard-response,38,181745,0.0-8.0-0.30,5fa5793490f10705755818c0,650c16f0f2faf8d7a0d14c09,651c1c1a303a74061d43ac6a,null,null,"<p style=""font-size: 60px; font-family: BACS"">aYaNuOAO</p>",,,,,,,,,,
html-keyboard-response,39,182755,0.0-8.0-0.31,5fa5793490f10705755818c0,650c16f0f2faf8d7a0d14c09,651c1c1a303a74061d43ac6a,null,null,"<p style=""font-size: 60px; font-family: BACS"">EltMBDlDT</p>",,,,,,,,,,
html-keyboard-response,40,183762,0.0-8.0-0.32,5fa5793490f10705755818c0,650c16f0f2faf8d7a0d14c09,651c1c1a303a74061d43ac6a,null,null,"<p style=""font-size: 60px; font-family: BACS"">ZdlOYaum</p>",,,,,,,,,,
html-keyboard-response,41,184770,0.0-8.0-0.33,5fa5793490f10705755818c0,650c16f0f2faf8d7a0d14c09,651c1c1a303a74061d43ac6a,null,null,"<p style=""font-size: 60px; font-family: BACS"">hTDdmCd</p>",,,,,,,,,,
html-keyboard-response,42,185774,0.0-8.0-0.34,5fa5793490f10705755818c0,650c16f0f2faf8d7a0d14c09,651c1c1a303a74061d43ac6a,null,null,"<p style=""font-size: 60px; font-family: BACS"">YObATbk</p>",,,,,,,,,,
html-keyboard-response,43,186782,0.0-8.0-0.35,5fa5793490f10705755818c0,650c16f0f2faf8d7a0d14c09,651c1c1a303a74061d43ac6a,null,null,"<p style=""font-size: 60px; font-family: BACS"">dYdAPTl</p>",,,,,,,,,,
html-keyboard-response,44,187790,0.0-8.0-0.36,5fa5793490f10705755818c0,650c16f0f2faf8d7a0d14c09,651c1c1a303a74061d43ac6a,null,null,"<p style=""font-size: 60px; font-family: BACS"">dJNrJUNa</p>",,,,,,,,,,
html-keyboard-response,45,188795,0.0-8.0-0.37,5fa5793490f10705755818c0,650c16f0f2faf8d7a0d14c09,651c1c1a303a74061d43ac6a,null,null,"<p style=""font-size: 60px; font-family: BACS"">ORbkYDTk</p>",,,,,,,,,,
html-keyboard-response,46,189806,0.0-8.0-0.38,5fa5793490f10705755818c0,650c16f0f2faf8d7a0d14c09,651c1c1a303a74061d43ac6a,null,null,"<p style=""font-size: 60px; font-family: BACS"">UdlGQLcO</p>",,,,,,,,,,
html-keyboard-response,47,190827,0.0-8.0-0.39,5fa5793490f10705755818c0,650c16f0f2faf8d7a0d14c09,651c1c1a303a74061d43ac6a,null,null,"<p style=""font-size: 60px; font-family: BACS"">dYdATbk</p>",,,,,,,,,,
html-keyboard-response,48,191830,0.0-8.0-0.40,5fa5793490f10705755818c0,650c16f0f2faf8d7a0d14c09,651c1c1a303a74061d43ac6a,null,null,"<p style=""font-size: 60px; font-family: BACS"">dJNruOAO</p>",,,,,,,,,,
html-keyboard-response,49,192845,0.0-8.0-0.41,5fa5793490f10705755818c0,650c16f0f2faf8d7a0d14c09,651c1c1a303a74061d43ac6a,null,null,"<p style=""font-size: 60px; font-family: BACS"">dRbDbmCd</p>",,,,,,,,,,
html-keyboard-response,50,193868,0.0-8.0-0.42,5fa5793490f10705755818c0,650c16f0f2faf8d7a0d14c09,651c1c1a303a74061d43ac6a,null,null,"<p style=""font-size: 60px; font-family: BACS"">bROCPTl</p>",,,,,,,,,,
html-keyboard-response,51,194872,0.0-8.0-0.43,5fa5793490f10705755818c0,650c16f0f2faf8d7a0d14c09,651c1c1a303a74061d43ac6a,null,null,"<p style=""font-size: 60px; font-family: BACS"">UdlGQuOAO</p>",,,,,,,,,,
html-keyboard-response,52,195880,0.0-8.0-0.44,5fa5793490f10705755818c0,650c16f0f2faf8d7a0d14c09,651c1c1a303a74061d43ac6a,null,null,"<p style=""font-size: 60px; font-family: BACS"">NbacAYaum</p>",,,,,,,,,,
html-keyboard-response,53,196890,0.0-8.0-0.45,5fa5793490f10705755818c0,650c16f0f2faf8d7a0d14c09,651c1c1a303a74061d43ac6a,null,null,"<p style=""font-size: 60px; font-family: BACS"">lkAkuOAO</p>",,,,,,,,,,
html-keyboard-response,54,197905,0.0-8.0-0.46,5fa5793490f10705755818c0,650c16f0f2faf8d7a0d14c09,651c1c1a303a74061d43ac6a,null,null,"<p style=""font-size: 60px; font-family: BACS"">ZdlOcrdY</p>",,,,,,,,,,
html-keyboard-response,55,198913,0.0-8.0-0.47,5fa5793490f10705755818c0,650c16f0f2faf8d7a0d14c09,651c1c1a303a74061d43ac6a,null,null,"<p style=""font-size: 60px; font-family: BACS"">UdlGQJUNa</p>",,,,,,,,,,
html-keyboard-response,56,199921,0.0-8.0-0.48,5fa5793490f10705755818c0,650c16f0f2faf8d7a0d14c09,651c1c1a303a74061d43ac6a,null,null,"<p style=""font-size: 60px; font-family: BACS"">EltMBTbk</p>",,,,,,,,,,
html-keyboard-response,57,200927,0.0-8.0-0.49,5fa5793490f10705755818c0,650c16f0f2faf8d7a0d14c09,651c1c1a303a74061d43ac6a,null,null,"<p style=""font-size: 60px; font-family: BACS"">YObAmCd</p>",,,,,,,,,,
html-keyboard-response,58,201934,0.0-8.0-0.50,5fa5793490f10705755818c0,650c16f0f2faf8d7a0d14c09,651c1c1a303a74061d43ac6a,null,null,"<p style=""font-size: 60px; font-family: BACS"">hTtBbPTl</p>",,,,,,,,,,
html-keyboard-response,59,202943,0.0-8.0-0.51,5fa5793490f10705755818c0,650c16f0f2faf8d7a0d14c09,651c1c1a303a74061d43ac6a,null,null,"<p style=""font-size: 60px; font-family: BACS"">bNdmGYaum</p>",,,,,,,,,,
html-keyboard-response,60,203951,0.0-8.0-0.52,5fa5793490f10705755818c0,650c16f0f2faf8d7a0d14c09,651c1c1a303a74061d43ac6a,null,null,"<p style=""font-size: 60px; font-family: BACS"">NbacALcO</p>",,,,,,,,,,
html-keyboard-response,61,204962,0.0-8.0-0.53,5fa5793490f10705755818c0,650c16f0f2faf8d7a0d14c09,651c1c1a303a74061d43ac6a,null,null,"<p style=""font-size: 60px; font-family: BACS"">LAclAcrdY</p>",,,,,,,,,,
html-keyboard-response,62,205966,0.0-8.0-0.54,5fa5793490f10705755818c0,650c16f0f2faf8d7a0d14c09,651c1c1a303a74061d43ac6a,null,null,"<p style=""font-size: 60px; font-family: BACS"">BECkPTl</p>",,,,,,,,,,
html-keyboard-response,63,206972,0.0-8.0-0.55,5fa5793490f10705755818c0,650c16f0f2faf8d7a0d14c09,651c1c1a303a74061d43ac6a,null,null,"<p style=""font-size: 60px; font-family: BACS"">hTtBbDlDT</p>",,,,,,,,,,
html-keyboard-response,64,207976,0.0-8.0-0.56,5fa5793490f10705755818c0,650c16f0f2faf8d7a0d14c09,651c1c1a303a74061d43ac6a,null,null,"<p style=""font-size: 60px; font-family: BACS"">bNdmGcrdY</p>",,,,,,,,,,
html-keyboard-response,65,208983,0.0-8.0-0.57,5fa5793490f10705755818c0,650c16f0f2faf8d7a0d14c09,651c1c1a303a74061d43ac6a,null,null,"<p style=""font-size: 60px; font-family: BACS"">YObADlDT</p>",,,,,,,,,,
html-keyboard-response,66,209988,0.0-8.0-0.58,5fa5793490f10705755818c0,650c16f0f2faf8d7a0d14c09,651c1c1a303a74061d43ac6a,null,null,"<p style=""font-size: 60px; font-family: BACS"">bROCYDTk</p>",,,,,,,,,,
html-keyboard-response,67,210994,0.0-8.0-0.59,5fa5793490f10705755818c0,650c16f0f2faf8d7a0d14c09,651c1c1a303a74061d43ac6a,null,null,"<p style=""font-size: 60px; font-family: BACS"">JmNkYaum</p>",,,,,,,,,,
html-keyboard-response,68,212003,0.0-8.0-0.60,5fa5793490f10705755818c0,650c16f0f2faf8d7a0d14c09,651c1c1a303a74061d43ac6a,null,null,"<p style=""font-size: 60px; font-family: BACS"">tKDmhDlDT</p>",,,,,,,,,,
html-keyboard-response,69,213010,0.0-8.0-0.61,5fa5793490f10705755818c0,650c16f0f2faf8d7a0d14c09,651c1c1a303a74061d43ac6a,null,null,"<p style=""font-size: 60px; font-family: BACS"">NbacAJUNa</p>",,,,,,,,,,
html-keyboard-response,70,214022,0.0-8.0-0.62,5fa5793490f10705755818c0,650c16f0f2faf8d7a0d14c09,651c1c1a303a74061d43ac6a,null,null,"<p style=""font-size: 60px; font-family: BACS"">OZkbcrdY</p>",,,,,,,,,,
html-keyboard-response,71,215048,0.0-8.0-0.63,5fa5793490f10705755818c0,650c16f0f2faf8d7a0d14c09,651c1c1a303a74061d43ac6a,null,null,"<p style=""font-size: 60px; font-family: BACS"">dJNrYaum</p>",,,,,,,,,,
html-keyboard-response,72,216061,0.0-8.0-0.64,5fa5793490f10705755818c0,650c16f0f2faf8d7a0d14c09,651c1c1a303a74061d43ac6a,null,null,"<p style=""font-size: 60px; font-family: BACS"">BECkDlDT</p>",,,,,,,,,,
html-keyboard-response,73,217068,0.0-8.0-0.65,5fa5793490f10705755818c0,650c16f0f2faf8d7a0d14c09,651c1c1a303a74061d43ac6a,null,null,"<p style=""font-size: 60px; font-family: BACS"">tKDmhPTl</p>",,,,,,,,,,
html-keyboard-response,74,218081,0.0-8.0-0.66,5fa5793490f10705755818c0,650c16f0f2faf8d7a0d14c09,651c1c1a303a74061d43ac6a,null,null,"<p style=""font-size: 60px; font-family: BACS"">bROCTbk</p>",,,,,,,,,,
html-keyboard-response,75,219091,0.0-8.0-0.67,5fa5793490f10705755818c0,650c16f0f2faf8d7a0d14c09,651c1c1a303a74061d43ac6a,null,null,"<p style=""font-size: 60px; font-family: BACS"">OZkbuOAO</p>",,,,,,,,,,
html-keyboard-response,76,220095,0.0-8.0-0.68,5fa5793490f10705755818c0,650c16f0f2faf8d7a0d14c09,651c1c1a303a74061d43ac6a,null,null,"<p style=""font-size: 60px; font-family: BACS"">JmNkcrdY</p>",,,,,,,,,,
html-keyboard-response,77,221122,0.0-8.0-0.69,5fa5793490f10705755818c0,650c16f0f2faf8d7a0d14c09,651c1c1a303a74061d43ac6a,null,null,"<p style=""font-size: 60px; font-family: BACS"">dRbDbTbk</p>",,,,,,,,,,
html-keyboard-response,78,222129,0.0-8.0-0.70,5fa5793490f10705755818c0,650c16f0f2faf8d7a0d14c09,651c1c1a303a74061d43ac6a,null,null,"<p style=""font-size: 60px; font-family: BACS"">aYaNcrdY</p>",,,,,,,,,,
html-keyboard-response,79,223136,0.0-8.0-0.71,5fa5793490f10705755818c0,650c16f0f2faf8d7a0d14c09,651c1c1a303a74061d43ac6a,null,null,"<p style=""font-size: 60px; font-family: BACS"">hTtBbYDTk</p>",,,,,,,,,,
html-keyboard-response,80,224143,0.0-8.0-0.72,5fa5793490f10705755818c0,650c16f0f2faf8d7a0d14c09,651c1c1a303a74061d43ac6a,null,null,"<p style=""font-size: 60px; font-family: BACS"">NbacAcrdY</p>",,,,,,,,,,
html-keyboard-response,81,225147,0.0-8.0-0.73,5fa5793490f10705755818c0,650c16f0f2faf8d7a0d14c09,651c1c1a303a74061d43ac6a,null,null,"<p style=""font-size: 60px; font-family: BACS"">lkAkLcO</p>",,,,,,,,,,
html-keyboard-response,82,226157,0.0-8.0-0.74,5fa5793490f10705755818c0,650c16f0f2faf8d7a0d14c09,651c1c1a303a74061d43ac6a,null,null,"<p style=""font-size: 60px; font-family: BACS"">ZdlOJUNa</p>",,,,,,,,,,
html-keyboard-response,83,227164,0.0-8.0-0.75,5fa5793490f10705755818c0,650c16f0f2faf8d7a0d14c09,651c1c1a303a74061d43ac6a,null,null,"<p style=""font-size: 60px; font-family: BACS"">tKDmhmCd</p>",,,,,,,,,,
html-keyboard-response,84,228178,0.0-8.0-0.76,5fa5793490f10705755818c0,650c16f0f2faf8d7a0d14c09,651c1c1a303a74061d43ac6a,null,null,"<p style=""font-size: 60px; font-family: BACS"">hTDdYDTk</p>",,,,,,,,,,
html-keyboard-response,85,229187,0.0-8.0-0.77,5fa5793490f10705755818c0,650c16f0f2faf8d7a0d14c09,651c1c1a303a74061d43ac6a,null,null,"<p style=""font-size: 60px; font-family: BACS"">JmNkLcO</p>",,,,,,,,,,
html-keyboard-response,86,230195,0.0-8.0-0.78,5fa5793490f10705755818c0,650c16f0f2faf8d7a0d14c09,651c1c1a303a74061d43ac6a,null,null,"<p style=""font-size: 60px; font-family: BACS"">hTDdDlDT</p>",,,,,,,,,,
html-keyboard-response,87,231203,0.0-8.0-0.79,5fa5793490f10705755818c0,650c16f0f2faf8d7a0d14c09,651c1c1a303a74061d43ac6a,null,null,"<p style=""font-size: 60px; font-family: BACS"">tKDmhTbk</p>",,,,,,,,,,
html-keyboard-response,88,238278,0.0-9.0,5fa5793490f10705755818c0,650c16f0f2faf8d7a0d14c09,651c1c1a303a74061d43ac6a,7074, ,"<p>Great, you've seen the first block of words. You may now take a short break.</p>
      <p>Press the spacebar when you're ready to continue.</p>",,,,,,,,,,
html-keyboard-response,89,239284,0.0-10.0-0.0,5fa5793490f10705755818c0,650c16f0f2faf8d7a0d14c09,651c1c1a303a74061d43ac6a,null,null,"<p style=""font-size: 60px; font-family: BACS"">lkAkYaum</p>",,,,,,,,,,
html-keyboard-response,90,240294,0.0-10.0-0.1,5fa5793490f10705755818c0,650c16f0f2faf8d7a0d14c09,651c1c1a303a74061d43ac6a,null,null,"<p style=""font-size: 60px; font-family: BACS"">YObATbk</p>",,,,,,,,,,
html-keyboard-response,91,241321,0.0-10.0-0.2,5fa5793490f10705755818c0,650c16f0f2faf8d7a0d14c09,651c1c1a303a74061d43ac6a,null,null,"<p style=""font-size: 60px; font-family: BACS"">dYdAPTl</p>",,,,,,,,,,
html-keyboard-response,92,242343,0.0-10.0-0.3,5fa5793490f10705755818c0,650c16f0f2faf8d7a0d14c09,651c1c1a303a74061d43ac6a,null,null,"<p style=""font-size: 60px; font-family: BACS"">ZdlOYaum</p>",,,,,,,,,,
html-keyboard-response,93,243349,0.0-10.0-0.4,5fa5793490f10705755818c0,650c16f0f2faf8d7a0d14c09,651c1c1a303a74061d43ac6a,null,null,"<p style=""font-size: 60px; font-family: BACS"">dYdATbk</p>",,,,,,,,,,
html-keyboard-response,94,244386,0.0-10.0-0.5,5fa5793490f10705755818c0,650c16f0f2faf8d7a0d14c09,651c1c1a303a74061d43ac6a,null,null,"<p style=""font-size: 60px; font-family: BACS"">NbacALcO</p>",,,,,,,,,,
html-keyboard-response,95,245412,0.0-10.0-0.6,5fa5793490f10705755818c0,650c16f0f2faf8d7a0d14c09,651c1c1a303a74061d43ac6a,null,null,"<p style=""font-size: 60px; font-family: BACS"">BECkmCd</p>",,,,,,,,,,
html-keyboard-response,96,246416,0.0-10.0-0.7,5fa5793490f10705755818c0,650c16f0f2faf8d7a0d14c09,651c1c1a303a74061d43ac6a,null,null,"<p style=""font-size: 60px; font-family: BACS"">UdlGQLcO</p>",,,,,,,,,,
html-keyboard-response,97,247428,0.0-10.0-0.8,5fa5793490f10705755818c0,650c16f0f2faf8d7a0d14c09,651c1c1a303a74061d43ac6a,null,null,"<p style=""font-size: 60px; font-family: BACS"">bNdmGYaum</p>",,,,,,,,,,
html-keyboard-response,98,248439,0.0-10.0-0.9,5fa5793490f10705755818c0,650c16f0f2faf8d7a0d14c09,651c1c1a303a74061d43ac6a,null,null,"<p style=""font-size: 60px; font-family: BACS"">lkAkLcO</p>",,,,,,,,,,
html-keyboard-response,99,249450,0.0-10.0-0.10,5fa5793490f10705755818c0,650c16f0f2faf8d7a0d14c09,651c1c1a303a74061d43ac6a,null,null,"<p style=""font-size: 60px; font-family: BACS"">hTtBbmCd</p>",,,,,,,,,,
html-keyboard-response,100,250476,0.0-10.0-0.11,5fa5793490f10705755818c0,650c16f0f2faf8d7a0d14c09,651c1c1a303a74061d43ac6a,null,null,"<p style=""font-size: 60px; font-family: BACS"">tKDmhTbk</p>",,,,,,,,,,
html-keyboard-response,101,251482,0.0-10.0-0.12,5fa5793490f10705755818c0,650c16f0f2faf8d7a0d14c09,651c1c1a303a74061d43ac6a,null,null,"<p style=""font-size: 60px; font-family: BACS"">bROCDlDT</p>",,,,,,,,,,
html-keyboard-response,102,252509,0.0-10.0-0.13,5fa5793490f10705755818c0,650c16f0f2faf8d7a0d14c09,651c1c1a303a74061d43ac6a,null,null,"<p style=""font-size: 60px; font-family: BACS"">dRbDbTbk</p>",,,,,,,,,,
html-keyboard-response,103,253512,0.0-10.0-0.14,5fa5793490f10705755818c0,650c16f0f2faf8d7a0d14c09,651c1c1a303a74061d43ac6a,null,null,"<p style=""font-size: 60px; font-family: BACS"">OZkbJUNa</p>",,,,,,,,,,
html-keyboard-response,104,254514,0.0-10.0-0.15,5fa5793490f10705755818c0,650c16f0f2faf8d7a0d14c09,651c1c1a303a74061d43ac6a,null,null,"<p style=""font-size: 60px; font-family: BACS"">NbacAYaum</p>",,,,,,,,,,
html-keyboard-response,105,255525,0.0-10.0-0.16,5fa5793490f10705755818c0,650c16f0f2faf8d7a0d14c09,651c1c1a303a74061d43ac6a,null,null,"<p style=""font-size: 60px; font-family: BACS"">bNdmGcrdY</p>",,,,,,,,,,
html-keyboard-response,106,256529,0.0-10.0-0.17,5fa5793490f10705755818c0,650c16f0f2faf8d7a0d14c09,651c1c1a303a74061d43ac6a,null,null,"<p style=""font-size: 60px; font-family: BACS"">JmNkJUNa</p>",,,,,,,,,,
html-keyboard-response,107,257532,0.0-10.0-0.18,5fa5793490f10705755818c0,650c16f0f2faf8d7a0d14c09,651c1c1a303a74061d43ac6a,null,null,"<p style=""font-size: 60px; font-family: BACS"">BECkYDTk</p>",,,,,,,,,,
html-keyboard-response,108,258535,0.0-10.0-0.19,5fa5793490f10705755818c0,650c16f0f2faf8d7a0d14c09,651c1c1a303a74061d43ac6a,null,null,"<p style=""font-size: 60px; font-family: BACS"">dRbDbmCd</p>",,,,,,,,,,
html-keyboard-response,109,259546,0.0-10.0-0.20,5fa5793490f10705755818c0,650c16f0f2faf8d7a0d14c09,651c1c1a303a74061d43ac6a,null,null,"<p style=""font-size: 60px; font-family: BACS"">EltMBDlDT</p>",,,,,,,,,,
html-keyboard-response,110,260551,0.0-10.0-0.21,5fa5793490f10705755818c0,650c16f0f2faf8d7a0d14c09,651c1c1a303a74061d43ac6a,null,null,"<p style=""font-size: 60px; font-family: BACS"">ZdlOcrdY</p>",,,,,,,,,,
html-keyboard-response,111,261564,0.0-10.0-0.22,5fa5793490f10705755818c0,650c16f0f2faf8d7a0d14c09,651c1c1a303a74061d43ac6a,null,null,"<p style=""font-size: 60px; font-family: BACS"">lkAkJUNa</p>",,,,,,,,,,
html-keyboard-response,112,262578,0.0-10.0-0.23,5fa5793490f10705755818c0,650c16f0f2faf8d7a0d14c09,651c1c1a303a74061d43ac6a,null,null,"<p style=""font-size: 60px; font-family: BACS"">ORbkPTl</p>",,,,,,,,,,
html-keyboard-response,113,263589,0.0-10.0-0.24,5fa5793490f10705755818c0,650c16f0f2faf8d7a0d14c09,651c1c1a303a74061d43ac6a,null,null,"<p style=""font-size: 60px; font-family: BACS"">LAclAYaum</p>",,,,,,,,,,
html-keyboard-response,114,264600,0.0-10.0-0.25,5fa5793490f10705755818c0,650c16f0f2faf8d7a0d14c09,651c1c1a303a74061d43ac6a,null,null,"<p style=""font-size: 60px; font-family: BACS"">JmNkLcO</p>",,,,,,,,,,
html-keyboard-response,115,265604,0.0-10.0-0.26,5fa5793490f10705755818c0,650c16f0f2faf8d7a0d14c09,651c1c1a303a74061d43ac6a,null,null,"<p style=""font-size: 60px; font-family: BACS"">YObAYDTk</p>",,,,,,,,,,
html-keyboard-response,116,266613,0.0-10.0-0.27,5fa5793490f10705755818c0,650c16f0f2faf8d7a0d14c09,651c1c1a303a74061d43ac6a,null,null,"<p style=""font-size: 60px; font-family: BACS"">ORbkTbk</p>",,,,,,,,,,
html-keyboard-response,117,267616,0.0-10.0-0.28,5fa5793490f10705755818c0,650c16f0f2faf8d7a0d14c09,651c1c1a303a74061d43ac6a,null,null,"<p style=""font-size: 60px; font-family: BACS"">dYdAYDTk</p>",,,,,,,,,,
html-keyboard-response,118,268620,0.0-10.0-0.29,5fa5793490f10705755818c0,650c16f0f2faf8d7a0d14c09,651c1c1a303a74061d43ac6a,null,null,"<p style=""font-size: 60px; font-family: BACS"">hTDdTbk</p>",,,,,,,,,,
html-keyboard-response,119,269635,0.0-10.0-0.30,5fa5793490f10705755818c0,650c16f0f2faf8d7a0d14c09,651c1c1a303a74061d43ac6a,null,null,"<p style=""font-size: 60px; font-family: BACS"">UdlGQuOAO</p>",,,,,,,,,,
html-keyboard-response,120,270643,0.0-10.0-0.31,5fa5793490f10705755818c0,650c16f0f2faf8d7a0d14c09,651c1c1a303a74061d43ac6a,null,null,"<p style=""font-size: 60px; font-family: BACS"">aYaNLcO</p>",,,,,,,,,,
html-keyboard-response,121,271650,0.0-10.0-0.32,5fa5793490f10705755818c0,650c16f0f2faf8d7a0d14c09,651c1c1a303a74061d43ac6a,null,null,"<p style=""font-size: 60px; font-family: BACS"">YObAmCd</p>",,,,,,,,,,
html-keyboard-response,122,272658,0.0-10.0-0.33,5fa5793490f10705755818c0,650c16f0f2faf8d7a0d14c09,651c1c1a303a74061d43ac6a,null,null,"<p style=""font-size: 60px; font-family: BACS"">lkAkuOAO</p>",,,,,,,,,,
html-keyboard-response,123,273665,0.0-10.0-0.34,5fa5793490f10705755818c0,650c16f0f2faf8d7a0d14c09,651c1c1a303a74061d43ac6a,null,null,"<p style=""font-size: 60px; font-family: BACS"">hTDdYDTk</p>",,,,,,,,,,
html-keyboard-response,124,274695,0.0-10.0-0.35,5fa5793490f10705755818c0,650c16f0f2faf8d7a0d14c09,651c1c1a303a74061d43ac6a,null,null,"<p style=""font-size: 60px; font-family: BACS"">EltMBmCd</p>",,,,,,,,,,
html-keyboard-response,125,275701,0.0-10.0-0.36,5fa5793490f10705755818c0,650c16f0f2faf8d7a0d14c09,651c1c1a303a74061d43ac6a,null,null,"<p style=""font-size: 60px; font-family: BACS"">dJNrLcO</p>",,,,,,,,,,
html-keyboard-response,126,276716,0.0-10.0-0.37,5fa5793490f10705755818c0,650c16f0f2faf8d7a0d14c09,651c1c1a303a74061d43ac6a,null,null,"<p style=""font-size: 60px; font-family: BACS"">tKDmhmCd</p>",,,,,,,,,,
html-keyboard-response,127,277728,0.0-10.0-0.38,5fa5793490f10705755818c0,650c16f0f2faf8d7a0d14c09,651c1c1a303a74061d43ac6a,null,null,"<p style=""font-size: 60px; font-family: BACS"">EltMBPTl</p>",,,,,,,,,,
html-keyboard-response,128,278739,0.0-10.0-0.39,5fa5793490f10705755818c0,650c16f0f2faf8d7a0d14c09,651c1c1a303a74061d43ac6a,null,null,"<p style=""font-size: 60px; font-family: BACS"">dJNrJUNa</p>",,,,,,,,,,
html-keyboard-response,129,279747,0.0-10.0-0.40,5fa5793490f10705755818c0,650c16f0f2faf8d7a0d14c09,651c1c1a303a74061d43ac6a,null,null,"<p style=""font-size: 60px; font-family: BACS"">aYaNuOAO</p>",,,,,,,,,,
html-keyboard-response,130,280761,0.0-10.0-0.41,5fa5793490f10705755818c0,650c16f0f2faf8d7a0d14c09,651c1c1a303a74061d43ac6a,null,null,"<p style=""font-size: 60px; font-family: BACS"">BECkDlDT</p>",,,,,,,,,,
html-keyboard-response,131,281789,0.0-10.0-0.42,5fa5793490f10705755818c0,650c16f0f2faf8d7a0d14c09,651c1c1a303a74061d43ac6a,null,null,"<p style=""font-size: 60px; font-family: BACS"">ORbkYDTk</p>",,,,,,,,,,
html-keyboard-response,132,282801,0.0-10.0-0.43,5fa5793490f10705755818c0,650c16f0f2faf8d7a0d14c09,651c1c1a303a74061d43ac6a,null,null,"<p style=""font-size: 60px; font-family: BACS"">ZdlOuOAO</p>",,,,,,,,,,
html-keyboard-response,133,283828,0.0-10.0-0.44,5fa5793490f10705755818c0,650c16f0f2faf8d7a0d14c09,651c1c1a303a74061d43ac6a,null,null,"<p style=""font-size: 60px; font-family: BACS"">NbacAJUNa</p>",,,,,,,,,,
html-keyboard-response,134,284852,0.0-10.0-0.45,5fa5793490f10705755818c0,650c16f0f2faf8d7a0d14c09,651c1c1a303a74061d43ac6a,null,null,"<p style=""font-size: 60px; font-family: BACS"">OZkbuOAO</p>",,,,,,,,,,
html-keyboard-response,135,285861,0.0-10.0-0.46,5fa5793490f10705755818c0,650c16f0f2faf8d7a0d14c09,651c1c1a303a74061d43ac6a,null,null,"<p style=""font-size: 60px; font-family: BACS"">hTtBbDlDT</p>",,,,,,,,,,
html-keyboard-response,136,286869,0.0-10.0-0.47,5fa5793490f10705755818c0,650c16f0f2faf8d7a0d14c09,651c1c1a303a74061d43ac6a,null,null,"<p style=""font-size: 60px; font-family: BACS"">UdlGQJUNa</p>",,,,,,,,,,
html-keyboard-response,137,287896,0.0-10.0-0.48,5fa5793490f10705755818c0,650c16f0f2faf8d7a0d14c09,651c1c1a303a74061d43ac6a,null,null,"<p style=""font-size: 60px; font-family: BACS"">hTtBbPTl</p>",,,,,,,,,,
html-keyboard-response,138,288902,0.0-10.0-0.49,5fa5793490f10705755818c0,650c16f0f2faf8d7a0d14c09,651c1c1a303a74061d43ac6a,null,null,"<p style=""font-size: 60px; font-family: BACS"">OZkbLcO</p>",,,,,,,,,,
html-keyboard-response,139,289914,0.0-10.0-0.50,5fa5793490f10705755818c0,650c16f0f2faf8d7a0d14c09,651c1c1a303a74061d43ac6a,null,null,"<p style=""font-size: 60px; font-family: BACS"">hTDdmCd</p>",,,,,,,,,,
html-keyboard-response,140,290944,0.0-10.0-0.51,5fa5793490f10705755818c0,650c16f0f2faf8d7a0d14c09,651c1c1a303a74061d43ac6a,null,null,"<p style=""font-size: 60px; font-family: BACS"">dRbDbPTl</p>",,,,,,,,,,
html-keyboard-response,141,291953,0.0-10.0-0.52,5fa5793490f10705755818c0,650c16f0f2faf8d7a0d14c09,651c1c1a303a74061d43ac6a,null,null,"<p style=""font-size: 60px; font-family: BACS"">LAclAuOAO</p>",,,,,,,,,,
html-keyboard-response,142,292976,0.0-10.0-0.53,5fa5793490f10705755818c0,650c16f0f2faf8d7a0d14c09,651c1c1a303a74061d43ac6a,null,null,"<p style=""font-size: 60px; font-family: BACS"">UdlGQcrdY</p>",,,,,,,,,,
html-keyboard-response,143,293989,0.0-10.0-0.54,5fa5793490f10705755818c0,650c16f0f2faf8d7a0d14c09,651c1c1a303a74061d43ac6a,null,null,"<p style=""font-size: 60px; font-family: BACS"">tKDmhDlDT</p>",,,,,,,,,,
html-keyboard-response,144,294993,0.0-10.0-0.55,5fa5793490f10705755818c0,650c16f0f2faf8d7a0d14c09,651c1c1a303a74061d43ac6a,null,null,"<p style=""font-size: 60px; font-family: BACS"">dRbDbYDTk</p>",,,,,,,,,,
html-keyboard-response,145,295998,0.0-10.0-0.56,5fa5793490f10705755818c0,650c16f0f2faf8d7a0d14c09,651c1c1a303a74061d43ac6a,null,null,"<p style=""font-size: 60px; font-family: BACS"">LAclALcO</p>",,,,,,,,,,
html-keyboard-response,146,297014,0.0-10.0-0.57,5fa5793490f10705755818c0,650c16f0f2faf8d7a0d14c09,651c1c1a303a74061d43ac6a,null,null,"<p style=""font-size: 60px; font-family: BACS"">ORbkDlDT</p>",,,,,,,,,,
html-keyboard-response,147,298044,0.0-10.0-0.58,5fa5793490f10705755818c0,650c16f0f2faf8d7a0d14c09,651c1c1a303a74061d43ac6a,null,null,"<p style=""font-size: 60px; font-family: BACS"">dJNrYaum</p>",,,,,,,,,,
html-keyboard-response,148,299068,0.0-10.0-0.59,5fa5793490f10705755818c0,650c16f0f2faf8d7a0d14c09,651c1c1a303a74061d43ac6a,null,null,"<p style=""font-size: 60px; font-family: BACS"">dYdAmCd</p>",,,,,,,,,,
html-keyboard-response,149,300094,0.0-10.0-0.60,5fa5793490f10705755818c0,650c16f0f2faf8d7a0d14c09,651c1c1a303a74061d43ac6a,null,null,"<p style=""font-size: 60px; font-family: BACS"">hTDdDlDT</p>",,,,,,,,,,
html-keyboard-response,150,301121,0.0-10.0-0.61,5fa5793490f10705755818c0,650c16f0f2faf8d7a0d14c09,651c1c1a303a74061d43ac6a,null,null,"<p style=""font-size: 60px; font-family: BACS"">aYaNYaum</p>",,,,,,,,,,
html-keyboard-response,151,302131,0.0-10.0-0.62,5fa5793490f10705755818c0,650c16f0f2faf8d7a0d14c09,651c1c1a303a74061d43ac6a,null,null,"<p style=""font-size: 60px; font-family: BACS"">JmNkcrdY</p>",,,,,,,,,,
html-keyboard-response,152,303140,0.0-10.0-0.63,5fa5793490f10705755818c0,650c16f0f2faf8d7a0d14c09,651c1c1a303a74061d43ac6a,null,null,"<p style=""font-size: 60px; font-family: BACS"">bNdmGuOAO</p>",,,,,,,,,,
html-keyboard-response,153,304145,0.0-10.0-0.64,5fa5793490f10705755818c0,650c16f0f2faf8d7a0d14c09,651c1c1a303a74061d43ac6a,null,null,"<p style=""font-size: 60px; font-family: BACS"">aYaNcrdY</p>",,,,,,,,,,
html-keyboard-response,154,305161,0.0-10.0-0.65,5fa5793490f10705755818c0,650c16f0f2faf8d7a0d14c09,651c1c1a303a74061d43ac6a,null,null,"<p style=""font-size: 60px; font-family: BACS"">dJNruOAO</p>",,,,,,,,,,
html-keyboard-response,155,306193,0.0-10.0-0.66,5fa5793490f10705755818c0,650c16f0f2faf8d7a0d14c09,651c1c1a303a74061d43ac6a,null,null,"<p style=""font-size: 60px; font-family: BACS"">JmNkYaum</p>",,,,,,,,,,
html-keyboard-response,156,307210,0.0-10.0-0.67,5fa5793490f10705755818c0,650c16f0f2faf8d7a0d14c09,651c1c1a303a74061d43ac6a,null,null,"<p style=""font-size: 60px; font-family: BACS"">NbacAcrdY</p>",,,,,,,,,,
html-keyboard-response,157,308225,0.0-10.0-0.68,5fa5793490f10705755818c0,650c16f0f2faf8d7a0d14c09,651c1c1a303a74061d43ac6a,null,null,"<p style=""font-size: 60px; font-family: BACS"">bROCYDTk</p>",,,,,,,,,,
html-keyboard-response,158,309236,0.0-10.0-0.69,5fa5793490f10705755818c0,650c16f0f2faf8d7a0d14c09,651c1c1a303a74061d43ac6a,null,null,"<p style=""font-size: 60px; font-family: BACS"">BECkPTl</p>",,,,,,,,,,
html-keyboard-response,159,310243,0.0-10.0-0.70,5fa5793490f10705755818c0,650c16f0f2faf8d7a0d14c09,651c1c1a303a74061d43ac6a,null,null,"<p style=""font-size: 60px; font-family: BACS"">LAclAcrdY</p>",,,,,,,,,,
html-keyboard-response,160,311253,0.0-10.0-0.71,5fa5793490f10705755818c0,650c16f0f2faf8d7a0d14c09,651c1c1a303a74061d43ac6a,null,null,"<p style=""font-size: 60px; font-family: BACS"">bROCPTl</p>",,,,,,,,,,
html-keyboard-response,161,312261,0.0-10.0-0.72,5fa5793490f10705755818c0,650c16f0f2faf8d7a0d14c09,651c1c1a303a74061d43ac6a,null,null,"<p style=""font-size: 60px; font-family: BACS"">ZdlOJUNa</p>",,,,,,,,,,
html-keyboard-response,162,313272,0.0-10.0-0.73,5fa5793490f10705755818c0,650c16f0f2faf8d7a0d14c09,651c1c1a303a74061d43ac6a,null,null,"<p style=""font-size: 60px; font-family: BACS"">hTtBbYDTk</p>",,,,,,,,,,
html-keyboard-response,163,314286,0.0-10.0-0.74,5fa5793490f10705755818c0,650c16f0f2faf8d7a0d14c09,651c1c1a303a74061d43ac6a,null,null,"<p style=""font-size: 60px; font-family: BACS"">OZkbcrdY</p>",,,,,,,,,,
html-keyboard-response,164,315289,0.0-10.0-0.75,5fa5793490f10705755818c0,650c16f0f2faf8d7a0d14c09,651c1c1a303a74061d43ac6a,null,null,"<p style=""font-size: 60px; font-family: BACS"">EltMBTbk</p>",,,,,,,,,,
html-keyboard-response,165,316294,0.0-10.0-0.76,5fa5793490f10705755818c0,650c16f0f2faf8d7a0d14c09,651c1c1a303a74061d43ac6a,null,null,"<p style=""font-size: 60px; font-family: BACS"">tKDmhPTl</p>",,,,,,,,,,
html-keyboard-response,166,317304,0.0-10.0-0.77,5fa5793490f10705755818c0,650c16f0f2faf8d7a0d14c09,651c1c1a303a74061d43ac6a,null,null,"<p style=""font-size: 60px; font-family: BACS"">bROCTbk</p>",,,,,,,,,,
html-keyboard-response,167,318311,0.0-10.0-0.78,5fa5793490f10705755818c0,650c16f0f2faf8d7a0d14c09,651c1c1a303a74061d43ac6a,null,null,"<p style=""font-size: 60px; font-family: BACS"">YObADlDT</p>",,,,,,,,,,
html-keyboard-response,168,319321,0.0-10.0-0.79,5fa5793490f10705755818c0,650c16f0f2faf8d7a0d14c09,651c1c1a303a74061d43ac6a,null,null,"<p style=""font-size: 60px; font-family: BACS"">bNdmGJUNa</p>",,,,,,,,,,
html-keyboard-response,169,456125,0.0-11.0,5fa5793490f10705755818c0,650c16f0f2faf8d7a0d14c09,651c1c1a303a74061d43ac6a,136803, ,"<p>Great, you've seen the second block of words. You may now take a short break.</p>
      <p>Press the spacebar when you're ready to continue.</p>",,,,,,,,,,
html-keyboard-response,170,457149,0.0-12.0-0.0,5fa5793490f10705755818c0,650c16f0f2faf8d7a0d14c09,651c1c1a303a74061d43ac6a,null,null,"<p style=""font-size: 60px; font-family: BACS"">YObAYDTk</p>",,,,,,,,,,
html-keyboard-response,171,458161,0.0-12.0-0.1,5fa5793490f10705755818c0,650c16f0f2faf8d7a0d14c09,651c1c1a303a74061d43ac6a,null,null,"<p style=""font-size: 60px; font-family: BACS"">NbacAcrdY</p>",,,,,,,,,,
html-keyboard-response,172,459171,0.0-12.0-0.2,5fa5793490f10705755818c0,650c16f0f2faf8d7a0d14c09,651c1c1a303a74061d43ac6a,null,null,"<p style=""font-size: 60px; font-family: BACS"">EltMBmCd</p>",,,,,,,,,,
html-keyboard-response,173,460182,0.0-12.0-0.3,5fa5793490f10705755818c0,650c16f0f2faf8d7a0d14c09,651c1c1a303a74061d43ac6a,null,null,"<p style=""font-size: 60px; font-family: BACS"">YObADlDT</p>",,,,,,,,,,
html-keyboard-response,174,461210,0.0-12.0-0.4,5fa5793490f10705755818c0,650c16f0f2faf8d7a0d14c09,651c1c1a303a74061d43ac6a,null,null,"<p style=""font-size: 60px; font-family: BACS"">dYdAmCd</p>",,,,,,,,,,
html-keyboard-response,175,462219,0.0-12.0-0.5,5fa5793490f10705755818c0,650c16f0f2faf8d7a0d14c09,651c1c1a303a74061d43ac6a,null,null,"<p style=""font-size: 60px; font-family: BACS"">ZdlOJUNa</p>",,,,,,,,,,
html-keyboard-response,176,463225,0.0-12.0-0.6,5fa5793490f10705755818c0,650c16f0f2faf8d7a0d14c09,651c1c1a303a74061d43ac6a,null,null,"<p style=""font-size: 60px; font-family: BACS"">dRbDbTbk</p>",,,,,,,,,,
html-keyboard-response,177,464234,0.0-12.0-0.7,5fa5793490f10705755818c0,650c16f0f2faf8d7a0d14c09,651c1c1a303a74061d43ac6a,null,null,"<p style=""font-size: 60px; font-family: BACS"">LAclAYaum</p>",,,,,,,,,,
html-keyboard-response,178,465249,0.0-12.0-0.8,5fa5793490f10705755818c0,650c16f0f2faf8d7a0d14c09,651c1c1a303a74061d43ac6a,null,null,"<p style=""font-size: 60px; font-family: BACS"">BECkYDTk</p>",,,,,,,,,,
html-keyboard-response,179,466258,0.0-12.0-0.9,5fa5793490f10705755818c0,650c16f0f2faf8d7a0d14c09,651c1c1a303a74061d43ac6a,null,null,"<p style=""font-size: 60px; font-family: BACS"">JmNkcrdY</p>",,,,,,,,,,
html-keyboard-response,180,467268,0.0-12.0-0.10,5fa5793490f10705755818c0,650c16f0f2faf8d7a0d14c09,651c1c1a303a74061d43ac6a,null,null,"<p style=""font-size: 60px; font-family: BACS"">dYdAPTl</p>",,,,,,,,,,
html-keyboard-response,181,468294,0.0-12.0-0.11,5fa5793490f10705755818c0,650c16f0f2faf8d7a0d14c09,651c1c1a303a74061d43ac6a,null,null,"<p style=""font-size: 60px; font-family: BACS"">NbacAYaum</p>",,,,,,,,,,
html-keyboard-response,182,469305,0.0-12.0-0.12,5fa5793490f10705755818c0,650c16f0f2faf8d7a0d14c09,651c1c1a303a74061d43ac6a,null,null,"<p style=""font-size: 60px; font-family: BACS"">UdlGQcrdY</p>",,,,,,,,,,
html-keyboard-response,183,470310,0.0-12.0-0.13,5fa5793490f10705755818c0,650c16f0f2faf8d7a0d14c09,651c1c1a303a74061d43ac6a,null,null,"<p style=""font-size: 60px; font-family: BACS"">OZkbuOAO</p>",,,,,,,,,,
html-keyboard-response,184,471336,0.0-12.0-0.14,5fa5793490f10705755818c0,650c16f0f2faf8d7a0d14c09,651c1c1a303a74061d43ac6a,null,null,"<p style=""font-size: 60px; font-family: BACS"">lkAkYaum</p>",,,,,,,,,,
html-keyboard-response,185,472343,0.0-12.0-0.15,5fa5793490f10705755818c0,650c16f0f2faf8d7a0d14c09,651c1c1a303a74061d43ac6a,null,null,"<p style=""font-size: 60px; font-family: BACS"">hTtBbDlDT</p>",,,,,,,,,,
html-keyboard-response,186,473354,0.0-12.0-0.16,5fa5793490f10705755818c0,650c16f0f2faf8d7a0d14c09,651c1c1a303a74061d43ac6a,null,null,"<p style=""font-size: 60px; font-family: BACS"">ORbkPTl</p>",,,,,,,,,,
html-keyboard-response,187,474362,0.0-12.0-0.17,5fa5793490f10705755818c0,650c16f0f2faf8d7a0d14c09,651c1c1a303a74061d43ac6a,null,null,"<p style=""font-size: 60px; font-family: BACS"">aYaNuOAO</p>",,,,,,,,,,
html-keyboard-response,188,475372,0.0-12.0-0.18,5fa5793490f10705755818c0,650c16f0f2faf8d7a0d14c09,651c1c1a303a74061d43ac6a,null,null,"<p style=""font-size: 60px; font-family: BACS"">UdlGQJUNa</p>",,,,,,,,,,
html-keyboard-response,189,476396,0.0-12.0-0.19,5fa5793490f10705755818c0,650c16f0f2faf8d7a0d14c09,651c1c1a303a74061d43ac6a,null,null,"<p style=""font-size: 60px; font-family: BACS"">BECkmCd</p>",,,,,,,,,,
html-keyboard-response,190,477397,0.0-12.0-0.20,5fa5793490f10705755818c0,650c16f0f2faf8d7a0d14c09,651c1c1a303a74061d43ac6a,null,null,"<p style=""font-size: 60px; font-family: BACS"">bNdmGYaum</p>",,,,,,,,,,
html-keyboard-response,191,478410,0.0-12.0-0.21,5fa5793490f10705755818c0,650c16f0f2faf8d7a0d14c09,651c1c1a303a74061d43ac6a,null,null,"<p style=""font-size: 60px; font-family: BACS"">bROCPTl</p>",,,,,,,,,,
html-keyboard-response,192,479413,0.0-12.0-0.22,5fa5793490f10705755818c0,650c16f0f2faf8d7a0d14c09,651c1c1a303a74061d43ac6a,null,null,"<p style=""font-size: 60px; font-family: BACS"">LAclAcrdY</p>",,,,,,,,,,
html-keyboard-response,193,480426,0.0-12.0-0.23,5fa5793490f10705755818c0,650c16f0f2faf8d7a0d14c09,651c1c1a303a74061d43ac6a,null,null,"<p style=""font-size: 60px; font-family: BACS"">dJNrYaum</p>",,,,,,,,,,
html-keyboard-response,194,481432,0.0-12.0-0.24,5fa5793490f10705755818c0,650c16f0f2faf8d7a0d14c09,651c1c1a303a74061d43ac6a,null,null,"<p style=""font-size: 60px; font-family: BACS"">BECkDlDT</p>",,,,,,,,,,
html-keyboard-response,195,482460,0.0-12.0-0.25,5fa5793490f10705755818c0,650c16f0f2faf8d7a0d14c09,651c1c1a303a74061d43ac6a,null,null,"<p style=""font-size: 60px; font-family: BACS"">hTDdmCd</p>",,,,,,,,,,
html-keyboard-response,196,483471,0.0-12.0-0.26,5fa5793490f10705755818c0,650c16f0f2faf8d7a0d14c09,651c1c1a303a74061d43ac6a,null,null,"<p style=""font-size: 60px; font-family: BACS"">bROCYDTk</p>",,,,,,,,,,
html-keyboard-response,197,484478,0.0-12.0-0.27,5fa5793490f10705755818c0,650c16f0f2faf8d7a0d14c09,651c1c1a303a74061d43ac6a,null,null,"<p style=""font-size: 60px; font-family: BACS"">ORbkDlDT</p>",,,,,,,,,,
html-keyboard-response,198,485485,0.0-12.0-0.28,5fa5793490f10705755818c0,650c16f0f2faf8d7a0d14c09,651c1c1a303a74061d43ac6a,null,null,"<p style=""font-size: 60px; font-family: BACS"">OZkbJUNa</p>",,,,,,,,,,
html-keyboard-response,199,486511,0.0-12.0-0.29,5fa5793490f10705755818c0,650c16f0f2faf8d7a0d14c09,651c1c1a303a74061d43ac6a,null,null,"<p style=""font-size: 60px; font-family: BACS"">hTtBbmCd</p>",,,,,,,,,,
html-keyboard-response,200,487517,0.0-12.0-0.30,5fa5793490f10705755818c0,650c16f0f2faf8d7a0d14c09,651c1c1a303a74061d43ac6a,null,null,"<p style=""font-size: 60px; font-family: BACS"">bNdmGJUNa</p>",,,,,,,,,,
html-keyboard-response,201,488527,0.0-12.0-0.31,5fa5793490f10705755818c0,650c16f0f2faf8d7a0d14c09,651c1c1a303a74061d43ac6a,null,null,"<p style=""font-size: 60px; font-family: BACS"">bROCTbk</p>",,,,,,,,,,
html-keyboard-response,202,489536,0.0-12.0-0.32,5fa5793490f10705755818c0,650c16f0f2faf8d7a0d14c09,651c1c1a303a74061d43ac6a,null,null,"<p style=""font-size: 60px; font-family: BACS"">ZdlOcrdY</p>",,,,,,,,,,
html-keyboard-response,203,490543,0.0-12.0-0.33,5fa5793490f10705755818c0,650c16f0f2faf8d7a0d14c09,651c1c1a303a74061d43ac6a,null,null,"<p style=""font-size: 60px; font-family: BACS"">bNdmGuOAO</p>",,,,,,,,,,
html-keyboard-response,204,491557,0.0-12.0-0.34,5fa5793490f10705755818c0,650c16f0f2faf8d7a0d14c09,651c1c1a303a74061d43ac6a,null,null,"<p style=""font-size: 60px; font-family: BACS"">hTDdYDTk</p>",,,,,,,,,,
html-keyboard-response,205,492563,0.0-12.0-0.35,5fa5793490f10705755818c0,650c16f0f2faf8d7a0d14c09,651c1c1a303a74061d43ac6a,null,null,"<p style=""font-size: 60px; font-family: BACS"">tKDmhDlDT</p>",,,,,,,,,,
html-keyboard-response,206,493574,0.0-12.0-0.36,5fa5793490f10705755818c0,650c16f0f2faf8d7a0d14c09,651c1c1a303a74061d43ac6a,null,null,"<p style=""font-size: 60px; font-family: BACS"">lkAkuOAO</p>",,,,,,,,,,
html-keyboard-response,207,494578,0.0-12.0-0.37,5fa5793490f10705755818c0,650c16f0f2faf8d7a0d14c09,651c1c1a303a74061d43ac6a,null,null,"<p style=""font-size: 60px; font-family: BACS"">LAclALcO</p>",,,,,,,,,,
html-keyboard-response,208,495588,0.0-12.0-0.38,5fa5793490f10705755818c0,650c16f0f2faf8d7a0d14c09,651c1c1a303a74061d43ac6a,null,null,"<p style=""font-size: 60px; font-family: BACS"">bNdmGcrdY</p>",,,,,,,,,,
html-keyboard-response,209,496598,0.0-12.0-0.39,5fa5793490f10705755818c0,650c16f0f2faf8d7a0d14c09,651c1c1a303a74061d43ac6a,null,null,"<p style=""font-size: 60px; font-family: BACS"">NbacALcO</p>",,,,,,,,,,
html-keyboard-response,210,497625,0.0-12.0-0.40,5fa5793490f10705755818c0,650c16f0f2faf8d7a0d14c09,651c1c1a303a74061d43ac6a,null,null,"<p style=""font-size: 60px; font-family: BACS"">OZkbcrdY</p>",,,,,,,,,,
html-keyboard-response,211,498631,0.0-12.0-0.41,5fa5793490f10705755818c0,650c16f0f2faf8d7a0d14c09,651c1c1a303a74061d43ac6a,null,null,"<p style=""font-size: 60px; font-family: BACS"">ZdlOYaum</p>",,,,,,,,,,
html-keyboard-response,212,499640,0.0-12.0-0.42,5fa5793490f10705755818c0,650c16f0f2faf8d7a0d14c09,651c1c1a303a74061d43ac6a,null,null,"<p style=""font-size: 60px; font-family: BACS"">hTDdTbk</p>",,,,,,,,,,
html-keyboard-response,213,500651,0.0-12.0-0.43,5fa5793490f10705755818c0,650c16f0f2faf8d7a0d14c09,651c1c1a303a74061d43ac6a,null,null,"<p style=""font-size: 60px; font-family: BACS"">lkAkJUNa</p>",,,,,,,,,,
html-keyboard-response,214,501661,0.0-12.0-0.44,5fa5793490f10705755818c0,650c16f0f2faf8d7a0d14c09,651c1c1a303a74061d43ac6a,null,null,"<p style=""font-size: 60px; font-family: BACS"">UdlGQuOAO</p>",,,,,,,,,,
html-keyboard-response,215,502672,0.0-12.0-0.45,5fa5793490f10705755818c0,650c16f0f2faf8d7a0d14c09,651c1c1a303a74061d43ac6a,null,null,"<p style=""font-size: 60px; font-family: BACS"">EltMBDlDT</p>",,,,,,,,,,
html-keyboard-response,216,503683,0.0-12.0-0.46,5fa5793490f10705755818c0,650c16f0f2faf8d7a0d14c09,651c1c1a303a74061d43ac6a,null,null,"<p style=""font-size: 60px; font-family: BACS"">ZdlOuOAO</p>",,,,,,,,,,
html-keyboard-response,217,504694,0.0-12.0-0.47,5fa5793490f10705755818c0,650c16f0f2faf8d7a0d14c09,651c1c1a303a74061d43ac6a,null,null,"<p style=""font-size: 60px; font-family: BACS"">dRbDbYDTk</p>",,,,,,,,,,
html-keyboard-response,218,505700,0.0-12.0-0.48,5fa5793490f10705755818c0,650c16f0f2faf8d7a0d14c09,651c1c1a303a74061d43ac6a,null,null,"<p style=""font-size: 60px; font-family: BACS"">YObAmCd</p>",,,,,,,,,,
html-keyboard-response,219,506724,0.0-12.0-0.49,5fa5793490f10705755818c0,650c16f0f2faf8d7a0d14c09,651c1c1a303a74061d43ac6a,null,null,"<p style=""font-size: 60px; font-family: BACS"">JmNkLcO</p>",,,,,,,,,,
html-keyboard-response,220,507729,0.0-12.0-0.50,5fa5793490f10705755818c0,650c16f0f2faf8d7a0d14c09,651c1c1a303a74061d43ac6a,null,null,"<p style=""font-size: 60px; font-family: BACS"">dYdATbk</p>",,,,,,,,,,
html-keyboard-response,221,508735,0.0-12.0-0.51,5fa5793490f10705755818c0,650c16f0f2faf8d7a0d14c09,651c1c1a303a74061d43ac6a,null,null,"<p style=""font-size: 60px; font-family: BACS"">dJNrLcO</p>",,,,,,,,,,
html-keyboard-response,222,509738,0.0-12.0-0.52,5fa5793490f10705755818c0,650c16f0f2faf8d7a0d14c09,651c1c1a303a74061d43ac6a,null,null,"<p style=""font-size: 60px; font-family: BACS"">BECkPTl</p>",,,,,,,,,,
html-keyboard-response,223,510744,0.0-12.0-0.53,5fa5793490f10705755818c0,650c16f0f2faf8d7a0d14c09,651c1c1a303a74061d43ac6a,null,null,"<p style=""font-size: 60px; font-family: BACS"">LAclAuOAO</p>",,,,,,,,,,
html-keyboard-response,224,511750,0.0-12.0-0.54,5fa5793490f10705755818c0,650c16f0f2faf8d7a0d14c09,651c1c1a303a74061d43ac6a,null,null,"<p style=""font-size: 60px; font-family: BACS"">JmNkYaum</p>",,,,,,,,,,
html-keyboard-response,225,512758,0.0-12.0-0.55,5fa5793490f10705755818c0,650c16f0f2faf8d7a0d14c09,651c1c1a303a74061d43ac6a,null,null,"<p style=""font-size: 60px; font-family: BACS"">hTtBbPTl</p>",,,,,,,,,,
html-keyboard-response,226,513769,0.0-12.0-0.56,5fa5793490f10705755818c0,650c16f0f2faf8d7a0d14c09,651c1c1a303a74061d43ac6a,null,null,"<p style=""font-size: 60px; font-family: BACS"">aYaNLcO</p>",,,,,,,,,,
html-keyboard-response,227,514777,0.0-12.0-0.57,5fa5793490f10705755818c0,650c16f0f2faf8d7a0d14c09,651c1c1a303a74061d43ac6a,null,null,"<p style=""font-size: 60px; font-family: BACS"">hTDdDlDT</p>",,,,,,,,,,
html-keyboard-response,228,515801,0.0-12.0-0.58,5fa5793490f10705755818c0,650c16f0f2faf8d7a0d14c09,651c1c1a303a74061d43ac6a,null,null,"<p style=""font-size: 60px; font-family: BACS"">dRbDbPTl</p>",,,,,,,,,,
html-keyboard-response,229,516807,0.0-12.0-0.59,5fa5793490f10705755818c0,650c16f0f2faf8d7a0d14c09,651c1c1a303a74061d43ac6a,null,null,"<p style=""font-size: 60px; font-family: BACS"">UdlGQLcO</p>",,,,,,,,,,
html-keyboard-response,230,517812,0.0-12.0-0.60,5fa5793490f10705755818c0,650c16f0f2faf8d7a0d14c09,651c1c1a303a74061d43ac6a,null,null,"<p style=""font-size: 60px; font-family: BACS"">dYdAYDTk</p>",,,,,,,,,,
html-keyboard-response,231,518838,0.0-12.0-0.61,5fa5793490f10705755818c0,650c16f0f2faf8d7a0d14c09,651c1c1a303a74061d43ac6a,null,null,"<p style=""font-size: 60px; font-family: BACS"">dJNruOAO</p>",,,,,,,,,,
html-keyboard-response,232,519844,0.0-12.0-0.62,5fa5793490f10705755818c0,650c16f0f2faf8d7a0d14c09,651c1c1a303a74061d43ac6a,null,null,"<p style=""font-size: 60px; font-family: BACS"">NbacAJUNa</p>",,,,,,,,,,
html-keyboard-response,233,520858,0.0-12.0-0.63,5fa5793490f10705755818c0,650c16f0f2faf8d7a0d14c09,651c1c1a303a74061d43ac6a,null,null,"<p style=""font-size: 60px; font-family: BACS"">lkAkLcO</p>",,,,,,,,,,
html-keyboard-response,234,521862,0.0-12.0-0.64,5fa5793490f10705755818c0,650c16f0f2faf8d7a0d14c09,651c1c1a303a74061d43ac6a,null,null,"<p style=""font-size: 60px; font-family: BACS"">ORbkTbk</p>",,,,,,,,,,
html-keyboard-response,235,522876,0.0-12.0-0.65,5fa5793490f10705755818c0,650c16f0f2faf8d7a0d14c09,651c1c1a303a74061d43ac6a,null,null,"<p style=""font-size: 60px; font-family: BACS"">JmNkJUNa</p>",,,,,,,,,,
html-keyboard-response,236,523884,0.0-12.0-0.66,5fa5793490f10705755818c0,650c16f0f2faf8d7a0d14c09,651c1c1a303a74061d43ac6a,null,null,"<p style=""font-size: 60px; font-family: BACS"">EltMBTbk</p>",,,,,,,,,,
html-keyboard-response,237,524892,0.0-12.0-0.67,5fa5793490f10705755818c0,650c16f0f2faf8d7a0d14c09,651c1c1a303a74061d43ac6a,null,null,"<p style=""font-size: 60px; font-family: BACS"">dJNrJUNa</p>",,,,,,,,,,
html-keyboard-response,238,525901,0.0-12.0-0.68,5fa5793490f10705755818c0,650c16f0f2faf8d7a0d14c09,651c1c1a303a74061d43ac6a,null,null,"<p style=""font-size: 60px; font-family: BACS"">tKDmhTbk</p>",,,,,,,,,,
html-keyboard-response,239,526908,0.0-12.0-0.69,5fa5793490f10705755818c0,650c16f0f2faf8d7a0d14c09,651c1c1a303a74061d43ac6a,null,null,"<p style=""font-size: 60px; font-family: BACS"">OZkbLcO</p>",,,,,,,,,,
html-keyboard-response,240,527918,0.0-12.0-0.70,5fa5793490f10705755818c0,650c16f0f2faf8d7a0d14c09,651c1c1a303a74061d43ac6a,null,null,"<p style=""font-size: 60px; font-family: BACS"">hTtBbYDTk</p>",,,,,,,,,,
html-keyboard-response,241,528925,0.0-12.0-0.71,5fa5793490f10705755818c0,650c16f0f2faf8d7a0d14c09,651c1c1a303a74061d43ac6a,null,null,"<p style=""font-size: 60px; font-family: BACS"">YObATbk</p>",,,,,,,,,,
html-keyboard-response,242,529933,0.0-12.0-0.72,5fa5793490f10705755818c0,650c16f0f2faf8d7a0d14c09,651c1c1a303a74061d43ac6a,null,null,"<p style=""font-size: 60px; font-family: BACS"">dRbDbmCd</p>",,,,,,,,,,
html-keyboard-response,243,530944,0.0-12.0-0.73,5fa5793490f10705755818c0,650c16f0f2faf8d7a0d14c09,651c1c1a303a74061d43ac6a,null,null,"<p style=""font-size: 60px; font-family: BACS"">ORbkYDTk</p>",,,,,,,,,,
html-keyboard-response,244,531955,0.0-12.0-0.74,5fa5793490f10705755818c0,650c16f0f2faf8d7a0d14c09,651c1c1a303a74061d43ac6a,null,null,"<p style=""font-size: 60px; font-family: BACS"">aYaNcrdY</p>",,,,,,,,,,
html-keyboard-response,245,532960,0.0-12.0-0.75,5fa5793490f10705755818c0,650c16f0f2faf8d7a0d14c09,651c1c1a303a74061d43ac6a,null,null,"<p style=""font-size: 60px; font-family: BACS"">tKDmhPTl</p>",,,,,,,,,,
html-keyboard-response,246,533967,0.0-12.0-0.76,5fa5793490f10705755818c0,650c16f0f2faf8d7a0d14c09,651c1c1a303a74061d43ac6a,null,null,"<p style=""font-size: 60px; font-family: BACS"">bROCDlDT</p>",,,,,,,,,,
html-keyboard-response,247,534973,0.0-12.0-0.77,5fa5793490f10705755818c0,650c16f0f2faf8d7a0d14c09,651c1c1a303a74061d43ac6a,null,null,"<p style=""font-size: 60px; font-family: BACS"">aYaNYaum</p>",,,,,,,,,,
html-keyboard-response,248,535978,0.0-12.0-0.78,5fa5793490f10705755818c0,650c16f0f2faf8d7a0d14c09,651c1c1a303a74061d43ac6a,null,null,"<p style=""font-size: 60px; font-family: BACS"">EltMBPTl</p>",,,,,,,,,,
html-keyboard-response,249,537006,0.0-12.0-0.79,5fa5793490f10705755818c0,650c16f0f2faf8d7a0d14c09,651c1c1a303a74061d43ac6a,null,null,"<p style=""font-size: 60px; font-family: BACS"">tKDmhmCd</p>",,,,,,,,,,
html-keyboard-response,250,629183,0.0-13.0,5fa5793490f10705755818c0,650c16f0f2faf8d7a0d14c09,651c1c1a303a74061d43ac6a,92175, ,"<p>Great, you've seen the third block of words. You may now take a short break.</p>
      <p>Press the spacebar when you're ready to continue.</p>",,,,,,,,,,
html-keyboard-response,251,630189,0.0-14.0-0.0,5fa5793490f10705755818c0,650c16f0f2faf8d7a0d14c09,651c1c1a303a74061d43ac6a,null,null,"<p style=""font-size: 60px; font-family: BACS"">bROCYDTk</p>",,,,,,,,,,
html-keyboard-response,252,631200,0.0-14.0-0.1,5fa5793490f10705755818c0,650c16f0f2faf8d7a0d14c09,651c1c1a303a74061d43ac6a,null,null,"<p style=""font-size: 60px; font-family: BACS"">NbacAYaum</p>",,,,,,,,,,
html-keyboard-response,253,632210,0.0-14.0-0.2,5fa5793490f10705755818c0,650c16f0f2faf8d7a0d14c09,651c1c1a303a74061d43ac6a,null,null,"<p style=""font-size: 60px; font-family: BACS"">ZdlOJUNa</p>",,,,,,,,,,
html-keyboard-response,254,633222,0.0-14.0-0.3,5fa5793490f10705755818c0,650c16f0f2faf8d7a0d14c09,651c1c1a303a74061d43ac6a,null,null,"<p style=""font-size: 60px; font-family: BACS"">ORbkPTl</p>",,,,,,,,,,
html-keyboard-response,255,634234,0.0-14.0-0.4,5fa5793490f10705755818c0,650c16f0f2faf8d7a0d14c09,651c1c1a303a74061d43ac6a,null,null,"<p style=""font-size: 60px; font-family: BACS"">lkAkuOAO</p>",,,,,,,,,,
html-keyboard-response,256,635242,0.0-14.0-0.5,5fa5793490f10705755818c0,650c16f0f2faf8d7a0d14c09,651c1c1a303a74061d43ac6a,null,null,"<p style=""font-size: 60px; font-family: BACS"">UdlGQLcO</p>",,,,,,,,,,
html-keyboard-response,257,636250,0.0-14.0-0.6,5fa5793490f10705755818c0,650c16f0f2faf8d7a0d14c09,651c1c1a303a74061d43ac6a,null,null,"<p style=""font-size: 60px; font-family: BACS"">EltMBmCd</p>",,,,,,,,,,
html-keyboard-response,258,637257,0.0-14.0-0.7,5fa5793490f10705755818c0,650c16f0f2faf8d7a0d14c09,651c1c1a303a74061d43ac6a,null,null,"<p style=""font-size: 60px; font-family: BACS"">bNdmGcrdY</p>",,,,,,,,,,
html-keyboard-response,259,638261,0.0-14.0-0.8,5fa5793490f10705755818c0,650c16f0f2faf8d7a0d14c09,651c1c1a303a74061d43ac6a,null,null,"<p style=""font-size: 60px; font-family: BACS"">JmNkLcO</p>",,,,,,,,,,
html-keyboard-response,260,639274,0.0-14.0-0.9,5fa5793490f10705755818c0,650c16f0f2faf8d7a0d14c09,651c1c1a303a74061d43ac6a,null,null,"<p style=""font-size: 60px; font-family: BACS"">hTDdDlDT</p>",,,,,,,,,,
html-keyboard-response,261,640282,0.0-14.0-0.10,5fa5793490f10705755818c0,650c16f0f2faf8d7a0d14c09,651c1c1a303a74061d43ac6a,null,null,"<p style=""font-size: 60px; font-family: BACS"">lkAkLcO</p>",,,,,,,,,,
html-keyboard-response,262,641296,0.0-14.0-0.11,5fa5793490f10705755818c0,650c16f0f2faf8d7a0d14c09,651c1c1a303a74061d43ac6a,null,null,"<p style=""font-size: 60px; font-family: BACS"">YObADlDT</p>",,,,,,,,,,
html-keyboard-response,263,642301,0.0-14.0-0.12,5fa5793490f10705755818c0,650c16f0f2faf8d7a0d14c09,651c1c1a303a74061d43ac6a,null,null,"<p style=""font-size: 60px; font-family: BACS"">tKDmhmCd</p>",,,,,,,,,,
html-keyboard-response,264,643310,0.0-14.0-0.13,5fa5793490f10705755818c0,650c16f0f2faf8d7a0d14c09,651c1c1a303a74061d43ac6a,null,null,"<p style=""font-size: 60px; font-family: BACS"">ZdlOYaum</p>",,,,,,,,,,
html-keyboard-response,265,644318,0.0-14.0-0.14,5fa5793490f10705755818c0,650c16f0f2faf8d7a0d14c09,651c1c1a303a74061d43ac6a,null,null,"<p style=""font-size: 60px; font-family: BACS"">EltMBTbk</p>",,,,,,,,,,
html-keyboard-response,266,645326,0.0-14.0-0.15,5fa5793490f10705755818c0,650c16f0f2faf8d7a0d14c09,651c1c1a303a74061d43ac6a,null,null,"<p style=""font-size: 60px; font-family: BACS"">hTtBbDlDT</p>",,,,,,,,,,
html-keyboard-response,267,646339,0.0-14.0-0.16,5fa5793490f10705755818c0,650c16f0f2faf8d7a0d14c09,651c1c1a303a74061d43ac6a,null,null,"<p style=""font-size: 60px; font-family: BACS"">aYaNYaum</p>",,,,,,,,,,
html-keyboard-response,268,647351,0.0-14.0-0.17,5fa5793490f10705755818c0,650c16f0f2faf8d7a0d14c09,651c1c1a303a74061d43ac6a,null,null,"<p style=""font-size: 60px; font-family: BACS"">OZkbLcO</p>",,,,,,,,,,
html-keyboard-response,269,648360,0.0-14.0-0.18,5fa5793490f10705755818c0,650c16f0f2faf8d7a0d14c09,651c1c1a303a74061d43ac6a,null,null,"<p style=""font-size: 60px; font-family: BACS"">tKDmhTbk</p>",,,,,,,,,,
html-keyboard-response,270,649366,0.0-14.0-0.19,5fa5793490f10705755818c0,650c16f0f2faf8d7a0d14c09,651c1c1a303a74061d43ac6a,null,null,"<p style=""font-size: 60px; font-family: BACS"">JmNkcrdY</p>",,,,,,,,,,
html-keyboard-response,271,650376,0.0-14.0-0.20,5fa5793490f10705755818c0,650c16f0f2faf8d7a0d14c09,651c1c1a303a74061d43ac6a,null,null,"<p style=""font-size: 60px; font-family: BACS"">bNdmGYaum</p>",,,,,,,,,,
html-keyboard-response,272,651388,0.0-14.0-0.21,5fa5793490f10705755818c0,650c16f0f2faf8d7a0d14c09,651c1c1a303a74061d43ac6a,null,null,"<p style=""font-size: 60px; font-family: BACS"">aYaNcrdY</p>",,,,,,,,,,
html-keyboard-response,273,652393,0.0-14.0-0.22,5fa5793490f10705755818c0,650c16f0f2faf8d7a0d14c09,651c1c1a303a74061d43ac6a,null,null,"<p style=""font-size: 60px; font-family: BACS"">YObAYDTk</p>",,,,,,,,,,
html-keyboard-response,274,653404,0.0-14.0-0.23,5fa5793490f10705755818c0,650c16f0f2faf8d7a0d14c09,651c1c1a303a74061d43ac6a,null,null,"<p style=""font-size: 60px; font-family: BACS"">UdlGQJUNa</p>",,,,,,,,,,
html-keyboard-response,275,654408,0.0-14.0-0.24,5fa5793490f10705755818c0,650c16f0f2faf8d7a0d14c09,651c1c1a303a74061d43ac6a,null,null,"<p style=""font-size: 60px; font-family: BACS"">aYaNuOAO</p>",,,,,,,,,,
html-keyboard-response,276,655421,0.0-14.0-0.25,5fa5793490f10705755818c0,650c16f0f2faf8d7a0d14c09,651c1c1a303a74061d43ac6a,null,null,"<p style=""font-size: 60px; font-family: BACS"">tKDmhPTl</p>",,,,,,,,,,
html-keyboard-response,277,656427,0.0-14.0-0.26,5fa5793490f10705755818c0,650c16f0f2faf8d7a0d14c09,651c1c1a303a74061d43ac6a,null,null,"<p style=""font-size: 60px; font-family: BACS"">ORbkTbk</p>",,,,,,,,,,
html-keyboard-response,278,657438,0.0-14.0-0.27,5fa5793490f10705755818c0,650c16f0f2faf8d7a0d14c09,651c1c1a303a74061d43ac6a,null,null,"<p style=""font-size: 60px; font-family: BACS"">dJNruOAO</p>",,,,,,,,,,
html-keyboard-response,279,658445,0.0-14.0-0.28,5fa5793490f10705755818c0,650c16f0f2faf8d7a0d14c09,651c1c1a303a74061d43ac6a,null,null,"<p style=""font-size: 60px; font-family: BACS"">OZkbcrdY</p>",,,,,,,,,,
html-keyboard-response,280,659474,0.0-14.0-0.29,5fa5793490f10705755818c0,650c16f0f2faf8d7a0d14c09,651c1c1a303a74061d43ac6a,null,null,"<p style=""font-size: 60px; font-family: BACS"">NbacALcO</p>",,,,,,,,,,
html-keyboard-response,281,660482,0.0-14.0-0.30,5fa5793490f10705755818c0,650c16f0f2faf8d7a0d14c09,651c1c1a303a74061d43ac6a,null,null,"<p style=""font-size: 60px; font-family: BACS"">OZkbuOAO</p>",,,,,,,,,,
html-keyboard-response,282,661491,0.0-14.0-0.31,5fa5793490f10705755818c0,650c16f0f2faf8d7a0d14c09,651c1c1a303a74061d43ac6a,null,null,"<p style=""font-size: 60px; font-family: BACS"">bROCDlDT</p>",,,,,,,,,,
html-keyboard-response,283,662501,0.0-14.0-0.32,5fa5793490f10705755818c0,650c16f0f2faf8d7a0d14c09,651c1c1a303a74061d43ac6a,null,null,"<p style=""font-size: 60px; font-family: BACS"">hTDdmCd</p>",,,,,,,,,,
html-keyboard-response,284,663510,0.0-14.0-0.33,5fa5793490f10705755818c0,650c16f0f2faf8d7a0d14c09,651c1c1a303a74061d43ac6a,null,null,"<p style=""font-size: 60px; font-family: BACS"">dYdAYDTk</p>",,,,,,,,,,
html-keyboard-response,285,664517,0.0-14.0-0.34,5fa5793490f10705755818c0,650c16f0f2faf8d7a0d14c09,651c1c1a303a74061d43ac6a,null,null,"<p style=""font-size: 60px; font-family: BACS"">dRbDbmCd</p>",,,,,,,,,,
html-keyboard-response,286,665527,0.0-14.0-0.35,5fa5793490f10705755818c0,650c16f0f2faf8d7a0d14c09,651c1c1a303a74061d43ac6a,null,null,"<p style=""font-size: 60px; font-family: BACS"">LAclAcrdY</p>",,,,,,,,,,
html-keyboard-response,287,666538,0.0-14.0-0.36,5fa5793490f10705755818c0,650c16f0f2faf8d7a0d14c09,651c1c1a303a74061d43ac6a,null,null,"<p style=""font-size: 60px; font-family: BACS"">lkAkYaum</p>",,,,,,,,,,
html-keyboard-response,288,667541,0.0-14.0-0.37,5fa5793490f10705755818c0,650c16f0f2faf8d7a0d14c09,651c1c1a303a74061d43ac6a,null,null,"<p style=""font-size: 60px; font-family: BACS"">NbacAcrdY</p>",,,,,,,,,,
html-keyboard-response,289,668550,0.0-14.0-0.38,5fa5793490f10705755818c0,650c16f0f2faf8d7a0d14c09,651c1c1a303a74061d43ac6a,null,null,"<p style=""font-size: 60px; font-family: BACS"">EltMBPTl</p>",,,,,,,,,,
html-keyboard-response,290,669562,0.0-14.0-0.39,5fa5793490f10705755818c0,650c16f0f2faf8d7a0d14c09,651c1c1a303a74061d43ac6a,null,null,"<p style=""font-size: 60px; font-family: BACS"">OZkbJUNa</p>",,,,,,,,,,
html-keyboard-response,291,670589,0.0-14.0-0.40,5fa5793490f10705755818c0,650c16f0f2faf8d7a0d14c09,651c1c1a303a74061d43ac6a,null,null,"<p style=""font-size: 60px; font-family: BACS"">LAclAuOAO</p>",,,,,,,,,,
html-keyboard-response,292,671596,0.0-14.0-0.41,5fa5793490f10705755818c0,650c16f0f2faf8d7a0d14c09,651c1c1a303a74061d43ac6a,null,null,"<p style=""font-size: 60px; font-family: BACS"">hTtBbPTl</p>",,,,,,,,,,
html-keyboard-response,293,672603,0.0-14.0-0.42,5fa5793490f10705755818c0,650c16f0f2faf8d7a0d14c09,651c1c1a303a74061d43ac6a,null,null,"<p style=""font-size: 60px; font-family: BACS"">UdlGQuOAO</p>",,,,,,,,,,
html-keyboard-response,294,673608,0.0-14.0-0.43,5fa5793490f10705755818c0,650c16f0f2faf8d7a0d14c09,651c1c1a303a74061d43ac6a,null,null,"<p style=""font-size: 60px; font-family: BACS"">BECkYDTk</p>",,,,,,,,,,
html-keyboard-response,295,674624,0.0-14.0-0.44,5fa5793490f10705755818c0,650c16f0f2faf8d7a0d14c09,651c1c1a303a74061d43ac6a,null,null,"<p style=""font-size: 60px; font-family: BACS"">dJNrYaum</p>",,,,,,,,,,
html-keyboard-response,296,675640,0.0-14.0-0.45,5fa5793490f10705755818c0,650c16f0f2faf8d7a0d14c09,651c1c1a303a74061d43ac6a,null,null,"<p style=""font-size: 60px; font-family: BACS"">lkAkJUNa</p>",,,,,,,,,,
html-keyboard-response,297,676641,0.0-14.0-0.46,5fa5793490f10705755818c0,650c16f0f2faf8d7a0d14c09,651c1c1a303a74061d43ac6a,null,null,"<p style=""font-size: 60px; font-family: BACS"">hTDdTbk</p>",,,,,,,,,,
html-keyboard-response,298,677647,0.0-14.0-0.47,5fa5793490f10705755818c0,650c16f0f2faf8d7a0d14c09,651c1c1a303a74061d43ac6a,null,null,"<p style=""font-size: 60px; font-family: BACS"">dYdAPTl</p>",,,,,,,,,,
html-keyboard-response,299,678656,0.0-14.0-0.48,5fa5793490f10705755818c0,650c16f0f2faf8d7a0d14c09,651c1c1a303a74061d43ac6a,null,null,"<p style=""font-size: 60px; font-family: BACS"">bNdmGuOAO</p>",,,,,,,,,,
html-keyboard-response,300,679662,0.0-14.0-0.49,5fa5793490f10705755818c0,650c16f0f2faf8d7a0d14c09,651c1c1a303a74061d43ac6a,null,null,"<p style=""font-size: 60px; font-family: BACS"">NbacAJUNa</p>",,,,,,,,,,
html-keyboard-response,301,680671,0.0-14.0-0.50,5fa5793490f10705755818c0,650c16f0f2faf8d7a0d14c09,651c1c1a303a74061d43ac6a,null,null,"<p style=""font-size: 60px; font-family: BACS"">dRbDbPTl</p>",,,,,,,,,,
html-keyboard-response,302,681679,0.0-14.0-0.51,5fa5793490f10705755818c0,650c16f0f2faf8d7a0d14c09,651c1c1a303a74061d43ac6a,null,null,"<p style=""font-size: 60px; font-family: BACS"">LAclALcO</p>",,,,,,,,,,
html-keyboard-response,303,682684,0.0-14.0-0.52,5fa5793490f10705755818c0,650c16f0f2faf8d7a0d14c09,651c1c1a303a74061d43ac6a,null,null,"<p style=""font-size: 60px; font-family: BACS"">hTtBbYDTk</p>",,,,,,,,,,
html-keyboard-response,304,683688,0.0-14.0-0.53,5fa5793490f10705755818c0,650c16f0f2faf8d7a0d14c09,651c1c1a303a74061d43ac6a,null,null,"<p style=""font-size: 60px; font-family: BACS"">bROCPTl</p>",,,,,,,,,,
html-keyboard-response,305,684690,0.0-14.0-0.54,5fa5793490f10705755818c0,650c16f0f2faf8d7a0d14c09,651c1c1a303a74061d43ac6a,null,null,"<p style=""font-size: 60px; font-family: BACS"">YObAmCd</p>",,,,,,,,,,
html-keyboard-response,306,685695,0.0-14.0-0.55,5fa5793490f10705755818c0,650c16f0f2faf8d7a0d14c09,651c1c1a303a74061d43ac6a,null,null,"<p style=""font-size: 60px; font-family: BACS"">EltMBDlDT</p>",,,,,,,,,,
html-keyboard-response,307,686700,0.0-14.0-0.56,5fa5793490f10705755818c0,650c16f0f2faf8d7a0d14c09,651c1c1a303a74061d43ac6a,null,null,"<p style=""font-size: 60px; font-family: BACS"">ORbkYDTk</p>",,,,,,,,,,
html-keyboard-response,308,687711,0.0-14.0-0.57,5fa5793490f10705755818c0,650c16f0f2faf8d7a0d14c09,651c1c1a303a74061d43ac6a,null,null,"<p style=""font-size: 60px; font-family: BACS"">aYaNLcO</p>",,,,,,,,,,
html-keyboard-response,309,688741,0.0-14.0-0.58,5fa5793490f10705755818c0,650c16f0f2faf8d7a0d14c09,651c1c1a303a74061d43ac6a,null,null,"<p style=""font-size: 60px; font-family: BACS"">hTtBbmCd</p>",,,,,,,,,,
html-keyboard-response,310,689774,0.0-14.0-0.59,5fa5793490f10705755818c0,650c16f0f2faf8d7a0d14c09,651c1c1a303a74061d43ac6a,null,null,"<p style=""font-size: 60px; font-family: BACS"">YObATbk</p>",,,,,,,,,,
html-keyboard-response,311,690777,0.0-14.0-0.60,5fa5793490f10705755818c0,650c16f0f2faf8d7a0d14c09,651c1c1a303a74061d43ac6a,null,null,"<p style=""font-size: 60px; font-family: BACS"">dRbDbYDTk</p>",,,,,,,,,,
html-keyboard-response,312,691785,0.0-14.0-0.61,5fa5793490f10705755818c0,650c16f0f2faf8d7a0d14c09,651c1c1a303a74061d43ac6a,null,null,"<p style=""font-size: 60px; font-family: BACS"">BECkmCd</p>",,,,,,,,,,
html-keyboard-response,313,692794,0.0-14.0-0.62,5fa5793490f10705755818c0,650c16f0f2faf8d7a0d14c09,651c1c1a303a74061d43ac6a,null,null,"<p style=""font-size: 60px; font-family: BACS"">ZdlOcrdY</p>",,,,,,,,,,
html-keyboard-response,314,693807,0.0-14.0-0.63,5fa5793490f10705755818c0,650c16f0f2faf8d7a0d14c09,651c1c1a303a74061d43ac6a,null,null,"<p style=""font-size: 60px; font-family: BACS"">BECkDlDT</p>",,,,,,,,,,
html-keyboard-response,315,694808,0.0-14.0-0.64,5fa5793490f10705755818c0,650c16f0f2faf8d7a0d14c09,651c1c1a303a74061d43ac6a,null,null,"<p style=""font-size: 60px; font-family: BACS"">JmNkYaum</p>",,,,,,,,,,
html-keyboard-response,316,695843,0.0-14.0-0.65,5fa5793490f10705755818c0,650c16f0f2faf8d7a0d14c09,651c1c1a303a74061d43ac6a,null,null,"<p style=""font-size: 60px; font-family: BACS"">UdlGQcrdY</p>",,,,,,,,,,
html-keyboard-response,317,696856,0.0-14.0-0.66,5fa5793490f10705755818c0,650c16f0f2faf8d7a0d14c09,651c1c1a303a74061d43ac6a,null,null,"<p style=""font-size: 60px; font-family: BACS"">dYdAmCd</p>",,,,,,,,,,
html-keyboard-response,318,697872,0.0-14.0-0.67,5fa5793490f10705755818c0,650c16f0f2faf8d7a0d14c09,651c1c1a303a74061d43ac6a,null,null,"<p style=""font-size: 60px; font-family: BACS"">dJNrJUNa</p>",,,,,,,,,,
html-keyboard-response,319,698885,0.0-14.0-0.68,5fa5793490f10705755818c0,650c16f0f2faf8d7a0d14c09,651c1c1a303a74061d43ac6a,null,null,"<p style=""font-size: 60px; font-family: BACS"">dYdATbk</p>",,,,,,,,,,
html-keyboard-response,320,699888,0.0-14.0-0.69,5fa5793490f10705755818c0,650c16f0f2faf8d7a0d14c09,651c1c1a303a74061d43ac6a,null,null,"<p style=""font-size: 60px; font-family: BACS"">BECkPTl</p>",,,,,,,,,,
html-keyboard-response,321,700889,0.0-14.0-0.70,5fa5793490f10705755818c0,650c16f0f2faf8d7a0d14c09,651c1c1a303a74061d43ac6a,null,null,"<p style=""font-size: 60px; font-family: BACS"">tKDmhDlDT</p>",,,,,,,,,,
html-keyboard-response,322,701891,0.0-14.0-0.71,5fa5793490f10705755818c0,650c16f0f2faf8d7a0d14c09,651c1c1a303a74061d43ac6a,null,null,"<p style=""font-size: 60px; font-family: BACS"">JmNkJUNa</p>",,,,,,,,,,
html-keyboard-response,323,702898,0.0-14.0-0.72,5fa5793490f10705755818c0,650c16f0f2faf8d7a0d14c09,651c1c1a303a74061d43ac6a,null,null,"<p style=""font-size: 60px; font-family: BACS"">dRbDbTbk</p>",,,,,,,,,,
html-keyboard-response,324,703907,0.0-14.0-0.73,5fa5793490f10705755818c0,650c16f0f2faf8d7a0d14c09,651c1c1a303a74061d43ac6a,null,null,"<p style=""font-size: 60px; font-family: BACS"">hTDdYDTk</p>",,,,,,,,,,
html-keyboard-response,325,704911,0.0-14.0-0.74,5fa5793490f10705755818c0,650c16f0f2faf8d7a0d14c09,651c1c1a303a74061d43ac6a,null,null,"<p style=""font-size: 60px; font-family: BACS"">bNdmGJUNa</p>",,,,,,,,,,
html-keyboard-response,326,705923,0.0-14.0-0.75,5fa5793490f10705755818c0,650c16f0f2faf8d7a0d14c09,651c1c1a303a74061d43ac6a,null,null,"<p style=""font-size: 60px; font-family: BACS"">bROCTbk</p>",,,,,,,,,,
html-keyboard-response,327,706936,0.0-14.0-0.76,5fa5793490f10705755818c0,650c16f0f2faf8d7a0d14c09,651c1c1a303a74061d43ac6a,null,null,"<p style=""font-size: 60px; font-family: BACS"">LAclAYaum</p>",,,,,,,,,,
html-keyboard-response,328,707945,0.0-14.0-0.77,5fa5793490f10705755818c0,650c16f0f2faf8d7a0d14c09,651c1c1a303a74061d43ac6a,null,null,"<p style=""font-size: 60px; font-family: BACS"">dJNrLcO</p>",,,,,,,,,,
html-keyboard-response,329,708954,0.0-14.0-0.78,5fa5793490f10705755818c0,650c16f0f2faf8d7a0d14c09,651c1c1a303a74061d43ac6a,null,null,"<p style=""font-size: 60px; font-family: BACS"">ORbkDlDT</p>",,,,,,,,,,
html-keyboard-response,330,709969,0.0-14.0-0.79,5fa5793490f10705755818c0,650c16f0f2faf8d7a0d14c09,651c1c1a303a74061d43ac6a,null,null,"<p style=""font-size: 60px; font-family: BACS"">ZdlOuOAO</p>",,,,,,,,,,
html-keyboard-response,331,713207,0.0-15.0,5fa5793490f10705755818c0,650c16f0f2faf8d7a0d14c09,651c1c1a303a74061d43ac6a,3238, ,"<p>Great, you've seen the fourth block of words. You may now take a short break.</p>
      <p>Press the spacebar when you're ready to continue.</p>",,,,,,,,,,
html-keyboard-response,332,714222,0.0-16.0-0.0,5fa5793490f10705755818c0,650c16f0f2faf8d7a0d14c09,651c1c1a303a74061d43ac6a,null,null,"<p style=""font-size: 60px; font-family: BACS"">tKDmhTbk</p>",,,,,,,,,,
html-keyboard-response,333,715233,0.0-16.0-0.1,5fa5793490f10705755818c0,650c16f0f2faf8d7a0d14c09,651c1c1a303a74061d43ac6a,null,null,"<p style=""font-size: 60px; font-family: BACS"">tKDmhTbk</p>",,,,,,,,,,
html-keyboard-response,334,716243,0.0-16.0-0.2,5fa5793490f10705755818c0,650c16f0f2faf8d7a0d14c09,651c1c1a303a74061d43ac6a,null,null,"<p style=""font-size: 60px; font-family: BACS"">tKDmhTbk</p>",,,,,,,,,,
html-keyboard-response,335,717251,0.0-16.0-0.3,5fa5793490f10705755818c0,650c16f0f2faf8d7a0d14c09,651c1c1a303a74061d43ac6a,null,null,"<p style=""font-size: 60px; font-family: BACS"">tKDmhTbk</p>",,,,,,,,,,
html-keyboard-response,336,718262,0.0-16.0-0.4,5fa5793490f10705755818c0,650c16f0f2faf8d7a0d14c09,651c1c1a303a74061d43ac6a,null,null,"<p style=""font-size: 60px; font-family: BACS"">tKDmhTbk</p>",,,,,,,,,,
html-keyboard-response,337,719267,0.0-16.0-0.5,5fa5793490f10705755818c0,650c16f0f2faf8d7a0d14c09,651c1c1a303a74061d43ac6a,null,null,"<p style=""font-size: 60px; font-family: BACS"">tKDmhTbk</p>",,,,,,,,,,
html-keyboard-response,338,720276,0.0-16.0-0.6,5fa5793490f10705755818c0,650c16f0f2faf8d7a0d14c09,651c1c1a303a74061d43ac6a,null,null,"<p style=""font-size: 60px; font-family: BACS"">tKDmhTbk</p>",,,,,,,,,,
html-keyboard-response,339,721283,0.0-16.0-0.7,5fa5793490f10705755818c0,650c16f0f2faf8d7a0d14c09,651c1c1a303a74061d43ac6a,null,null,"<p style=""font-size: 60px; font-family: BACS"">tKDmhTbk</p>",,,,,,,,,,
html-keyboard-response,340,722294,0.0-16.0-0.8,5fa5793490f10705755818c0,650c16f0f2faf8d7a0d14c09,651c1c1a303a74061d43ac6a,null,null,"<p style=""font-size: 60px; font-family: BACS"">tKDmhTbk</p>",,,,,,,,,,
html-keyboard-response,341,723322,0.0-16.0-0.9,5fa5793490f10705755818c0,650c16f0f2faf8d7a0d14c09,651c1c1a303a74061d43ac6a,null,null,"<p style=""font-size: 60px; font-family: BACS"">tKDmhTbk</p>",,,,,,,,,,
html-keyboard-response,342,724335,0.0-16.0-0.10,5fa5793490f10705755818c0,650c16f0f2faf8d7a0d14c09,651c1c1a303a74061d43ac6a,null,null,"<p style=""font-size: 60px; font-family: BACS"">tKDmhTbk</p>",,,,,,,,,,
html-keyboard-response,343,725347,0.0-16.0-0.11,5fa5793490f10705755818c0,650c16f0f2faf8d7a0d14c09,651c1c1a303a74061d43ac6a,null,null,"<p style=""font-size: 60px; font-family: BACS"">tKDmhTbk</p>",,,,,,,,,,
html-keyboard-response,344,726374,0.0-16.0-0.12,5fa5793490f10705755818c0,650c16f0f2faf8d7a0d14c09,651c1c1a303a74061d43ac6a,null,null,"<p style=""font-size: 60px; font-family: BACS"">tKDmhTbk</p>",,,,,,,,,,
html-keyboard-response,345,727401,0.0-16.0-0.13,5fa5793490f10705755818c0,650c16f0f2faf8d7a0d14c09,651c1c1a303a74061d43ac6a,null,null,"<p style=""font-size: 60px; font-family: BACS"">tKDmhTbk</p>",,,,,,,,,,
html-keyboard-response,346,728409,0.0-16.0-0.14,5fa5793490f10705755818c0,650c16f0f2faf8d7a0d14c09,651c1c1a303a74061d43ac6a,null,null,"<p style=""font-size: 60px; font-family: BACS"">tKDmhTbk</p>",,,,,,,,,,
html-keyboard-response,347,729439,0.0-16.0-0.15,5fa5793490f10705755818c0,650c16f0f2faf8d7a0d14c09,651c1c1a303a74061d43ac6a,null,null,"<p style=""font-size: 60px; font-family: BACS"">tKDmhTbk</p>",,,,,,,,,,
html-keyboard-response,348,730442,0.0-16.0-0.16,5fa5793490f10705755818c0,650c16f0f2faf8d7a0d14c09,651c1c1a303a74061d43ac6a,null,null,"<p style=""font-size: 60px; font-family: BACS"">tKDmhTbk</p>",,,,,,,,,,
html-keyboard-response,349,731452,0.0-16.0-0.17,5fa5793490f10705755818c0,650c16f0f2faf8d7a0d14c09,651c1c1a303a74061d43ac6a,null,null,"<p style=""font-size: 60px; font-family: BACS"">tKDmhTbk</p>",,,,,,,,,,
html-keyboard-response,350,732459,0.0-16.0-0.18,5fa5793490f10705755818c0,650c16f0f2faf8d7a0d14c09,651c1c1a303a74061d43ac6a,null,null,"<p style=""font-size: 60px; font-family: BACS"">tKDmhTbk</p>",,,,,,,,,,
html-keyboard-response,351,733470,0.0-16.0-0.19,5fa5793490f10705755818c0,650c16f0f2faf8d7a0d14c09,651c1c1a303a74061d43ac6a,null,null,"<p style=""font-size: 60px; font-family: BACS"">tKDmhTbk</p>",,,,,,,,,,
html-keyboard-response,352,734478,0.0-16.0-0.20,5fa5793490f10705755818c0,650c16f0f2faf8d7a0d14c09,651c1c1a303a74061d43ac6a,null,null,"<p style=""font-size: 60px; font-family: BACS"">tKDmhTbk</p>",,,,,,,,,,
html-keyboard-response,353,735482,0.0-16.0-0.21,5fa5793490f10705755818c0,650c16f0f2faf8d7a0d14c09,651c1c1a303a74061d43ac6a,null,null,"<p style=""font-size: 60px; font-family: BACS"">tKDmhTbk</p>",,,,,,,,,,
html-keyboard-response,354,736488,0.0-16.0-0.22,5fa5793490f10705755818c0,650c16f0f2faf8d7a0d14c09,651c1c1a303a74061d43ac6a,null,null,"<p style=""font-size: 60px; font-family: BACS"">tKDmhTbk</p>",,,,,,,,,,
html-keyboard-response,355,737499,0.0-16.0-0.23,5fa5793490f10705755818c0,650c16f0f2faf8d7a0d14c09,651c1c1a303a74061d43ac6a,null,null,"<p style=""font-size: 60px; font-family: BACS"">tKDmhTbk</p>",,,,,,,,,,
html-keyboard-response,356,738509,0.0-16.0-0.24,5fa5793490f10705755818c0,650c16f0f2faf8d7a0d14c09,651c1c1a303a74061d43ac6a,null,null,"<p style=""font-size: 60px; font-family: BACS"">tKDmhTbk</p>",,,,,,,,,,
html-keyboard-response,357,739519,0.0-16.0-0.25,5fa5793490f10705755818c0,650c16f0f2faf8d7a0d14c09,651c1c1a303a74061d43ac6a,null,null,"<p style=""font-size: 60px; font-family: BACS"">tKDmhTbk</p>",,,,,,,,,,
html-keyboard-response,358,740530,0.0-16.0-0.26,5fa5793490f10705755818c0,650c16f0f2faf8d7a0d14c09,651c1c1a303a74061d43ac6a,null,null,"<p style=""font-size: 60px; font-family: BACS"">tKDmhTbk</p>",,,,,,,,,,
html-keyboard-response,359,741536,0.0-16.0-0.27,5fa5793490f10705755818c0,650c16f0f2faf8d7a0d14c09,651c1c1a303a74061d43ac6a,null,null,"<p style=""font-size: 60px; font-family: BACS"">tKDmhTbk</p>",,,,,,,,,,
html-keyboard-response,360,742544,0.0-16.0-0.28,5fa5793490f10705755818c0,650c16f0f2faf8d7a0d14c09,651c1c1a303a74061d43ac6a,null,null,"<p style=""font-size: 60px; font-family: BACS"">tKDmhTbk</p>",,,,,,,,,,
html-keyboard-response,361,743556,0.0-16.0-0.29,5fa5793490f10705755818c0,650c16f0f2faf8d7a0d14c09,651c1c1a303a74061d43ac6a,null,null,"<p style=""font-size: 60px; font-family: BACS"">tKDmhTbk</p>",,,,,,,,,,
html-keyboard-response,362,744563,0.0-16.0-0.30,5fa5793490f10705755818c0,650c16f0f2faf8d7a0d14c09,651c1c1a303a74061d43ac6a,null,null,"<p style=""font-size: 60px; font-family: BACS"">tKDmhTbk</p>",,,,,,,,,,
html-keyboard-response,363,745572,0.0-16.0-0.31,5fa5793490f10705755818c0,650c16f0f2faf8d7a0d14c09,651c1c1a303a74061d43ac6a,null,null,"<p style=""font-size: 60px; font-family: BACS"">tKDmhTbk</p>",,,,,,,,,,
html-keyboard-response,364,746579,0.0-16.0-0.32,5fa5793490f10705755818c0,650c16f0f2faf8d7a0d14c09,651c1c1a303a74061d43ac6a,null,null,"<p style=""font-size: 60px; font-family: BACS"">tKDmhTbk</p>",,,,,,,,,,
html-keyboard-response,365,747593,0.0-16.0-0.33,5fa5793490f10705755818c0,650c16f0f2faf8d7a0d14c09,651c1c1a303a74061d43ac6a,null,null,"<p style=""font-size: 60px; font-family: BACS"">tKDmhTbk</p>",,,,,,,,,,
html-keyboard-response,366,748622,0.0-16.0-0.34,5fa5793490f10705755818c0,650c16f0f2faf8d7a0d14c09,651c1c1a303a74061d43ac6a,null,null,"<p style=""font-size: 60px; font-family: BACS"">tKDmhTbk</p>",,,,,,,,,,
html-keyboard-response,367,749631,0.0-16.0-0.35,5fa5793490f10705755818c0,650c16f0f2faf8d7a0d14c09,651c1c1a303a74061d43ac6a,null,null,"<p style=""font-size: 60px; font-family: BACS"">tKDmhTbk</p>",,,,,,,,,,
html-keyboard-response,368,750644,0.0-16.0-0.36,5fa5793490f10705755818c0,650c16f0f2faf8d7a0d14c09,651c1c1a303a74061d43ac6a,null,null,"<p style=""font-size: 60px; font-family: BACS"">tKDmhTbk</p>",,,,,,,,,,
html-keyboard-response,369,751657,0.0-16.0-0.37,5fa5793490f10705755818c0,650c16f0f2faf8d7a0d14c09,651c1c1a303a74061d43ac6a,null,null,"<p style=""font-size: 60px; font-family: BACS"">tKDmhTbk</p>",,,,,,,,,,
html-keyboard-response,370,752672,0.0-16.0-0.38,5fa5793490f10705755818c0,650c16f0f2faf8d7a0d14c09,651c1c1a303a74061d43ac6a,null,null,"<p style=""font-size: 60px; font-family: BACS"">tKDmhTbk</p>",,,,,,,,,,
html-keyboard-response,371,753681,0.0-16.0-0.39,5fa5793490f10705755818c0,650c16f0f2faf8d7a0d14c09,651c1c1a303a74061d43ac6a,null,null,"<p style=""font-size: 60px; font-family: BACS"">tKDmhTbk</p>",,,,,,,,,,
html-keyboard-response,372,754692,0.0-16.0-0.40,5fa5793490f10705755818c0,650c16f0f2faf8d7a0d14c09,651c1c1a303a74061d43ac6a,null,null,"<p style=""font-size: 60px; font-family: BACS"">tKDmhTbk</p>",,,,,,,,,,
html-keyboard-response,373,755703,0.0-16.0-0.41,5fa5793490f10705755818c0,650c16f0f2faf8d7a0d14c09,651c1c1a303a74061d43ac6a,null,null,"<p style=""font-size: 60px; font-family: BACS"">tKDmhTbk</p>",,,,,,,,,,
html-keyboard-response,374,756716,0.0-16.0-0.42,5fa5793490f10705755818c0,650c16f0f2faf8d7a0d14c09,651c1c1a303a74061d43ac6a,null,null,"<p style=""font-size: 60px; font-family: BACS"">tKDmhTbk</p>",,,,,,,,,,
html-keyboard-response,375,757717,0.0-16.0-0.43,5fa5793490f10705755818c0,650c16f0f2faf8d7a0d14c09,651c1c1a303a74061d43ac6a,null,null,"<p style=""font-size: 60px; font-family: BACS"">tKDmhTbk</p>",,,,,,,,,,
html-keyboard-response,376,758728,0.0-16.0-0.44,5fa5793490f10705755818c0,650c16f0f2faf8d7a0d14c09,651c1c1a303a74061d43ac6a,null,null,"<p style=""font-size: 60px; font-family: BACS"">tKDmhTbk</p>",,,,,,,,,,
html-keyboard-response,377,759756,0.0-16.0-0.45,5fa5793490f10705755818c0,650c16f0f2faf8d7a0d14c09,651c1c1a303a74061d43ac6a,null,null,"<p style=""font-size: 60px; font-family: BACS"">tKDmhTbk</p>",,,,,,,,,,
html-keyboard-response,378,760759,0.0-16.0-0.46,5fa5793490f10705755818c0,650c16f0f2faf8d7a0d14c09,651c1c1a303a74061d43ac6a,null,null,"<p style=""font-size: 60px; font-family: BACS"">tKDmhTbk</p>",,,,,,,,,,
html-keyboard-response,379,761793,0.0-16.0-0.47,5fa5793490f10705755818c0,650c16f0f2faf8d7a0d14c09,651c1c1a303a74061d43ac6a,null,null,"<p style=""font-size: 60px; font-family: BACS"">tKDmhTbk</p>",,,,,,,,,,
html-keyboard-response,380,762803,0.0-16.0-0.48,5fa5793490f10705755818c0,650c16f0f2faf8d7a0d14c09,651c1c1a303a74061d43ac6a,null,null,"<p style=""font-size: 60px; font-family: BACS"">tKDmhTbk</p>",,,,,,,,,,
html-keyboard-response,381,763811,0.0-16.0-0.49,5fa5793490f10705755818c0,650c16f0f2faf8d7a0d14c09,651c1c1a303a74061d43ac6a,null,null,"<p style=""font-size: 60px; font-family: BACS"">tKDmhTbk</p>",,,,,,,,,,
html-keyboard-response,382,764818,0.0-16.0-0.50,5fa5793490f10705755818c0,650c16f0f2faf8d7a0d14c09,651c1c1a303a74061d43ac6a,null,null,"<p style=""font-size: 60px; font-family: BACS"">tKDmhTbk</p>",,,,,,,,,,
html-keyboard-response,383,765823,0.0-16.0-0.51,5fa5793490f10705755818c0,650c16f0f2faf8d7a0d14c09,651c1c1a303a74061d43ac6a,null,null,"<p style=""font-size: 60px; font-family: BACS"">tKDmhTbk</p>",,,,,,,,,,
html-keyboard-response,384,766827,0.0-16.0-0.52,5fa5793490f10705755818c0,650c16f0f2faf8d7a0d14c09,651c1c1a303a74061d43ac6a,null,null,"<p style=""font-size: 60px; font-family: BACS"">tKDmhTbk</p>",,,,,,,,,,
html-keyboard-response,385,767838,0.0-16.0-0.53,5fa5793490f10705755818c0,650c16f0f2faf8d7a0d14c09,651c1c1a303a74061d43ac6a,null,null,"<p style=""font-size: 60px; font-family: BACS"">tKDmhTbk</p>",,,,,,,,,,
html-keyboard-response,386,768868,0.0-16.0-0.54,5fa5793490f10705755818c0,650c16f0f2faf8d7a0d14c09,651c1c1a303a74061d43ac6a,null,null,"<p style=""font-size: 60px; font-family: BACS"">tKDmhTbk</p>",,,,,,,,,,
html-keyboard-response,387,769877,0.0-16.0-0.55,5fa5793490f10705755818c0,650c16f0f2faf8d7a0d14c09,651c1c1a303a74061d43ac6a,null,null,"<p style=""font-size: 60px; font-family: BACS"">tKDmhTbk</p>",,,,,,,,,,
html-keyboard-response,388,770891,0.0-16.0-0.56,5fa5793490f10705755818c0,650c16f0f2faf8d7a0d14c09,651c1c1a303a74061d43ac6a,null,null,"<p style=""font-size: 60px; font-family: BACS"">tKDmhTbk</p>",,,,,,,,,,
html-keyboard-response,389,771903,0.0-16.0-0.57,5fa5793490f10705755818c0,650c16f0f2faf8d7a0d14c09,651c1c1a303a74061d43ac6a,null,null,"<p style=""font-size: 60px; font-family: BACS"">tKDmhTbk</p>",,,,,,,,,,
html-keyboard-response,390,772939,0.0-16.0-0.58,5fa5793490f10705755818c0,650c16f0f2faf8d7a0d14c09,651c1c1a303a74061d43ac6a,null,null,"<p style=""font-size: 60px; font-family: BACS"">tKDmhTbk</p>",,,,,,,,,,
html-keyboard-response,391,773943,0.0-16.0-0.59,5fa5793490f10705755818c0,650c16f0f2faf8d7a0d14c09,651c1c1a303a74061d43ac6a,null,null,"<p style=""font-size: 60px; font-family: BACS"">tKDmhTbk</p>",,,,,,,,,,
html-keyboard-response,392,774957,0.0-16.0-0.60,5fa5793490f10705755818c0,650c16f0f2faf8d7a0d14c09,651c1c1a303a74061d43ac6a,null,null,"<p style=""font-size: 60px; font-family: BACS"">tKDmhTbk</p>",,,,,,,,,,
html-keyboard-response,393,775968,0.0-16.0-0.61,5fa5793490f10705755818c0,650c16f0f2faf8d7a0d14c09,651c1c1a303a74061d43ac6a,null,null,"<p style=""font-size: 60px; font-family: BACS"">tKDmhTbk</p>",,,,,,,,,,
html-keyboard-response,394,776981,0.0-16.0-0.62,5fa5793490f10705755818c0,650c16f0f2faf8d7a0d14c09,651c1c1a303a74061d43ac6a,null,null,"<p style=""font-size: 60px; font-family: BACS"">tKDmhTbk</p>",,,,,,,,,,
html-keyboard-response,395,777991,0.0-16.0-0.63,5fa5793490f10705755818c0,650c16f0f2faf8d7a0d14c09,651c1c1a303a74061d43ac6a,null,null,"<p style=""font-size: 60px; font-family: BACS"">tKDmhTbk</p>",,,,,,,,,,
html-keyboard-response,396,779003,0.0-16.0-0.64,5fa5793490f10705755818c0,650c16f0f2faf8d7a0d14c09,651c1c1a303a74061d43ac6a,null,null,"<p style=""font-size: 60px; font-family: BACS"">tKDmhTbk</p>",,,,,,,,,,
html-keyboard-response,397,780014,0.0-16.0-0.65,5fa5793490f10705755818c0,650c16f0f2faf8d7a0d14c09,651c1c1a303a74061d43ac6a,null,null,"<p style=""font-size: 60px; font-family: BACS"">tKDmhTbk</p>",,,,,,,,,,
html-keyboard-response,398,781036,0.0-16.0-0.66,5fa5793490f10705755818c0,650c16f0f2faf8d7a0d14c09,651c1c1a303a74061d43ac6a,null,null,"<p style=""font-size: 60px; font-family: BACS"">tKDmhTbk</p>",,,,,,,,,,
html-keyboard-response,399,782044,0.0-16.0-0.67,5fa5793490f10705755818c0,650c16f0f2faf8d7a0d14c09,651c1c1a303a74061d43ac6a,null,null,"<p style=""font-size: 60px; font-family: BACS"">tKDmhTbk</p>",,,,,,,,,,
html-keyboard-response,400,783055,0.0-16.0-0.68,5fa5793490f10705755818c0,650c16f0f2faf8d7a0d14c09,651c1c1a303a74061d43ac6a,null,null,"<p style=""font-size: 60px; font-family: BACS"">tKDmhTbk</p>",,,,,,,,,,
html-keyboard-response,401,784060,0.0-16.0-0.69,5fa5793490f10705755818c0,650c16f0f2faf8d7a0d14c09,651c1c1a303a74061d43ac6a,null,null,"<p style=""font-size: 60px; font-family: BACS"">tKDmhTbk</p>",,,,,,,,,,
html-keyboard-response,402,785065,0.0-16.0-0.70,5fa5793490f10705755818c0,650c16f0f2faf8d7a0d14c09,651c1c1a303a74061d43ac6a,null,null,"<p style=""font-size: 60px; font-family: BACS"">tKDmhTbk</p>",,,,,,,,,,
html-keyboard-response,403,786086,0.0-16.0-0.71,5fa5793490f10705755818c0,650c16f0f2faf8d7a0d14c09,651c1c1a303a74061d43ac6a,null,null,"<p style=""font-size: 60px; font-family: BACS"">tKDmhTbk</p>",,,,,,,,,,
html-keyboard-response,404,787114,0.0-16.0-0.72,5fa5793490f10705755818c0,650c16f0f2faf8d7a0d14c09,651c1c1a303a74061d43ac6a,null,null,"<p style=""font-size: 60px; font-family: BACS"">tKDmhTbk</p>",,,,,,,,,,
html-keyboard-response,405,788122,0.0-16.0-0.73,5fa5793490f10705755818c0,650c16f0f2faf8d7a0d14c09,651c1c1a303a74061d43ac6a,null,null,"<p style=""font-size: 60px; font-family: BACS"">tKDmhTbk</p>",,,,,,,,,,
html-keyboard-response,406,789128,0.0-16.0-0.74,5fa5793490f10705755818c0,650c16f0f2faf8d7a0d14c09,651c1c1a303a74061d43ac6a,null,null,"<p style=""font-size: 60px; font-family: BACS"">tKDmhTbk</p>",,,,,,,,,,
html-keyboard-response,407,790137,0.0-16.0-0.75,5fa5793490f10705755818c0,650c16f0f2faf8d7a0d14c09,651c1c1a303a74061d43ac6a,null,null,"<p style=""font-size: 60px; font-family: BACS"">tKDmhTbk</p>",,,,,,,,,,
html-keyboard-response,408,791143,0.0-16.0-0.76,5fa5793490f10705755818c0,650c16f0f2faf8d7a0d14c09,651c1c1a303a74061d43ac6a,null,null,"<p style=""font-size: 60px; font-family: BACS"">tKDmhTbk</p>",,,,,,,,,,
html-keyboard-response,409,792153,0.0-16.0-0.77,5fa5793490f10705755818c0,650c16f0f2faf8d7a0d14c09,651c1c1a303a74061d43ac6a,null,null,"<p style=""font-size: 60px; font-family: BACS"">tKDmhTbk</p>",,,,,,,,,,
html-keyboard-response,410,793159,0.0-16.0-0.78,5fa5793490f10705755818c0,650c16f0f2faf8d7a0d14c09,651c1c1a303a74061d43ac6a,null,null,"<p style=""font-size: 60px; font-family: BACS"">tKDmhTbk</p>",,,,,,,,,,
html-keyboard-response,411,794168,0.0-16.0-0.79,5fa5793490f10705755818c0,650c16f0f2faf8d7a0d14c09,651c1c1a303a74061d43ac6a,null,null,"<p style=""font-size: 60px; font-family: BACS"">tKDmhTbk</p>",,,,,,,,,,
html-keyboard-response,412,947293,0.0-17.0,5fa5793490f10705755818c0,650c16f0f2faf8d7a0d14c09,651c1c1a303a74061d43ac6a,153123, ,"<p>Great, you've seen the fifth block of words. You may now take a short break.</p>
      <p>Press the spacebar when you're ready to continue.</p>",,,,,,,,,,
html-keyboard-response,413,948306,0.0-18.0-0.0,5fa5793490f10705755818c0,650c16f0f2faf8d7a0d14c09,651c1c1a303a74061d43ac6a,null,null,"<p style=""font-size: 60px; font-family: BACS"">tKDmhTbk</p>",,,,,,,,,,
html-keyboard-response,414,949334,0.0-18.0-0.1,5fa5793490f10705755818c0,650c16f0f2faf8d7a0d14c09,651c1c1a303a74061d43ac6a,null,null,"<p style=""font-size: 60px; font-family: BACS"">hTtBbmCd</p>",,,,,,,,,,
html-keyboard-response,415,950342,0.0-18.0-0.2,5fa5793490f10705755818c0,650c16f0f2faf8d7a0d14c09,651c1c1a303a74061d43ac6a,null,null,"<p style=""font-size: 60px; font-family: BACS"">bNdmGJUNa</p>",,,,,,,,,,
html-keyboard-response,416,951354,0.0-18.0-0.3,5fa5793490f10705755818c0,650c16f0f2faf8d7a0d14c09,651c1c1a303a74061d43ac6a,null,null,"<p style=""font-size: 60px; font-family: BACS"">YObADlDT</p>",,,,,,,,,,
html-keyboard-response,417,952366,0.0-18.0-0.4,5fa5793490f10705755818c0,650c16f0f2faf8d7a0d14c09,651c1c1a303a74061d43ac6a,null,null,"<p style=""font-size: 60px; font-family: BACS"">LAclAuOAO</p>",,,,,,,,,,
html-keyboard-response,418,953372,0.0-18.0-0.5,5fa5793490f10705755818c0,650c16f0f2faf8d7a0d14c09,651c1c1a303a74061d43ac6a,null,null,"<p style=""font-size: 60px; font-family: BACS"">UdlGQLcO</p>",,,,,,,,,,
html-keyboard-response,419,954379,0.0-18.0-0.6,5fa5793490f10705755818c0,650c16f0f2faf8d7a0d14c09,651c1c1a303a74061d43ac6a,null,null,"<p style=""font-size: 60px; font-family: BACS"">lkAkuOAO</p>",,,,,,,,,,
html-keyboard-response,420,955404,0.0-18.0-0.7,5fa5793490f10705755818c0,650c16f0f2faf8d7a0d14c09,651c1c1a303a74061d43ac6a,null,null,"<p style=""font-size: 60px; font-family: BACS"">BECkPTl</p>",,,,,,,,,,
html-keyboard-response,421,956420,0.0-18.0-0.8,5fa5793490f10705755818c0,650c16f0f2faf8d7a0d14c09,651c1c1a303a74061d43ac6a,null,null,"<p style=""font-size: 60px; font-family: BACS"">hTDdTbk</p>",,,,,,,,,,
html-keyboard-response,422,957445,0.0-18.0-0.9,5fa5793490f10705755818c0,650c16f0f2faf8d7a0d14c09,651c1c1a303a74061d43ac6a,null,null,"<p style=""font-size: 60px; font-family: BACS"">tKDmhDlDT</p>",,,,,,,,,,
html-keyboard-response,423,958455,0.0-18.0-0.10,5fa5793490f10705755818c0,650c16f0f2faf8d7a0d14c09,651c1c1a303a74061d43ac6a,null,null,"<p style=""font-size: 60px; font-family: BACS"">OZkbJUNa</p>",,,,,,,,,,
html-keyboard-response,424,959458,0.0-18.0-0.11,5fa5793490f10705755818c0,650c16f0f2faf8d7a0d14c09,651c1c1a303a74061d43ac6a,null,null,"<p style=""font-size: 60px; font-family: BACS"">LAclAYaum</p>",,,,,,,,,,
html-keyboard-response,425,960466,0.0-18.0-0.12,5fa5793490f10705755818c0,650c16f0f2faf8d7a0d14c09,651c1c1a303a74061d43ac6a,null,null,"<p style=""font-size: 60px; font-family: BACS"">UdlGQJUNa</p>",,,,,,,,,,
html-keyboard-response,426,961489,0.0-18.0-0.13,5fa5793490f10705755818c0,650c16f0f2faf8d7a0d14c09,651c1c1a303a74061d43ac6a,null,null,"<p style=""font-size: 60px; font-family: BACS"">aYaNuOAO</p>",,,,,,,,,,
html-keyboard-response,427,962499,0.0-18.0-0.14,5fa5793490f10705755818c0,650c16f0f2faf8d7a0d14c09,651c1c1a303a74061d43ac6a,null,null,"<p style=""font-size: 60px; font-family: BACS"">BECkmCd</p>",,,,,,,,,,
html-keyboard-response,428,963526,0.0-18.0-0.15,5fa5793490f10705755818c0,650c16f0f2faf8d7a0d14c09,651c1c1a303a74061d43ac6a,null,null,"<p style=""font-size: 60px; font-family: BACS"">NbacALcO</p>",,,,,,,,,,
html-keyboard-response,429,964553,0.0-18.0-0.16,5fa5793490f10705755818c0,650c16f0f2faf8d7a0d14c09,651c1c1a303a74061d43ac6a,null,null,"<p style=""font-size: 60px; font-family: BACS"">dRbDbYDTk</p>",,,,,,,,,,
html-keyboard-response,430,965561,0.0-18.0-0.17,5fa5793490f10705755818c0,650c16f0f2faf8d7a0d14c09,651c1c1a303a74061d43ac6a,null,null,"<p style=""font-size: 60px; font-family: BACS"">OZkbcrdY</p>",,,,,,,,,,
html-keyboard-response,431,966588,0.0-18.0-0.18,5fa5793490f10705755818c0,650c16f0f2faf8d7a0d14c09,651c1c1a303a74061d43ac6a,null,null,"<p style=""font-size: 60px; font-family: BACS"">ORbkPTl</p>",,,,,,,,,,
html-keyboard-response,432,967620,0.0-18.0-0.19,5fa5793490f10705755818c0,650c16f0f2faf8d7a0d14c09,651c1c1a303a74061d43ac6a,null,null,"<p style=""font-size: 60px; font-family: BACS"">aYaNcrdY</p>",,,,,,,,,,
html-keyboard-response,433,968636,0.0-18.0-0.20,5fa5793490f10705755818c0,650c16f0f2faf8d7a0d14c09,651c1c1a303a74061d43ac6a,null,null,"<p style=""font-size: 60px; font-family: BACS"">LAclALcO</p>",,,,,,,,,,
html-keyboard-response,434,969640,0.0-18.0-0.21,5fa5793490f10705755818c0,650c16f0f2faf8d7a0d14c09,651c1c1a303a74061d43ac6a,null,null,"<p style=""font-size: 60px; font-family: BACS"">hTtBbDlDT</p>",,,,,,,,,,
html-keyboard-response,435,970641,0.0-18.0-0.22,5fa5793490f10705755818c0,650c16f0f2faf8d7a0d14c09,651c1c1a303a74061d43ac6a,null,null,"<p style=""font-size: 60px; font-family: BACS"">dJNrYaum</p>",,,,,,,,,,
html-keyboard-response,436,971649,0.0-18.0-0.23,5fa5793490f10705755818c0,650c16f0f2faf8d7a0d14c09,651c1c1a303a74061d43ac6a,null,null,"<p style=""font-size: 60px; font-family: BACS"">dRbDbPTl</p>",,,,,,,,,,
html-keyboard-response,437,972665,0.0-18.0-0.24,5fa5793490f10705755818c0,650c16f0f2faf8d7a0d14c09,651c1c1a303a74061d43ac6a,null,null,"<p style=""font-size: 60px; font-family: BACS"">NbacAcrdY</p>",,,,,,,,,,
html-keyboard-response,438,973670,0.0-18.0-0.25,5fa5793490f10705755818c0,650c16f0f2faf8d7a0d14c09,651c1c1a303a74061d43ac6a,null,null,"<p style=""font-size: 60px; font-family: BACS"">ORbkTbk</p>",,,,,,,,,,
html-keyboard-response,439,974674,0.0-18.0-0.26,5fa5793490f10705755818c0,650c16f0f2faf8d7a0d14c09,651c1c1a303a74061d43ac6a,null,null,"<p style=""font-size: 60px; font-family: BACS"">BECkYDTk</p>",,,,,,,,,,
html-keyboard-response,440,975687,0.0-18.0-0.27,5fa5793490f10705755818c0,650c16f0f2faf8d7a0d14c09,651c1c1a303a74061d43ac6a,null,null,"<p style=""font-size: 60px; font-family: BACS"">dJNrLcO</p>",,,,,,,,,,
html-keyboard-response,441,976697,0.0-18.0-0.28,5fa5793490f10705755818c0,650c16f0f2faf8d7a0d14c09,651c1c1a303a74061d43ac6a,null,null,"<p style=""font-size: 60px; font-family: BACS"">ZdlOYaum</p>",,,,,,,,,,
html-keyboard-response,442,977706,0.0-18.0-0.29,5fa5793490f10705755818c0,650c16f0f2faf8d7a0d14c09,651c1c1a303a74061d43ac6a,null,null,"<p style=""font-size: 60px; font-family: BACS"">dJNruOAO</p>",,,,,,,,,,
html-keyboard-response,443,978712,0.0-18.0-0.30,5fa5793490f10705755818c0,650c16f0f2faf8d7a0d14c09,651c1c1a303a74061d43ac6a,null,null,"<p style=""font-size: 60px; font-family: BACS"">hTDdDlDT</p>",,,,,,,,,,
html-keyboard-response,444,979725,0.0-18.0-0.31,5fa5793490f10705755818c0,650c16f0f2faf8d7a0d14c09,651c1c1a303a74061d43ac6a,null,null,"<p style=""font-size: 60px; font-family: BACS"">EltMBPTl</p>",,,,,,,,,,
html-keyboard-response,445,980734,0.0-18.0-0.32,5fa5793490f10705755818c0,650c16f0f2faf8d7a0d14c09,651c1c1a303a74061d43ac6a,null,null,"<p style=""font-size: 60px; font-family: BACS"">YObAmCd</p>",,,,,,,,,,
html-keyboard-response,446,981741,0.0-18.0-0.33,5fa5793490f10705755818c0,650c16f0f2faf8d7a0d14c09,651c1c1a303a74061d43ac6a,null,null,"<p style=""font-size: 60px; font-family: BACS"">ORbkDlDT</p>",,,,,,,,,,
html-keyboard-response,447,982748,0.0-18.0-0.34,5fa5793490f10705755818c0,650c16f0f2faf8d7a0d14c09,651c1c1a303a74061d43ac6a,null,null,"<p style=""font-size: 60px; font-family: BACS"">bNdmGuOAO</p>",,,,,,,,,,
html-keyboard-response,448,983754,0.0-18.0-0.35,5fa5793490f10705755818c0,650c16f0f2faf8d7a0d14c09,651c1c1a303a74061d43ac6a,null,null,"<p style=""font-size: 60px; font-family: BACS"">YObATbk</p>",,,,,,,,,,
html-keyboard-response,449,984758,0.0-18.0-0.36,5fa5793490f10705755818c0,650c16f0f2faf8d7a0d14c09,651c1c1a303a74061d43ac6a,null,null,"<p style=""font-size: 60px; font-family: BACS"">JmNkJUNa</p>",,,,,,,,,,
html-keyboard-response,450,985770,0.0-18.0-0.37,5fa5793490f10705755818c0,650c16f0f2faf8d7a0d14c09,651c1c1a303a74061d43ac6a,null,null,"<p style=""font-size: 60px; font-family: BACS"">YObAYDTk</p>",,,,,,,,,,
html-keyboard-response,451,986774,0.0-18.0-0.38,5fa5793490f10705755818c0,650c16f0f2faf8d7a0d14c09,651c1c1a303a74061d43ac6a,null,null,"<p style=""font-size: 60px; font-family: BACS"">aYaNLcO</p>",,,,,,,,,,
html-keyboard-response,452,987784,0.0-18.0-0.39,5fa5793490f10705755818c0,650c16f0f2faf8d7a0d14c09,651c1c1a303a74061d43ac6a,null,null,"<p style=""font-size: 60px; font-family: BACS"">JmNkcrdY</p>",,,,,,,,,,
html-keyboard-response,453,988792,0.0-18.0-0.40,5fa5793490f10705755818c0,650c16f0f2faf8d7a0d14c09,651c1c1a303a74061d43ac6a,null,null,"<p style=""font-size: 60px; font-family: BACS"">ORbkYDTk</p>",,,,,,,,,,
html-keyboard-response,454,989804,0.0-18.0-0.41,5fa5793490f10705755818c0,650c16f0f2faf8d7a0d14c09,651c1c1a303a74061d43ac6a,null,null,"<p style=""font-size: 60px; font-family: BACS"">bROCPTl</p>",,,,,,,,,,
html-keyboard-response,455,990814,0.0-18.0-0.42,5fa5793490f10705755818c0,650c16f0f2faf8d7a0d14c09,651c1c1a303a74061d43ac6a,null,null,"<p style=""font-size: 60px; font-family: BACS"">dYdAmCd</p>",,,,,,,,,,
html-keyboard-response,456,991850,0.0-18.0-0.43,5fa5793490f10705755818c0,650c16f0f2faf8d7a0d14c09,651c1c1a303a74061d43ac6a,null,null,"<p style=""font-size: 60px; font-family: BACS"">ZdlOJUNa</p>",,,,,,,,,,
html-keyboard-response,457,992861,0.0-18.0-0.44,5fa5793490f10705755818c0,650c16f0f2faf8d7a0d14c09,651c1c1a303a74061d43ac6a,null,null,"<p style=""font-size: 60px; font-family: BACS"">JmNkYaum</p>",,,,,,,,,,
html-keyboard-response,458,993872,0.0-18.0-0.45,5fa5793490f10705755818c0,650c16f0f2faf8d7a0d14c09,651c1c1a303a74061d43ac6a,null,null,"<p style=""font-size: 60px; font-family: BACS"">BECkDlDT</p>",,,,,,,,,,
html-keyboard-response,459,994897,0.0-18.0-0.46,5fa5793490f10705755818c0,650c16f0f2faf8d7a0d14c09,651c1c1a303a74061d43ac6a,null,null,"<p style=""font-size: 60px; font-family: BACS"">bNdmGcrdY</p>",,,,,,,,,,
html-keyboard-response,460,995906,0.0-18.0-0.47,5fa5793490f10705755818c0,650c16f0f2faf8d7a0d14c09,651c1c1a303a74061d43ac6a,null,null,"<p style=""font-size: 60px; font-family: BACS"">lkAkLcO</p>",,,,,,,,,,
html-keyboard-response,461,996909,0.0-18.0-0.48,5fa5793490f10705755818c0,650c16f0f2faf8d7a0d14c09,651c1c1a303a74061d43ac6a,null,null,"<p style=""font-size: 60px; font-family: BACS"">hTtBbYDTk</p>",,,,,,,,,,
html-keyboard-response,462,997919,0.0-18.0-0.49,5fa5793490f10705755818c0,650c16f0f2faf8d7a0d14c09,651c1c1a303a74061d43ac6a,null,null,"<p style=""font-size: 60px; font-family: BACS"">bROCTbk</p>",,,,,,,,,,
html-keyboard-response,463,998925,0.0-18.0-0.50,5fa5793490f10705755818c0,650c16f0f2faf8d7a0d14c09,651c1c1a303a74061d43ac6a,null,null,"<p style=""font-size: 60px; font-family: BACS"">aYaNYaum</p>",,,,,,,,,,
html-keyboard-response,464,999935,0.0-18.0-0.51,5fa5793490f10705755818c0,650c16f0f2faf8d7a0d14c09,651c1c1a303a74061d43ac6a,null,null,"<p style=""font-size: 60px; font-family: BACS"">lkAkJUNa</p>",,,,,,,,,,
html-keyboard-response,465,1000945,0.0-18.0-0.52,5fa5793490f10705755818c0,650c16f0f2faf8d7a0d14c09,651c1c1a303a74061d43ac6a,null,null,"<p style=""font-size: 60px; font-family: BACS"">ZdlOcrdY</p>",,,,,,,,,,
