trial_type,trial_index,time_elapsed,internal_node_id,subject_id,study_id,session_id,rt,response,stimulus,success,item,task,correct_response,testing_condition,correct,target,confound,name,view_history
pavlovia,0,1890,0.0-0.0,613ab1e64acd61ebd0a7116d,650c16f0f2faf8d7a0d14c09,651c1c7f112212192e9db54b,,,,,,,,,,,,,
survey-html-form,1,5972,0.0-1.0,613ab1e64acd61ebd0a7116d,650c16f0f2faf8d7a0d14c09,651c1c7f112212192e9db54b,4081,"{""ID"":""613ab1e64acd61ebd0a7116d""}",,,,,,,,,,,
html-keyboard-response,2,19224,0.0-2.0,613ab1e64acd61ebd0a7116d,650c16f0f2faf8d7a0d14c09,651c1c7f112212192e9db54b,13251, ,"<p style=""font-size: 15px;"">Before beginning, we ask that you read the consent information and confirm your agreement to participate in the experiment.</p>
      <p style=""font-size: 15px;""> We ask that you remember that this is a research project and that your participation is entirely voluntary. You can stop your participation at any time, without needing to provide any explanation. The study we're asking you to participate in aims at examining how readers process written words. You will be engaged in a session of apprximately 20 minutes, followed by a brief questionnaire. You will have the opportunity to take a few breaks during the experiment. You will be paid £4 for your participation, corresponding to a rate of £8/hour. While this experiment looks at cognitive faculties, this experiment doesn't constitute clinical proof of eventual pathologies.</p>
      <p style=""font-size: 15px;"">All of the information collected thanks to yours and others' participation will be held in a secure password-protected server, and will not be shared with anyone not authorised to view it. Your personal information will be kept with an arbitrary participant ID. Thanks to this data anonymity process, any researcher analysing the data won't be able to track the information back to a specific participant. Therefore, this process will make identifying you impossibile, even when results from the study will be published in scientific reviews, presented at congresses, or at any other public forum. More generally, the collected data will be treated in accordance with the laws on privacy and conformity to the Legislative Degree n. 196 ""Code regarding the protection of personal data"" of the 30th of June 2003 and to the European Regulation 2016/670 (General Data Protection Regulation - GDPR). The Data Protection Officer is Avv. Valentina Carollo, who can be contacted at the following email addresses: <a href=""mailto:dpo@sissa.it"">dpo@sissa.it</a> or <a href=""mailto:rpd@sissa.it"">rpd@sissa.it</a> - PEC: <a href=""mailto:protocollo@pec.sissa.it"">protocollo@pec.sissa.it</a>.</p>
      <p style=""font-size: 15px;""> Before expressing your consent to participate, we would like to remind you again that in case you need explanations on any aspect of the experimental procedure, the researcher is at your disposition (<a href=""mailto:aliebelt@sissa.it"">aliebelt@sissa.it</a>, <a href=""mailto:davide.crepaldi@sissa.it"">davide.crepaldi@sissa.it</a>).</p>
      <p style=""font-size: 15px;"">If you would like to download the informed consent form, you can do so here: <a href=""BASL-Informed_Consent.pdf"" download>informed consent form</a>.</p>
      <p style=""font-size: 15px;"">We ask that you press the spacebar to proceed to the consent section.</p>",,,,,,,,,,
survey-html-form,3,34800,0.0-3.0,613ab1e64acd61ebd0a7116d,650c16f0f2faf8d7a0d14c09,651c1c7f112212192e9db54b,15574,"{""consent1"":""YES"",""consent2"":""YES"",""consent3"":""YES"",""consent4"":""YES"",""consent5"":""YES"",""consent6"":""YES""}",,,,,,,,,,,
fullscreen,4,40011,0.0-4.0,613ab1e64acd61ebd0a7116d,650c16f0f2faf8d7a0d14c09,651c1c7f112212192e9db54b,,,,TRUE,,,,,,,,,
html-keyboard-response,5,53938,0.0-5.0,613ab1e64acd61ebd0a7116d,650c16f0f2faf8d7a0d14c09,651c1c7f112212192e9db54b,13925, ,"<p>Welcome, and thank you very much for your time!</p>
      <p>In this experiment, you'll be a language expert who's been asked to take a look at words that Earth has received in its first communication with aliens. Your task, in this first part of the experiment, is to pay close attention to the words you'll be shown; later, world leaders will ask you questions on what you saw. The words will be shown to you quite quickly; it seems that the aliens were in a hurry :-)</p>
      <p>Press the spacebar to continue.<p>",,,,,,,,,,
html-keyboard-response,6,53995,0.0-6.0,613ab1e64acd61ebd0a7116d,650c16f0f2faf8d7a0d14c09,651c1c7f112212192e9db54b,null,null,"<p style=""font-size: 120px; font-family: BACS""> </p>",,,,,,,,,,
html-keyboard-response,7,59000,0.0-7.0,613ab1e64acd61ebd0a7116d,650c16f0f2faf8d7a0d14c09,651c1c7f112212192e9db54b,4997, ,"<p>Here is an example of the words you'll see:</p>
      <img src='esempio.png' height='400px'>
      <p>When you're ready to begin, press the spacebar.</p></div>",,,,,,,,,,
html-keyboard-response,8,60014,0.0-8.0-0.0,613ab1e64acd61ebd0a7116d,650c16f0f2faf8d7a0d14c09,651c1c7f112212192e9db54b,null,null,"<p style=""font-size: 60px; font-family: BACS"">kdaAJYArG</p>",,,,,,,,,,
html-keyboard-response,9,61020,0.0-8.0-0.1,613ab1e64acd61ebd0a7116d,650c16f0f2faf8d7a0d14c09,651c1c7f112212192e9db54b,null,null,"<p style=""font-size: 60px; font-family: BACS"">ECtbDOMC</p>",,,,,,,,,,
html-keyboard-response,10,62033,0.0-8.0-0.2,613ab1e64acd61ebd0a7116d,650c16f0f2faf8d7a0d14c09,651c1c7f112212192e9db54b,null,null,"<p style=""font-size: 60px; font-family: BACS"">OAblcYLU</p>",,,,,,,,,,
html-keyboard-response,11,63035,0.0-8.0-0.3,613ab1e64acd61ebd0a7116d,650c16f0f2faf8d7a0d14c09,651c1c7f112212192e9db54b,null,null,"<p style=""font-size: 60px; font-family: BACS"">ECtbDMCkm</p>",,,,,,,,,,
html-keyboard-response,12,64050,0.0-8.0-0.4,613ab1e64acd61ebd0a7116d,650c16f0f2faf8d7a0d14c09,651c1c7f112212192e9db54b,null,null,"<p style=""font-size: 60px; font-family: BACS"">YKRkMKmY</p>",,,,,,,,,,
html-keyboard-response,13,65063,0.0-8.0-0.5,613ab1e64acd61ebd0a7116d,650c16f0f2faf8d7a0d14c09,651c1c7f112212192e9db54b,null,null,"<p style=""font-size: 60px; font-family: BACS"">kdaAJQGb</p>",,,,,,,,,,
html-keyboard-response,14,66070,0.0-8.0-0.6,613ab1e64acd61ebd0a7116d,650c16f0f2faf8d7a0d14c09,651c1c7f112212192e9db54b,null,null,"<p style=""font-size: 60px; font-family: BACS"">ktBdMKmY</p>",,,,,,,,,,
html-keyboard-response,15,67083,0.0-8.0-0.7,613ab1e64acd61ebd0a7116d,650c16f0f2faf8d7a0d14c09,651c1c7f112212192e9db54b,null,null,"<p style=""font-size: 60px; font-family: BACS"">DBPhcTmc</p>",,,,,,,,,,
html-keyboard-response,16,68099,0.0-8.0-0.8,613ab1e64acd61ebd0a7116d,650c16f0f2faf8d7a0d14c09,651c1c7f112212192e9db54b,null,null,"<p style=""font-size: 60px; font-family: BACS"">kulZYArG</p>",,,,,,,,,,
html-keyboard-response,17,69108,0.0-8.0-0.9,613ab1e64acd61ebd0a7116d,650c16f0f2faf8d7a0d14c09,651c1c7f112212192e9db54b,null,null,"<p style=""font-size: 60px; font-family: BACS"">RhPmMCkm</p>",,,,,,,,,,
html-keyboard-response,18,70118,0.0-8.0-0.10,613ab1e64acd61ebd0a7116d,650c16f0f2faf8d7a0d14c09,651c1c7f112212192e9db54b,null,null,"<p style=""font-size: 60px; font-family: BACS"">ktBdOMC</p>",,,,,,,,,,
html-keyboard-response,19,71132,0.0-8.0-0.11,613ab1e64acd61ebd0a7116d,650c16f0f2faf8d7a0d14c09,651c1c7f112212192e9db54b,null,null,"<p style=""font-size: 60px; font-family: BACS"">YJLcAYLU</p>",,,,,,,,,,
html-keyboard-response,20,72143,0.0-8.0-0.12,613ab1e64acd61ebd0a7116d,650c16f0f2faf8d7a0d14c09,651c1c7f112212192e9db54b,null,null,"<p style=""font-size: 60px; font-family: BACS"">ECtbDTmc</p>",,,,,,,,,,
html-keyboard-response,21,73144,0.0-8.0-0.13,613ab1e64acd61ebd0a7116d,650c16f0f2faf8d7a0d14c09,651c1c7f112212192e9db54b,null,null,"<p style=""font-size: 60px; font-family: BACS"">JAdLmYArG</p>",,,,,,,,,,
html-keyboard-response,22,74150,0.0-8.0-0.14,613ab1e64acd61ebd0a7116d,650c16f0f2faf8d7a0d14c09,651c1c7f112212192e9db54b,null,null,"<p style=""font-size: 60px; font-family: BACS"">hAROKMKmY</p>",,,,,,,,,,
html-keyboard-response,23,75166,0.0-8.0-0.15,613ab1e64acd61ebd0a7116d,650c16f0f2faf8d7a0d14c09,651c1c7f112212192e9db54b,null,null,"<p style=""font-size: 60px; font-family: BACS"">YObATmc</p>",,,,,,,,,,
html-keyboard-response,24,76180,0.0-8.0-0.16,613ab1e64acd61ebd0a7116d,650c16f0f2faf8d7a0d14c09,651c1c7f112212192e9db54b,null,null,"<p style=""font-size: 60px; font-family: BACS"">JAdLmbLd</p>",,,,,,,,,,
html-keyboard-response,25,77190,0.0-8.0-0.17,613ab1e64acd61ebd0a7116d,650c16f0f2faf8d7a0d14c09,651c1c7f112212192e9db54b,null,null,"<p style=""font-size: 60px; font-family: BACS"">mbZlYLU</p>",,,,,,,,,,
html-keyboard-response,26,78196,0.0-8.0-0.18,613ab1e64acd61ebd0a7116d,650c16f0f2faf8d7a0d14c09,651c1c7f112212192e9db54b,null,null,"<p style=""font-size: 60px; font-family: BACS"">JAdLmQGb</p>",,,,,,,,,,
html-keyboard-response,27,79209,0.0-8.0-0.19,613ab1e64acd61ebd0a7116d,650c16f0f2faf8d7a0d14c09,651c1c7f112212192e9db54b,null,null,"<p style=""font-size: 60px; font-family: BACS"">kulZUdvY</p>",,,,,,,,,,
html-keyboard-response,28,80223,0.0-8.0-0.20,613ab1e64acd61ebd0a7116d,650c16f0f2faf8d7a0d14c09,651c1c7f112212192e9db54b,null,null,"<p style=""font-size: 60px; font-family: BACS"">YKRkTmc</p>",,,,,,,,,,
html-keyboard-response,29,81229,0.0-8.0-0.21,613ab1e64acd61ebd0a7116d,650c16f0f2faf8d7a0d14c09,651c1c7f112212192e9db54b,null,null,"<p style=""font-size: 60px; font-family: BACS"">kdaAJYLU</p>",,,,,,,,,,
html-keyboard-response,30,82231,0.0-8.0-0.22,613ab1e64acd61ebd0a7116d,650c16f0f2faf8d7a0d14c09,651c1c7f112212192e9db54b,null,null,"<p style=""font-size: 60px; font-family: BACS"">OAblcbLd</p>",,,,,,,,,,
html-keyboard-response,31,83233,0.0-8.0-0.23,613ab1e64acd61ebd0a7116d,650c16f0f2faf8d7a0d14c09,651c1c7f112212192e9db54b,null,null,"<p style=""font-size: 60px; font-family: BACS"">ckdAmOMC</p>",,,,,,,,,,
html-keyboard-response,32,84234,0.0-8.0-0.24,613ab1e64acd61ebd0a7116d,650c16f0f2faf8d7a0d14c09,651c1c7f112212192e9db54b,null,null,"<p style=""font-size: 60px; font-family: BACS"">JmvmOUdvY</p>",,,,,,,,,,
html-keyboard-response,33,85239,0.0-8.0-0.25,613ab1e64acd61ebd0a7116d,650c16f0f2faf8d7a0d14c09,651c1c7f112212192e9db54b,null,null,"<p style=""font-size: 60px; font-family: BACS"">hAROKOMC</p>",,,,,,,,,,
html-keyboard-response,34,86244,0.0-8.0-0.26,613ab1e64acd61ebd0a7116d,650c16f0f2faf8d7a0d14c09,651c1c7f112212192e9db54b,null,null,"<p style=""font-size: 60px; font-family: BACS"">lcOcUdvY</p>",,,,,,,,,,
html-keyboard-response,35,87256,0.0-8.0-0.27,613ab1e64acd61ebd0a7116d,650c16f0f2faf8d7a0d14c09,651c1c7f112212192e9db54b,null,null,"<p style=""font-size: 60px; font-family: BACS"">RhPmPED</p>",,,,,,,,,,
html-keyboard-response,36,88260,0.0-8.0-0.28,613ab1e64acd61ebd0a7116d,650c16f0f2faf8d7a0d14c09,651c1c7f112212192e9db54b,null,null,"<p style=""font-size: 60px; font-family: BACS"">tmAKMCkm</p>",,,,,,,,,,
html-keyboard-response,37,89264,0.0-8.0-0.29,613ab1e64acd61ebd0a7116d,650c16f0f2faf8d7a0d14c09,651c1c7f112212192e9db54b,null,null,"<p style=""font-size: 60px; font-family: BACS"">YZJmQGb</p>",,,,,,,,,,
html-keyboard-response,38,90276,0.0-8.0-0.30,613ab1e64acd61ebd0a7116d,650c16f0f2faf8d7a0d14c09,651c1c7f112212192e9db54b,null,null,"<p style=""font-size: 60px; font-family: BACS"">YKRkPED</p>",,,,,,,,,,
html-keyboard-response,39,91279,0.0-8.0-0.31,613ab1e64acd61ebd0a7116d,650c16f0f2faf8d7a0d14c09,651c1c7f112212192e9db54b,null,null,"<p style=""font-size: 60px; font-family: BACS"">ckdAmMCkm</p>",,,,,,,,,,
html-keyboard-response,40,92293,0.0-8.0-0.32,613ab1e64acd61ebd0a7116d,650c16f0f2faf8d7a0d14c09,651c1c7f112212192e9db54b,null,null,"<p style=""font-size: 60px; font-family: BACS"">JNkaYArG</p>",,,,,,,,,,
html-keyboard-response,41,93295,0.0-8.0-0.33,613ab1e64acd61ebd0a7116d,650c16f0f2faf8d7a0d14c09,651c1c7f112212192e9db54b,null,null,"<p style=""font-size: 60px; font-family: BACS"">OAblcQGb</p>",,,,,,,,,,
html-keyboard-response,42,94300,0.0-8.0-0.34,613ab1e64acd61ebd0a7116d,650c16f0f2faf8d7a0d14c09,651c1c7f112212192e9db54b,null,null,"<p style=""font-size: 60px; font-family: BACS"">YObAMCkm</p>",,,,,,,,,,
html-keyboard-response,43,95305,0.0-8.0-0.35,613ab1e64acd61ebd0a7116d,650c16f0f2faf8d7a0d14c09,651c1c7f112212192e9db54b,null,null,"<p style=""font-size: 60px; font-family: BACS"">ECtbDPED</p>",,,,,,,,,,
html-keyboard-response,44,96309,0.0-8.0-0.36,613ab1e64acd61ebd0a7116d,650c16f0f2faf8d7a0d14c09,651c1c7f112212192e9db54b,null,null,"<p style=""font-size: 60px; font-family: BACS"">mbZlUdvY</p>",,,,,,,,,,
html-keyboard-response,45,97313,0.0-8.0-0.37,613ab1e64acd61ebd0a7116d,650c16f0f2faf8d7a0d14c09,651c1c7f112212192e9db54b,null,null,"<p style=""font-size: 60px; font-family: BACS"">YKRkMCkm</p>",,,,,,,,,,
html-keyboard-response,46,98326,0.0-8.0-0.38,613ab1e64acd61ebd0a7116d,650c16f0f2faf8d7a0d14c09,651c1c7f112212192e9db54b,null,null,"<p style=""font-size: 60px; font-family: BACS"">JNkaUdvY</p>",,,,,,,,,,
html-keyboard-response,47,99341,0.0-8.0-0.39,613ab1e64acd61ebd0a7116d,650c16f0f2faf8d7a0d14c09,651c1c7f112212192e9db54b,null,null,"<p style=""font-size: 60px; font-family: BACS"">hAROKPED</p>",,,,,,,,,,
html-keyboard-response,48,100348,0.0-8.0-0.40,613ab1e64acd61ebd0a7116d,650c16f0f2faf8d7a0d14c09,651c1c7f112212192e9db54b,null,null,"<p style=""font-size: 60px; font-family: BACS"">lcOcYArG</p>",,,,,,,,,,
html-keyboard-response,49,101350,0.0-8.0-0.41,613ab1e64acd61ebd0a7116d,650c16f0f2faf8d7a0d14c09,651c1c7f112212192e9db54b,null,null,"<p style=""font-size: 60px; font-family: BACS"">tmAKMKmY</p>",,,,,,,,,,
html-keyboard-response,50,102361,0.0-8.0-0.42,613ab1e64acd61ebd0a7116d,650c16f0f2faf8d7a0d14c09,651c1c7f112212192e9db54b,null,null,"<p style=""font-size: 60px; font-family: BACS"">JAdLmYLU</p>",,,,,,,,,,
html-keyboard-response,51,103364,0.0-8.0-0.43,613ab1e64acd61ebd0a7116d,650c16f0f2faf8d7a0d14c09,651c1c7f112212192e9db54b,null,null,"<p style=""font-size: 60px; font-family: BACS"">YZJmYArG</p>",,,,,,,,,,
html-keyboard-response,52,104376,0.0-8.0-0.44,613ab1e64acd61ebd0a7116d,650c16f0f2faf8d7a0d14c09,651c1c7f112212192e9db54b,null,null,"<p style=""font-size: 60px; font-family: BACS"">JNkabLd</p>",,,,,,,,,,
html-keyboard-response,53,105386,0.0-8.0-0.45,613ab1e64acd61ebd0a7116d,650c16f0f2faf8d7a0d14c09,651c1c7f112212192e9db54b,null,null,"<p style=""font-size: 60px; font-family: BACS"">ktBdTmc</p>",,,,,,,,,,
html-keyboard-response,54,106392,0.0-8.0-0.46,613ab1e64acd61ebd0a7116d,650c16f0f2faf8d7a0d14c09,651c1c7f112212192e9db54b,null,null,"<p style=""font-size: 60px; font-family: BACS"">tmAKOMC</p>",,,,,,,,,,
html-keyboard-response,55,107395,0.0-8.0-0.47,613ab1e64acd61ebd0a7116d,650c16f0f2faf8d7a0d14c09,651c1c7f112212192e9db54b,null,null,"<p style=""font-size: 60px; font-family: BACS"">ckdAmMKmY</p>",,,,,,,,,,
html-keyboard-response,56,108400,0.0-8.0-0.48,613ab1e64acd61ebd0a7116d,650c16f0f2faf8d7a0d14c09,651c1c7f112212192e9db54b,null,null,"<p style=""font-size: 60px; font-family: BACS"">kulZQGb</p>",,,,,,,,,,
html-keyboard-response,57,109413,0.0-8.0-0.49,613ab1e64acd61ebd0a7116d,650c16f0f2faf8d7a0d14c09,651c1c7f112212192e9db54b,null,null,"<p style=""font-size: 60px; font-family: BACS"">OAblcUdvY</p>",,,,,,,,,,
html-keyboard-response,58,110428,0.0-8.0-0.50,613ab1e64acd61ebd0a7116d,650c16f0f2faf8d7a0d14c09,651c1c7f112212192e9db54b,null,null,"<p style=""font-size: 60px; font-family: BACS"">mbZlbLd</p>",,,,,,,,,,
html-keyboard-response,59,111441,0.0-8.0-0.51,613ab1e64acd61ebd0a7116d,650c16f0f2faf8d7a0d14c09,651c1c7f112212192e9db54b,null,null,"<p style=""font-size: 60px; font-family: BACS"">YJLcAUdvY</p>",,,,,,,,,,
html-keyboard-response,60,112457,0.0-8.0-0.52,613ab1e64acd61ebd0a7116d,650c16f0f2faf8d7a0d14c09,651c1c7f112212192e9db54b,null,null,"<p style=""font-size: 60px; font-family: BACS"">khmhMCkm</p>",,,,,,,,,,
html-keyboard-response,61,113464,0.0-8.0-0.53,613ab1e64acd61ebd0a7116d,650c16f0f2faf8d7a0d14c09,651c1c7f112212192e9db54b,null,null,"<p style=""font-size: 60px; font-family: BACS"">ktBdPED</p>",,,,,,,,,,
html-keyboard-response,62,114469,0.0-8.0-0.54,613ab1e64acd61ebd0a7116d,650c16f0f2faf8d7a0d14c09,651c1c7f112212192e9db54b,null,null,"<p style=""font-size: 60px; font-family: BACS"">khmhOMC</p>",,,,,,,,,,
html-keyboard-response,63,115478,0.0-8.0-0.55,613ab1e64acd61ebd0a7116d,650c16f0f2faf8d7a0d14c09,651c1c7f112212192e9db54b,null,null,"<p style=""font-size: 60px; font-family: BACS"">ckdAmTmc</p>",,,,,,,,,,
html-keyboard-response,64,116486,0.0-8.0-0.56,613ab1e64acd61ebd0a7116d,650c16f0f2faf8d7a0d14c09,651c1c7f112212192e9db54b,null,null,"<p style=""font-size: 60px; font-family: BACS"">DBPhcMCkm</p>",,,,,,,,,,
html-keyboard-response,65,117489,0.0-8.0-0.57,613ab1e64acd61ebd0a7116d,650c16f0f2faf8d7a0d14c09,651c1c7f112212192e9db54b,null,null,"<p style=""font-size: 60px; font-family: BACS"">hAROKTmc</p>",,,,,,,,,,
html-keyboard-response,66,118503,0.0-8.0-0.58,613ab1e64acd61ebd0a7116d,650c16f0f2faf8d7a0d14c09,651c1c7f112212192e9db54b,null,null,"<p style=""font-size: 60px; font-family: BACS"">lcOcbLd</p>",,,,,,,,,,
html-keyboard-response,67,119520,0.0-8.0-0.59,613ab1e64acd61ebd0a7116d,650c16f0f2faf8d7a0d14c09,651c1c7f112212192e9db54b,null,null,"<p style=""font-size: 60px; font-family: BACS"">YObAOMC</p>",,,,,,,,,,
html-keyboard-response,68,120536,0.0-8.0-0.60,613ab1e64acd61ebd0a7116d,650c16f0f2faf8d7a0d14c09,651c1c7f112212192e9db54b,null,null,"<p style=""font-size: 60px; font-family: BACS"">JmvmOYLU</p>",,,,,,,,,,
html-keyboard-response,69,121547,0.0-8.0-0.61,613ab1e64acd61ebd0a7116d,650c16f0f2faf8d7a0d14c09,651c1c7f112212192e9db54b,null,null,"<p style=""font-size: 60px; font-family: BACS"">tmAKPED</p>",,,,,,,,,,
html-keyboard-response,70,122557,0.0-8.0-0.62,613ab1e64acd61ebd0a7116d,650c16f0f2faf8d7a0d14c09,651c1c7f112212192e9db54b,null,null,"<p style=""font-size: 60px; font-family: BACS"">JmvmOYArG</p>",,,,,,,,,,
html-keyboard-response,71,123568,0.0-8.0-0.63,613ab1e64acd61ebd0a7116d,650c16f0f2faf8d7a0d14c09,651c1c7f112212192e9db54b,null,null,"<p style=""font-size: 60px; font-family: BACS"">kulZYLU</p>",,,,,,,,,,
html-keyboard-response,72,124574,0.0-8.0-0.64,613ab1e64acd61ebd0a7116d,650c16f0f2faf8d7a0d14c09,651c1c7f112212192e9db54b,null,null,"<p style=""font-size: 60px; font-family: BACS"">DBPhcPED</p>",,,,,,,,,,
html-keyboard-response,73,125583,0.0-8.0-0.65,613ab1e64acd61ebd0a7116d,650c16f0f2faf8d7a0d14c09,651c1c7f112212192e9db54b,null,null,"<p style=""font-size: 60px; font-family: BACS"">JNkaQGb</p>",,,,,,,,,,
html-keyboard-response,74,126589,0.0-8.0-0.66,613ab1e64acd61ebd0a7116d,650c16f0f2faf8d7a0d14c09,651c1c7f112212192e9db54b,null,null,"<p style=""font-size: 60px; font-family: BACS"">mbZlYArG</p>",,,,,,,,,,
html-keyboard-response,75,127602,0.0-8.0-0.67,613ab1e64acd61ebd0a7116d,650c16f0f2faf8d7a0d14c09,651c1c7f112212192e9db54b,null,null,"<p style=""font-size: 60px; font-family: BACS"">khmhMKmY</p>",,,,,,,,,,
html-keyboard-response,76,128619,0.0-8.0-0.68,613ab1e64acd61ebd0a7116d,650c16f0f2faf8d7a0d14c09,651c1c7f112212192e9db54b,null,null,"<p style=""font-size: 60px; font-family: BACS"">YJLcAbLd</p>",,,,,,,,,,
html-keyboard-response,77,129635,0.0-8.0-0.69,613ab1e64acd61ebd0a7116d,650c16f0f2faf8d7a0d14c09,651c1c7f112212192e9db54b,null,null,"<p style=""font-size: 60px; font-family: BACS"">khmhTmc</p>",,,,,,,,,,
html-keyboard-response,78,130652,0.0-8.0-0.70,613ab1e64acd61ebd0a7116d,650c16f0f2faf8d7a0d14c09,651c1c7f112212192e9db54b,null,null,"<p style=""font-size: 60px; font-family: BACS"">lcOcQGb</p>",,,,,,,,,,
html-keyboard-response,79,131664,0.0-8.0-0.71,613ab1e64acd61ebd0a7116d,650c16f0f2faf8d7a0d14c09,651c1c7f112212192e9db54b,null,null,"<p style=""font-size: 60px; font-family: BACS"">YObAPED</p>",,,,,,,,,,
html-keyboard-response,80,132666,0.0-8.0-0.72,613ab1e64acd61ebd0a7116d,650c16f0f2faf8d7a0d14c09,651c1c7f112212192e9db54b,null,null,"<p style=""font-size: 60px; font-family: BACS"">RhPmMKmY</p>",,,,,,,,,,
html-keyboard-response,81,133672,0.0-8.0-0.73,613ab1e64acd61ebd0a7116d,650c16f0f2faf8d7a0d14c09,651c1c7f112212192e9db54b,null,null,"<p style=""font-size: 60px; font-family: BACS"">YZJmYLU</p>",,,,,,,,,,
html-keyboard-response,82,134689,0.0-8.0-0.74,613ab1e64acd61ebd0a7116d,650c16f0f2faf8d7a0d14c09,651c1c7f112212192e9db54b,null,null,"<p style=""font-size: 60px; font-family: BACS"">kdaAJbLd</p>",,,,,,,,,,
html-keyboard-response,83,135691,0.0-8.0-0.75,613ab1e64acd61ebd0a7116d,650c16f0f2faf8d7a0d14c09,651c1c7f112212192e9db54b,null,null,"<p style=""font-size: 60px; font-family: BACS"">YJLcAQGb</p>",,,,,,,,,,
html-keyboard-response,84,136707,0.0-8.0-0.76,613ab1e64acd61ebd0a7116d,650c16f0f2faf8d7a0d14c09,651c1c7f112212192e9db54b,null,null,"<p style=""font-size: 60px; font-family: BACS"">RhPmOMC</p>",,,,,,,,,,
html-keyboard-response,85,137719,0.0-8.0-0.77,613ab1e64acd61ebd0a7116d,650c16f0f2faf8d7a0d14c09,651c1c7f112212192e9db54b,null,null,"<p style=""font-size: 60px; font-family: BACS"">YZJmUdvY</p>",,,,,,,,,,
html-keyboard-response,86,138733,0.0-8.0-0.78,613ab1e64acd61ebd0a7116d,650c16f0f2faf8d7a0d14c09,651c1c7f112212192e9db54b,null,null,"<p style=""font-size: 60px; font-family: BACS"">DBPhcMKmY</p>",,,,,,,,,,
html-keyboard-response,87,139739,0.0-8.0-0.79,613ab1e64acd61ebd0a7116d,650c16f0f2faf8d7a0d14c09,651c1c7f112212192e9db54b,null,null,"<p style=""font-size: 60px; font-family: BACS"">JmvmObLd</p>",,,,,,,,,,
html-keyboard-response,88,174539,0.0-9.0,613ab1e64acd61ebd0a7116d,650c16f0f2faf8d7a0d14c09,651c1c7f112212192e9db54b,34798, ,"<p>Great, you've seen the first block of words. You may now take a short break.</p>
      <p>Press the spacebar when you're ready to continue.</p>",,,,,,,,,,
html-keyboard-response,89,175548,0.0-10.0-0.0,613ab1e64acd61ebd0a7116d,650c16f0f2faf8d7a0d14c09,651c1c7f112212192e9db54b,null,null,"<p style=""font-size: 60px; font-family: BACS"">khmhOMC</p>",,,,,,,,,,
html-keyboard-response,90,176565,0.0-10.0-0.1,613ab1e64acd61ebd0a7116d,650c16f0f2faf8d7a0d14c09,651c1c7f112212192e9db54b,null,null,"<p style=""font-size: 60px; font-family: BACS"">kulZYArG</p>",,,,,,,,,,
html-keyboard-response,91,177580,0.0-10.0-0.2,613ab1e64acd61ebd0a7116d,650c16f0f2faf8d7a0d14c09,651c1c7f112212192e9db54b,null,null,"<p style=""font-size: 60px; font-family: BACS"">DBPhcPED</p>",,,,,,,,,,
html-keyboard-response,92,178590,0.0-10.0-0.3,613ab1e64acd61ebd0a7116d,650c16f0f2faf8d7a0d14c09,651c1c7f112212192e9db54b,null,null,"<p style=""font-size: 60px; font-family: BACS"">ckdAmOMC</p>",,,,,,,,,,
html-keyboard-response,93,179598,0.0-10.0-0.4,613ab1e64acd61ebd0a7116d,650c16f0f2faf8d7a0d14c09,651c1c7f112212192e9db54b,null,null,"<p style=""font-size: 60px; font-family: BACS"">YKRkMCkm</p>",,,,,,,,,,
html-keyboard-response,94,180610,0.0-10.0-0.5,613ab1e64acd61ebd0a7116d,650c16f0f2faf8d7a0d14c09,651c1c7f112212192e9db54b,null,null,"<p style=""font-size: 60px; font-family: BACS"">tmAKPED</p>",,,,,,,,,,
html-keyboard-response,95,181613,0.0-10.0-0.6,613ab1e64acd61ebd0a7116d,650c16f0f2faf8d7a0d14c09,651c1c7f112212192e9db54b,null,null,"<p style=""font-size: 60px; font-family: BACS"">RhPmMCkm</p>",,,,,,,,,,
html-keyboard-response,96,182623,0.0-10.0-0.7,613ab1e64acd61ebd0a7116d,650c16f0f2faf8d7a0d14c09,651c1c7f112212192e9db54b,null,null,"<p style=""font-size: 60px; font-family: BACS"">YJLcAbLd</p>",,,,,,,,,,
html-keyboard-response,97,183630,0.0-10.0-0.8,613ab1e64acd61ebd0a7116d,650c16f0f2faf8d7a0d14c09,651c1c7f112212192e9db54b,null,null,"<p style=""font-size: 60px; font-family: BACS"">hAROKMKmY</p>",,,,,,,,,,
html-keyboard-response,98,184633,0.0-10.0-0.9,613ab1e64acd61ebd0a7116d,650c16f0f2faf8d7a0d14c09,651c1c7f112212192e9db54b,null,null,"<p style=""font-size: 60px; font-family: BACS"">kulZQGb</p>",,,,,,,,,,
html-keyboard-response,99,185640,0.0-10.0-0.10,613ab1e64acd61ebd0a7116d,650c16f0f2faf8d7a0d14c09,651c1c7f112212192e9db54b,null,null,"<p style=""font-size: 60px; font-family: BACS"">ECtbDOMC</p>",,,,,,,,,,
html-keyboard-response,100,186656,0.0-10.0-0.11,613ab1e64acd61ebd0a7116d,650c16f0f2faf8d7a0d14c09,651c1c7f112212192e9db54b,null,null,"<p style=""font-size: 60px; font-family: BACS"">mbZlYLU</p>",,,,,,,,,,
html-keyboard-response,101,187672,0.0-10.0-0.12,613ab1e64acd61ebd0a7116d,650c16f0f2faf8d7a0d14c09,651c1c7f112212192e9db54b,null,null,"<p style=""font-size: 60px; font-family: BACS"">ECtbDPED</p>",,,,,,,,,,
html-keyboard-response,102,188681,0.0-10.0-0.13,613ab1e64acd61ebd0a7116d,650c16f0f2faf8d7a0d14c09,651c1c7f112212192e9db54b,null,null,"<p style=""font-size: 60px; font-family: BACS"">YObATmc</p>",,,,,,,,,,
html-keyboard-response,103,189689,0.0-10.0-0.14,613ab1e64acd61ebd0a7116d,650c16f0f2faf8d7a0d14c09,651c1c7f112212192e9db54b,null,null,"<p style=""font-size: 60px; font-family: BACS"">hAROKOMC</p>",,,,,,,,,,
html-keyboard-response,104,190696,0.0-10.0-0.15,613ab1e64acd61ebd0a7116d,650c16f0f2faf8d7a0d14c09,651c1c7f112212192e9db54b,null,null,"<p style=""font-size: 60px; font-family: BACS"">JmvmObLd</p>",,,,,,,,,,
html-keyboard-response,105,191712,0.0-10.0-0.16,613ab1e64acd61ebd0a7116d,650c16f0f2faf8d7a0d14c09,651c1c7f112212192e9db54b,null,null,"<p style=""font-size: 60px; font-family: BACS"">kulZUdvY</p>",,,,,,,,,,
html-keyboard-response,106,192722,0.0-10.0-0.17,613ab1e64acd61ebd0a7116d,650c16f0f2faf8d7a0d14c09,651c1c7f112212192e9db54b,null,null,"<p style=""font-size: 60px; font-family: BACS"">JNkaQGb</p>",,,,,,,,,,
html-keyboard-response,107,193731,0.0-10.0-0.18,613ab1e64acd61ebd0a7116d,650c16f0f2faf8d7a0d14c09,651c1c7f112212192e9db54b,null,null,"<p style=""font-size: 60px; font-family: BACS"">YKRkTmc</p>",,,,,,,,,,
html-keyboard-response,108,194745,0.0-10.0-0.19,613ab1e64acd61ebd0a7116d,650c16f0f2faf8d7a0d14c09,651c1c7f112212192e9db54b,null,null,"<p style=""font-size: 60px; font-family: BACS"">tmAKOMC</p>",,,,,,,,,,
html-keyboard-response,109,195755,0.0-10.0-0.20,613ab1e64acd61ebd0a7116d,650c16f0f2faf8d7a0d14c09,651c1c7f112212192e9db54b,null,null,"<p style=""font-size: 60px; font-family: BACS"">ktBdTmc</p>",,,,,,,,,,
html-keyboard-response,110,196761,0.0-10.0-0.21,613ab1e64acd61ebd0a7116d,650c16f0f2faf8d7a0d14c09,651c1c7f112212192e9db54b,null,null,"<p style=""font-size: 60px; font-family: BACS"">ckdAmMKmY</p>",,,,,,,,,,
html-keyboard-response,111,197770,0.0-10.0-0.22,613ab1e64acd61ebd0a7116d,650c16f0f2faf8d7a0d14c09,651c1c7f112212192e9db54b,null,null,"<p style=""font-size: 60px; font-family: BACS"">JmvmOYArG</p>",,,,,,,,,,
html-keyboard-response,112,198773,0.0-10.0-0.23,613ab1e64acd61ebd0a7116d,650c16f0f2faf8d7a0d14c09,651c1c7f112212192e9db54b,null,null,"<p style=""font-size: 60px; font-family: BACS"">khmhMCkm</p>",,,,,,,,,,
html-keyboard-response,113,199777,0.0-10.0-0.24,613ab1e64acd61ebd0a7116d,650c16f0f2faf8d7a0d14c09,651c1c7f112212192e9db54b,null,null,"<p style=""font-size: 60px; font-family: BACS"">hAROKPED</p>",,,,,,,,,,
html-keyboard-response,114,200787,0.0-10.0-0.25,613ab1e64acd61ebd0a7116d,650c16f0f2faf8d7a0d14c09,651c1c7f112212192e9db54b,null,null,"<p style=""font-size: 60px; font-family: BACS"">mbZlbLd</p>",,,,,,,,,,
html-keyboard-response,115,201790,0.0-10.0-0.26,613ab1e64acd61ebd0a7116d,650c16f0f2faf8d7a0d14c09,651c1c7f112212192e9db54b,null,null,"<p style=""font-size: 60px; font-family: BACS"">JNkaYArG</p>",,,,,,,,,,
html-keyboard-response,116,202794,0.0-10.0-0.27,613ab1e64acd61ebd0a7116d,650c16f0f2faf8d7a0d14c09,651c1c7f112212192e9db54b,null,null,"<p style=""font-size: 60px; font-family: BACS"">ktBdMKmY</p>",,,,,,,,,,
html-keyboard-response,117,203802,0.0-10.0-0.28,613ab1e64acd61ebd0a7116d,650c16f0f2faf8d7a0d14c09,651c1c7f112212192e9db54b,null,null,"<p style=""font-size: 60px; font-family: BACS"">YJLcAYLU</p>",,,,,,,,,,
html-keyboard-response,118,204819,0.0-10.0-0.29,613ab1e64acd61ebd0a7116d,650c16f0f2faf8d7a0d14c09,651c1c7f112212192e9db54b,null,null,"<p style=""font-size: 60px; font-family: BACS"">mbZlUdvY</p>",,,,,,,,,,
html-keyboard-response,119,205823,0.0-10.0-0.30,613ab1e64acd61ebd0a7116d,650c16f0f2faf8d7a0d14c09,651c1c7f112212192e9db54b,null,null,"<p style=""font-size: 60px; font-family: BACS"">JAdLmQGb</p>",,,,,,,,,,
html-keyboard-response,120,206839,0.0-10.0-0.31,613ab1e64acd61ebd0a7116d,650c16f0f2faf8d7a0d14c09,651c1c7f112212192e9db54b,null,null,"<p style=""font-size: 60px; font-family: BACS"">YJLcAUdvY</p>",,,,,,,,,,
html-keyboard-response,121,207851,0.0-10.0-0.32,613ab1e64acd61ebd0a7116d,650c16f0f2faf8d7a0d14c09,651c1c7f112212192e9db54b,null,null,"<p style=""font-size: 60px; font-family: BACS"">DBPhcTmc</p>",,,,,,,,,,
html-keyboard-response,122,208859,0.0-10.0-0.33,613ab1e64acd61ebd0a7116d,650c16f0f2faf8d7a0d14c09,651c1c7f112212192e9db54b,null,null,"<p style=""font-size: 60px; font-family: BACS"">JAdLmbLd</p>",,,,,,,,,,
html-keyboard-response,123,209867,0.0-10.0-0.34,613ab1e64acd61ebd0a7116d,650c16f0f2faf8d7a0d14c09,651c1c7f112212192e9db54b,null,null,"<p style=""font-size: 60px; font-family: BACS"">OAblcUdvY</p>",,,,,,,,,,
html-keyboard-response,124,210875,0.0-10.0-0.35,613ab1e64acd61ebd0a7116d,650c16f0f2faf8d7a0d14c09,651c1c7f112212192e9db54b,null,null,"<p style=""font-size: 60px; font-family: BACS"">lcOcQGb</p>",,,,,,,,,,
html-keyboard-response,125,211892,0.0-10.0-0.36,613ab1e64acd61ebd0a7116d,650c16f0f2faf8d7a0d14c09,651c1c7f112212192e9db54b,null,null,"<p style=""font-size: 60px; font-family: BACS"">JmvmOYLU</p>",,,,,,,,,,
html-keyboard-response,126,212903,0.0-10.0-0.37,613ab1e64acd61ebd0a7116d,650c16f0f2faf8d7a0d14c09,651c1c7f112212192e9db54b,null,null,"<p style=""font-size: 60px; font-family: BACS"">YObAOMC</p>",,,,,,,,,,
html-keyboard-response,127,213917,0.0-10.0-0.38,613ab1e64acd61ebd0a7116d,650c16f0f2faf8d7a0d14c09,651c1c7f112212192e9db54b,null,null,"<p style=""font-size: 60px; font-family: BACS"">lcOcUdvY</p>",,,,,,,,,,
html-keyboard-response,128,214922,0.0-10.0-0.39,613ab1e64acd61ebd0a7116d,650c16f0f2faf8d7a0d14c09,651c1c7f112212192e9db54b,null,null,"<p style=""font-size: 60px; font-family: BACS"">YZJmYLU</p>",,,,,,,,,,
html-keyboard-response,129,215931,0.0-10.0-0.40,613ab1e64acd61ebd0a7116d,650c16f0f2faf8d7a0d14c09,651c1c7f112212192e9db54b,null,null,"<p style=""font-size: 60px; font-family: BACS"">DBPhcMKmY</p>",,,,,,,,,,
html-keyboard-response,130,216941,0.0-10.0-0.41,613ab1e64acd61ebd0a7116d,650c16f0f2faf8d7a0d14c09,651c1c7f112212192e9db54b,null,null,"<p style=""font-size: 60px; font-family: BACS"">RhPmOMC</p>",,,,,,,,,,
html-keyboard-response,131,217951,0.0-10.0-0.42,613ab1e64acd61ebd0a7116d,650c16f0f2faf8d7a0d14c09,651c1c7f112212192e9db54b,null,null,"<p style=""font-size: 60px; font-family: BACS"">YObAPED</p>",,,,,,,,,,
html-keyboard-response,132,218963,0.0-10.0-0.43,613ab1e64acd61ebd0a7116d,650c16f0f2faf8d7a0d14c09,651c1c7f112212192e9db54b,null,null,"<p style=""font-size: 60px; font-family: BACS"">ckdAmMCkm</p>",,,,,,,,,,
html-keyboard-response,133,219965,0.0-10.0-0.44,613ab1e64acd61ebd0a7116d,650c16f0f2faf8d7a0d14c09,651c1c7f112212192e9db54b,null,null,"<p style=""font-size: 60px; font-family: BACS"">tmAKMKmY</p>",,,,,,,,,,
html-keyboard-response,134,220970,0.0-10.0-0.45,613ab1e64acd61ebd0a7116d,650c16f0f2faf8d7a0d14c09,651c1c7f112212192e9db54b,null,null,"<p style=""font-size: 60px; font-family: BACS"">JNkaUdvY</p>",,,,,,,,,,
html-keyboard-response,135,221974,0.0-10.0-0.46,613ab1e64acd61ebd0a7116d,650c16f0f2faf8d7a0d14c09,651c1c7f112212192e9db54b,null,null,"<p style=""font-size: 60px; font-family: BACS"">kdaAJYLU</p>",,,,,,,,,,
html-keyboard-response,136,222986,0.0-10.0-0.47,613ab1e64acd61ebd0a7116d,650c16f0f2faf8d7a0d14c09,651c1c7f112212192e9db54b,null,null,"<p style=""font-size: 60px; font-family: BACS"">JNkabLd</p>",,,,,,,,,,
html-keyboard-response,137,223988,0.0-10.0-0.48,613ab1e64acd61ebd0a7116d,650c16f0f2faf8d7a0d14c09,651c1c7f112212192e9db54b,null,null,"<p style=""font-size: 60px; font-family: BACS"">YZJmYArG</p>",,,,,,,,,,
html-keyboard-response,138,224991,0.0-10.0-0.49,613ab1e64acd61ebd0a7116d,650c16f0f2faf8d7a0d14c09,651c1c7f112212192e9db54b,null,null,"<p style=""font-size: 60px; font-family: BACS"">ECtbDTmc</p>",,,,,,,,,,
html-keyboard-response,139,226007,0.0-10.0-0.50,613ab1e64acd61ebd0a7116d,650c16f0f2faf8d7a0d14c09,651c1c7f112212192e9db54b,null,null,"<p style=""font-size: 60px; font-family: BACS"">YKRkPED</p>",,,,,,,,,,
html-keyboard-response,140,227021,0.0-10.0-0.51,613ab1e64acd61ebd0a7116d,650c16f0f2faf8d7a0d14c09,651c1c7f112212192e9db54b,null,null,"<p style=""font-size: 60px; font-family: BACS"">YZJmQGb</p>",,,,,,,,,,
html-keyboard-response,141,228029,0.0-10.0-0.52,613ab1e64acd61ebd0a7116d,650c16f0f2faf8d7a0d14c09,651c1c7f112212192e9db54b,null,null,"<p style=""font-size: 60px; font-family: BACS"">kulZYLU</p>",,,,,,,,,,
html-keyboard-response,142,229032,0.0-10.0-0.53,613ab1e64acd61ebd0a7116d,650c16f0f2faf8d7a0d14c09,651c1c7f112212192e9db54b,null,null,"<p style=""font-size: 60px; font-family: BACS"">YKRkMKmY</p>",,,,,,,,,,
html-keyboard-response,143,230046,0.0-10.0-0.54,613ab1e64acd61ebd0a7116d,650c16f0f2faf8d7a0d14c09,651c1c7f112212192e9db54b,null,null,"<p style=""font-size: 60px; font-family: BACS"">lcOcbLd</p>",,,,,,,,,,
html-keyboard-response,144,231050,0.0-10.0-0.55,613ab1e64acd61ebd0a7116d,650c16f0f2faf8d7a0d14c09,651c1c7f112212192e9db54b,null,null,"<p style=""font-size: 60px; font-family: BACS"">khmhMKmY</p>",,,,,,,,,,
html-keyboard-response,145,232054,0.0-10.0-0.56,613ab1e64acd61ebd0a7116d,650c16f0f2faf8d7a0d14c09,651c1c7f112212192e9db54b,null,null,"<p style=""font-size: 60px; font-family: BACS"">OAblcQGb</p>",,,,,,,,,,
html-keyboard-response,146,233067,0.0-10.0-0.57,613ab1e64acd61ebd0a7116d,650c16f0f2faf8d7a0d14c09,651c1c7f112212192e9db54b,null,null,"<p style=""font-size: 60px; font-family: BACS"">khmhTmc</p>",,,,,,,,,,
html-keyboard-response,147,234072,0.0-10.0-0.58,613ab1e64acd61ebd0a7116d,650c16f0f2faf8d7a0d14c09,651c1c7f112212192e9db54b,null,null,"<p style=""font-size: 60px; font-family: BACS"">lcOcYArG</p>",,,,,,,,,,
html-keyboard-response,148,235079,0.0-10.0-0.59,613ab1e64acd61ebd0a7116d,650c16f0f2faf8d7a0d14c09,651c1c7f112212192e9db54b,null,null,"<p style=""font-size: 60px; font-family: BACS"">ktBdOMC</p>",,,,,,,,,,
html-keyboard-response,149,236094,0.0-10.0-0.60,613ab1e64acd61ebd0a7116d,650c16f0f2faf8d7a0d14c09,651c1c7f112212192e9db54b,null,null,"<p style=""font-size: 60px; font-family: BACS"">RhPmMKmY</p>",,,,,,,,,,
html-keyboard-response,150,237098,0.0-10.0-0.61,613ab1e64acd61ebd0a7116d,650c16f0f2faf8d7a0d14c09,651c1c7f112212192e9db54b,null,null,"<p style=""font-size: 60px; font-family: BACS"">OAblcYLU</p>",,,,,,,,,,
html-keyboard-response,151,238102,0.0-10.0-0.62,613ab1e64acd61ebd0a7116d,650c16f0f2faf8d7a0d14c09,651c1c7f112212192e9db54b,null,null,"<p style=""font-size: 60px; font-family: BACS"">kdaAJYArG</p>",,,,,,,,,,
html-keyboard-response,152,239118,0.0-10.0-0.63,613ab1e64acd61ebd0a7116d,650c16f0f2faf8d7a0d14c09,651c1c7f112212192e9db54b,null,null,"<p style=""font-size: 60px; font-family: BACS"">ECtbDMCkm</p>",,,,,,,,,,
html-keyboard-response,153,240129,0.0-10.0-0.64,613ab1e64acd61ebd0a7116d,650c16f0f2faf8d7a0d14c09,651c1c7f112212192e9db54b,null,null,"<p style=""font-size: 60px; font-family: BACS"">mbZlYArG</p>",,,,,,,,,,
html-keyboard-response,154,241144,0.0-10.0-0.65,613ab1e64acd61ebd0a7116d,650c16f0f2faf8d7a0d14c09,651c1c7f112212192e9db54b,null,null,"<p style=""font-size: 60px; font-family: BACS"">YZJmUdvY</p>",,,,,,,,,,
html-keyboard-response,155,242153,0.0-10.0-0.66,613ab1e64acd61ebd0a7116d,650c16f0f2faf8d7a0d14c09,651c1c7f112212192e9db54b,null,null,"<p style=""font-size: 60px; font-family: BACS"">ckdAmTmc</p>",,,,,,,,,,
html-keyboard-response,156,243166,0.0-10.0-0.67,613ab1e64acd61ebd0a7116d,650c16f0f2faf8d7a0d14c09,651c1c7f112212192e9db54b,null,null,"<p style=""font-size: 60px; font-family: BACS"">tmAKMCkm</p>",,,,,,,,,,
html-keyboard-response,157,244176,0.0-10.0-0.68,613ab1e64acd61ebd0a7116d,650c16f0f2faf8d7a0d14c09,651c1c7f112212192e9db54b,null,null,"<p style=""font-size: 60px; font-family: BACS"">JAdLmYArG</p>",,,,,,,,,,
html-keyboard-response,158,245185,0.0-10.0-0.69,613ab1e64acd61ebd0a7116d,650c16f0f2faf8d7a0d14c09,651c1c7f112212192e9db54b,null,null,"<p style=""font-size: 60px; font-family: BACS"">OAblcbLd</p>",,,,,,,,,,
html-keyboard-response,159,246202,0.0-10.0-0.70,613ab1e64acd61ebd0a7116d,650c16f0f2faf8d7a0d14c09,651c1c7f112212192e9db54b,null,null,"<p style=""font-size: 60px; font-family: BACS"">kdaAJQGb</p>",,,,,,,,,,
html-keyboard-response,160,247219,0.0-10.0-0.71,613ab1e64acd61ebd0a7116d,650c16f0f2faf8d7a0d14c09,651c1c7f112212192e9db54b,null,null,"<p style=""font-size: 60px; font-family: BACS"">hAROKTmc</p>",,,,,,,,,,
html-keyboard-response,161,248228,0.0-10.0-0.72,613ab1e64acd61ebd0a7116d,650c16f0f2faf8d7a0d14c09,651c1c7f112212192e9db54b,null,null,"<p style=""font-size: 60px; font-family: BACS"">kdaAJbLd</p>",,,,,,,,,,
html-keyboard-response,162,249235,0.0-10.0-0.73,613ab1e64acd61ebd0a7116d,650c16f0f2faf8d7a0d14c09,651c1c7f112212192e9db54b,null,null,"<p style=""font-size: 60px; font-family: BACS"">JAdLmYLU</p>",,,,,,,,,,
html-keyboard-response,163,250237,0.0-10.0-0.74,613ab1e64acd61ebd0a7116d,650c16f0f2faf8d7a0d14c09,651c1c7f112212192e9db54b,null,null,"<p style=""font-size: 60px; font-family: BACS"">DBPhcMCkm</p>",,,,,,,,,,
html-keyboard-response,164,251242,0.0-10.0-0.75,613ab1e64acd61ebd0a7116d,650c16f0f2faf8d7a0d14c09,651c1c7f112212192e9db54b,null,null,"<p style=""font-size: 60px; font-family: BACS"">JmvmOUdvY</p>",,,,,,,,,,
html-keyboard-response,165,252251,0.0-10.0-0.76,613ab1e64acd61ebd0a7116d,650c16f0f2faf8d7a0d14c09,651c1c7f112212192e9db54b,null,null,"<p style=""font-size: 60px; font-family: BACS"">RhPmPED</p>",,,,,,,,,,
html-keyboard-response,166,253266,0.0-10.0-0.77,613ab1e64acd61ebd0a7116d,650c16f0f2faf8d7a0d14c09,651c1c7f112212192e9db54b,null,null,"<p style=""font-size: 60px; font-family: BACS"">YJLcAQGb</p>",,,,,,,,,,
html-keyboard-response,167,254275,0.0-10.0-0.78,613ab1e64acd61ebd0a7116d,650c16f0f2faf8d7a0d14c09,651c1c7f112212192e9db54b,null,null,"<p style=""font-size: 60px; font-family: BACS"">ktBdPED</p>",,,,,,,,,,
html-keyboard-response,168,255292,0.0-10.0-0.79,613ab1e64acd61ebd0a7116d,650c16f0f2faf8d7a0d14c09,651c1c7f112212192e9db54b,null,null,"<p style=""font-size: 60px; font-family: BACS"">YObAMCkm</p>",,,,,,,,,,
html-keyboard-response,169,303492,0.0-11.0,613ab1e64acd61ebd0a7116d,650c16f0f2faf8d7a0d14c09,651c1c7f112212192e9db54b,48199, ,"<p>Great, you've seen the second block of words. You may now take a short break.</p>
      <p>Press the spacebar when you're ready to continue.</p>",,,,,,,,,,
html-keyboard-response,170,304503,0.0-12.0-0.0,613ab1e64acd61ebd0a7116d,650c16f0f2faf8d7a0d14c09,651c1c7f112212192e9db54b,null,null,"<p style=""font-size: 60px; font-family: BACS"">JmvmObLd</p>",,,,,,,,,,
html-keyboard-response,171,305514,0.0-12.0-0.1,613ab1e64acd61ebd0a7116d,650c16f0f2faf8d7a0d14c09,651c1c7f112212192e9db54b,null,null,"<p style=""font-size: 60px; font-family: BACS"">DBPhcMKmY</p>",,,,,,,,,,
html-keyboard-response,172,306518,0.0-12.0-0.2,613ab1e64acd61ebd0a7116d,650c16f0f2faf8d7a0d14c09,651c1c7f112212192e9db54b,null,null,"<p style=""font-size: 60px; font-family: BACS"">YZJmQGb</p>",,,,,,,,,,
html-keyboard-response,173,307522,0.0-12.0-0.3,613ab1e64acd61ebd0a7116d,650c16f0f2faf8d7a0d14c09,651c1c7f112212192e9db54b,null,null,"<p style=""font-size: 60px; font-family: BACS"">RhPmPED</p>",,,,,,,,,,
html-keyboard-response,174,308528,0.0-12.0-0.4,613ab1e64acd61ebd0a7116d,650c16f0f2faf8d7a0d14c09,651c1c7f112212192e9db54b,null,null,"<p style=""font-size: 60px; font-family: BACS"">ktBdMKmY</p>",,,,,,,,,,
html-keyboard-response,175,309538,0.0-12.0-0.5,613ab1e64acd61ebd0a7116d,650c16f0f2faf8d7a0d14c09,651c1c7f112212192e9db54b,null,null,"<p style=""font-size: 60px; font-family: BACS"">hAROKPED</p>",,,,,,,,,,
html-keyboard-response,176,310549,0.0-12.0-0.6,613ab1e64acd61ebd0a7116d,650c16f0f2faf8d7a0d14c09,651c1c7f112212192e9db54b,null,null,"<p style=""font-size: 60px; font-family: BACS"">YJLcAYLU</p>",,,,,,,,,,
html-keyboard-response,177,311565,0.0-12.0-0.7,613ab1e64acd61ebd0a7116d,650c16f0f2faf8d7a0d14c09,651c1c7f112212192e9db54b,null,null,"<p style=""font-size: 60px; font-family: BACS"">RhPmMKmY</p>",,,,,,,,,,
html-keyboard-response,178,312568,0.0-12.0-0.8,613ab1e64acd61ebd0a7116d,650c16f0f2faf8d7a0d14c09,651c1c7f112212192e9db54b,null,null,"<p style=""font-size: 60px; font-family: BACS"">JmvmOYArG</p>",,,,,,,,,,
html-keyboard-response,179,313570,0.0-12.0-0.9,613ab1e64acd61ebd0a7116d,650c16f0f2faf8d7a0d14c09,651c1c7f112212192e9db54b,null,null,"<p style=""font-size: 60px; font-family: BACS"">kdaAJQGb</p>",,,,,,,,,,
html-keyboard-response,180,314580,0.0-12.0-0.10,613ab1e64acd61ebd0a7116d,650c16f0f2faf8d7a0d14c09,651c1c7f112212192e9db54b,null,null,"<p style=""font-size: 60px; font-family: BACS"">YKRkPED</p>",,,,,,,,,,
html-keyboard-response,181,315583,0.0-12.0-0.11,613ab1e64acd61ebd0a7116d,650c16f0f2faf8d7a0d14c09,651c1c7f112212192e9db54b,null,null,"<p style=""font-size: 60px; font-family: BACS"">JAdLmYArG</p>",,,,,,,,,,
html-keyboard-response,182,316585,0.0-12.0-0.12,613ab1e64acd61ebd0a7116d,650c16f0f2faf8d7a0d14c09,651c1c7f112212192e9db54b,null,null,"<p style=""font-size: 60px; font-family: BACS"">RhPmOMC</p>",,,,,,,,,,
html-keyboard-response,183,317597,0.0-12.0-0.13,613ab1e64acd61ebd0a7116d,650c16f0f2faf8d7a0d14c09,651c1c7f112212192e9db54b,null,null,"<p style=""font-size: 60px; font-family: BACS"">ckdAmMKmY</p>",,,,,,,,,,
html-keyboard-response,184,318602,0.0-12.0-0.14,613ab1e64acd61ebd0a7116d,650c16f0f2faf8d7a0d14c09,651c1c7f112212192e9db54b,null,null,"<p style=""font-size: 60px; font-family: BACS"">OAblcUdvY</p>",,,,,,,,,,
html-keyboard-response,185,319617,0.0-12.0-0.15,613ab1e64acd61ebd0a7116d,650c16f0f2faf8d7a0d14c09,651c1c7f112212192e9db54b,null,null,"<p style=""font-size: 60px; font-family: BACS"">YJLcAbLd</p>",,,,,,,,,,
html-keyboard-response,186,320629,0.0-12.0-0.16,613ab1e64acd61ebd0a7116d,650c16f0f2faf8d7a0d14c09,651c1c7f112212192e9db54b,null,null,"<p style=""font-size: 60px; font-family: BACS"">ktBdOMC</p>",,,,,,,,,,
html-keyboard-response,187,321635,0.0-12.0-0.17,613ab1e64acd61ebd0a7116d,650c16f0f2faf8d7a0d14c09,651c1c7f112212192e9db54b,null,null,"<p style=""font-size: 60px; font-family: BACS"">tmAKMKmY</p>",,,,,,,,,,
html-keyboard-response,188,322644,0.0-12.0-0.18,613ab1e64acd61ebd0a7116d,650c16f0f2faf8d7a0d14c09,651c1c7f112212192e9db54b,null,null,"<p style=""font-size: 60px; font-family: BACS"">mbZlYLU</p>",,,,,,,,,,
html-keyboard-response,189,323646,0.0-12.0-0.19,613ab1e64acd61ebd0a7116d,650c16f0f2faf8d7a0d14c09,651c1c7f112212192e9db54b,null,null,"<p style=""font-size: 60px; font-family: BACS"">DBPhcPED</p>",,,,,,,,,,
html-keyboard-response,190,324651,0.0-12.0-0.20,613ab1e64acd61ebd0a7116d,650c16f0f2faf8d7a0d14c09,651c1c7f112212192e9db54b,null,null,"<p style=""font-size: 60px; font-family: BACS"">OAblcbLd</p>",,,,,,,,,,
html-keyboard-response,191,325662,0.0-12.0-0.21,613ab1e64acd61ebd0a7116d,650c16f0f2faf8d7a0d14c09,651c1c7f112212192e9db54b,null,null,"<p style=""font-size: 60px; font-family: BACS"">YZJmUdvY</p>",,,,,,,,,,
html-keyboard-response,192,326666,0.0-12.0-0.22,613ab1e64acd61ebd0a7116d,650c16f0f2faf8d7a0d14c09,651c1c7f112212192e9db54b,null,null,"<p style=""font-size: 60px; font-family: BACS"">kulZQGb</p>",,,,,,,,,,
html-keyboard-response,193,327677,0.0-12.0-0.23,613ab1e64acd61ebd0a7116d,650c16f0f2faf8d7a0d14c09,651c1c7f112212192e9db54b,null,null,"<p style=""font-size: 60px; font-family: BACS"">kdaAJYLU</p>",,,,,,,,,,
html-keyboard-response,194,328678,0.0-12.0-0.24,613ab1e64acd61ebd0a7116d,650c16f0f2faf8d7a0d14c09,651c1c7f112212192e9db54b,null,null,"<p style=""font-size: 60px; font-family: BACS"">YJLcAUdvY</p>",,,,,,,,,,
html-keyboard-response,195,329682,0.0-12.0-0.25,613ab1e64acd61ebd0a7116d,650c16f0f2faf8d7a0d14c09,651c1c7f112212192e9db54b,null,null,"<p style=""font-size: 60px; font-family: BACS"">ECtbDTmc</p>",,,,,,,,,,
html-keyboard-response,196,330693,0.0-12.0-0.26,613ab1e64acd61ebd0a7116d,650c16f0f2faf8d7a0d14c09,651c1c7f112212192e9db54b,null,null,"<p style=""font-size: 60px; font-family: BACS"">kdaAJYArG</p>",,,,,,,,,,
html-keyboard-response,197,331699,0.0-12.0-0.27,613ab1e64acd61ebd0a7116d,650c16f0f2faf8d7a0d14c09,651c1c7f112212192e9db54b,null,null,"<p style=""font-size: 60px; font-family: BACS"">ECtbDPED</p>",,,,,,,,,,
html-keyboard-response,198,332709,0.0-12.0-0.28,613ab1e64acd61ebd0a7116d,650c16f0f2faf8d7a0d14c09,651c1c7f112212192e9db54b,null,null,"<p style=""font-size: 60px; font-family: BACS"">YZJmYLU</p>",,,,,,,,,,
html-keyboard-response,199,333725,0.0-12.0-0.29,613ab1e64acd61ebd0a7116d,650c16f0f2faf8d7a0d14c09,651c1c7f112212192e9db54b,null,null,"<p style=""font-size: 60px; font-family: BACS"">tmAKMCkm</p>",,,,,,,,,,
html-keyboard-response,200,334728,0.0-12.0-0.30,613ab1e64acd61ebd0a7116d,650c16f0f2faf8d7a0d14c09,651c1c7f112212192e9db54b,null,null,"<p style=""font-size: 60px; font-family: BACS"">OAblcQGb</p>",,,,,,,,,,
html-keyboard-response,201,335745,0.0-12.0-0.31,613ab1e64acd61ebd0a7116d,650c16f0f2faf8d7a0d14c09,651c1c7f112212192e9db54b,null,null,"<p style=""font-size: 60px; font-family: BACS"">kulZUdvY</p>",,,,,,,,,,
html-keyboard-response,202,336748,0.0-12.0-0.32,613ab1e64acd61ebd0a7116d,650c16f0f2faf8d7a0d14c09,651c1c7f112212192e9db54b,null,null,"<p style=""font-size: 60px; font-family: BACS"">hAROKMKmY</p>",,,,,,,,,,
html-keyboard-response,203,337761,0.0-12.0-0.33,613ab1e64acd61ebd0a7116d,650c16f0f2faf8d7a0d14c09,651c1c7f112212192e9db54b,null,null,"<p style=""font-size: 60px; font-family: BACS"">khmhTmc</p>",,,,,,,,,,
html-keyboard-response,204,338776,0.0-12.0-0.34,613ab1e64acd61ebd0a7116d,650c16f0f2faf8d7a0d14c09,651c1c7f112212192e9db54b,null,null,"<p style=""font-size: 60px; font-family: BACS"">lcOcUdvY</p>",,,,,,,,,,
html-keyboard-response,205,339782,0.0-12.0-0.35,613ab1e64acd61ebd0a7116d,650c16f0f2faf8d7a0d14c09,651c1c7f112212192e9db54b,null,null,"<p style=""font-size: 60px; font-family: BACS"">ckdAmOMC</p>",,,,,,,,,,
html-keyboard-response,206,340793,0.0-12.0-0.36,613ab1e64acd61ebd0a7116d,650c16f0f2faf8d7a0d14c09,651c1c7f112212192e9db54b,null,null,"<p style=""font-size: 60px; font-family: BACS"">kulZYArG</p>",,,,,,,,,,
html-keyboard-response,207,341809,0.0-12.0-0.37,613ab1e64acd61ebd0a7116d,650c16f0f2faf8d7a0d14c09,651c1c7f112212192e9db54b,null,null,"<p style=""font-size: 60px; font-family: BACS"">lcOcbLd</p>",,,,,,,,,,
html-keyboard-response,208,342814,0.0-12.0-0.38,613ab1e64acd61ebd0a7116d,650c16f0f2faf8d7a0d14c09,651c1c7f112212192e9db54b,null,null,"<p style=""font-size: 60px; font-family: BACS"">hAROKOMC</p>",,,,,,,,,,
html-keyboard-response,209,343825,0.0-12.0-0.39,613ab1e64acd61ebd0a7116d,650c16f0f2faf8d7a0d14c09,651c1c7f112212192e9db54b,null,null,"<p style=""font-size: 60px; font-family: BACS"">YKRkTmc</p>",,,,,,,,,,
html-keyboard-response,210,344829,0.0-12.0-0.40,613ab1e64acd61ebd0a7116d,650c16f0f2faf8d7a0d14c09,651c1c7f112212192e9db54b,null,null,"<p style=""font-size: 60px; font-family: BACS"">RhPmMCkm</p>",,,,,,,,,,
html-keyboard-response,211,345841,0.0-12.0-0.41,613ab1e64acd61ebd0a7116d,650c16f0f2faf8d7a0d14c09,651c1c7f112212192e9db54b,null,null,"<p style=""font-size: 60px; font-family: BACS"">YKRkMKmY</p>",,,,,,,,,,
html-keyboard-response,212,346848,0.0-12.0-0.42,613ab1e64acd61ebd0a7116d,650c16f0f2faf8d7a0d14c09,651c1c7f112212192e9db54b,null,null,"<p style=""font-size: 60px; font-family: BACS"">DBPhcTmc</p>",,,,,,,,,,
html-keyboard-response,213,347849,0.0-12.0-0.43,613ab1e64acd61ebd0a7116d,650c16f0f2faf8d7a0d14c09,651c1c7f112212192e9db54b,null,null,"<p style=""font-size: 60px; font-family: BACS"">JmvmOUdvY</p>",,,,,,,,,,
html-keyboard-response,214,348861,0.0-12.0-0.44,613ab1e64acd61ebd0a7116d,650c16f0f2faf8d7a0d14c09,651c1c7f112212192e9db54b,null,null,"<p style=""font-size: 60px; font-family: BACS"">YZJmYArG</p>",,,,,,,,,,
html-keyboard-response,215,349862,0.0-12.0-0.45,613ab1e64acd61ebd0a7116d,650c16f0f2faf8d7a0d14c09,651c1c7f112212192e9db54b,null,null,"<p style=""font-size: 60px; font-family: BACS"">JmvmOYLU</p>",,,,,,,,,,
html-keyboard-response,216,350874,0.0-12.0-0.46,613ab1e64acd61ebd0a7116d,650c16f0f2faf8d7a0d14c09,651c1c7f112212192e9db54b,null,null,"<p style=""font-size: 60px; font-family: BACS"">YObAOMC</p>",,,,,,,,,,
html-keyboard-response,217,351879,0.0-12.0-0.47,613ab1e64acd61ebd0a7116d,650c16f0f2faf8d7a0d14c09,651c1c7f112212192e9db54b,null,null,"<p style=""font-size: 60px; font-family: BACS"">ECtbDMCkm</p>",,,,,,,,,,
html-keyboard-response,218,352892,0.0-12.0-0.48,613ab1e64acd61ebd0a7116d,650c16f0f2faf8d7a0d14c09,651c1c7f112212192e9db54b,null,null,"<p style=""font-size: 60px; font-family: BACS"">JAdLmbLd</p>",,,,,,,,,,
html-keyboard-response,219,353903,0.0-12.0-0.49,613ab1e64acd61ebd0a7116d,650c16f0f2faf8d7a0d14c09,651c1c7f112212192e9db54b,null,null,"<p style=""font-size: 60px; font-family: BACS"">ckdAmTmc</p>",,,,,,,,,,
html-keyboard-response,220,354906,0.0-12.0-0.50,613ab1e64acd61ebd0a7116d,650c16f0f2faf8d7a0d14c09,651c1c7f112212192e9db54b,null,null,"<p style=""font-size: 60px; font-family: BACS"">ktBdPED</p>",,,,,,,,,,
html-keyboard-response,221,355907,0.0-12.0-0.51,613ab1e64acd61ebd0a7116d,650c16f0f2faf8d7a0d14c09,651c1c7f112212192e9db54b,null,null,"<p style=""font-size: 60px; font-family: BACS"">JNkaYArG</p>",,,,,,,,,,
html-keyboard-response,222,356910,0.0-12.0-0.52,613ab1e64acd61ebd0a7116d,650c16f0f2faf8d7a0d14c09,651c1c7f112212192e9db54b,null,null,"<p style=""font-size: 60px; font-family: BACS"">YObAPED</p>",,,,,,,,,,
html-keyboard-response,223,357922,0.0-12.0-0.53,613ab1e64acd61ebd0a7116d,650c16f0f2faf8d7a0d14c09,651c1c7f112212192e9db54b,null,null,"<p style=""font-size: 60px; font-family: BACS"">OAblcYLU</p>",,,,,,,,,,
html-keyboard-response,224,358927,0.0-12.0-0.54,613ab1e64acd61ebd0a7116d,650c16f0f2faf8d7a0d14c09,651c1c7f112212192e9db54b,null,null,"<p style=""font-size: 60px; font-family: BACS"">lcOcQGb</p>",,,,,,,,,,
html-keyboard-response,225,359939,0.0-12.0-0.55,613ab1e64acd61ebd0a7116d,650c16f0f2faf8d7a0d14c09,651c1c7f112212192e9db54b,null,null,"<p style=""font-size: 60px; font-family: BACS"">YObATmc</p>",,,,,,,,,,
html-keyboard-response,226,360951,0.0-12.0-0.56,613ab1e64acd61ebd0a7116d,650c16f0f2faf8d7a0d14c09,651c1c7f112212192e9db54b,null,null,"<p style=""font-size: 60px; font-family: BACS"">JAdLmYLU</p>",,,,,,,,,,
html-keyboard-response,227,361961,0.0-12.0-0.57,613ab1e64acd61ebd0a7116d,650c16f0f2faf8d7a0d14c09,651c1c7f112212192e9db54b,null,null,"<p style=""font-size: 60px; font-family: BACS"">khmhMCkm</p>",,,,,,,,,,
html-keyboard-response,228,362968,0.0-12.0-0.58,613ab1e64acd61ebd0a7116d,650c16f0f2faf8d7a0d14c09,651c1c7f112212192e9db54b,null,null,"<p style=""font-size: 60px; font-family: BACS"">mbZlUdvY</p>",,,,,,,,,,
html-keyboard-response,229,363971,0.0-12.0-0.59,613ab1e64acd61ebd0a7116d,650c16f0f2faf8d7a0d14c09,651c1c7f112212192e9db54b,null,null,"<p style=""font-size: 60px; font-family: BACS"">tmAKOMC</p>",,,,,,,,,,
html-keyboard-response,230,364976,0.0-12.0-0.60,613ab1e64acd61ebd0a7116d,650c16f0f2faf8d7a0d14c09,651c1c7f112212192e9db54b,null,null,"<p style=""font-size: 60px; font-family: BACS"">DBPhcMCkm</p>",,,,,,,,,,
html-keyboard-response,231,365988,0.0-12.0-0.61,613ab1e64acd61ebd0a7116d,650c16f0f2faf8d7a0d14c09,651c1c7f112212192e9db54b,null,null,"<p style=""font-size: 60px; font-family: BACS"">mbZlbLd</p>",,,,,,,,,,
html-keyboard-response,232,366993,0.0-12.0-0.62,613ab1e64acd61ebd0a7116d,650c16f0f2faf8d7a0d14c09,651c1c7f112212192e9db54b,null,null,"<p style=""font-size: 60px; font-family: BACS"">khmhOMC</p>",,,,,,,,,,
html-keyboard-response,233,367999,0.0-12.0-0.63,613ab1e64acd61ebd0a7116d,650c16f0f2faf8d7a0d14c09,651c1c7f112212192e9db54b,null,null,"<p style=""font-size: 60px; font-family: BACS"">mbZlYArG</p>",,,,,,,,,,
html-keyboard-response,234,369003,0.0-12.0-0.64,613ab1e64acd61ebd0a7116d,650c16f0f2faf8d7a0d14c09,651c1c7f112212192e9db54b,null,null,"<p style=""font-size: 60px; font-family: BACS"">kdaAJbLd</p>",,,,,,,,,,
html-keyboard-response,235,370009,0.0-12.0-0.65,613ab1e64acd61ebd0a7116d,650c16f0f2faf8d7a0d14c09,651c1c7f112212192e9db54b,null,null,"<p style=""font-size: 60px; font-family: BACS"">YKRkMCkm</p>",,,,,,,,,,
html-keyboard-response,236,371021,0.0-12.0-0.66,613ab1e64acd61ebd0a7116d,650c16f0f2faf8d7a0d14c09,651c1c7f112212192e9db54b,null,null,"<p style=""font-size: 60px; font-family: BACS"">ktBdTmc</p>",,,,,,,,,,
html-keyboard-response,237,372024,0.0-12.0-0.67,613ab1e64acd61ebd0a7116d,650c16f0f2faf8d7a0d14c09,651c1c7f112212192e9db54b,null,null,"<p style=""font-size: 60px; font-family: BACS"">JAdLmQGb</p>",,,,,,,,,,
html-keyboard-response,238,373035,0.0-12.0-0.68,613ab1e64acd61ebd0a7116d,650c16f0f2faf8d7a0d14c09,651c1c7f112212192e9db54b,null,null,"<p style=""font-size: 60px; font-family: BACS"">YObAMCkm</p>",,,,,,,,,,
html-keyboard-response,239,374041,0.0-12.0-0.69,613ab1e64acd61ebd0a7116d,650c16f0f2faf8d7a0d14c09,651c1c7f112212192e9db54b,null,null,"<p style=""font-size: 60px; font-family: BACS"">JNkabLd</p>",,,,,,,,,,
html-keyboard-response,240,375052,0.0-12.0-0.70,613ab1e64acd61ebd0a7116d,650c16f0f2faf8d7a0d14c09,651c1c7f112212192e9db54b,null,null,"<p style=""font-size: 60px; font-family: BACS"">YJLcAQGb</p>",,,,,,,,,,
html-keyboard-response,241,376067,0.0-12.0-0.71,613ab1e64acd61ebd0a7116d,650c16f0f2faf8d7a0d14c09,651c1c7f112212192e9db54b,null,null,"<p style=""font-size: 60px; font-family: BACS"">hAROKTmc</p>",,,,,,,,,,
html-keyboard-response,242,377071,0.0-12.0-0.72,613ab1e64acd61ebd0a7116d,650c16f0f2faf8d7a0d14c09,651c1c7f112212192e9db54b,null,null,"<p style=""font-size: 60px; font-family: BACS"">tmAKPED</p>",,,,,,,,,,
html-keyboard-response,243,378084,0.0-12.0-0.73,613ab1e64acd61ebd0a7116d,650c16f0f2faf8d7a0d14c09,651c1c7f112212192e9db54b,null,null,"<p style=""font-size: 60px; font-family: BACS"">ECtbDOMC</p>",,,,,,,,,,
html-keyboard-response,244,379091,0.0-12.0-0.74,613ab1e64acd61ebd0a7116d,650c16f0f2faf8d7a0d14c09,651c1c7f112212192e9db54b,null,null,"<p style=""font-size: 60px; font-family: BACS"">JNkaQGb</p>",,,,,,,,,,
html-keyboard-response,245,380094,0.0-12.0-0.75,613ab1e64acd61ebd0a7116d,650c16f0f2faf8d7a0d14c09,651c1c7f112212192e9db54b,null,null,"<p style=""font-size: 60px; font-family: BACS"">kulZYLU</p>",,,,,,,,,,
html-keyboard-response,246,381107,0.0-12.0-0.76,613ab1e64acd61ebd0a7116d,650c16f0f2faf8d7a0d14c09,651c1c7f112212192e9db54b,null,null,"<p style=""font-size: 60px; font-family: BACS"">lcOcYArG</p>",,,,,,,,,,
html-keyboard-response,247,382117,0.0-12.0-0.77,613ab1e64acd61ebd0a7116d,650c16f0f2faf8d7a0d14c09,651c1c7f112212192e9db54b,null,null,"<p style=""font-size: 60px; font-family: BACS"">JNkaUdvY</p>",,,,,,,,,,
html-keyboard-response,248,383123,0.0-12.0-0.78,613ab1e64acd61ebd0a7116d,650c16f0f2faf8d7a0d14c09,651c1c7f112212192e9db54b,null,null,"<p style=""font-size: 60px; font-family: BACS"">ckdAmMCkm</p>",,,,,,,,,,
html-keyboard-response,249,384133,0.0-12.0-0.79,613ab1e64acd61ebd0a7116d,650c16f0f2faf8d7a0d14c09,651c1c7f112212192e9db54b,null,null,"<p style=""font-size: 60px; font-family: BACS"">khmhMKmY</p>",,,,,,,,,,
html-keyboard-response,250,386330,0.0-13.0,613ab1e64acd61ebd0a7116d,650c16f0f2faf8d7a0d14c09,651c1c7f112212192e9db54b,2196, ,"<p>Great, you've seen the third block of words. You may now take a short break.</p>
      <p>Press the spacebar when you're ready to continue.</p>",,,,,,,,,,
html-keyboard-response,251,387335,0.0-14.0-0.0,613ab1e64acd61ebd0a7116d,650c16f0f2faf8d7a0d14c09,651c1c7f112212192e9db54b,null,null,"<p style=""font-size: 60px; font-family: BACS"">YJLcAYLU</p>",,,,,,,,,,
html-keyboard-response,252,388351,0.0-14.0-0.1,613ab1e64acd61ebd0a7116d,650c16f0f2faf8d7a0d14c09,651c1c7f112212192e9db54b,null,null,"<p style=""font-size: 60px; font-family: BACS"">ECtbDPED</p>",,,,,,,,,,
html-keyboard-response,253,389364,0.0-14.0-0.2,613ab1e64acd61ebd0a7116d,650c16f0f2faf8d7a0d14c09,651c1c7f112212192e9db54b,null,null,"<p style=""font-size: 60px; font-family: BACS"">YJLcAQGb</p>",,,,,,,,,,
html-keyboard-response,254,390373,0.0-14.0-0.3,613ab1e64acd61ebd0a7116d,650c16f0f2faf8d7a0d14c09,651c1c7f112212192e9db54b,null,null,"<p style=""font-size: 60px; font-family: BACS"">JAdLmbLd</p>",,,,,,,,,,
html-keyboard-response,255,391383,0.0-14.0-0.4,613ab1e64acd61ebd0a7116d,650c16f0f2faf8d7a0d14c09,651c1c7f112212192e9db54b,null,null,"<p style=""font-size: 60px; font-family: BACS"">ktBdOMC</p>",,,,,,,,,,
html-keyboard-response,256,392390,0.0-14.0-0.5,613ab1e64acd61ebd0a7116d,650c16f0f2faf8d7a0d14c09,651c1c7f112212192e9db54b,null,null,"<p style=""font-size: 60px; font-family: BACS"">DBPhcPED</p>",,,,,,,,,,
html-keyboard-response,257,393401,0.0-14.0-0.6,613ab1e64acd61ebd0a7116d,650c16f0f2faf8d7a0d14c09,651c1c7f112212192e9db54b,null,null,"<p style=""font-size: 60px; font-family: BACS"">YZJmUdvY</p>",,,,,,,,,,
html-keyboard-response,258,394405,0.0-14.0-0.7,613ab1e64acd61ebd0a7116d,650c16f0f2faf8d7a0d14c09,651c1c7f112212192e9db54b,null,null,"<p style=""font-size: 60px; font-family: BACS"">kdaAJbLd</p>",,,,,,,,,,
html-keyboard-response,259,395407,0.0-14.0-0.8,613ab1e64acd61ebd0a7116d,650c16f0f2faf8d7a0d14c09,651c1c7f112212192e9db54b,null,null,"<p style=""font-size: 60px; font-family: BACS"">JAdLmYArG</p>",,,,,,,,,,
html-keyboard-response,260,396423,0.0-14.0-0.9,613ab1e64acd61ebd0a7116d,650c16f0f2faf8d7a0d14c09,651c1c7f112212192e9db54b,null,null,"<p style=""font-size: 60px; font-family: BACS"">YZJmQGb</p>",,,,,,,,,,
html-keyboard-response,261,397438,0.0-14.0-0.10,613ab1e64acd61ebd0a7116d,650c16f0f2faf8d7a0d14c09,651c1c7f112212192e9db54b,null,null,"<p style=""font-size: 60px; font-family: BACS"">ECtbDTmc</p>",,,,,,,,,,
html-keyboard-response,262,398454,0.0-14.0-0.11,613ab1e64acd61ebd0a7116d,650c16f0f2faf8d7a0d14c09,651c1c7f112212192e9db54b,null,null,"<p style=""font-size: 60px; font-family: BACS"">OAblcUdvY</p>",,,,,,,,,,
html-keyboard-response,263,399470,0.0-14.0-0.12,613ab1e64acd61ebd0a7116d,650c16f0f2faf8d7a0d14c09,651c1c7f112212192e9db54b,null,null,"<p style=""font-size: 60px; font-family: BACS"">YObAMCkm</p>",,,,,,,,,,
html-keyboard-response,264,400487,0.0-14.0-0.13,613ab1e64acd61ebd0a7116d,650c16f0f2faf8d7a0d14c09,651c1c7f112212192e9db54b,null,null,"<p style=""font-size: 60px; font-family: BACS"">kulZUdvY</p>",,,,,,,,,,
html-keyboard-response,265,401496,0.0-14.0-0.14,613ab1e64acd61ebd0a7116d,650c16f0f2faf8d7a0d14c09,651c1c7f112212192e9db54b,null,null,"<p style=""font-size: 60px; font-family: BACS"">YZJmYLU</p>",,,,,,,,,,
html-keyboard-response,266,402512,0.0-14.0-0.15,613ab1e64acd61ebd0a7116d,650c16f0f2faf8d7a0d14c09,651c1c7f112212192e9db54b,null,null,"<p style=""font-size: 60px; font-family: BACS"">JmvmOYArG</p>",,,,,,,,,,
html-keyboard-response,267,403529,0.0-14.0-0.16,613ab1e64acd61ebd0a7116d,650c16f0f2faf8d7a0d14c09,651c1c7f112212192e9db54b,null,null,"<p style=""font-size: 60px; font-family: BACS"">ckdAmMKmY</p>",,,,,,,,,,
html-keyboard-response,268,404537,0.0-14.0-0.17,613ab1e64acd61ebd0a7116d,650c16f0f2faf8d7a0d14c09,651c1c7f112212192e9db54b,null,null,"<p style=""font-size: 60px; font-family: BACS"">mbZlYLU</p>",,,,,,,,,,
html-keyboard-response,269,405546,0.0-14.0-0.18,613ab1e64acd61ebd0a7116d,650c16f0f2faf8d7a0d14c09,651c1c7f112212192e9db54b,null,null,"<p style=""font-size: 60px; font-family: BACS"">ECtbDOMC</p>",,,,,,,,,,
html-keyboard-response,270,406561,0.0-14.0-0.19,613ab1e64acd61ebd0a7116d,650c16f0f2faf8d7a0d14c09,651c1c7f112212192e9db54b,null,null,"<p style=""font-size: 60px; font-family: BACS"">ckdAmTmc</p>",,,,,,,,,,
html-keyboard-response,271,407563,0.0-14.0-0.20,613ab1e64acd61ebd0a7116d,650c16f0f2faf8d7a0d14c09,651c1c7f112212192e9db54b,null,null,"<p style=""font-size: 60px; font-family: BACS"">tmAKOMC</p>",,,,,,,,,,
html-keyboard-response,272,408578,0.0-14.0-0.21,613ab1e64acd61ebd0a7116d,650c16f0f2faf8d7a0d14c09,651c1c7f112212192e9db54b,null,null,"<p style=""font-size: 60px; font-family: BACS"">JmvmOYLU</p>",,,,,,,,,,
html-keyboard-response,273,409594,0.0-14.0-0.22,613ab1e64acd61ebd0a7116d,650c16f0f2faf8d7a0d14c09,651c1c7f112212192e9db54b,null,null,"<p style=""font-size: 60px; font-family: BACS"">lcOcYArG</p>",,,,,,,,,,
html-keyboard-response,274,410601,0.0-14.0-0.23,613ab1e64acd61ebd0a7116d,650c16f0f2faf8d7a0d14c09,651c1c7f112212192e9db54b,null,null,"<p style=""font-size: 60px; font-family: BACS"">YJLcAbLd</p>",,,,,,,,,,
html-keyboard-response,275,411611,0.0-14.0-0.24,613ab1e64acd61ebd0a7116d,650c16f0f2faf8d7a0d14c09,651c1c7f112212192e9db54b,null,null,"<p style=""font-size: 60px; font-family: BACS"">RhPmMCkm</p>",,,,,,,,,,
html-keyboard-response,276,412617,0.0-14.0-0.25,613ab1e64acd61ebd0a7116d,650c16f0f2faf8d7a0d14c09,651c1c7f112212192e9db54b,null,null,"<p style=""font-size: 60px; font-family: BACS"">YObAPED</p>",,,,,,,,,,
html-keyboard-response,277,413634,0.0-14.0-0.26,613ab1e64acd61ebd0a7116d,650c16f0f2faf8d7a0d14c09,651c1c7f112212192e9db54b,null,null,"<p style=""font-size: 60px; font-family: BACS"">OAblcbLd</p>",,,,,,,,,,
html-keyboard-response,278,414644,0.0-14.0-0.27,613ab1e64acd61ebd0a7116d,650c16f0f2faf8d7a0d14c09,651c1c7f112212192e9db54b,null,null,"<p style=""font-size: 60px; font-family: BACS"">lcOcQGb</p>",,,,,,,,,,
html-keyboard-response,279,415650,0.0-14.0-0.28,613ab1e64acd61ebd0a7116d,650c16f0f2faf8d7a0d14c09,651c1c7f112212192e9db54b,null,null,"<p style=""font-size: 60px; font-family: BACS"">tmAKMCkm</p>",,,,,,,,,,
html-keyboard-response,280,416663,0.0-14.0-0.29,613ab1e64acd61ebd0a7116d,650c16f0f2faf8d7a0d14c09,651c1c7f112212192e9db54b,null,null,"<p style=""font-size: 60px; font-family: BACS"">ktBdMKmY</p>",,,,,,,,,,
html-keyboard-response,281,417677,0.0-14.0-0.30,613ab1e64acd61ebd0a7116d,650c16f0f2faf8d7a0d14c09,651c1c7f112212192e9db54b,null,null,"<p style=""font-size: 60px; font-family: BACS"">JAdLmQGb</p>",,,,,,,,,,
html-keyboard-response,282,418693,0.0-14.0-0.31,613ab1e64acd61ebd0a7116d,650c16f0f2faf8d7a0d14c09,651c1c7f112212192e9db54b,null,null,"<p style=""font-size: 60px; font-family: BACS"">kulZYArG</p>",,,,,,,,,,
html-keyboard-response,283,419710,0.0-14.0-0.32,613ab1e64acd61ebd0a7116d,650c16f0f2faf8d7a0d14c09,651c1c7f112212192e9db54b,null,null,"<p style=""font-size: 60px; font-family: BACS"">YJLcAUdvY</p>",,,,,,,,,,
html-keyboard-response,284,420712,0.0-14.0-0.33,613ab1e64acd61ebd0a7116d,650c16f0f2faf8d7a0d14c09,651c1c7f112212192e9db54b,null,null,"<p style=""font-size: 60px; font-family: BACS"">YKRkTmc</p>",,,,,,,,,,
html-keyboard-response,285,421725,0.0-14.0-0.34,613ab1e64acd61ebd0a7116d,650c16f0f2faf8d7a0d14c09,651c1c7f112212192e9db54b,null,null,"<p style=""font-size: 60px; font-family: BACS"">YObAOMC</p>",,,,,,,,,,
html-keyboard-response,286,422733,0.0-14.0-0.35,613ab1e64acd61ebd0a7116d,650c16f0f2faf8d7a0d14c09,651c1c7f112212192e9db54b,null,null,"<p style=""font-size: 60px; font-family: BACS"">khmhTmc</p>",,,,,,,,,,
html-keyboard-response,287,423745,0.0-14.0-0.36,613ab1e64acd61ebd0a7116d,650c16f0f2faf8d7a0d14c09,651c1c7f112212192e9db54b,null,null,"<p style=""font-size: 60px; font-family: BACS"">DBPhcMKmY</p>",,,,,,,,,,
html-keyboard-response,288,424761,0.0-14.0-0.37,613ab1e64acd61ebd0a7116d,650c16f0f2faf8d7a0d14c09,651c1c7f112212192e9db54b,null,null,"<p style=""font-size: 60px; font-family: BACS"">kulZYLU</p>",,,,,,,,,,
html-keyboard-response,289,425773,0.0-14.0-0.38,613ab1e64acd61ebd0a7116d,650c16f0f2faf8d7a0d14c09,651c1c7f112212192e9db54b,null,null,"<p style=""font-size: 60px; font-family: BACS"">JNkaYArG</p>",,,,,,,,,,
html-keyboard-response,290,426776,0.0-14.0-0.39,613ab1e64acd61ebd0a7116d,650c16f0f2faf8d7a0d14c09,651c1c7f112212192e9db54b,null,null,"<p style=""font-size: 60px; font-family: BACS"">hAROKOMC</p>",,,,,,,,,,
html-keyboard-response,291,427791,0.0-14.0-0.40,613ab1e64acd61ebd0a7116d,650c16f0f2faf8d7a0d14c09,651c1c7f112212192e9db54b,null,null,"<p style=""font-size: 60px; font-family: BACS"">ECtbDMCkm</p>",,,,,,,,,,
html-keyboard-response,292,428796,0.0-14.0-0.41,613ab1e64acd61ebd0a7116d,650c16f0f2faf8d7a0d14c09,651c1c7f112212192e9db54b,null,null,"<p style=""font-size: 60px; font-family: BACS"">JNkaQGb</p>",,,,,,,,,,
html-keyboard-response,293,429798,0.0-14.0-0.42,613ab1e64acd61ebd0a7116d,650c16f0f2faf8d7a0d14c09,651c1c7f112212192e9db54b,null,null,"<p style=""font-size: 60px; font-family: BACS"">ktBdTmc</p>",,,,,,,,,,
html-keyboard-response,294,430807,0.0-14.0-0.43,613ab1e64acd61ebd0a7116d,650c16f0f2faf8d7a0d14c09,651c1c7f112212192e9db54b,null,null,"<p style=""font-size: 60px; font-family: BACS"">kdaAJYLU</p>",,,,,,,,,,
html-keyboard-response,295,431823,0.0-14.0-0.44,613ab1e64acd61ebd0a7116d,650c16f0f2faf8d7a0d14c09,651c1c7f112212192e9db54b,null,null,"<p style=""font-size: 60px; font-family: BACS"">JNkaUdvY</p>",,,,,,,,,,
html-keyboard-response,296,432839,0.0-14.0-0.45,613ab1e64acd61ebd0a7116d,650c16f0f2faf8d7a0d14c09,651c1c7f112212192e9db54b,null,null,"<p style=""font-size: 60px; font-family: BACS"">hAROKPED</p>",,,,,,,,,,
html-keyboard-response,297,433843,0.0-14.0-0.46,613ab1e64acd61ebd0a7116d,650c16f0f2faf8d7a0d14c09,651c1c7f112212192e9db54b,null,null,"<p style=""font-size: 60px; font-family: BACS"">khmhOMC</p>",,,,,,,,,,
html-keyboard-response,298,434853,0.0-14.0-0.47,613ab1e64acd61ebd0a7116d,650c16f0f2faf8d7a0d14c09,651c1c7f112212192e9db54b,null,null,"<p style=""font-size: 60px; font-family: BACS"">YKRkMCkm</p>",,,,,,,,,,
html-keyboard-response,299,435861,0.0-14.0-0.48,613ab1e64acd61ebd0a7116d,650c16f0f2faf8d7a0d14c09,651c1c7f112212192e9db54b,null,null,"<p style=""font-size: 60px; font-family: BACS"">lcOcUdvY</p>",,,,,,,,,,
html-keyboard-response,300,436870,0.0-14.0-0.49,613ab1e64acd61ebd0a7116d,650c16f0f2faf8d7a0d14c09,651c1c7f112212192e9db54b,null,null,"<p style=""font-size: 60px; font-family: BACS"">tmAKMKmY</p>",,,,,,,,,,
html-keyboard-response,301,437876,0.0-14.0-0.50,613ab1e64acd61ebd0a7116d,650c16f0f2faf8d7a0d14c09,651c1c7f112212192e9db54b,null,null,"<p style=""font-size: 60px; font-family: BACS"">mbZlbLd</p>",,,,,,,,,,
html-keyboard-response,302,438890,0.0-14.0-0.51,613ab1e64acd61ebd0a7116d,650c16f0f2faf8d7a0d14c09,651c1c7f112212192e9db54b,null,null,"<p style=""font-size: 60px; font-family: BACS"">kdaAJQGb</p>",,,,,,,,,,
html-keyboard-response,303,439892,0.0-14.0-0.52,613ab1e64acd61ebd0a7116d,650c16f0f2faf8d7a0d14c09,651c1c7f112212192e9db54b,null,null,"<p style=""font-size: 60px; font-family: BACS"">OAblcYLU</p>",,,,,,,,,,
html-keyboard-response,304,440897,0.0-14.0-0.53,613ab1e64acd61ebd0a7116d,650c16f0f2faf8d7a0d14c09,651c1c7f112212192e9db54b,null,null,"<p style=""font-size: 60px; font-family: BACS"">kdaAJYArG</p>",,,,,,,,,,
html-keyboard-response,305,441913,0.0-14.0-0.54,613ab1e64acd61ebd0a7116d,650c16f0f2faf8d7a0d14c09,651c1c7f112212192e9db54b,null,null,"<p style=""font-size: 60px; font-family: BACS"">RhPmMKmY</p>",,,,,,,,,,
html-keyboard-response,306,442929,0.0-14.0-0.55,613ab1e64acd61ebd0a7116d,650c16f0f2faf8d7a0d14c09,651c1c7f112212192e9db54b,null,null,"<p style=""font-size: 60px; font-family: BACS"">lcOcbLd</p>",,,,,,,,,,
html-keyboard-response,307,443945,0.0-14.0-0.56,613ab1e64acd61ebd0a7116d,650c16f0f2faf8d7a0d14c09,651c1c7f112212192e9db54b,null,null,"<p style=""font-size: 60px; font-family: BACS"">YObATmc</p>",,,,,,,,,,
html-keyboard-response,308,444953,0.0-14.0-0.57,613ab1e64acd61ebd0a7116d,650c16f0f2faf8d7a0d14c09,651c1c7f112212192e9db54b,null,null,"<p style=""font-size: 60px; font-family: BACS"">RhPmOMC</p>",,,,,,,,,,
html-keyboard-response,309,445956,0.0-14.0-0.58,613ab1e64acd61ebd0a7116d,650c16f0f2faf8d7a0d14c09,651c1c7f112212192e9db54b,null,null,"<p style=""font-size: 60px; font-family: BACS"">ckdAmMCkm</p>",,,,,,,,,,
html-keyboard-response,310,446960,0.0-14.0-0.59,613ab1e64acd61ebd0a7116d,650c16f0f2faf8d7a0d14c09,651c1c7f112212192e9db54b,null,null,"<p style=""font-size: 60px; font-family: BACS"">JNkabLd</p>",,,,,,,,,,
html-keyboard-response,311,447969,0.0-14.0-0.60,613ab1e64acd61ebd0a7116d,650c16f0f2faf8d7a0d14c09,651c1c7f112212192e9db54b,null,null,"<p style=""font-size: 60px; font-family: BACS"">DBPhcMCkm</p>",,,,,,,,,,
html-keyboard-response,312,448975,0.0-14.0-0.61,613ab1e64acd61ebd0a7116d,650c16f0f2faf8d7a0d14c09,651c1c7f112212192e9db54b,null,null,"<p style=""font-size: 60px; font-family: BACS"">JAdLmYLU</p>",,,,,,,,,,
html-keyboard-response,313,449979,0.0-14.0-0.62,613ab1e64acd61ebd0a7116d,650c16f0f2faf8d7a0d14c09,651c1c7f112212192e9db54b,null,null,"<p style=""font-size: 60px; font-family: BACS"">kulZQGb</p>",,,,,,,,,,
html-keyboard-response,314,450992,0.0-14.0-0.63,613ab1e64acd61ebd0a7116d,650c16f0f2faf8d7a0d14c09,651c1c7f112212192e9db54b,null,null,"<p style=""font-size: 60px; font-family: BACS"">ktBdPED</p>",,,,,,,,,,
html-keyboard-response,315,452003,0.0-14.0-0.64,613ab1e64acd61ebd0a7116d,650c16f0f2faf8d7a0d14c09,651c1c7f112212192e9db54b,null,null,"<p style=""font-size: 60px; font-family: BACS"">JmvmObLd</p>",,,,,,,,,,
html-keyboard-response,316,453009,0.0-14.0-0.65,613ab1e64acd61ebd0a7116d,650c16f0f2faf8d7a0d14c09,651c1c7f112212192e9db54b,null,null,"<p style=""font-size: 60px; font-family: BACS"">mbZlYArG</p>",,,,,,,,,,
html-keyboard-response,317,454027,0.0-14.0-0.66,613ab1e64acd61ebd0a7116d,650c16f0f2faf8d7a0d14c09,651c1c7f112212192e9db54b,null,null,"<p style=""font-size: 60px; font-family: BACS"">DBPhcTmc</p>",,,,,,,,,,
html-keyboard-response,318,455029,0.0-14.0-0.67,613ab1e64acd61ebd0a7116d,650c16f0f2faf8d7a0d14c09,651c1c7f112212192e9db54b,null,null,"<p style=""font-size: 60px; font-family: BACS"">YZJmYArG</p>",,,,,,,,,,
html-keyboard-response,319,456044,0.0-14.0-0.68,613ab1e64acd61ebd0a7116d,650c16f0f2faf8d7a0d14c09,651c1c7f112212192e9db54b,null,null,"<p style=""font-size: 60px; font-family: BACS"">YKRkPED</p>",,,,,,,,,,
html-keyboard-response,320,457058,0.0-14.0-0.69,613ab1e64acd61ebd0a7116d,650c16f0f2faf8d7a0d14c09,651c1c7f112212192e9db54b,null,null,"<p style=""font-size: 60px; font-family: BACS"">OAblcQGb</p>",,,,,,,,,,
html-keyboard-response,321,458070,0.0-14.0-0.70,613ab1e64acd61ebd0a7116d,650c16f0f2faf8d7a0d14c09,651c1c7f112212192e9db54b,null,null,"<p style=""font-size: 60px; font-family: BACS"">YKRkMKmY</p>",,,,,,,,,,
html-keyboard-response,322,459074,0.0-14.0-0.71,613ab1e64acd61ebd0a7116d,650c16f0f2faf8d7a0d14c09,651c1c7f112212192e9db54b,null,null,"<p style=""font-size: 60px; font-family: BACS"">JmvmOUdvY</p>",,,,,,,,,,
html-keyboard-response,323,460080,0.0-14.0-0.72,613ab1e64acd61ebd0a7116d,650c16f0f2faf8d7a0d14c09,651c1c7f112212192e9db54b,null,null,"<p style=""font-size: 60px; font-family: BACS"">khmhMKmY</p>",,,,,,,,,,
html-keyboard-response,324,461090,0.0-14.0-0.73,613ab1e64acd61ebd0a7116d,650c16f0f2faf8d7a0d14c09,651c1c7f112212192e9db54b,null,null,"<p style=""font-size: 60px; font-family: BACS"">ckdAmOMC</p>",,,,,,,,,,
html-keyboard-response,325,462105,0.0-14.0-0.74,613ab1e64acd61ebd0a7116d,650c16f0f2faf8d7a0d14c09,651c1c7f112212192e9db54b,null,null,"<p style=""font-size: 60px; font-family: BACS"">RhPmPED</p>",,,,,,,,,,
html-keyboard-response,326,463110,0.0-14.0-0.75,613ab1e64acd61ebd0a7116d,650c16f0f2faf8d7a0d14c09,651c1c7f112212192e9db54b,null,null,"<p style=""font-size: 60px; font-family: BACS"">mbZlUdvY</p>",,,,,,,,,,
html-keyboard-response,327,464118,0.0-14.0-0.76,613ab1e64acd61ebd0a7116d,650c16f0f2faf8d7a0d14c09,651c1c7f112212192e9db54b,null,null,"<p style=""font-size: 60px; font-family: BACS"">hAROKMKmY</p>",,,,,,,,,,
html-keyboard-response,328,465123,0.0-14.0-0.77,613ab1e64acd61ebd0a7116d,650c16f0f2faf8d7a0d14c09,651c1c7f112212192e9db54b,null,null,"<p style=""font-size: 60px; font-family: BACS"">khmhMCkm</p>",,,,,,,,,,
html-keyboard-response,329,466126,0.0-14.0-0.78,613ab1e64acd61ebd0a7116d,650c16f0f2faf8d7a0d14c09,651c1c7f112212192e9db54b,null,null,"<p style=""font-size: 60px; font-family: BACS"">tmAKPED</p>",,,,,,,,,,
html-keyboard-response,330,467141,0.0-14.0-0.79,613ab1e64acd61ebd0a7116d,650c16f0f2faf8d7a0d14c09,651c1c7f112212192e9db54b,null,null,"<p style=""font-size: 60px; font-family: BACS"">hAROKTmc</p>",,,,,,,,,,
html-keyboard-response,331,469579,0.0-15.0,613ab1e64acd61ebd0a7116d,650c16f0f2faf8d7a0d14c09,651c1c7f112212192e9db54b,2438, ,"<p>Great, you've seen the fourth block of words. You may now take a short break.</p>
      <p>Press the spacebar when you're ready to continue.</p>",,,,,,,,,,
html-keyboard-response,332,470591,0.0-16.0-0.0,613ab1e64acd61ebd0a7116d,650c16f0f2faf8d7a0d14c09,651c1c7f112212192e9db54b,null,null,"<p style=""font-size: 60px; font-family: BACS"">JmvmObLd</p>",,,,,,,,,,
html-keyboard-response,333,471599,0.0-16.0-0.1,613ab1e64acd61ebd0a7116d,650c16f0f2faf8d7a0d14c09,651c1c7f112212192e9db54b,null,null,"<p style=""font-size: 60px; font-family: BACS"">JmvmObLd</p>",,,,,,,,,,
html-keyboard-response,334,472607,0.0-16.0-0.2,613ab1e64acd61ebd0a7116d,650c16f0f2faf8d7a0d14c09,651c1c7f112212192e9db54b,null,null,"<p style=""font-size: 60px; font-family: BACS"">JmvmObLd</p>",,,,,,,,,,
html-keyboard-response,335,473616,0.0-16.0-0.3,613ab1e64acd61ebd0a7116d,650c16f0f2faf8d7a0d14c09,651c1c7f112212192e9db54b,null,null,"<p style=""font-size: 60px; font-family: BACS"">JmvmObLd</p>",,,,,,,,,,
html-keyboard-response,336,474619,0.0-16.0-0.4,613ab1e64acd61ebd0a7116d,650c16f0f2faf8d7a0d14c09,651c1c7f112212192e9db54b,null,null,"<p style=""font-size: 60px; font-family: BACS"">JmvmObLd</p>",,,,,,,,,,
html-keyboard-response,337,475624,0.0-16.0-0.5,613ab1e64acd61ebd0a7116d,650c16f0f2faf8d7a0d14c09,651c1c7f112212192e9db54b,null,null,"<p style=""font-size: 60px; font-family: BACS"">JmvmObLd</p>",,,,,,,,,,
html-keyboard-response,338,476633,0.0-16.0-0.6,613ab1e64acd61ebd0a7116d,650c16f0f2faf8d7a0d14c09,651c1c7f112212192e9db54b,null,null,"<p style=""font-size: 60px; font-family: BACS"">JmvmObLd</p>",,,,,,,,,,
html-keyboard-response,339,477638,0.0-16.0-0.7,613ab1e64acd61ebd0a7116d,650c16f0f2faf8d7a0d14c09,651c1c7f112212192e9db54b,null,null,"<p style=""font-size: 60px; font-family: BACS"">JmvmObLd</p>",,,,,,,,,,
html-keyboard-response,340,478654,0.0-16.0-0.8,613ab1e64acd61ebd0a7116d,650c16f0f2faf8d7a0d14c09,651c1c7f112212192e9db54b,null,null,"<p style=""font-size: 60px; font-family: BACS"">JmvmObLd</p>",,,,,,,,,,
html-keyboard-response,341,479671,0.0-16.0-0.9,613ab1e64acd61ebd0a7116d,650c16f0f2faf8d7a0d14c09,651c1c7f112212192e9db54b,null,null,"<p style=""font-size: 60px; font-family: BACS"">JmvmObLd</p>",,,,,,,,,,
html-keyboard-response,342,480680,0.0-16.0-0.10,613ab1e64acd61ebd0a7116d,650c16f0f2faf8d7a0d14c09,651c1c7f112212192e9db54b,null,null,"<p style=""font-size: 60px; font-family: BACS"">JmvmObLd</p>",,,,,,,,,,
html-keyboard-response,343,481683,0.0-16.0-0.11,613ab1e64acd61ebd0a7116d,650c16f0f2faf8d7a0d14c09,651c1c7f112212192e9db54b,null,null,"<p style=""font-size: 60px; font-family: BACS"">JmvmObLd</p>",,,,,,,,,,
html-keyboard-response,344,482699,0.0-16.0-0.12,613ab1e64acd61ebd0a7116d,650c16f0f2faf8d7a0d14c09,651c1c7f112212192e9db54b,null,null,"<p style=""font-size: 60px; font-family: BACS"">JmvmObLd</p>",,,,,,,,,,
html-keyboard-response,345,483714,0.0-16.0-0.13,613ab1e64acd61ebd0a7116d,650c16f0f2faf8d7a0d14c09,651c1c7f112212192e9db54b,null,null,"<p style=""font-size: 60px; font-family: BACS"">JmvmObLd</p>",,,,,,,,,,
html-keyboard-response,346,484719,0.0-16.0-0.14,613ab1e64acd61ebd0a7116d,650c16f0f2faf8d7a0d14c09,651c1c7f112212192e9db54b,null,null,"<p style=""font-size: 60px; font-family: BACS"">JmvmObLd</p>",,,,,,,,,,
html-keyboard-response,347,485735,0.0-16.0-0.15,613ab1e64acd61ebd0a7116d,650c16f0f2faf8d7a0d14c09,651c1c7f112212192e9db54b,null,null,"<p style=""font-size: 60px; font-family: BACS"">JmvmObLd</p>",,,,,,,,,,
html-keyboard-response,348,486745,0.0-16.0-0.16,613ab1e64acd61ebd0a7116d,650c16f0f2faf8d7a0d14c09,651c1c7f112212192e9db54b,null,null,"<p style=""font-size: 60px; font-family: BACS"">JmvmObLd</p>",,,,,,,,,,
html-keyboard-response,349,487747,0.0-16.0-0.17,613ab1e64acd61ebd0a7116d,650c16f0f2faf8d7a0d14c09,651c1c7f112212192e9db54b,null,null,"<p style=""font-size: 60px; font-family: BACS"">JmvmObLd</p>",,,,,,,,,,
html-keyboard-response,350,488753,0.0-16.0-0.18,613ab1e64acd61ebd0a7116d,650c16f0f2faf8d7a0d14c09,651c1c7f112212192e9db54b,null,null,"<p style=""font-size: 60px; font-family: BACS"">JmvmObLd</p>",,,,,,,,,,
html-keyboard-response,351,489756,0.0-16.0-0.19,613ab1e64acd61ebd0a7116d,650c16f0f2faf8d7a0d14c09,651c1c7f112212192e9db54b,null,null,"<p style=""font-size: 60px; font-family: BACS"">JmvmObLd</p>",,,,,,,,,,
html-keyboard-response,352,490763,0.0-16.0-0.20,613ab1e64acd61ebd0a7116d,650c16f0f2faf8d7a0d14c09,651c1c7f112212192e9db54b,null,null,"<p style=""font-size: 60px; font-family: BACS"">JmvmObLd</p>",,,,,,,,,,
html-keyboard-response,353,491770,0.0-16.0-0.21,613ab1e64acd61ebd0a7116d,650c16f0f2faf8d7a0d14c09,651c1c7f112212192e9db54b,null,null,"<p style=""font-size: 60px; font-family: BACS"">JmvmObLd</p>",,,,,,,,,,
html-keyboard-response,354,492778,0.0-16.0-0.22,613ab1e64acd61ebd0a7116d,650c16f0f2faf8d7a0d14c09,651c1c7f112212192e9db54b,null,null,"<p style=""font-size: 60px; font-family: BACS"">JmvmObLd</p>",,,,,,,,,,
html-keyboard-response,355,493794,0.0-16.0-0.23,613ab1e64acd61ebd0a7116d,650c16f0f2faf8d7a0d14c09,651c1c7f112212192e9db54b,null,null,"<p style=""font-size: 60px; font-family: BACS"">JmvmObLd</p>",,,,,,,,,,
html-keyboard-response,356,494810,0.0-16.0-0.24,613ab1e64acd61ebd0a7116d,650c16f0f2faf8d7a0d14c09,651c1c7f112212192e9db54b,null,null,"<p style=""font-size: 60px; font-family: BACS"">JmvmObLd</p>",,,,,,,,,,
html-keyboard-response,357,495812,0.0-16.0-0.25,613ab1e64acd61ebd0a7116d,650c16f0f2faf8d7a0d14c09,651c1c7f112212192e9db54b,null,null,"<p style=""font-size: 60px; font-family: BACS"">JmvmObLd</p>",,,,,,,,,,
html-keyboard-response,358,496829,0.0-16.0-0.26,613ab1e64acd61ebd0a7116d,650c16f0f2faf8d7a0d14c09,651c1c7f112212192e9db54b,null,null,"<p style=""font-size: 60px; font-family: BACS"">JmvmObLd</p>",,,,,,,,,,
html-keyboard-response,359,497832,0.0-16.0-0.27,613ab1e64acd61ebd0a7116d,650c16f0f2faf8d7a0d14c09,651c1c7f112212192e9db54b,null,null,"<p style=""font-size: 60px; font-family: BACS"">JmvmObLd</p>",,,,,,,,,,
html-keyboard-response,360,498847,0.0-16.0-0.28,613ab1e64acd61ebd0a7116d,650c16f0f2faf8d7a0d14c09,651c1c7f112212192e9db54b,null,null,"<p style=""font-size: 60px; font-family: BACS"">JmvmObLd</p>",,,,,,,,,,
html-keyboard-response,361,499857,0.0-16.0-0.29,613ab1e64acd61ebd0a7116d,650c16f0f2faf8d7a0d14c09,651c1c7f112212192e9db54b,null,null,"<p style=""font-size: 60px; font-family: BACS"">JmvmObLd</p>",,,,,,,,,,
html-keyboard-response,362,500870,0.0-16.0-0.30,613ab1e64acd61ebd0a7116d,650c16f0f2faf8d7a0d14c09,651c1c7f112212192e9db54b,null,null,"<p style=""font-size: 60px; font-family: BACS"">JmvmObLd</p>",,,,,,,,,,
html-keyboard-response,363,501883,0.0-16.0-0.31,613ab1e64acd61ebd0a7116d,650c16f0f2faf8d7a0d14c09,651c1c7f112212192e9db54b,null,null,"<p style=""font-size: 60px; font-family: BACS"">JmvmObLd</p>",,,,,,,,,,
html-keyboard-response,364,502893,0.0-16.0-0.32,613ab1e64acd61ebd0a7116d,650c16f0f2faf8d7a0d14c09,651c1c7f112212192e9db54b,null,null,"<p style=""font-size: 60px; font-family: BACS"">JmvmObLd</p>",,,,,,,,,,
html-keyboard-response,365,503901,0.0-16.0-0.33,613ab1e64acd61ebd0a7116d,650c16f0f2faf8d7a0d14c09,651c1c7f112212192e9db54b,null,null,"<p style=""font-size: 60px; font-family: BACS"">JmvmObLd</p>",,,,,,,,,,
html-keyboard-response,366,504911,0.0-16.0-0.34,613ab1e64acd61ebd0a7116d,650c16f0f2faf8d7a0d14c09,651c1c7f112212192e9db54b,null,null,"<p style=""font-size: 60px; font-family: BACS"">JmvmObLd</p>",,,,,,,,,,
html-keyboard-response,367,505913,0.0-16.0-0.35,613ab1e64acd61ebd0a7116d,650c16f0f2faf8d7a0d14c09,651c1c7f112212192e9db54b,null,null,"<p style=""font-size: 60px; font-family: BACS"">JmvmObLd</p>",,,,,,,,,,
html-keyboard-response,368,506918,0.0-16.0-0.36,613ab1e64acd61ebd0a7116d,650c16f0f2faf8d7a0d14c09,651c1c7f112212192e9db54b,null,null,"<p style=""font-size: 60px; font-family: BACS"">JmvmObLd</p>",,,,,,,,,,
html-keyboard-response,369,507932,0.0-16.0-0.37,613ab1e64acd61ebd0a7116d,650c16f0f2faf8d7a0d14c09,651c1c7f112212192e9db54b,null,null,"<p style=""font-size: 60px; font-family: BACS"">JmvmObLd</p>",,,,,,,,,,
html-keyboard-response,370,508949,0.0-16.0-0.38,613ab1e64acd61ebd0a7116d,650c16f0f2faf8d7a0d14c09,651c1c7f112212192e9db54b,null,null,"<p style=""font-size: 60px; font-family: BACS"">JmvmObLd</p>",,,,,,,,,,
html-keyboard-response,371,509957,0.0-16.0-0.39,613ab1e64acd61ebd0a7116d,650c16f0f2faf8d7a0d14c09,651c1c7f112212192e9db54b,null,null,"<p style=""font-size: 60px; font-family: BACS"">JmvmObLd</p>",,,,,,,,,,
html-keyboard-response,372,510958,0.0-16.0-0.40,613ab1e64acd61ebd0a7116d,650c16f0f2faf8d7a0d14c09,651c1c7f112212192e9db54b,null,null,"<p style=""font-size: 60px; font-family: BACS"">JmvmObLd</p>",,,,,,,,,,
html-keyboard-response,373,511964,0.0-16.0-0.41,613ab1e64acd61ebd0a7116d,650c16f0f2faf8d7a0d14c09,651c1c7f112212192e9db54b,null,null,"<p style=""font-size: 60px; font-family: BACS"">JmvmObLd</p>",,,,,,,,,,
html-keyboard-response,374,512980,0.0-16.0-0.42,613ab1e64acd61ebd0a7116d,650c16f0f2faf8d7a0d14c09,651c1c7f112212192e9db54b,null,null,"<p style=""font-size: 60px; font-family: BACS"">JmvmObLd</p>",,,,,,,,,,
html-keyboard-response,375,513991,0.0-16.0-0.43,613ab1e64acd61ebd0a7116d,650c16f0f2faf8d7a0d14c09,651c1c7f112212192e9db54b,null,null,"<p style=""font-size: 60px; font-family: BACS"">JmvmObLd</p>",,,,,,,,,,
html-keyboard-response,376,514998,0.0-16.0-0.44,613ab1e64acd61ebd0a7116d,650c16f0f2faf8d7a0d14c09,651c1c7f112212192e9db54b,null,null,"<p style=""font-size: 60px; font-family: BACS"">JmvmObLd</p>",,,,,,,,,,
html-keyboard-response,377,516014,0.0-16.0-0.45,613ab1e64acd61ebd0a7116d,650c16f0f2faf8d7a0d14c09,651c1c7f112212192e9db54b,null,null,"<p style=""font-size: 60px; font-family: BACS"">JmvmObLd</p>",,,,,,,,,,
html-keyboard-response,378,517023,0.0-16.0-0.46,613ab1e64acd61ebd0a7116d,650c16f0f2faf8d7a0d14c09,651c1c7f112212192e9db54b,null,null,"<p style=""font-size: 60px; font-family: BACS"">JmvmObLd</p>",,,,,,,,,,
html-keyboard-response,379,518040,0.0-16.0-0.47,613ab1e64acd61ebd0a7116d,650c16f0f2faf8d7a0d14c09,651c1c7f112212192e9db54b,null,null,"<p style=""font-size: 60px; font-family: BACS"">JmvmObLd</p>",,,,,,,,,,
html-keyboard-response,380,519048,0.0-16.0-0.48,613ab1e64acd61ebd0a7116d,650c16f0f2faf8d7a0d14c09,651c1c7f112212192e9db54b,null,null,"<p style=""font-size: 60px; font-family: BACS"">JmvmObLd</p>",,,,,,,,,,
html-keyboard-response,381,520064,0.0-16.0-0.49,613ab1e64acd61ebd0a7116d,650c16f0f2faf8d7a0d14c09,651c1c7f112212192e9db54b,null,null,"<p style=""font-size: 60px; font-family: BACS"">JmvmObLd</p>",,,,,,,,,,
html-keyboard-response,382,521073,0.0-16.0-0.50,613ab1e64acd61ebd0a7116d,650c16f0f2faf8d7a0d14c09,651c1c7f112212192e9db54b,null,null,"<p style=""font-size: 60px; font-family: BACS"">JmvmObLd</p>",,,,,,,,,,
html-keyboard-response,383,522089,0.0-16.0-0.51,613ab1e64acd61ebd0a7116d,650c16f0f2faf8d7a0d14c09,651c1c7f112212192e9db54b,null,null,"<p style=""font-size: 60px; font-family: BACS"">JmvmObLd</p>",,,,,,,,,,
html-keyboard-response,384,523107,0.0-16.0-0.52,613ab1e64acd61ebd0a7116d,650c16f0f2faf8d7a0d14c09,651c1c7f112212192e9db54b,null,null,"<p style=""font-size: 60px; font-family: BACS"">JmvmObLd</p>",,,,,,,,,,
html-keyboard-response,385,524122,0.0-16.0-0.53,613ab1e64acd61ebd0a7116d,650c16f0f2faf8d7a0d14c09,651c1c7f112212192e9db54b,null,null,"<p style=""font-size: 60px; font-family: BACS"">JmvmObLd</p>",,,,,,,,,,
html-keyboard-response,386,525124,0.0-16.0-0.54,613ab1e64acd61ebd0a7116d,650c16f0f2faf8d7a0d14c09,651c1c7f112212192e9db54b,null,null,"<p style=""font-size: 60px; font-family: BACS"">JmvmObLd</p>",,,,,,,,,,
html-keyboard-response,387,526138,0.0-16.0-0.55,613ab1e64acd61ebd0a7116d,650c16f0f2faf8d7a0d14c09,651c1c7f112212192e9db54b,null,null,"<p style=""font-size: 60px; font-family: BACS"">JmvmObLd</p>",,,,,,,,,,
html-keyboard-response,388,527144,0.0-16.0-0.56,613ab1e64acd61ebd0a7116d,650c16f0f2faf8d7a0d14c09,651c1c7f112212192e9db54b,null,null,"<p style=""font-size: 60px; font-family: BACS"">JmvmObLd</p>",,,,,,,,,,
html-keyboard-response,389,528161,0.0-16.0-0.57,613ab1e64acd61ebd0a7116d,650c16f0f2faf8d7a0d14c09,651c1c7f112212192e9db54b,null,null,"<p style=""font-size: 60px; font-family: BACS"">JmvmObLd</p>",,,,,,,,,,
html-keyboard-response,390,529178,0.0-16.0-0.58,613ab1e64acd61ebd0a7116d,650c16f0f2faf8d7a0d14c09,651c1c7f112212192e9db54b,null,null,"<p style=""font-size: 60px; font-family: BACS"">JmvmObLd</p>",,,,,,,,,,
html-keyboard-response,391,530187,0.0-16.0-0.59,613ab1e64acd61ebd0a7116d,650c16f0f2faf8d7a0d14c09,651c1c7f112212192e9db54b,null,null,"<p style=""font-size: 60px; font-family: BACS"">JmvmObLd</p>",,,,,,,,,,
html-keyboard-response,392,531189,0.0-16.0-0.60,613ab1e64acd61ebd0a7116d,650c16f0f2faf8d7a0d14c09,651c1c7f112212192e9db54b,null,null,"<p style=""font-size: 60px; font-family: BACS"">JmvmObLd</p>",,,,,,,,,,
html-keyboard-response,393,532204,0.0-16.0-0.61,613ab1e64acd61ebd0a7116d,650c16f0f2faf8d7a0d14c09,651c1c7f112212192e9db54b,null,null,"<p style=""font-size: 60px; font-family: BACS"">JmvmObLd</p>",,,,,,,,,,
html-keyboard-response,394,533205,0.0-16.0-0.62,613ab1e64acd61ebd0a7116d,650c16f0f2faf8d7a0d14c09,651c1c7f112212192e9db54b,null,null,"<p style=""font-size: 60px; font-family: BACS"">JmvmObLd</p>",,,,,,,,,,
html-keyboard-response,395,534212,0.0-16.0-0.63,613ab1e64acd61ebd0a7116d,650c16f0f2faf8d7a0d14c09,651c1c7f112212192e9db54b,null,null,"<p style=""font-size: 60px; font-family: BACS"">JmvmObLd</p>",,,,,,,,,,
html-keyboard-response,396,535214,0.0-16.0-0.64,613ab1e64acd61ebd0a7116d,650c16f0f2faf8d7a0d14c09,651c1c7f112212192e9db54b,null,null,"<p style=""font-size: 60px; font-family: BACS"">JmvmObLd</p>",,,,,,,,,,
html-keyboard-response,397,536225,0.0-16.0-0.65,613ab1e64acd61ebd0a7116d,650c16f0f2faf8d7a0d14c09,651c1c7f112212192e9db54b,null,null,"<p style=""font-size: 60px; font-family: BACS"">JmvmObLd</p>",,,,,,,,,,
html-keyboard-response,398,537240,0.0-16.0-0.66,613ab1e64acd61ebd0a7116d,650c16f0f2faf8d7a0d14c09,651c1c7f112212192e9db54b,null,null,"<p style=""font-size: 60px; font-family: BACS"">JmvmObLd</p>",,,,,,,,,,
html-keyboard-response,399,538252,0.0-16.0-0.67,613ab1e64acd61ebd0a7116d,650c16f0f2faf8d7a0d14c09,651c1c7f112212192e9db54b,null,null,"<p style=""font-size: 60px; font-family: BACS"">JmvmObLd</p>",,,,,,,,,,
html-keyboard-response,400,539262,0.0-16.0-0.68,613ab1e64acd61ebd0a7116d,650c16f0f2faf8d7a0d14c09,651c1c7f112212192e9db54b,null,null,"<p style=""font-size: 60px; font-family: BACS"">JmvmObLd</p>",,,,,,,,,,
html-keyboard-response,401,540269,0.0-16.0-0.69,613ab1e64acd61ebd0a7116d,650c16f0f2faf8d7a0d14c09,651c1c7f112212192e9db54b,null,null,"<p style=""font-size: 60px; font-family: BACS"">JmvmObLd</p>",,,,,,,,,,
html-keyboard-response,402,541283,0.0-16.0-0.70,613ab1e64acd61ebd0a7116d,650c16f0f2faf8d7a0d14c09,651c1c7f112212192e9db54b,null,null,"<p style=""font-size: 60px; font-family: BACS"">JmvmObLd</p>",,,,,,,,,,
html-keyboard-response,403,542289,0.0-16.0-0.71,613ab1e64acd61ebd0a7116d,650c16f0f2faf8d7a0d14c09,651c1c7f112212192e9db54b,null,null,"<p style=""font-size: 60px; font-family: BACS"">JmvmObLd</p>",,,,,,,,,,
html-keyboard-response,404,543299,0.0-16.0-0.72,613ab1e64acd61ebd0a7116d,650c16f0f2faf8d7a0d14c09,651c1c7f112212192e9db54b,null,null,"<p style=""font-size: 60px; font-family: BACS"">JmvmObLd</p>",,,,,,,,,,
html-keyboard-response,405,544302,0.0-16.0-0.73,613ab1e64acd61ebd0a7116d,650c16f0f2faf8d7a0d14c09,651c1c7f112212192e9db54b,null,null,"<p style=""font-size: 60px; font-family: BACS"">JmvmObLd</p>",,,,,,,,,,
html-keyboard-response,406,545306,0.0-16.0-0.74,613ab1e64acd61ebd0a7116d,650c16f0f2faf8d7a0d14c09,651c1c7f112212192e9db54b,null,null,"<p style=""font-size: 60px; font-family: BACS"">JmvmObLd</p>",,,,,,,,,,
html-keyboard-response,407,546310,0.0-16.0-0.75,613ab1e64acd61ebd0a7116d,650c16f0f2faf8d7a0d14c09,651c1c7f112212192e9db54b,null,null,"<p style=""font-size: 60px; font-family: BACS"">JmvmObLd</p>",,,,,,,,,,
html-keyboard-response,408,547318,0.0-16.0-0.76,613ab1e64acd61ebd0a7116d,650c16f0f2faf8d7a0d14c09,651c1c7f112212192e9db54b,null,null,"<p style=""font-size: 60px; font-family: BACS"">JmvmObLd</p>",,,,,,,,,,
html-keyboard-response,409,548334,0.0-16.0-0.77,613ab1e64acd61ebd0a7116d,650c16f0f2faf8d7a0d14c09,651c1c7f112212192e9db54b,null,null,"<p style=""font-size: 60px; font-family: BACS"">JmvmObLd</p>",,,,,,,,,,
html-keyboard-response,410,549337,0.0-16.0-0.78,613ab1e64acd61ebd0a7116d,650c16f0f2faf8d7a0d14c09,651c1c7f112212192e9db54b,null,null,"<p style=""font-size: 60px; font-family: BACS"">JmvmObLd</p>",,,,,,,,,,
html-keyboard-response,411,550351,0.0-16.0-0.79,613ab1e64acd61ebd0a7116d,650c16f0f2faf8d7a0d14c09,651c1c7f112212192e9db54b,null,null,"<p style=""font-size: 60px; font-family: BACS"">JmvmObLd</p>",,,,,,,,,,
html-keyboard-response,412,556328,0.0-17.0,613ab1e64acd61ebd0a7116d,650c16f0f2faf8d7a0d14c09,651c1c7f112212192e9db54b,5976, ,"<p>Great, you've seen the fifth block of words. You may now take a short break.</p>
      <p>Press the spacebar when you're ready to continue.</p>",,,,,,,,,,
html-keyboard-response,413,557338,0.0-18.0-0.0,613ab1e64acd61ebd0a7116d,650c16f0f2faf8d7a0d14c09,651c1c7f112212192e9db54b,null,null,"<p style=""font-size: 60px; font-family: BACS"">JAdLmYLU</p>",,,,,,,,,,
html-keyboard-response,414,558339,0.0-18.0-0.1,613ab1e64acd61ebd0a7116d,650c16f0f2faf8d7a0d14c09,651c1c7f112212192e9db54b,null,null,"<p style=""font-size: 60px; font-family: BACS"">OAblcQGb</p>",,,,,,,,,,
html-keyboard-response,415,559349,0.0-18.0-0.2,613ab1e64acd61ebd0a7116d,650c16f0f2faf8d7a0d14c09,651c1c7f112212192e9db54b,null,null,"<p style=""font-size: 60px; font-family: BACS"">RhPmMCkm</p>",,,,,,,,,,
html-keyboard-response,416,560358,0.0-18.0-0.3,613ab1e64acd61ebd0a7116d,650c16f0f2faf8d7a0d14c09,651c1c7f112212192e9db54b,null,null,"<p style=""font-size: 60px; font-family: BACS"">JNkaUdvY</p>",,,,,,,,,,
html-keyboard-response,417,561365,0.0-18.0-0.4,613ab1e64acd61ebd0a7116d,650c16f0f2faf8d7a0d14c09,651c1c7f112212192e9db54b,null,null,"<p style=""font-size: 60px; font-family: BACS"">YObATmc</p>",,,,,,,,,,
html-keyboard-response,418,562381,0.0-18.0-0.5,613ab1e64acd61ebd0a7116d,650c16f0f2faf8d7a0d14c09,651c1c7f112212192e9db54b,null,null,"<p style=""font-size: 60px; font-family: BACS"">YZJmUdvY</p>",,,,,,,,,,
html-keyboard-response,419,563387,0.0-18.0-0.6,613ab1e64acd61ebd0a7116d,650c16f0f2faf8d7a0d14c09,651c1c7f112212192e9db54b,null,null,"<p style=""font-size: 60px; font-family: BACS"">JmvmObLd</p>",,,,,,,,,,
html-keyboard-response,420,564403,0.0-18.0-0.7,613ab1e64acd61ebd0a7116d,650c16f0f2faf8d7a0d14c09,651c1c7f112212192e9db54b,null,null,"<p style=""font-size: 60px; font-family: BACS"">YObAMCkm</p>",,,,,,,,,,
html-keyboard-response,421,565406,0.0-18.0-0.8,613ab1e64acd61ebd0a7116d,650c16f0f2faf8d7a0d14c09,651c1c7f112212192e9db54b,null,null,"<p style=""font-size: 60px; font-family: BACS"">lcOcbLd</p>",,,,,,,,,,
html-keyboard-response,422,566416,0.0-18.0-0.9,613ab1e64acd61ebd0a7116d,650c16f0f2faf8d7a0d14c09,651c1c7f112212192e9db54b,null,null,"<p style=""font-size: 60px; font-family: BACS"">JmvmOUdvY</p>",,,,,,,,,,
html-keyboard-response,423,567420,0.0-18.0-0.10,613ab1e64acd61ebd0a7116d,650c16f0f2faf8d7a0d14c09,651c1c7f112212192e9db54b,null,null,"<p style=""font-size: 60px; font-family: BACS"">YZJmYArG</p>",,,,,,,,,,
html-keyboard-response,424,568421,0.0-18.0-0.11,613ab1e64acd61ebd0a7116d,650c16f0f2faf8d7a0d14c09,651c1c7f112212192e9db54b,null,null,"<p style=""font-size: 60px; font-family: BACS"">kdaAJQGb</p>",,,,,,,,,,
html-keyboard-response,425,569424,0.0-18.0-0.12,613ab1e64acd61ebd0a7116d,650c16f0f2faf8d7a0d14c09,651c1c7f112212192e9db54b,null,null,"<p style=""font-size: 60px; font-family: BACS"">RhPmMKmY</p>",,,,,,,,,,
html-keyboard-response,426,570440,0.0-18.0-0.13,613ab1e64acd61ebd0a7116d,650c16f0f2faf8d7a0d14c09,651c1c7f112212192e9db54b,null,null,"<p style=""font-size: 60px; font-family: BACS"">JNkaYArG</p>",,,,,,,,,,
html-keyboard-response,427,571447,0.0-18.0-0.14,613ab1e64acd61ebd0a7116d,650c16f0f2faf8d7a0d14c09,651c1c7f112212192e9db54b,null,null,"<p style=""font-size: 60px; font-family: BACS"">ECtbDOMC</p>",,,,,,,,,,
html-keyboard-response,428,572463,0.0-18.0-0.15,613ab1e64acd61ebd0a7116d,650c16f0f2faf8d7a0d14c09,651c1c7f112212192e9db54b,null,null,"<p style=""font-size: 60px; font-family: BACS"">hAROKMKmY</p>",,,,,,,,,,
html-keyboard-response,429,573479,0.0-18.0-0.16,613ab1e64acd61ebd0a7116d,650c16f0f2faf8d7a0d14c09,651c1c7f112212192e9db54b,null,null,"<p style=""font-size: 60px; font-family: BACS"">kulZQGb</p>",,,,,,,,,,
html-keyboard-response,430,574488,0.0-18.0-0.17,613ab1e64acd61ebd0a7116d,650c16f0f2faf8d7a0d14c09,651c1c7f112212192e9db54b,null,null,"<p style=""font-size: 60px; font-family: BACS"">mbZlUdvY</p>",,,,,,,,,,
html-keyboard-response,431,575496,0.0-18.0-0.18,613ab1e64acd61ebd0a7116d,650c16f0f2faf8d7a0d14c09,651c1c7f112212192e9db54b,null,null,"<p style=""font-size: 60px; font-family: BACS"">tmAKPED</p>",,,,,,,,,,
html-keyboard-response,432,576505,0.0-18.0-0.19,613ab1e64acd61ebd0a7116d,650c16f0f2faf8d7a0d14c09,651c1c7f112212192e9db54b,null,null,"<p style=""font-size: 60px; font-family: BACS"">DBPhcTmc</p>",,,,,,,,,,
html-keyboard-response,433,577521,0.0-18.0-0.20,613ab1e64acd61ebd0a7116d,650c16f0f2faf8d7a0d14c09,651c1c7f112212192e9db54b,null,null,"<p style=""font-size: 60px; font-family: BACS"">mbZlbLd</p>",,,,,,,,,,
html-keyboard-response,434,578531,0.0-18.0-0.21,613ab1e64acd61ebd0a7116d,650c16f0f2faf8d7a0d14c09,651c1c7f112212192e9db54b,null,null,"<p style=""font-size: 60px; font-family: BACS"">YObAPED</p>",,,,,,,,,,
html-keyboard-response,435,579536,0.0-18.0-0.22,613ab1e64acd61ebd0a7116d,650c16f0f2faf8d7a0d14c09,651c1c7f112212192e9db54b,null,null,"<p style=""font-size: 60px; font-family: BACS"">khmhMCkm</p>",,,,,,,,,,
html-keyboard-response,436,580552,0.0-18.0-0.23,613ab1e64acd61ebd0a7116d,650c16f0f2faf8d7a0d14c09,651c1c7f112212192e9db54b,null,null,"<p style=""font-size: 60px; font-family: BACS"">JNkaQGb</p>",,,,,,,,,,
html-keyboard-response,437,581566,0.0-18.0-0.24,613ab1e64acd61ebd0a7116d,650c16f0f2faf8d7a0d14c09,651c1c7f112212192e9db54b,null,null,"<p style=""font-size: 60px; font-family: BACS"">tmAKOMC</p>",,,,,,,,,,
html-keyboard-response,438,582569,0.0-18.0-0.25,613ab1e64acd61ebd0a7116d,650c16f0f2faf8d7a0d14c09,651c1c7f112212192e9db54b,null,null,"<p style=""font-size: 60px; font-family: BACS"">kulZYLU</p>",,,,,,,,,,
html-keyboard-response,439,583585,0.0-18.0-0.26,613ab1e64acd61ebd0a7116d,650c16f0f2faf8d7a0d14c09,651c1c7f112212192e9db54b,null,null,"<p style=""font-size: 60px; font-family: BACS"">ckdAmMKmY</p>",,,,,,,,,,
html-keyboard-response,440,584595,0.0-18.0-0.27,613ab1e64acd61ebd0a7116d,650c16f0f2faf8d7a0d14c09,651c1c7f112212192e9db54b,null,null,"<p style=""font-size: 60px; font-family: BACS"">khmhOMC</p>",,,,,,,,,,
html-keyboard-response,441,585602,0.0-18.0-0.28,613ab1e64acd61ebd0a7116d,650c16f0f2faf8d7a0d14c09,651c1c7f112212192e9db54b,null,null,"<p style=""font-size: 60px; font-family: BACS"">lcOcYArG</p>",,,,,,,,,,
html-keyboard-response,442,586612,0.0-18.0-0.29,613ab1e64acd61ebd0a7116d,650c16f0f2faf8d7a0d14c09,651c1c7f112212192e9db54b,null,null,"<p style=""font-size: 60px; font-family: BACS"">ECtbDPED</p>",,,,,,,,,,
html-keyboard-response,443,587630,0.0-18.0-0.30,613ab1e64acd61ebd0a7116d,650c16f0f2faf8d7a0d14c09,651c1c7f112212192e9db54b,null,null,"<p style=""font-size: 60px; font-family: BACS"">mbZlYLU</p>",,,,,,,,,,
html-keyboard-response,444,588647,0.0-18.0-0.31,613ab1e64acd61ebd0a7116d,650c16f0f2faf8d7a0d14c09,651c1c7f112212192e9db54b,null,null,"<p style=""font-size: 60px; font-family: BACS"">ckdAmMCkm</p>",,,,,,,,,,
html-keyboard-response,445,589660,0.0-18.0-0.32,613ab1e64acd61ebd0a7116d,650c16f0f2faf8d7a0d14c09,651c1c7f112212192e9db54b,null,null,"<p style=""font-size: 60px; font-family: BACS"">DBPhcPED</p>",,,,,,,,,,
html-keyboard-response,446,590670,0.0-18.0-0.33,613ab1e64acd61ebd0a7116d,650c16f0f2faf8d7a0d14c09,651c1c7f112212192e9db54b,null,null,"<p style=""font-size: 60px; font-family: BACS"">ktBdTmc</p>",,,,,,,,,,
html-keyboard-response,447,591684,0.0-18.0-0.34,613ab1e64acd61ebd0a7116d,650c16f0f2faf8d7a0d14c09,651c1c7f112212192e9db54b,null,null,"<p style=""font-size: 60px; font-family: BACS"">JNkabLd</p>",,,,,,,,,,
html-keyboard-response,448,592694,0.0-18.0-0.35,613ab1e64acd61ebd0a7116d,650c16f0f2faf8d7a0d14c09,651c1c7f112212192e9db54b,null,null,"<p style=""font-size: 60px; font-family: BACS"">YKRkMCkm</p>",,,,,,,,,,
html-keyboard-response,449,593709,0.0-18.0-0.36,613ab1e64acd61ebd0a7116d,650c16f0f2faf8d7a0d14c09,651c1c7f112212192e9db54b,null,null,"<p style=""font-size: 60px; font-family: BACS"">YJLcAYLU</p>",,,,,,,,,,
html-keyboard-response,450,594726,0.0-18.0-0.37,613ab1e64acd61ebd0a7116d,650c16f0f2faf8d7a0d14c09,651c1c7f112212192e9db54b,null,null,"<p style=""font-size: 60px; font-family: BACS"">ktBdMKmY</p>",,,,,,,,,,
html-keyboard-response,451,595741,0.0-18.0-0.38,613ab1e64acd61ebd0a7116d,650c16f0f2faf8d7a0d14c09,651c1c7f112212192e9db54b,null,null,"<p style=""font-size: 60px; font-family: BACS"">kulZYArG</p>",,,,,,,,,,
html-keyboard-response,452,596748,0.0-18.0-0.39,613ab1e64acd61ebd0a7116d,650c16f0f2faf8d7a0d14c09,651c1c7f112212192e9db54b,null,null,"<p style=""font-size: 60px; font-family: BACS"">DBPhcMKmY</p>",,,,,,,,,,
html-keyboard-response,453,597750,0.0-18.0-0.40,613ab1e64acd61ebd0a7116d,650c16f0f2faf8d7a0d14c09,651c1c7f112212192e9db54b,null,null,"<p style=""font-size: 60px; font-family: BACS"">RhPmPED</p>",,,,,,,,,,
html-keyboard-response,454,598759,0.0-18.0-0.41,613ab1e64acd61ebd0a7116d,650c16f0f2faf8d7a0d14c09,651c1c7f112212192e9db54b,null,null,"<p style=""font-size: 60px; font-family: BACS"">ckdAmOMC</p>",,,,,,,,,,
html-keyboard-response,455,599766,0.0-18.0-0.42,613ab1e64acd61ebd0a7116d,650c16f0f2faf8d7a0d14c09,651c1c7f112212192e9db54b,null,null,"<p style=""font-size: 60px; font-family: BACS"">YZJmYLU</p>",,,,,,,,,,
html-keyboard-response,456,600774,0.0-18.0-0.43,613ab1e64acd61ebd0a7116d,650c16f0f2faf8d7a0d14c09,651c1c7f112212192e9db54b,null,null,"<p style=""font-size: 60px; font-family: BACS"">YObAOMC</p>",,,,,,,,,,
html-keyboard-response,457,601788,0.0-18.0-0.44,613ab1e64acd61ebd0a7116d,650c16f0f2faf8d7a0d14c09,651c1c7f112212192e9db54b,null,null,"<p style=""font-size: 60px; font-family: BACS"">kdaAJYLU</p>",,,,,,,,,,
html-keyboard-response,458,602791,0.0-18.0-0.45,613ab1e64acd61ebd0a7116d,650c16f0f2faf8d7a0d14c09,651c1c7f112212192e9db54b,null,null,"<p style=""font-size: 60px; font-family: BACS"">YKRkPED</p>",,,,,,,,,,
html-keyboard-response,459,603794,0.0-18.0-0.46,613ab1e64acd61ebd0a7116d,650c16f0f2faf8d7a0d14c09,651c1c7f112212192e9db54b,null,null,"<p style=""font-size: 60px; font-family: BACS"">khmhMKmY</p>",,,,,,,,,,
html-keyboard-response,460,604807,0.0-18.0-0.47,613ab1e64acd61ebd0a7116d,650c16f0f2faf8d7a0d14c09,651c1c7f112212192e9db54b,null,null,"<p style=""font-size: 60px; font-family: BACS"">JAdLmbLd</p>",,,,,,,,,,
html-keyboard-response,461,605817,0.0-18.0-0.48,613ab1e64acd61ebd0a7116d,650c16f0f2faf8d7a0d14c09,651c1c7f112212192e9db54b,null,null,"<p style=""font-size: 60px; font-family: BACS"">lcOcQGb</p>",,,,,,,,,,
html-keyboard-response,462,606833,0.0-18.0-0.49,613ab1e64acd61ebd0a7116d,650c16f0f2faf8d7a0d14c09,651c1c7f112212192e9db54b,null,null,"<p style=""font-size: 60px; font-family: BACS"">OAblcYLU</p>",,,,,,,,,,
html-keyboard-response,463,607846,0.0-18.0-0.50,613ab1e64acd61ebd0a7116d,650c16f0f2faf8d7a0d14c09,651c1c7f112212192e9db54b,null,null,"<p style=""font-size: 60px; font-family: BACS"">ckdAmTmc</p>",,,,,,,,,,
html-keyboard-response,464,608857,0.0-18.0-0.51,613ab1e64acd61ebd0a7116d,650c16f0f2faf8d7a0d14c09,651c1c7f112212192e9db54b,null,null,"<p style=""font-size: 60px; font-family: BACS"">kulZUdvY</p>",,,,,,,,,,
html-keyboard-response,465,609864,0.0-18.0-0.52,613ab1e64acd61ebd0a7116d,650c16f0f2faf8d7a0d14c09,651c1c7f112212192e9db54b,null,null,"<p style=""font-size: 60px; font-family: BACS"">hAROKOMC</p>",,,,,,,,,,
html-keyboard-response,466,610874,0.0-18.0-0.53,613ab1e64acd61ebd0a7116d,650c16f0f2faf8d7a0d14c09,651c1c7f112212192e9db54b,null,null,"<p style=""font-size: 60px; font-family: BACS"">JmvmOYArG</p>",,,,,,,,,,
