trial_type,trial_index,time_elapsed,internal_node_id,subject_id,study_id,session_id,rt,response,stimulus,success,item,task,correct_response,testing_condition,correct,target,confound,name,view_history
pavlovia,0,1774,0.0-0.0,611e7d1295185bf6f56fd951,650c16f0f2faf8d7a0d14c09,651c0ad779d600d539e238f1,,,,,,,,,,,,,
survey-html-form,1,14499,0.0-1.0,611e7d1295185bf6f56fd951,650c16f0f2faf8d7a0d14c09,651c0ad779d600d539e238f1,12719,"{""ID"":""611e7d1295185bf6f56fd951""}",,,,,,,,,,,
html-keyboard-response,2,80369,0.0-2.0,611e7d1295185bf6f56fd951,650c16f0f2faf8d7a0d14c09,651c0ad779d600d539e238f1,65864, ,"<p style=""font-size: 15px;"">Before beginning, we ask that you read the consent information and confirm your agreement to participate in the experiment.</p>
      <p style=""font-size: 15px;""> We ask that you remember that this is a research project and that your participation is entirely voluntary. You can stop your participation at any time, without needing to provide any explanation. The study we're asking you to participate in aims at examining how readers process written words. You will be engaged in a session of apprximately 20 minutes, followed by a brief questionnaire. You will have the opportunity to take a few breaks during the experiment. You will be paid £4 for your participation, corresponding to a rate of £8/hour. While this experiment looks at cognitive faculties, this experiment doesn't constitute clinical proof of eventual pathologies.</p>
      <p style=""font-size: 15px;"">All of the information collected thanks to yours and others' participation will be held in a secure password-protected server, and will not be shared with anyone not authorised to view it. Your personal information will be kept with an arbitrary participant ID. Thanks to this data anonymity process, any researcher analysing the data won't be able to track the information back to a specific participant. Therefore, this process will make identifying you impossibile, even when results from the study will be published in scientific reviews, presented at congresses, or at any other public forum. More generally, the collected data will be treated in accordance with the laws on privacy and conformity to the Legislative Degree n. 196 ""Code regarding the protection of personal data"" of the 30th of June 2003 and to the European Regulation 2016/670 (General Data Protection Regulation - GDPR). The Data Protection Officer is Avv. Valentina Carollo, who can be contacted at the following email addresses: <a href=""mailto:dpo@sissa.it"">dpo@sissa.it</a> or <a href=""mailto:rpd@sissa.it"">rpd@sissa.it</a> - PEC: <a href=""mailto:protocollo@pec.sissa.it"">protocollo@pec.sissa.it</a>.</p>
      <p style=""font-size: 15px;""> Before expressing your consent to participate, we would like to remind you again that in case you need explanations on any aspect of the experimental procedure, the researcher is at your disposition (<a href=""mailto:aliebelt@sissa.it"">aliebelt@sissa.it</a>, <a href=""mailto:davide.crepaldi@sissa.it"">davide.crepaldi@sissa.it</a>).</p>
      <p style=""font-size: 15px;"">If you would like to download the informed consent form, you can do so here: <a href=""BASL-Informed_Consent.pdf"" download>informed consent form</a>.</p>
      <p style=""font-size: 15px;"">We ask that you press the spacebar to proceed to the consent section.</p>",,,,,,,,,,
survey-html-form,3,152990,0.0-3.0,611e7d1295185bf6f56fd951,650c16f0f2faf8d7a0d14c09,651c0ad779d600d539e238f1,72616,"{""consent1"":""YES"",""consent2"":""YES"",""consent3"":""YES"",""consent4"":""YES"",""consent5"":""YES"",""consent6"":""YES""}",,,,,,,,,,,
fullscreen,4,166134,0.0-4.0,611e7d1295185bf6f56fd951,650c16f0f2faf8d7a0d14c09,651c0ad779d600d539e238f1,,,,TRUE,,,,,,,,,
html-keyboard-response,5,209916,0.0-5.0,611e7d1295185bf6f56fd951,650c16f0f2faf8d7a0d14c09,651c0ad779d600d539e238f1,43777, ,"<p>Welcome, and thank you very much for your time!</p>
      <p>In this experiment, you'll be a language expert who's been asked to take a look at words that Earth has received in its first communication with aliens. Your task, in this first part of the experiment, is to pay close attention to the words you'll be shown; later, world leaders will ask you questions on what you saw. The words will be shown to you quite quickly; it seems that the aliens were in a hurry :-)</p>
      <p>Press the spacebar to continue.<p>",,,,,,,,,,
html-keyboard-response,6,209972,0.0-6.0,611e7d1295185bf6f56fd951,650c16f0f2faf8d7a0d14c09,651c0ad779d600d539e238f1,null,null,"<p style=""font-size: 120px; font-family: BACS""> </p>",,,,,,,,,,
html-keyboard-response,7,240101,0.0-7.0,611e7d1295185bf6f56fd951,650c16f0f2faf8d7a0d14c09,651c0ad779d600d539e238f1,30126, ,"<p>Here is an example of the words you'll see:</p>
      <img src='esempio.png' height='400px'>
      <p>When you're ready to begin, press the spacebar.</p></div>",,,,,,,,,,
html-keyboard-response,8,241112,0.0-8.0-0.0,611e7d1295185bf6f56fd951,650c16f0f2faf8d7a0d14c09,651c0ad779d600d539e238f1,null,null,"<p style=""font-size: 60px; font-family: BACS"">adYrcUZu</p>",,,,,,,,,,
html-keyboard-response,9,242115,0.0-8.0-0.1,611e7d1295185bf6f56fd951,650c16f0f2faf8d7a0d14c09,651c0ad779d600d539e238f1,null,null,"<p style=""font-size: 60px; font-family: BACS"">OdYPEKBO</p>",,,,,,,,,,
html-keyboard-response,10,243119,0.0-8.0-0.2,611e7d1295185bf6f56fd951,650c16f0f2faf8d7a0d14c09,651c0ad779d600d539e238f1,null,null,"<p style=""font-size: 60px; font-family: BACS"">aLNlkmkc</p>",,,,,,,,,,
html-keyboard-response,11,244125,0.0-8.0-0.3,611e7d1295185bf6f56fd951,650c16f0f2faf8d7a0d14c09,651c0ad779d600d539e238f1,null,null,"<p style=""font-size: 60px; font-family: BACS"">BOCRMbRC</p>",,,,,,,,,,
html-keyboard-response,12,245128,0.0-8.0-0.4,611e7d1295185bf6f56fd951,650c16f0f2faf8d7a0d14c09,651c0ad779d600d539e238f1,null,null,"<p style=""font-size: 60px; font-family: BACS"">QbkAcUdvY</p>",,,,,,,,,,
html-keyboard-response,13,246130,0.0-8.0-0.5,611e7d1295185bf6f56fd951,650c16f0f2faf8d7a0d14c09,651c0ad779d600d539e238f1,null,null,"<p style=""font-size: 60px; font-family: BACS"">cBROBYbBT</p>",,,,,,,,,,
html-keyboard-response,14,247132,0.0-8.0-0.6,611e7d1295185bf6f56fd951,650c16f0f2faf8d7a0d14c09,651c0ad779d600d539e238f1,null,null,"<p style=""font-size: 60px; font-family: BACS"">BOckPbRC</p>",,,,,,,,,,
html-keyboard-response,15,248133,0.0-8.0-0.7,611e7d1295185bf6f56fd951,650c16f0f2faf8d7a0d14c09,651c0ad779d600d539e238f1,null,null,"<p style=""font-size: 60px; font-family: BACS"">mBYlCMdP</p>",,,,,,,,,,
html-keyboard-response,16,249136,0.0-8.0-0.8,611e7d1295185bf6f56fd951,650c16f0f2faf8d7a0d14c09,651c0ad779d600d539e238f1,null,null,"<p style=""font-size: 60px; font-family: BACS"">mdkKbRC</p>",,,,,,,,,,
html-keyboard-response,17,250142,0.0-8.0-0.9,611e7d1295185bf6f56fd951,650c16f0f2faf8d7a0d14c09,651c0ad779d600d539e238f1,null,null,"<p style=""font-size: 60px; font-family: BACS"">kZUbmkc</p>",,,,,,,,,,
html-keyboard-response,18,251144,0.0-8.0-0.10,611e7d1295185bf6f56fd951,650c16f0f2faf8d7a0d14c09,651c0ad779d600d539e238f1,null,null,"<p style=""font-size: 60px; font-family: BACS"">COtBDbRC</p>",,,,,,,,,,
html-keyboard-response,19,252150,0.0-8.0-0.11,611e7d1295185bf6f56fd951,650c16f0f2faf8d7a0d14c09,651c0ad779d600d539e238f1,null,null,"<p style=""font-size: 60px; font-family: BACS"">adYrcUdvY</p>",,,,,,,,,,
html-keyboard-response,20,253153,0.0-8.0-0.12,611e7d1295185bf6f56fd951,650c16f0f2faf8d7a0d14c09,651c0ad779d600d539e238f1,null,null,"<p style=""font-size: 60px; font-family: BACS"">mdkKEKBO</p>",,,,,,,,,,
html-keyboard-response,21,254157,0.0-8.0-0.13,611e7d1295185bf6f56fd951,650c16f0f2faf8d7a0d14c09,651c0ad779d600d539e238f1,null,null,"<p style=""font-size: 60px; font-family: BACS"">rdLJaZvkL</p>",,,,,,,,,,
html-keyboard-response,22,255159,0.0-8.0-0.14,611e7d1295185bf6f56fd951,650c16f0f2faf8d7a0d14c09,651c0ad779d600d539e238f1,null,null,"<p style=""font-size: 60px; font-family: BACS"">COtBDCmYA</p>",,,,,,,,,,
html-keyboard-response,23,256162,0.0-8.0-0.15,611e7d1295185bf6f56fd951,650c16f0f2faf8d7a0d14c09,651c0ad779d600d539e238f1,null,null,"<p style=""font-size: 60px; font-family: BACS"">EYtYRbRC</p>",,,,,,,,,,
html-keyboard-response,24,257164,0.0-8.0-0.16,611e7d1295185bf6f56fd951,650c16f0f2faf8d7a0d14c09,651c0ad779d600d539e238f1,null,null,"<p style=""font-size: 60px; font-family: BACS"">OdYPYbBT</p>",,,,,,,,,,
html-keyboard-response,25,258167,0.0-8.0-0.17,611e7d1295185bf6f56fd951,650c16f0f2faf8d7a0d14c09,651c0ad779d600d539e238f1,null,null,"<p style=""font-size: 60px; font-family: BACS"">YJLcAmkc</p>",,,,,,,,,,
html-keyboard-response,26,259172,0.0-8.0-0.18,611e7d1295185bf6f56fd951,650c16f0f2faf8d7a0d14c09,651c0ad779d600d539e238f1,null,null,"<p style=""font-size: 60px; font-family: BACS"">OdYPCmYA</p>",,,,,,,,,,
html-keyboard-response,27,260174,0.0-8.0-0.19,611e7d1295185bf6f56fd951,650c16f0f2faf8d7a0d14c09,651c0ad779d600d539e238f1,null,null,"<p style=""font-size: 60px; font-family: BACS"">BOckPEKBO</p>",,,,,,,,,,
html-keyboard-response,28,261189,0.0-8.0-0.20,611e7d1295185bf6f56fd951,650c16f0f2faf8d7a0d14c09,651c0ad779d600d539e238f1,null,null,"<p style=""font-size: 60px; font-family: BACS"">rdLJamkc</p>",,,,,,,,,,
html-keyboard-response,29,262193,0.0-8.0-0.21,611e7d1295185bf6f56fd951,650c16f0f2faf8d7a0d14c09,651c0ad779d600d539e238f1,null,null,"<p style=""font-size: 60px; font-family: BACS"">BOCRMCMdP</p>",,,,,,,,,,
html-keyboard-response,30,263196,0.0-8.0-0.22,611e7d1295185bf6f56fd951,650c16f0f2faf8d7a0d14c09,651c0ad779d600d539e238f1,null,null,"<p style=""font-size: 60px; font-family: BACS"">mdkKYbBT</p>",,,,,,,,,,
html-keyboard-response,31,264199,0.0-8.0-0.23,611e7d1295185bf6f56fd951,650c16f0f2faf8d7a0d14c09,651c0ad779d600d539e238f1,null,null,"<p style=""font-size: 60px; font-family: BACS"">adYrcmkc</p>",,,,,,,,,,
html-keyboard-response,32,265201,0.0-8.0-0.24,611e7d1295185bf6f56fd951,650c16f0f2faf8d7a0d14c09,651c0ad779d600d539e238f1,null,null,"<p style=""font-size: 60px; font-family: BACS"">cBROBCMdP</p>",,,,,,,,,,
html-keyboard-response,33,266203,0.0-8.0-0.25,611e7d1295185bf6f56fd951,650c16f0f2faf8d7a0d14c09,651c0ad779d600d539e238f1,null,null,"<p style=""font-size: 60px; font-family: BACS"">bdUNuQvlZ</p>",,,,,,,,,,
html-keyboard-response,34,267210,0.0-8.0-0.26,611e7d1295185bf6f56fd951,650c16f0f2faf8d7a0d14c09,651c0ad779d600d539e238f1,null,null,"<p style=""font-size: 60px; font-family: BACS"">OdYPCMdP</p>",,,,,,,,,,
html-keyboard-response,35,268212,0.0-8.0-0.27,611e7d1295185bf6f56fd951,650c16f0f2faf8d7a0d14c09,651c0ad779d600d539e238f1,null,null,"<p style=""font-size: 60px; font-family: BACS"">COtBDEKBO</p>",,,,,,,,,,
html-keyboard-response,36,269213,0.0-8.0-0.28,611e7d1295185bf6f56fd951,650c16f0f2faf8d7a0d14c09,651c0ad779d600d539e238f1,null,null,"<p style=""font-size: 60px; font-family: BACS"">bdUNuUdvY</p>",,,,,,,,,,
html-keyboard-response,37,270215,0.0-8.0-0.29,611e7d1295185bf6f56fd951,650c16f0f2faf8d7a0d14c09,651c0ad779d600d539e238f1,null,null,"<p style=""font-size: 60px; font-family: BACS"">ckdAmEKBO</p>",,,,,,,,,,
html-keyboard-response,38,271217,0.0-8.0-0.30,611e7d1295185bf6f56fd951,650c16f0f2faf8d7a0d14c09,651c0ad779d600d539e238f1,null,null,"<p style=""font-size: 60px; font-family: BACS"">EYtYRCMdP</p>",,,,,,,,,,
html-keyboard-response,39,272220,0.0-8.0-0.31,611e7d1295185bf6f56fd951,650c16f0f2faf8d7a0d14c09,651c0ad779d600d539e238f1,null,null,"<p style=""font-size: 60px; font-family: BACS"">LAclAmkc</p>",,,,,,,,,,
html-keyboard-response,40,273226,0.0-8.0-0.32,611e7d1295185bf6f56fd951,650c16f0f2faf8d7a0d14c09,651c0ad779d600d539e238f1,null,null,"<p style=""font-size: 60px; font-family: BACS"">rdLJaUdvY</p>",,,,,,,,,,
html-keyboard-response,41,274227,0.0-8.0-0.33,611e7d1295185bf6f56fd951,650c16f0f2faf8d7a0d14c09,651c0ad779d600d539e238f1,null,null,"<p style=""font-size: 60px; font-family: BACS"">aLNlkUZu</p>",,,,,,,,,,
html-keyboard-response,42,275241,0.0-8.0-0.34,611e7d1295185bf6f56fd951,650c16f0f2faf8d7a0d14c09,651c0ad779d600d539e238f1,null,null,"<p style=""font-size: 60px; font-family: BACS"">kZUbZvkL</p>",,,,,,,,,,
html-keyboard-response,43,276251,0.0-8.0-0.35,611e7d1295185bf6f56fd951,650c16f0f2faf8d7a0d14c09,651c0ad779d600d539e238f1,null,null,"<p style=""font-size: 60px; font-family: BACS"">cBROBbRC</p>",,,,,,,,,,
html-keyboard-response,44,277252,0.0-8.0-0.36,611e7d1295185bf6f56fd951,650c16f0f2faf8d7a0d14c09,651c0ad779d600d539e238f1,null,null,"<p style=""font-size: 60px; font-family: BACS"">mBYlYbBT</p>",,,,,,,,,,
html-keyboard-response,45,278262,0.0-8.0-0.37,611e7d1295185bf6f56fd951,650c16f0f2faf8d7a0d14c09,651c0ad779d600d539e238f1,null,null,"<p style=""font-size: 60px; font-family: BACS"">aNYmbUdvY</p>",,,,,,,,,,
html-keyboard-response,46,279264,0.0-8.0-0.38,611e7d1295185bf6f56fd951,650c16f0f2faf8d7a0d14c09,651c0ad779d600d539e238f1,null,null,"<p style=""font-size: 60px; font-family: BACS"">QbkAcUZu</p>",,,,,,,,,,
html-keyboard-response,47,280265,0.0-8.0-0.39,611e7d1295185bf6f56fd951,650c16f0f2faf8d7a0d14c09,651c0ad779d600d539e238f1,null,null,"<p style=""font-size: 60px; font-family: BACS"">mdkKCMdP</p>",,,,,,,,,,
html-keyboard-response,48,281267,0.0-8.0-0.40,611e7d1295185bf6f56fd951,650c16f0f2faf8d7a0d14c09,651c0ad779d600d539e238f1,null,null,"<p style=""font-size: 60px; font-family: BACS"">mBYlEKBO</p>",,,,,,,,,,
html-keyboard-response,49,282269,0.0-8.0-0.41,611e7d1295185bf6f56fd951,650c16f0f2faf8d7a0d14c09,651c0ad779d600d539e238f1,null,null,"<p style=""font-size: 60px; font-family: BACS"">TdmACMdP</p>",,,,,,,,,,
html-keyboard-response,50,283272,0.0-8.0-0.42,611e7d1295185bf6f56fd951,650c16f0f2faf8d7a0d14c09,651c0ad779d600d539e238f1,null,null,"<p style=""font-size: 60px; font-family: BACS"">bdUNuUZu</p>",,,,,,,,,,
html-keyboard-response,51,284274,0.0-8.0-0.43,611e7d1295185bf6f56fd951,650c16f0f2faf8d7a0d14c09,651c0ad779d600d539e238f1,null,null,"<p style=""font-size: 60px; font-family: BACS"">kZUbUdvY</p>",,,,,,,,,,
html-keyboard-response,52,285276,0.0-8.0-0.44,611e7d1295185bf6f56fd951,650c16f0f2faf8d7a0d14c09,651c0ad779d600d539e238f1,null,null,"<p style=""font-size: 60px; font-family: BACS"">JmNkQvlZ</p>",,,,,,,,,,
html-keyboard-response,53,286279,0.0-8.0-0.45,611e7d1295185bf6f56fd951,650c16f0f2faf8d7a0d14c09,651c0ad779d600d539e238f1,null,null,"<p style=""font-size: 60px; font-family: BACS"">aLNlkUdvY</p>",,,,,,,,,,
html-keyboard-response,54,287281,0.0-8.0-0.46,611e7d1295185bf6f56fd951,650c16f0f2faf8d7a0d14c09,651c0ad779d600d539e238f1,null,null,"<p style=""font-size: 60px; font-family: BACS"">BOCRMCmYA</p>",,,,,,,,,,
html-keyboard-response,55,288283,0.0-8.0-0.47,611e7d1295185bf6f56fd951,650c16f0f2faf8d7a0d14c09,651c0ad779d600d539e238f1,null,null,"<p style=""font-size: 60px; font-family: BACS"">JmNkZvkL</p>",,,,,,,,,,
html-keyboard-response,56,289285,0.0-8.0-0.48,611e7d1295185bf6f56fd951,650c16f0f2faf8d7a0d14c09,651c0ad779d600d539e238f1,null,null,"<p style=""font-size: 60px; font-family: BACS"">ckdAmCmYA</p>",,,,,,,,,,
html-keyboard-response,57,290291,0.0-8.0-0.49,611e7d1295185bf6f56fd951,650c16f0f2faf8d7a0d14c09,651c0ad779d600d539e238f1,null,null,"<p style=""font-size: 60px; font-family: BACS"">TdmAbRC</p>",,,,,,,,,,
html-keyboard-response,58,291292,0.0-8.0-0.50,611e7d1295185bf6f56fd951,650c16f0f2faf8d7a0d14c09,651c0ad779d600d539e238f1,null,null,"<p style=""font-size: 60px; font-family: BACS"">LAclAQvlZ</p>",,,,,,,,,,
html-keyboard-response,59,292295,0.0-8.0-0.51,611e7d1295185bf6f56fd951,650c16f0f2faf8d7a0d14c09,651c0ad779d600d539e238f1,null,null,"<p style=""font-size: 60px; font-family: BACS"">TdmACmYA</p>",,,,,,,,,,
html-keyboard-response,60,293297,0.0-8.0-0.52,611e7d1295185bf6f56fd951,650c16f0f2faf8d7a0d14c09,651c0ad779d600d539e238f1,null,null,"<p style=""font-size: 60px; font-family: BACS"">BOCRMYbBT</p>",,,,,,,,,,
html-keyboard-response,61,294300,0.0-8.0-0.53,611e7d1295185bf6f56fd951,650c16f0f2faf8d7a0d14c09,651c0ad779d600d539e238f1,null,null,"<p style=""font-size: 60px; font-family: BACS"">aNYmbQvlZ</p>",,,,,,,,,,
html-keyboard-response,62,295302,0.0-8.0-0.54,611e7d1295185bf6f56fd951,650c16f0f2faf8d7a0d14c09,651c0ad779d600d539e238f1,null,null,"<p style=""font-size: 60px; font-family: BACS"">adYrcZvkL</p>",,,,,,,,,,
html-keyboard-response,63,296309,0.0-8.0-0.55,611e7d1295185bf6f56fd951,650c16f0f2faf8d7a0d14c09,651c0ad779d600d539e238f1,null,null,"<p style=""font-size: 60px; font-family: BACS"">bdUNumkc</p>",,,,,,,,,,
html-keyboard-response,64,297312,0.0-8.0-0.56,611e7d1295185bf6f56fd951,650c16f0f2faf8d7a0d14c09,651c0ad779d600d539e238f1,null,null,"<p style=""font-size: 60px; font-family: BACS"">mBYlCmYA</p>",,,,,,,,,,
html-keyboard-response,65,298323,0.0-8.0-0.57,611e7d1295185bf6f56fd951,650c16f0f2faf8d7a0d14c09,651c0ad779d600d539e238f1,null,null,"<p style=""font-size: 60px; font-family: BACS"">TdmAEKBO</p>",,,,,,,,,,
html-keyboard-response,66,299326,0.0-8.0-0.58,611e7d1295185bf6f56fd951,650c16f0f2faf8d7a0d14c09,651c0ad779d600d539e238f1,null,null,"<p style=""font-size: 60px; font-family: BACS"">QbkAcZvkL</p>",,,,,,,,,,
html-keyboard-response,67,300329,0.0-8.0-0.59,611e7d1295185bf6f56fd951,650c16f0f2faf8d7a0d14c09,651c0ad779d600d539e238f1,null,null,"<p style=""font-size: 60px; font-family: BACS"">aNYmbUZu</p>",,,,,,,,,,
html-keyboard-response,68,301331,0.0-8.0-0.60,611e7d1295185bf6f56fd951,650c16f0f2faf8d7a0d14c09,651c0ad779d600d539e238f1,null,null,"<p style=""font-size: 60px; font-family: BACS"">LAclAZvkL</p>",,,,,,,,,,
html-keyboard-response,69,302333,0.0-8.0-0.61,611e7d1295185bf6f56fd951,650c16f0f2faf8d7a0d14c09,651c0ad779d600d539e238f1,null,null,"<p style=""font-size: 60px; font-family: BACS"">cBROBEKBO</p>",,,,,,,,,,
html-keyboard-response,70,303335,0.0-8.0-0.62,611e7d1295185bf6f56fd951,650c16f0f2faf8d7a0d14c09,651c0ad779d600d539e238f1,null,null,"<p style=""font-size: 60px; font-family: BACS"">ckdAmYbBT</p>",,,,,,,,,,
html-keyboard-response,71,304337,0.0-8.0-0.63,611e7d1295185bf6f56fd951,650c16f0f2faf8d7a0d14c09,651c0ad779d600d539e238f1,null,null,"<p style=""font-size: 60px; font-family: BACS"">LAclAUdvY</p>",,,,,,,,,,
html-keyboard-response,72,305341,0.0-8.0-0.64,611e7d1295185bf6f56fd951,650c16f0f2faf8d7a0d14c09,651c0ad779d600d539e238f1,null,null,"<p style=""font-size: 60px; font-family: BACS"">kZUbUZu</p>",,,,,,,,,,
html-keyboard-response,73,306343,0.0-8.0-0.65,611e7d1295185bf6f56fd951,650c16f0f2faf8d7a0d14c09,651c0ad779d600d539e238f1,null,null,"<p style=""font-size: 60px; font-family: BACS"">aLNlkQvlZ</p>",,,,,,,,,,
html-keyboard-response,74,307345,0.0-8.0-0.66,611e7d1295185bf6f56fd951,650c16f0f2faf8d7a0d14c09,651c0ad779d600d539e238f1,null,null,"<p style=""font-size: 60px; font-family: BACS"">aNYmbZvkL</p>",,,,,,,,,,
html-keyboard-response,75,308349,0.0-8.0-0.67,611e7d1295185bf6f56fd951,650c16f0f2faf8d7a0d14c09,651c0ad779d600d539e238f1,null,null,"<p style=""font-size: 60px; font-family: BACS"">EYtYRYbBT</p>",,,,,,,,,,
html-keyboard-response,76,309353,0.0-8.0-0.68,611e7d1295185bf6f56fd951,650c16f0f2faf8d7a0d14c09,651c0ad779d600d539e238f1,null,null,"<p style=""font-size: 60px; font-family: BACS"">QbkAcQvlZ</p>",,,,,,,,,,
html-keyboard-response,77,310354,0.0-8.0-0.69,611e7d1295185bf6f56fd951,650c16f0f2faf8d7a0d14c09,651c0ad779d600d539e238f1,null,null,"<p style=""font-size: 60px; font-family: BACS"">YJLcAUZu</p>",,,,,,,,,,
html-keyboard-response,78,311357,0.0-8.0-0.70,611e7d1295185bf6f56fd951,650c16f0f2faf8d7a0d14c09,651c0ad779d600d539e238f1,null,null,"<p style=""font-size: 60px; font-family: BACS"">BOckPCMdP</p>",,,,,,,,,,
html-keyboard-response,79,312359,0.0-8.0-0.71,611e7d1295185bf6f56fd951,650c16f0f2faf8d7a0d14c09,651c0ad779d600d539e238f1,null,null,"<p style=""font-size: 60px; font-family: BACS"">ckdAmbRC</p>",,,,,,,,,,
html-keyboard-response,80,313362,0.0-8.0-0.72,611e7d1295185bf6f56fd951,650c16f0f2faf8d7a0d14c09,651c0ad779d600d539e238f1,null,null,"<p style=""font-size: 60px; font-family: BACS"">rdLJaQvlZ</p>",,,,,,,,,,
html-keyboard-response,81,314364,0.0-8.0-0.73,611e7d1295185bf6f56fd951,650c16f0f2faf8d7a0d14c09,651c0ad779d600d539e238f1,null,null,"<p style=""font-size: 60px; font-family: BACS"">EYtYRCmYA</p>",,,,,,,,,,
html-keyboard-response,82,315366,0.0-8.0-0.74,611e7d1295185bf6f56fd951,650c16f0f2faf8d7a0d14c09,651c0ad779d600d539e238f1,null,null,"<p style=""font-size: 60px; font-family: BACS"">COtBDYbBT</p>",,,,,,,,,,
html-keyboard-response,83,316373,0.0-8.0-0.75,611e7d1295185bf6f56fd951,650c16f0f2faf8d7a0d14c09,651c0ad779d600d539e238f1,null,null,"<p style=""font-size: 60px; font-family: BACS"">BOckPCmYA</p>",,,,,,,,,,
html-keyboard-response,84,317375,0.0-8.0-0.76,611e7d1295185bf6f56fd951,650c16f0f2faf8d7a0d14c09,651c0ad779d600d539e238f1,null,null,"<p style=""font-size: 60px; font-family: BACS"">JmNkUZu</p>",,,,,,,,,,
html-keyboard-response,85,318379,0.0-8.0-0.77,611e7d1295185bf6f56fd951,650c16f0f2faf8d7a0d14c09,651c0ad779d600d539e238f1,null,null,"<p style=""font-size: 60px; font-family: BACS"">YJLcAZvkL</p>",,,,,,,,,,
html-keyboard-response,86,319381,0.0-8.0-0.78,611e7d1295185bf6f56fd951,650c16f0f2faf8d7a0d14c09,651c0ad779d600d539e238f1,null,null,"<p style=""font-size: 60px; font-family: BACS"">JmNkmkc</p>",,,,,,,,,,
html-keyboard-response,87,320383,0.0-8.0-0.79,611e7d1295185bf6f56fd951,650c16f0f2faf8d7a0d14c09,651c0ad779d600d539e238f1,null,null,"<p style=""font-size: 60px; font-family: BACS"">YJLcAQvlZ</p>",,,,,,,,,,
html-keyboard-response,88,561449,0.0-9.0,611e7d1295185bf6f56fd951,650c16f0f2faf8d7a0d14c09,651c0ad779d600d539e238f1,241063, ,"<p>Great, you've seen the first block of words. You may now take a short break.</p>
      <p>Press the spacebar when you're ready to continue.</p>",,,,,,,,,,
html-keyboard-response,89,562452,0.0-10.0-0.0,611e7d1295185bf6f56fd951,650c16f0f2faf8d7a0d14c09,651c0ad779d600d539e238f1,null,null,"<p style=""font-size: 60px; font-family: BACS"">OdYPEKBO</p>",,,,,,,,,,
html-keyboard-response,90,563455,0.0-10.0-0.1,611e7d1295185bf6f56fd951,650c16f0f2faf8d7a0d14c09,651c0ad779d600d539e238f1,null,null,"<p style=""font-size: 60px; font-family: BACS"">bdUNumkc</p>",,,,,,,,,,
html-keyboard-response,91,564458,0.0-10.0-0.2,611e7d1295185bf6f56fd951,650c16f0f2faf8d7a0d14c09,651c0ad779d600d539e238f1,null,null,"<p style=""font-size: 60px; font-family: BACS"">BOCRMCmYA</p>",,,,,,,,,,
html-keyboard-response,92,565462,0.0-10.0-0.3,611e7d1295185bf6f56fd951,650c16f0f2faf8d7a0d14c09,651c0ad779d600d539e238f1,null,null,"<p style=""font-size: 60px; font-family: BACS"">aNYmbUZu</p>",,,,,,,,,,
html-keyboard-response,93,566467,0.0-10.0-0.4,611e7d1295185bf6f56fd951,650c16f0f2faf8d7a0d14c09,651c0ad779d600d539e238f1,null,null,"<p style=""font-size: 60px; font-family: BACS"">BOCRMCMdP</p>",,,,,,,,,,
html-keyboard-response,94,567469,0.0-10.0-0.5,611e7d1295185bf6f56fd951,650c16f0f2faf8d7a0d14c09,651c0ad779d600d539e238f1,null,null,"<p style=""font-size: 60px; font-family: BACS"">rdLJaZvkL</p>",,,,,,,,,,
html-keyboard-response,95,568472,0.0-10.0-0.6,611e7d1295185bf6f56fd951,650c16f0f2faf8d7a0d14c09,651c0ad779d600d539e238f1,null,null,"<p style=""font-size: 60px; font-family: BACS"">cBROBCMdP</p>",,,,,,,,,,
html-keyboard-response,96,569475,0.0-10.0-0.7,611e7d1295185bf6f56fd951,650c16f0f2faf8d7a0d14c09,651c0ad779d600d539e238f1,null,null,"<p style=""font-size: 60px; font-family: BACS"">EYtYRYbBT</p>",,,,,,,,,,
html-keyboard-response,97,570477,0.0-10.0-0.8,611e7d1295185bf6f56fd951,650c16f0f2faf8d7a0d14c09,651c0ad779d600d539e238f1,null,null,"<p style=""font-size: 60px; font-family: BACS"">aLNlkUdvY</p>",,,,,,,,,,
html-keyboard-response,98,571480,0.0-10.0-0.9,611e7d1295185bf6f56fd951,650c16f0f2faf8d7a0d14c09,651c0ad779d600d539e238f1,null,null,"<p style=""font-size: 60px; font-family: BACS"">OdYPCmYA</p>",,,,,,,,,,
html-keyboard-response,99,572483,0.0-10.0-0.10,611e7d1295185bf6f56fd951,650c16f0f2faf8d7a0d14c09,651c0ad779d600d539e238f1,null,null,"<p style=""font-size: 60px; font-family: BACS"">QbkAcQvlZ</p>",,,,,,,,,,
html-keyboard-response,100,573487,0.0-10.0-0.11,611e7d1295185bf6f56fd951,650c16f0f2faf8d7a0d14c09,651c0ad779d600d539e238f1,null,null,"<p style=""font-size: 60px; font-family: BACS"">aNYmbUdvY</p>",,,,,,,,,,
html-keyboard-response,101,574489,0.0-10.0-0.12,611e7d1295185bf6f56fd951,650c16f0f2faf8d7a0d14c09,651c0ad779d600d539e238f1,null,null,"<p style=""font-size: 60px; font-family: BACS"">adYrcmkc</p>",,,,,,,,,,
html-keyboard-response,102,575492,0.0-10.0-0.13,611e7d1295185bf6f56fd951,650c16f0f2faf8d7a0d14c09,651c0ad779d600d539e238f1,null,null,"<p style=""font-size: 60px; font-family: BACS"">COtBDYbBT</p>",,,,,,,,,,
html-keyboard-response,103,576494,0.0-10.0-0.14,611e7d1295185bf6f56fd951,650c16f0f2faf8d7a0d14c09,651c0ad779d600d539e238f1,null,null,"<p style=""font-size: 60px; font-family: BACS"">kZUbUdvY</p>",,,,,,,,,,
html-keyboard-response,104,577500,0.0-10.0-0.15,611e7d1295185bf6f56fd951,650c16f0f2faf8d7a0d14c09,651c0ad779d600d539e238f1,null,null,"<p style=""font-size: 60px; font-family: BACS"">QbkAcZvkL</p>",,,,,,,,,,
html-keyboard-response,105,578505,0.0-10.0-0.16,611e7d1295185bf6f56fd951,650c16f0f2faf8d7a0d14c09,651c0ad779d600d539e238f1,null,null,"<p style=""font-size: 60px; font-family: BACS"">ckdAmbRC</p>",,,,,,,,,,
html-keyboard-response,106,579508,0.0-10.0-0.17,611e7d1295185bf6f56fd951,650c16f0f2faf8d7a0d14c09,651c0ad779d600d539e238f1,null,null,"<p style=""font-size: 60px; font-family: BACS"">aLNlkUZu</p>",,,,,,,,,,
html-keyboard-response,107,580511,0.0-10.0-0.18,611e7d1295185bf6f56fd951,650c16f0f2faf8d7a0d14c09,651c0ad779d600d539e238f1,null,null,"<p style=""font-size: 60px; font-family: BACS"">BOckPCMdP</p>",,,,,,,,,,
html-keyboard-response,108,581514,0.0-10.0-0.19,611e7d1295185bf6f56fd951,650c16f0f2faf8d7a0d14c09,651c0ad779d600d539e238f1,null,null,"<p style=""font-size: 60px; font-family: BACS"">TdmACmYA</p>",,,,,,,,,,
html-keyboard-response,109,582518,0.0-10.0-0.20,611e7d1295185bf6f56fd951,650c16f0f2faf8d7a0d14c09,651c0ad779d600d539e238f1,null,null,"<p style=""font-size: 60px; font-family: BACS"">LAclAmkc</p>",,,,,,,,,,
html-keyboard-response,110,583531,0.0-10.0-0.21,611e7d1295185bf6f56fd951,650c16f0f2faf8d7a0d14c09,651c0ad779d600d539e238f1,null,null,"<p style=""font-size: 60px; font-family: BACS"">rdLJaUdvY</p>",,,,,,,,,,
html-keyboard-response,111,584537,0.0-10.0-0.22,611e7d1295185bf6f56fd951,650c16f0f2faf8d7a0d14c09,651c0ad779d600d539e238f1,null,null,"<p style=""font-size: 60px; font-family: BACS"">COtBDbRC</p>",,,,,,,,,,
html-keyboard-response,112,585542,0.0-10.0-0.23,611e7d1295185bf6f56fd951,650c16f0f2faf8d7a0d14c09,651c0ad779d600d539e238f1,null,null,"<p style=""font-size: 60px; font-family: BACS"">bdUNuQvlZ</p>",,,,,,,,,,
html-keyboard-response,113,586553,0.0-10.0-0.24,611e7d1295185bf6f56fd951,650c16f0f2faf8d7a0d14c09,651c0ad779d600d539e238f1,null,null,"<p style=""font-size: 60px; font-family: BACS"">TdmACMdP</p>",,,,,,,,,,
html-keyboard-response,114,587557,0.0-10.0-0.25,611e7d1295185bf6f56fd951,650c16f0f2faf8d7a0d14c09,651c0ad779d600d539e238f1,null,null,"<p style=""font-size: 60px; font-family: BACS"">BOckPCmYA</p>",,,,,,,,,,
html-keyboard-response,115,588561,0.0-10.0-0.26,611e7d1295185bf6f56fd951,650c16f0f2faf8d7a0d14c09,651c0ad779d600d539e238f1,null,null,"<p style=""font-size: 60px; font-family: BACS"">LAclAZvkL</p>",,,,,,,,,,
html-keyboard-response,116,589563,0.0-10.0-0.27,611e7d1295185bf6f56fd951,650c16f0f2faf8d7a0d14c09,651c0ad779d600d539e238f1,null,null,"<p style=""font-size: 60px; font-family: BACS"">BOckPEKBO</p>",,,,,,,,,,
html-keyboard-response,117,590567,0.0-10.0-0.28,611e7d1295185bf6f56fd951,650c16f0f2faf8d7a0d14c09,651c0ad779d600d539e238f1,null,null,"<p style=""font-size: 60px; font-family: BACS"">LAclAQvlZ</p>",,,,,,,,,,
html-keyboard-response,118,591569,0.0-10.0-0.29,611e7d1295185bf6f56fd951,650c16f0f2faf8d7a0d14c09,651c0ad779d600d539e238f1,null,null,"<p style=""font-size: 60px; font-family: BACS"">bdUNuUZu</p>",,,,,,,,,,
html-keyboard-response,119,592571,0.0-10.0-0.30,611e7d1295185bf6f56fd951,650c16f0f2faf8d7a0d14c09,651c0ad779d600d539e238f1,null,null,"<p style=""font-size: 60px; font-family: BACS"">EYtYRbRC</p>",,,,,,,,,,
html-keyboard-response,120,593574,0.0-10.0-0.31,611e7d1295185bf6f56fd951,650c16f0f2faf8d7a0d14c09,651c0ad779d600d539e238f1,null,null,"<p style=""font-size: 60px; font-family: BACS"">adYrcZvkL</p>",,,,,,,,,,
html-keyboard-response,121,594577,0.0-10.0-0.32,611e7d1295185bf6f56fd951,650c16f0f2faf8d7a0d14c09,651c0ad779d600d539e238f1,null,null,"<p style=""font-size: 60px; font-family: BACS"">aLNlkQvlZ</p>",,,,,,,,,,
html-keyboard-response,122,595579,0.0-10.0-0.33,611e7d1295185bf6f56fd951,650c16f0f2faf8d7a0d14c09,651c0ad779d600d539e238f1,null,null,"<p style=""font-size: 60px; font-family: BACS"">QbkAcUZu</p>",,,,,,,,,,
html-keyboard-response,123,596585,0.0-10.0-0.34,611e7d1295185bf6f56fd951,650c16f0f2faf8d7a0d14c09,651c0ad779d600d539e238f1,null,null,"<p style=""font-size: 60px; font-family: BACS"">OdYPCMdP</p>",,,,,,,,,,
html-keyboard-response,124,597588,0.0-10.0-0.35,611e7d1295185bf6f56fd951,650c16f0f2faf8d7a0d14c09,651c0ad779d600d539e238f1,null,null,"<p style=""font-size: 60px; font-family: BACS"">JmNkmkc</p>",,,,,,,,,,
html-keyboard-response,125,598592,0.0-10.0-0.36,611e7d1295185bf6f56fd951,650c16f0f2faf8d7a0d14c09,651c0ad779d600d539e238f1,null,null,"<p style=""font-size: 60px; font-family: BACS"">mdkKEKBO</p>",,,,,,,,,,
html-keyboard-response,126,599594,0.0-10.0-0.37,611e7d1295185bf6f56fd951,650c16f0f2faf8d7a0d14c09,651c0ad779d600d539e238f1,null,null,"<p style=""font-size: 60px; font-family: BACS"">kZUbmkc</p>",,,,,,,,,,
html-keyboard-response,127,600597,0.0-10.0-0.38,611e7d1295185bf6f56fd951,650c16f0f2faf8d7a0d14c09,651c0ad779d600d539e238f1,null,null,"<p style=""font-size: 60px; font-family: BACS"">mBYlCMdP</p>",,,,,,,,,,
html-keyboard-response,128,601601,0.0-10.0-0.39,611e7d1295185bf6f56fd951,650c16f0f2faf8d7a0d14c09,651c0ad779d600d539e238f1,null,null,"<p style=""font-size: 60px; font-family: BACS"">cBROBYbBT</p>",,,,,,,,,,
html-keyboard-response,129,602605,0.0-10.0-0.40,611e7d1295185bf6f56fd951,650c16f0f2faf8d7a0d14c09,651c0ad779d600d539e238f1,null,null,"<p style=""font-size: 60px; font-family: BACS"">EYtYRCMdP</p>",,,,,,,,,,
html-keyboard-response,130,603607,0.0-10.0-0.41,611e7d1295185bf6f56fd951,650c16f0f2faf8d7a0d14c09,651c0ad779d600d539e238f1,null,null,"<p style=""font-size: 60px; font-family: BACS"">ckdAmYbBT</p>",,,,,,,,,,
html-keyboard-response,131,604609,0.0-10.0-0.42,611e7d1295185bf6f56fd951,650c16f0f2faf8d7a0d14c09,651c0ad779d600d539e238f1,null,null,"<p style=""font-size: 60px; font-family: BACS"">YJLcAZvkL</p>",,,,,,,,,,
html-keyboard-response,132,605611,0.0-10.0-0.43,611e7d1295185bf6f56fd951,650c16f0f2faf8d7a0d14c09,651c0ad779d600d539e238f1,null,null,"<p style=""font-size: 60px; font-family: BACS"">mdkKCMdP</p>",,,,,,,,,,
html-keyboard-response,133,606613,0.0-10.0-0.44,611e7d1295185bf6f56fd951,650c16f0f2faf8d7a0d14c09,651c0ad779d600d539e238f1,null,null,"<p style=""font-size: 60px; font-family: BACS"">adYrcUZu</p>",,,,,,,,,,
html-keyboard-response,134,607617,0.0-10.0-0.45,611e7d1295185bf6f56fd951,650c16f0f2faf8d7a0d14c09,651c0ad779d600d539e238f1,null,null,"<p style=""font-size: 60px; font-family: BACS"">BOCRMYbBT</p>",,,,,,,,,,
html-keyboard-response,135,608621,0.0-10.0-0.46,611e7d1295185bf6f56fd951,650c16f0f2faf8d7a0d14c09,651c0ad779d600d539e238f1,null,null,"<p style=""font-size: 60px; font-family: BACS"">ckdAmEKBO</p>",,,,,,,,,,
html-keyboard-response,136,609624,0.0-10.0-0.47,611e7d1295185bf6f56fd951,650c16f0f2faf8d7a0d14c09,651c0ad779d600d539e238f1,null,null,"<p style=""font-size: 60px; font-family: BACS"">adYrcUdvY</p>",,,,,,,,,,
html-keyboard-response,137,610626,0.0-10.0-0.48,611e7d1295185bf6f56fd951,650c16f0f2faf8d7a0d14c09,651c0ad779d600d539e238f1,null,null,"<p style=""font-size: 60px; font-family: BACS"">JmNkQvlZ</p>",,,,,,,,,,
html-keyboard-response,138,611628,0.0-10.0-0.49,611e7d1295185bf6f56fd951,650c16f0f2faf8d7a0d14c09,651c0ad779d600d539e238f1,null,null,"<p style=""font-size: 60px; font-family: BACS"">bdUNuUdvY</p>",,,,,,,,,,
html-keyboard-response,139,612634,0.0-10.0-0.50,611e7d1295185bf6f56fd951,650c16f0f2faf8d7a0d14c09,651c0ad779d600d539e238f1,null,null,"<p style=""font-size: 60px; font-family: BACS"">kZUbUZu</p>",,,,,,,,,,
html-keyboard-response,140,613637,0.0-10.0-0.51,611e7d1295185bf6f56fd951,650c16f0f2faf8d7a0d14c09,651c0ad779d600d539e238f1,null,null,"<p style=""font-size: 60px; font-family: BACS"">mdkKYbBT</p>",,,,,,,,,,
html-keyboard-response,141,614647,0.0-10.0-0.52,611e7d1295185bf6f56fd951,650c16f0f2faf8d7a0d14c09,651c0ad779d600d539e238f1,null,null,"<p style=""font-size: 60px; font-family: BACS"">mBYlEKBO</p>",,,,,,,,,,
html-keyboard-response,142,615650,0.0-10.0-0.53,611e7d1295185bf6f56fd951,650c16f0f2faf8d7a0d14c09,651c0ad779d600d539e238f1,null,null,"<p style=""font-size: 60px; font-family: BACS"">aNYmbZvkL</p>",,,,,,,,,,
html-keyboard-response,143,616655,0.0-10.0-0.54,611e7d1295185bf6f56fd951,650c16f0f2faf8d7a0d14c09,651c0ad779d600d539e238f1,null,null,"<p style=""font-size: 60px; font-family: BACS"">OdYPYbBT</p>",,,,,,,,,,
html-keyboard-response,144,617666,0.0-10.0-0.55,611e7d1295185bf6f56fd951,650c16f0f2faf8d7a0d14c09,651c0ad779d600d539e238f1,null,null,"<p style=""font-size: 60px; font-family: BACS"">BOCRMbRC</p>",,,,,,,,,,
html-keyboard-response,145,618669,0.0-10.0-0.56,611e7d1295185bf6f56fd951,650c16f0f2faf8d7a0d14c09,651c0ad779d600d539e238f1,null,null,"<p style=""font-size: 60px; font-family: BACS"">LAclAUdvY</p>",,,,,,,,,,
html-keyboard-response,146,619672,0.0-10.0-0.57,611e7d1295185bf6f56fd951,650c16f0f2faf8d7a0d14c09,651c0ad779d600d539e238f1,null,null,"<p style=""font-size: 60px; font-family: BACS"">EYtYRCmYA</p>",,,,,,,,,,
html-keyboard-response,147,620675,0.0-10.0-0.58,611e7d1295185bf6f56fd951,650c16f0f2faf8d7a0d14c09,651c0ad779d600d539e238f1,null,null,"<p style=""font-size: 60px; font-family: BACS"">aLNlkmkc</p>",,,,,,,,,,
html-keyboard-response,148,621683,0.0-10.0-0.59,611e7d1295185bf6f56fd951,650c16f0f2faf8d7a0d14c09,651c0ad779d600d539e238f1,null,null,"<p style=""font-size: 60px; font-family: BACS"">TdmAEKBO</p>",,,,,,,,,,
html-keyboard-response,149,622687,0.0-10.0-0.60,611e7d1295185bf6f56fd951,650c16f0f2faf8d7a0d14c09,651c0ad779d600d539e238f1,null,null,"<p style=""font-size: 60px; font-family: BACS"">BOckPbRC</p>",,,,,,,,,,
html-keyboard-response,150,623700,0.0-10.0-0.61,611e7d1295185bf6f56fd951,650c16f0f2faf8d7a0d14c09,651c0ad779d600d539e238f1,null,null,"<p style=""font-size: 60px; font-family: BACS"">JmNkZvkL</p>",,,,,,,,,,
html-keyboard-response,151,624702,0.0-10.0-0.62,611e7d1295185bf6f56fd951,650c16f0f2faf8d7a0d14c09,651c0ad779d600d539e238f1,null,null,"<p style=""font-size: 60px; font-family: BACS"">mBYlYbBT</p>",,,,,,,,,,
html-keyboard-response,152,625704,0.0-10.0-0.63,611e7d1295185bf6f56fd951,650c16f0f2faf8d7a0d14c09,651c0ad779d600d539e238f1,null,null,"<p style=""font-size: 60px; font-family: BACS"">mdkKbRC</p>",,,,,,,,,,
html-keyboard-response,153,626707,0.0-10.0-0.64,611e7d1295185bf6f56fd951,650c16f0f2faf8d7a0d14c09,651c0ad779d600d539e238f1,null,null,"<p style=""font-size: 60px; font-family: BACS"">COtBDEKBO</p>",,,,,,,,,,
html-keyboard-response,154,627709,0.0-10.0-0.65,611e7d1295185bf6f56fd951,650c16f0f2faf8d7a0d14c09,651c0ad779d600d539e238f1,null,null,"<p style=""font-size: 60px; font-family: BACS"">ckdAmCmYA</p>",,,,,,,,,,
html-keyboard-response,155,628711,0.0-10.0-0.66,611e7d1295185bf6f56fd951,650c16f0f2faf8d7a0d14c09,651c0ad779d600d539e238f1,null,null,"<p style=""font-size: 60px; font-family: BACS"">QbkAcUdvY</p>",,,,,,,,,,
html-keyboard-response,156,629713,0.0-10.0-0.67,611e7d1295185bf6f56fd951,650c16f0f2faf8d7a0d14c09,651c0ad779d600d539e238f1,null,null,"<p style=""font-size: 60px; font-family: BACS"">TdmAbRC</p>",,,,,,,,,,
html-keyboard-response,157,630715,0.0-10.0-0.68,611e7d1295185bf6f56fd951,650c16f0f2faf8d7a0d14c09,651c0ad779d600d539e238f1,null,null,"<p style=""font-size: 60px; font-family: BACS"">kZUbZvkL</p>",,,,,,,,,,
html-keyboard-response,158,631720,0.0-10.0-0.69,611e7d1295185bf6f56fd951,650c16f0f2faf8d7a0d14c09,651c0ad779d600d539e238f1,null,null,"<p style=""font-size: 60px; font-family: BACS"">YJLcAQvlZ</p>",,,,,,,,,,
html-keyboard-response,159,632722,0.0-10.0-0.70,611e7d1295185bf6f56fd951,650c16f0f2faf8d7a0d14c09,651c0ad779d600d539e238f1,null,null,"<p style=""font-size: 60px; font-family: BACS"">COtBDCmYA</p>",,,,,,,,,,
html-keyboard-response,160,633725,0.0-10.0-0.71,611e7d1295185bf6f56fd951,650c16f0f2faf8d7a0d14c09,651c0ad779d600d539e238f1,null,null,"<p style=""font-size: 60px; font-family: BACS"">cBROBEKBO</p>",,,,,,,,,,
html-keyboard-response,161,634727,0.0-10.0-0.72,611e7d1295185bf6f56fd951,650c16f0f2faf8d7a0d14c09,651c0ad779d600d539e238f1,null,null,"<p style=""font-size: 60px; font-family: BACS"">YJLcAmkc</p>",,,,,,,,,,
html-keyboard-response,162,635730,0.0-10.0-0.73,611e7d1295185bf6f56fd951,650c16f0f2faf8d7a0d14c09,651c0ad779d600d539e238f1,null,null,"<p style=""font-size: 60px; font-family: BACS"">rdLJaQvlZ</p>",,,,,,,,,,
html-keyboard-response,163,636732,0.0-10.0-0.74,611e7d1295185bf6f56fd951,650c16f0f2faf8d7a0d14c09,651c0ad779d600d539e238f1,null,null,"<p style=""font-size: 60px; font-family: BACS"">mBYlCmYA</p>",,,,,,,,,,
html-keyboard-response,164,637737,0.0-10.0-0.75,611e7d1295185bf6f56fd951,650c16f0f2faf8d7a0d14c09,651c0ad779d600d539e238f1,null,null,"<p style=""font-size: 60px; font-family: BACS"">rdLJamkc</p>",,,,,,,,,,
html-keyboard-response,165,638740,0.0-10.0-0.76,611e7d1295185bf6f56fd951,650c16f0f2faf8d7a0d14c09,651c0ad779d600d539e238f1,null,null,"<p style=""font-size: 60px; font-family: BACS"">YJLcAUZu</p>",,,,,,,,,,
html-keyboard-response,166,639743,0.0-10.0-0.77,611e7d1295185bf6f56fd951,650c16f0f2faf8d7a0d14c09,651c0ad779d600d539e238f1,null,null,"<p style=""font-size: 60px; font-family: BACS"">cBROBbRC</p>",,,,,,,,,,
html-keyboard-response,167,640745,0.0-10.0-0.78,611e7d1295185bf6f56fd951,650c16f0f2faf8d7a0d14c09,651c0ad779d600d539e238f1,null,null,"<p style=""font-size: 60px; font-family: BACS"">JmNkUZu</p>",,,,,,,,,,
html-keyboard-response,168,641747,0.0-10.0-0.79,611e7d1295185bf6f56fd951,650c16f0f2faf8d7a0d14c09,651c0ad779d600d539e238f1,null,null,"<p style=""font-size: 60px; font-family: BACS"">aNYmbQvlZ</p>",,,,,,,,,,
html-keyboard-response,169,652893,0.0-11.0,611e7d1295185bf6f56fd951,650c16f0f2faf8d7a0d14c09,651c0ad779d600d539e238f1,11135, ,"<p>Great, you've seen the second block of words. You may now take a short break.</p>
      <p>Press the spacebar when you're ready to continue.</p>",,,,,,,,,,
html-keyboard-response,170,653896,0.0-12.0-0.0,611e7d1295185bf6f56fd951,650c16f0f2faf8d7a0d14c09,651c0ad779d600d539e238f1,null,null,"<p style=""font-size: 60px; font-family: BACS"">rdLJamkc</p>",,,,,,,,,,
html-keyboard-response,171,654899,0.0-12.0-0.1,611e7d1295185bf6f56fd951,650c16f0f2faf8d7a0d14c09,651c0ad779d600d539e238f1,null,null,"<p style=""font-size: 60px; font-family: BACS"">EYtYRCMdP</p>",,,,,,,,,,
html-keyboard-response,172,655901,0.0-12.0-0.2,611e7d1295185bf6f56fd951,650c16f0f2faf8d7a0d14c09,651c0ad779d600d539e238f1,null,null,"<p style=""font-size: 60px; font-family: BACS"">LAclAUdvY</p>",,,,,,,,,,
html-keyboard-response,173,656905,0.0-12.0-0.3,611e7d1295185bf6f56fd951,650c16f0f2faf8d7a0d14c09,651c0ad779d600d539e238f1,null,null,"<p style=""font-size: 60px; font-family: BACS"">YJLcAQvlZ</p>",,,,,,,,,,
html-keyboard-response,174,657906,0.0-12.0-0.4,611e7d1295185bf6f56fd951,650c16f0f2faf8d7a0d14c09,651c0ad779d600d539e238f1,null,null,"<p style=""font-size: 60px; font-family: BACS"">bdUNuUdvY</p>",,,,,,,,,,
html-keyboard-response,175,658908,0.0-12.0-0.5,611e7d1295185bf6f56fd951,650c16f0f2faf8d7a0d14c09,651c0ad779d600d539e238f1,null,null,"<p style=""font-size: 60px; font-family: BACS"">COtBDCmYA</p>",,,,,,,,,,
html-keyboard-response,176,659909,0.0-12.0-0.6,611e7d1295185bf6f56fd951,650c16f0f2faf8d7a0d14c09,651c0ad779d600d539e238f1,null,null,"<p style=""font-size: 60px; font-family: BACS"">cBROBbRC</p>",,,,,,,,,,
html-keyboard-response,177,660911,0.0-12.0-0.7,611e7d1295185bf6f56fd951,650c16f0f2faf8d7a0d14c09,651c0ad779d600d539e238f1,null,null,"<p style=""font-size: 60px; font-family: BACS"">mdkKCMdP</p>",,,,,,,,,,
html-keyboard-response,178,661914,0.0-12.0-0.8,611e7d1295185bf6f56fd951,650c16f0f2faf8d7a0d14c09,651c0ad779d600d539e238f1,null,null,"<p style=""font-size: 60px; font-family: BACS"">JmNkmkc</p>",,,,,,,,,,
html-keyboard-response,179,662916,0.0-12.0-0.9,611e7d1295185bf6f56fd951,650c16f0f2faf8d7a0d14c09,651c0ad779d600d539e238f1,null,null,"<p style=""font-size: 60px; font-family: BACS"">aNYmbQvlZ</p>",,,,,,,,,,
html-keyboard-response,180,663919,0.0-12.0-0.10,611e7d1295185bf6f56fd951,650c16f0f2faf8d7a0d14c09,651c0ad779d600d539e238f1,null,null,"<p style=""font-size: 60px; font-family: BACS"">mdkKEKBO</p>",,,,,,,,,,
html-keyboard-response,181,664922,0.0-12.0-0.11,611e7d1295185bf6f56fd951,650c16f0f2faf8d7a0d14c09,651c0ad779d600d539e238f1,null,null,"<p style=""font-size: 60px; font-family: BACS"">EYtYRbRC</p>",,,,,,,,,,
html-keyboard-response,182,665923,0.0-12.0-0.12,611e7d1295185bf6f56fd951,650c16f0f2faf8d7a0d14c09,651c0ad779d600d539e238f1,null,null,"<p style=""font-size: 60px; font-family: BACS"">adYrcUZu</p>",,,,,,,,,,
html-keyboard-response,183,666926,0.0-12.0-0.13,611e7d1295185bf6f56fd951,650c16f0f2faf8d7a0d14c09,651c0ad779d600d539e238f1,null,null,"<p style=""font-size: 60px; font-family: BACS"">aLNlkUdvY</p>",,,,,,,,,,
html-keyboard-response,184,667933,0.0-12.0-0.14,611e7d1295185bf6f56fd951,650c16f0f2faf8d7a0d14c09,651c0ad779d600d539e238f1,null,null,"<p style=""font-size: 60px; font-family: BACS"">YJLcAUZu</p>",,,,,,,,,,
html-keyboard-response,185,668936,0.0-12.0-0.15,611e7d1295185bf6f56fd951,650c16f0f2faf8d7a0d14c09,651c0ad779d600d539e238f1,null,null,"<p style=""font-size: 60px; font-family: BACS"">adYrcZvkL</p>",,,,,,,,,,
html-keyboard-response,186,669939,0.0-12.0-0.16,611e7d1295185bf6f56fd951,650c16f0f2faf8d7a0d14c09,651c0ad779d600d539e238f1,null,null,"<p style=""font-size: 60px; font-family: BACS"">mBYlYbBT</p>",,,,,,,,,,
html-keyboard-response,187,670941,0.0-12.0-0.17,611e7d1295185bf6f56fd951,650c16f0f2faf8d7a0d14c09,651c0ad779d600d539e238f1,null,null,"<p style=""font-size: 60px; font-family: BACS"">cBROBEKBO</p>",,,,,,,,,,
html-keyboard-response,188,671943,0.0-12.0-0.18,611e7d1295185bf6f56fd951,650c16f0f2faf8d7a0d14c09,651c0ad779d600d539e238f1,null,null,"<p style=""font-size: 60px; font-family: BACS"">BOckPCMdP</p>",,,,,,,,,,
html-keyboard-response,189,672947,0.0-12.0-0.19,611e7d1295185bf6f56fd951,650c16f0f2faf8d7a0d14c09,651c0ad779d600d539e238f1,null,null,"<p style=""font-size: 60px; font-family: BACS"">COtBDbRC</p>",,,,,,,,,,
html-keyboard-response,190,673948,0.0-12.0-0.20,611e7d1295185bf6f56fd951,650c16f0f2faf8d7a0d14c09,651c0ad779d600d539e238f1,null,null,"<p style=""font-size: 60px; font-family: BACS"">JmNkZvkL</p>",,,,,,,,,,
html-keyboard-response,191,674952,0.0-12.0-0.21,611e7d1295185bf6f56fd951,650c16f0f2faf8d7a0d14c09,651c0ad779d600d539e238f1,null,null,"<p style=""font-size: 60px; font-family: BACS"">TdmAbRC</p>",,,,,,,,,,
html-keyboard-response,192,675957,0.0-12.0-0.22,611e7d1295185bf6f56fd951,650c16f0f2faf8d7a0d14c09,651c0ad779d600d539e238f1,null,null,"<p style=""font-size: 60px; font-family: BACS"">cBROBCMdP</p>",,,,,,,,,,
html-keyboard-response,193,676959,0.0-12.0-0.23,611e7d1295185bf6f56fd951,650c16f0f2faf8d7a0d14c09,651c0ad779d600d539e238f1,null,null,"<p style=""font-size: 60px; font-family: BACS"">aLNlkQvlZ</p>",,,,,,,,,,
html-keyboard-response,194,677962,0.0-12.0-0.24,611e7d1295185bf6f56fd951,650c16f0f2faf8d7a0d14c09,651c0ad779d600d539e238f1,null,null,"<p style=""font-size: 60px; font-family: BACS"">cBROBYbBT</p>",,,,,,,,,,
html-keyboard-response,195,678965,0.0-12.0-0.25,611e7d1295185bf6f56fd951,650c16f0f2faf8d7a0d14c09,651c0ad779d600d539e238f1,null,null,"<p style=""font-size: 60px; font-family: BACS"">mBYlCmYA</p>",,,,,,,,,,
html-keyboard-response,196,679969,0.0-12.0-0.26,611e7d1295185bf6f56fd951,650c16f0f2faf8d7a0d14c09,651c0ad779d600d539e238f1,null,null,"<p style=""font-size: 60px; font-family: BACS"">aNYmbUZu</p>",,,,,,,,,,
html-keyboard-response,197,680972,0.0-12.0-0.27,611e7d1295185bf6f56fd951,650c16f0f2faf8d7a0d14c09,651c0ad779d600d539e238f1,null,null,"<p style=""font-size: 60px; font-family: BACS"">rdLJaQvlZ</p>",,,,,,,,,,
html-keyboard-response,198,681974,0.0-12.0-0.28,611e7d1295185bf6f56fd951,650c16f0f2faf8d7a0d14c09,651c0ad779d600d539e238f1,null,null,"<p style=""font-size: 60px; font-family: BACS"">OdYPCMdP</p>",,,,,,,,,,
html-keyboard-response,199,682976,0.0-12.0-0.29,611e7d1295185bf6f56fd951,650c16f0f2faf8d7a0d14c09,651c0ad779d600d539e238f1,null,null,"<p style=""font-size: 60px; font-family: BACS"">kZUbZvkL</p>",,,,,,,,,,
html-keyboard-response,200,683978,0.0-12.0-0.30,611e7d1295185bf6f56fd951,650c16f0f2faf8d7a0d14c09,651c0ad779d600d539e238f1,null,null,"<p style=""font-size: 60px; font-family: BACS"">adYrcUdvY</p>",,,,,,,,,,
html-keyboard-response,201,684981,0.0-12.0-0.31,611e7d1295185bf6f56fd951,650c16f0f2faf8d7a0d14c09,651c0ad779d600d539e238f1,null,null,"<p style=""font-size: 60px; font-family: BACS"">EYtYRYbBT</p>",,,,,,,,,,
html-keyboard-response,202,685983,0.0-12.0-0.32,611e7d1295185bf6f56fd951,650c16f0f2faf8d7a0d14c09,651c0ad779d600d539e238f1,null,null,"<p style=""font-size: 60px; font-family: BACS"">OdYPCmYA</p>",,,,,,,,,,
html-keyboard-response,203,686990,0.0-12.0-0.33,611e7d1295185bf6f56fd951,650c16f0f2faf8d7a0d14c09,651c0ad779d600d539e238f1,null,null,"<p style=""font-size: 60px; font-family: BACS"">ckdAmbRC</p>",,,,,,,,,,
html-keyboard-response,204,687993,0.0-12.0-0.34,611e7d1295185bf6f56fd951,650c16f0f2faf8d7a0d14c09,651c0ad779d600d539e238f1,null,null,"<p style=""font-size: 60px; font-family: BACS"">BOCRMYbBT</p>",,,,,,,,,,
html-keyboard-response,205,688995,0.0-12.0-0.35,611e7d1295185bf6f56fd951,650c16f0f2faf8d7a0d14c09,651c0ad779d600d539e238f1,null,null,"<p style=""font-size: 60px; font-family: BACS"">kZUbUdvY</p>",,,,,,,,,,
html-keyboard-response,206,689997,0.0-12.0-0.36,611e7d1295185bf6f56fd951,650c16f0f2faf8d7a0d14c09,651c0ad779d600d539e238f1,null,null,"<p style=""font-size: 60px; font-family: BACS"">BOCRMbRC</p>",,,,,,,,,,
html-keyboard-response,207,690999,0.0-12.0-0.37,611e7d1295185bf6f56fd951,650c16f0f2faf8d7a0d14c09,651c0ad779d600d539e238f1,null,null,"<p style=""font-size: 60px; font-family: BACS"">QbkAcUZu</p>",,,,,,,,,,
html-keyboard-response,208,692004,0.0-12.0-0.38,611e7d1295185bf6f56fd951,650c16f0f2faf8d7a0d14c09,651c0ad779d600d539e238f1,null,null,"<p style=""font-size: 60px; font-family: BACS"">YJLcAmkc</p>",,,,,,,,,,
html-keyboard-response,209,693008,0.0-12.0-0.39,611e7d1295185bf6f56fd951,650c16f0f2faf8d7a0d14c09,651c0ad779d600d539e238f1,null,null,"<p style=""font-size: 60px; font-family: BACS"">TdmAEKBO</p>",,,,,,,,,,
html-keyboard-response,210,694023,0.0-12.0-0.40,611e7d1295185bf6f56fd951,650c16f0f2faf8d7a0d14c09,651c0ad779d600d539e238f1,null,null,"<p style=""font-size: 60px; font-family: BACS"">aLNlkmkc</p>",,,,,,,,,,
html-keyboard-response,211,695026,0.0-12.0-0.41,611e7d1295185bf6f56fd951,650c16f0f2faf8d7a0d14c09,651c0ad779d600d539e238f1,null,null,"<p style=""font-size: 60px; font-family: BACS"">BOCRMCmYA</p>",,,,,,,,,,
html-keyboard-response,212,696027,0.0-12.0-0.42,611e7d1295185bf6f56fd951,650c16f0f2faf8d7a0d14c09,651c0ad779d600d539e238f1,null,null,"<p style=""font-size: 60px; font-family: BACS"">QbkAcUdvY</p>",,,,,,,,,,
html-keyboard-response,213,697037,0.0-12.0-0.43,611e7d1295185bf6f56fd951,650c16f0f2faf8d7a0d14c09,651c0ad779d600d539e238f1,null,null,"<p style=""font-size: 60px; font-family: BACS"">kZUbmkc</p>",,,,,,,,,,
html-keyboard-response,214,698039,0.0-12.0-0.44,611e7d1295185bf6f56fd951,650c16f0f2faf8d7a0d14c09,651c0ad779d600d539e238f1,null,null,"<p style=""font-size: 60px; font-family: BACS"">BOckPEKBO</p>",,,,,,,,,,
html-keyboard-response,215,699042,0.0-12.0-0.45,611e7d1295185bf6f56fd951,650c16f0f2faf8d7a0d14c09,651c0ad779d600d539e238f1,null,null,"<p style=""font-size: 60px; font-family: BACS"">JmNkUZu</p>",,,,,,,,,,
html-keyboard-response,216,700044,0.0-12.0-0.46,611e7d1295185bf6f56fd951,650c16f0f2faf8d7a0d14c09,651c0ad779d600d539e238f1,null,null,"<p style=""font-size: 60px; font-family: BACS"">LAclAQvlZ</p>",,,,,,,,,,
html-keyboard-response,217,701046,0.0-12.0-0.47,611e7d1295185bf6f56fd951,650c16f0f2faf8d7a0d14c09,651c0ad779d600d539e238f1,null,null,"<p style=""font-size: 60px; font-family: BACS"">aLNlkUZu</p>",,,,,,,,,,
html-keyboard-response,218,702049,0.0-12.0-0.48,611e7d1295185bf6f56fd951,650c16f0f2faf8d7a0d14c09,651c0ad779d600d539e238f1,null,null,"<p style=""font-size: 60px; font-family: BACS"">bdUNuQvlZ</p>",,,,,,,,,,
html-keyboard-response,219,703054,0.0-12.0-0.49,611e7d1295185bf6f56fd951,650c16f0f2faf8d7a0d14c09,651c0ad779d600d539e238f1,null,null,"<p style=""font-size: 60px; font-family: BACS"">TdmACmYA</p>",,,,,,,,,,
html-keyboard-response,220,704057,0.0-12.0-0.50,611e7d1295185bf6f56fd951,650c16f0f2faf8d7a0d14c09,651c0ad779d600d539e238f1,null,null,"<p style=""font-size: 60px; font-family: BACS"">QbkAcZvkL</p>",,,,,,,,,,
html-keyboard-response,221,705059,0.0-12.0-0.51,611e7d1295185bf6f56fd951,650c16f0f2faf8d7a0d14c09,651c0ad779d600d539e238f1,null,null,"<p style=""font-size: 60px; font-family: BACS"">OdYPEKBO</p>",,,,,,,,,,
html-keyboard-response,222,706062,0.0-12.0-0.52,611e7d1295185bf6f56fd951,650c16f0f2faf8d7a0d14c09,651c0ad779d600d539e238f1,null,null,"<p style=""font-size: 60px; font-family: BACS"">mdkKYbBT</p>",,,,,,,,,,
html-keyboard-response,223,707072,0.0-12.0-0.53,611e7d1295185bf6f56fd951,650c16f0f2faf8d7a0d14c09,651c0ad779d600d539e238f1,null,null,"<p style=""font-size: 60px; font-family: BACS"">LAclAmkc</p>",,,,,,,,,,
html-keyboard-response,224,708074,0.0-12.0-0.54,611e7d1295185bf6f56fd951,650c16f0f2faf8d7a0d14c09,651c0ad779d600d539e238f1,null,null,"<p style=""font-size: 60px; font-family: BACS"">aNYmbZvkL</p>",,,,,,,,,,
html-keyboard-response,225,709076,0.0-12.0-0.55,611e7d1295185bf6f56fd951,650c16f0f2faf8d7a0d14c09,651c0ad779d600d539e238f1,null,null,"<p style=""font-size: 60px; font-family: BACS"">BOckPCmYA</p>",,,,,,,,,,
html-keyboard-response,226,710079,0.0-12.0-0.56,611e7d1295185bf6f56fd951,650c16f0f2faf8d7a0d14c09,651c0ad779d600d539e238f1,null,null,"<p style=""font-size: 60px; font-family: BACS"">ckdAmYbBT</p>",,,,,,,,,,
html-keyboard-response,227,711081,0.0-12.0-0.57,611e7d1295185bf6f56fd951,650c16f0f2faf8d7a0d14c09,651c0ad779d600d539e238f1,null,null,"<p style=""font-size: 60px; font-family: BACS"">COtBDEKBO</p>",,,,,,,,,,
html-keyboard-response,228,712082,0.0-12.0-0.58,611e7d1295185bf6f56fd951,650c16f0f2faf8d7a0d14c09,651c0ad779d600d539e238f1,null,null,"<p style=""font-size: 60px; font-family: BACS"">aNYmbUdvY</p>",,,,,,,,,,
html-keyboard-response,229,713085,0.0-12.0-0.59,611e7d1295185bf6f56fd951,650c16f0f2faf8d7a0d14c09,651c0ad779d600d539e238f1,null,null,"<p style=""font-size: 60px; font-family: BACS"">JmNkQvlZ</p>",,,,,,,,,,
html-keyboard-response,230,714090,0.0-12.0-0.60,611e7d1295185bf6f56fd951,650c16f0f2faf8d7a0d14c09,651c0ad779d600d539e238f1,null,null,"<p style=""font-size: 60px; font-family: BACS"">mBYlEKBO</p>",,,,,,,,,,
html-keyboard-response,231,715092,0.0-12.0-0.61,611e7d1295185bf6f56fd951,650c16f0f2faf8d7a0d14c09,651c0ad779d600d539e238f1,null,null,"<p style=""font-size: 60px; font-family: BACS"">bdUNumkc</p>",,,,,,,,,,
html-keyboard-response,232,716095,0.0-12.0-0.62,611e7d1295185bf6f56fd951,650c16f0f2faf8d7a0d14c09,651c0ad779d600d539e238f1,null,null,"<p style=""font-size: 60px; font-family: BACS"">EYtYRCmYA</p>",,,,,,,,,,
html-keyboard-response,233,717098,0.0-12.0-0.63,611e7d1295185bf6f56fd951,650c16f0f2faf8d7a0d14c09,651c0ad779d600d539e238f1,null,null,"<p style=""font-size: 60px; font-family: BACS"">LAclAZvkL</p>",,,,,,,,,,
html-keyboard-response,234,718101,0.0-12.0-0.64,611e7d1295185bf6f56fd951,650c16f0f2faf8d7a0d14c09,651c0ad779d600d539e238f1,null,null,"<p style=""font-size: 60px; font-family: BACS"">mdkKbRC</p>",,,,,,,,,,
html-keyboard-response,235,719104,0.0-12.0-0.65,611e7d1295185bf6f56fd951,650c16f0f2faf8d7a0d14c09,651c0ad779d600d539e238f1,null,null,"<p style=""font-size: 60px; font-family: BACS"">adYrcmkc</p>",,,,,,,,,,
html-keyboard-response,236,720107,0.0-12.0-0.66,611e7d1295185bf6f56fd951,650c16f0f2faf8d7a0d14c09,651c0ad779d600d539e238f1,null,null,"<p style=""font-size: 60px; font-family: BACS"">OdYPYbBT</p>",,,,,,,,,,
html-keyboard-response,237,721111,0.0-12.0-0.67,611e7d1295185bf6f56fd951,650c16f0f2faf8d7a0d14c09,651c0ad779d600d539e238f1,null,null,"<p style=""font-size: 60px; font-family: BACS"">ckdAmCmYA</p>",,,,,,,,,,
html-keyboard-response,238,722115,0.0-12.0-0.68,611e7d1295185bf6f56fd951,650c16f0f2faf8d7a0d14c09,651c0ad779d600d539e238f1,null,null,"<p style=""font-size: 60px; font-family: BACS"">QbkAcQvlZ</p>",,,,,,,,,,
html-keyboard-response,239,723122,0.0-12.0-0.69,611e7d1295185bf6f56fd951,650c16f0f2faf8d7a0d14c09,651c0ad779d600d539e238f1,null,null,"<p style=""font-size: 60px; font-family: BACS"">TdmACMdP</p>",,,,,,,,,,
html-keyboard-response,240,724123,0.0-12.0-0.70,611e7d1295185bf6f56fd951,650c16f0f2faf8d7a0d14c09,651c0ad779d600d539e238f1,null,null,"<p style=""font-size: 60px; font-family: BACS"">rdLJaUdvY</p>",,,,,,,,,,
html-keyboard-response,241,725126,0.0-12.0-0.71,611e7d1295185bf6f56fd951,650c16f0f2faf8d7a0d14c09,651c0ad779d600d539e238f1,null,null,"<p style=""font-size: 60px; font-family: BACS"">mBYlCMdP</p>",,,,,,,,,,
html-keyboard-response,242,726138,0.0-12.0-0.72,611e7d1295185bf6f56fd951,650c16f0f2faf8d7a0d14c09,651c0ad779d600d539e238f1,null,null,"<p style=""font-size: 60px; font-family: BACS"">YJLcAZvkL</p>",,,,,,,,,,
html-keyboard-response,243,727141,0.0-12.0-0.73,611e7d1295185bf6f56fd951,650c16f0f2faf8d7a0d14c09,651c0ad779d600d539e238f1,null,null,"<p style=""font-size: 60px; font-family: BACS"">bdUNuUZu</p>",,,,,,,,,,
html-keyboard-response,244,728143,0.0-12.0-0.74,611e7d1295185bf6f56fd951,650c16f0f2faf8d7a0d14c09,651c0ad779d600d539e238f1,null,null,"<p style=""font-size: 60px; font-family: BACS"">BOCRMCMdP</p>",,,,,,,,,,
html-keyboard-response,245,729146,0.0-12.0-0.75,611e7d1295185bf6f56fd951,650c16f0f2faf8d7a0d14c09,651c0ad779d600d539e238f1,null,null,"<p style=""font-size: 60px; font-family: BACS"">kZUbUZu</p>",,,,,,,,,,
html-keyboard-response,246,730148,0.0-12.0-0.76,611e7d1295185bf6f56fd951,650c16f0f2faf8d7a0d14c09,651c0ad779d600d539e238f1,null,null,"<p style=""font-size: 60px; font-family: BACS"">BOckPbRC</p>",,,,,,,,,,
html-keyboard-response,247,731151,0.0-12.0-0.77,611e7d1295185bf6f56fd951,650c16f0f2faf8d7a0d14c09,651c0ad779d600d539e238f1,null,null,"<p style=""font-size: 60px; font-family: BACS"">ckdAmEKBO</p>",,,,,,,,,,
html-keyboard-response,248,732154,0.0-12.0-0.78,611e7d1295185bf6f56fd951,650c16f0f2faf8d7a0d14c09,651c0ad779d600d539e238f1,null,null,"<p style=""font-size: 60px; font-family: BACS"">rdLJaZvkL</p>",,,,,,,,,,
html-keyboard-response,249,733157,0.0-12.0-0.79,611e7d1295185bf6f56fd951,650c16f0f2faf8d7a0d14c09,651c0ad779d600d539e238f1,null,null,"<p style=""font-size: 60px; font-family: BACS"">COtBDYbBT</p>",,,,,,,,,,
html-keyboard-response,250,742851,0.0-13.0,611e7d1295185bf6f56fd951,650c16f0f2faf8d7a0d14c09,651c0ad779d600d539e238f1,9692, ,"<p>Great, you've seen the third block of words. You may now take a short break.</p>
      <p>Press the spacebar when you're ready to continue.</p>",,,,,,,,,,
html-keyboard-response,251,743855,0.0-14.0-0.0,611e7d1295185bf6f56fd951,650c16f0f2faf8d7a0d14c09,651c0ad779d600d539e238f1,null,null,"<p style=""font-size: 60px; font-family: BACS"">aLNlkQvlZ</p>",,,,,,,,,,
html-keyboard-response,252,744860,0.0-14.0-0.1,611e7d1295185bf6f56fd951,650c16f0f2faf8d7a0d14c09,651c0ad779d600d539e238f1,null,null,"<p style=""font-size: 60px; font-family: BACS"">cBROBYbBT</p>",,,,,,,,,,
html-keyboard-response,253,745863,0.0-14.0-0.2,611e7d1295185bf6f56fd951,650c16f0f2faf8d7a0d14c09,651c0ad779d600d539e238f1,null,null,"<p style=""font-size: 60px; font-family: BACS"">OdYPCmYA</p>",,,,,,,,,,
html-keyboard-response,254,746865,0.0-14.0-0.3,611e7d1295185bf6f56fd951,650c16f0f2faf8d7a0d14c09,651c0ad779d600d539e238f1,null,null,"<p style=""font-size: 60px; font-family: BACS"">mBYlYbBT</p>",,,,,,,,,,
html-keyboard-response,255,747867,0.0-14.0-0.4,611e7d1295185bf6f56fd951,650c16f0f2faf8d7a0d14c09,651c0ad779d600d539e238f1,null,null,"<p style=""font-size: 60px; font-family: BACS"">adYrcUdvY</p>",,,,,,,,,,
html-keyboard-response,256,748869,0.0-14.0-0.5,611e7d1295185bf6f56fd951,650c16f0f2faf8d7a0d14c09,651c0ad779d600d539e238f1,null,null,"<p style=""font-size: 60px; font-family: BACS"">OdYPCMdP</p>",,,,,,,,,,
html-keyboard-response,257,749871,0.0-14.0-0.6,611e7d1295185bf6f56fd951,650c16f0f2faf8d7a0d14c09,651c0ad779d600d539e238f1,null,null,"<p style=""font-size: 60px; font-family: BACS"">BOckPCmYA</p>",,,,,,,,,,
html-keyboard-response,258,750876,0.0-14.0-0.7,611e7d1295185bf6f56fd951,650c16f0f2faf8d7a0d14c09,651c0ad779d600d539e238f1,null,null,"<p style=""font-size: 60px; font-family: BACS"">rdLJaQvlZ</p>",,,,,,,,,,
html-keyboard-response,259,751879,0.0-14.0-0.8,611e7d1295185bf6f56fd951,650c16f0f2faf8d7a0d14c09,651c0ad779d600d539e238f1,null,null,"<p style=""font-size: 60px; font-family: BACS"">JmNkUZu</p>",,,,,,,,,,
html-keyboard-response,260,752881,0.0-14.0-0.9,611e7d1295185bf6f56fd951,650c16f0f2faf8d7a0d14c09,651c0ad779d600d539e238f1,null,null,"<p style=""font-size: 60px; font-family: BACS"">EYtYRbRC</p>",,,,,,,,,,
html-keyboard-response,261,753884,0.0-14.0-0.10,611e7d1295185bf6f56fd951,650c16f0f2faf8d7a0d14c09,651c0ad779d600d539e238f1,null,null,"<p style=""font-size: 60px; font-family: BACS"">YJLcAQvlZ</p>",,,,,,,,,,
html-keyboard-response,262,754885,0.0-14.0-0.11,611e7d1295185bf6f56fd951,650c16f0f2faf8d7a0d14c09,651c0ad779d600d539e238f1,null,null,"<p style=""font-size: 60px; font-family: BACS"">aNYmbZvkL</p>",,,,,,,,,,
html-keyboard-response,263,755887,0.0-14.0-0.12,611e7d1295185bf6f56fd951,650c16f0f2faf8d7a0d14c09,651c0ad779d600d539e238f1,null,null,"<p style=""font-size: 60px; font-family: BACS"">QbkAcUZu</p>",,,,,,,,,,
html-keyboard-response,264,756893,0.0-14.0-0.13,611e7d1295185bf6f56fd951,650c16f0f2faf8d7a0d14c09,651c0ad779d600d539e238f1,null,null,"<p style=""font-size: 60px; font-family: BACS"">rdLJamkc</p>",,,,,,,,,,
html-keyboard-response,265,757895,0.0-14.0-0.14,611e7d1295185bf6f56fd951,650c16f0f2faf8d7a0d14c09,651c0ad779d600d539e238f1,null,null,"<p style=""font-size: 60px; font-family: BACS"">cBROBbRC</p>",,,,,,,,,,
html-keyboard-response,266,758897,0.0-14.0-0.15,611e7d1295185bf6f56fd951,650c16f0f2faf8d7a0d14c09,651c0ad779d600d539e238f1,null,null,"<p style=""font-size: 60px; font-family: BACS"">bdUNuUZu</p>",,,,,,,,,,
html-keyboard-response,267,759899,0.0-14.0-0.16,611e7d1295185bf6f56fd951,650c16f0f2faf8d7a0d14c09,651c0ad779d600d539e238f1,null,null,"<p style=""font-size: 60px; font-family: BACS"">kZUbZvkL</p>",,,,,,,,,,
html-keyboard-response,268,760902,0.0-14.0-0.17,611e7d1295185bf6f56fd951,650c16f0f2faf8d7a0d14c09,651c0ad779d600d539e238f1,null,null,"<p style=""font-size: 60px; font-family: BACS"">aNYmbUdvY</p>",,,,,,,,,,
html-keyboard-response,269,761909,0.0-14.0-0.18,611e7d1295185bf6f56fd951,650c16f0f2faf8d7a0d14c09,651c0ad779d600d539e238f1,null,null,"<p style=""font-size: 60px; font-family: BACS"">COtBDYbBT</p>",,,,,,,,,,
html-keyboard-response,270,762911,0.0-14.0-0.19,611e7d1295185bf6f56fd951,650c16f0f2faf8d7a0d14c09,651c0ad779d600d539e238f1,null,null,"<p style=""font-size: 60px; font-family: BACS"">QbkAcUdvY</p>",,,,,,,,,,
html-keyboard-response,271,763926,0.0-14.0-0.20,611e7d1295185bf6f56fd951,650c16f0f2faf8d7a0d14c09,651c0ad779d600d539e238f1,null,null,"<p style=""font-size: 60px; font-family: BACS"">EYtYRYbBT</p>",,,,,,,,,,
html-keyboard-response,272,764935,0.0-14.0-0.21,611e7d1295185bf6f56fd951,650c16f0f2faf8d7a0d14c09,651c0ad779d600d539e238f1,null,null,"<p style=""font-size: 60px; font-family: BACS"">adYrcUZu</p>",,,,,,,,,,
html-keyboard-response,273,765944,0.0-14.0-0.22,611e7d1295185bf6f56fd951,650c16f0f2faf8d7a0d14c09,651c0ad779d600d539e238f1,null,null,"<p style=""font-size: 60px; font-family: BACS"">EYtYRCMdP</p>",,,,,,,,,,
html-keyboard-response,274,766947,0.0-14.0-0.23,611e7d1295185bf6f56fd951,650c16f0f2faf8d7a0d14c09,651c0ad779d600d539e238f1,null,null,"<p style=""font-size: 60px; font-family: BACS"">aLNlkUZu</p>",,,,,,,,,,
html-keyboard-response,275,767950,0.0-14.0-0.24,611e7d1295185bf6f56fd951,650c16f0f2faf8d7a0d14c09,651c0ad779d600d539e238f1,null,null,"<p style=""font-size: 60px; font-family: BACS"">cBROBCMdP</p>",,,,,,,,,,
html-keyboard-response,276,768957,0.0-14.0-0.25,611e7d1295185bf6f56fd951,650c16f0f2faf8d7a0d14c09,651c0ad779d600d539e238f1,null,null,"<p style=""font-size: 60px; font-family: BACS"">BOCRMYbBT</p>",,,,,,,,,,
html-keyboard-response,277,769960,0.0-14.0-0.26,611e7d1295185bf6f56fd951,650c16f0f2faf8d7a0d14c09,651c0ad779d600d539e238f1,null,null,"<p style=""font-size: 60px; font-family: BACS"">EYtYRCmYA</p>",,,,,,,,,,
html-keyboard-response,278,770969,0.0-14.0-0.27,611e7d1295185bf6f56fd951,650c16f0f2faf8d7a0d14c09,651c0ad779d600d539e238f1,null,null,"<p style=""font-size: 60px; font-family: BACS"">ckdAmYbBT</p>",,,,,,,,,,
html-keyboard-response,279,771972,0.0-14.0-0.28,611e7d1295185bf6f56fd951,650c16f0f2faf8d7a0d14c09,651c0ad779d600d539e238f1,null,null,"<p style=""font-size: 60px; font-family: BACS"">aNYmbQvlZ</p>",,,,,,,,,,
html-keyboard-response,280,772975,0.0-14.0-0.29,611e7d1295185bf6f56fd951,650c16f0f2faf8d7a0d14c09,651c0ad779d600d539e238f1,null,null,"<p style=""font-size: 60px; font-family: BACS"">BOckPbRC</p>",,,,,,,,,,
html-keyboard-response,281,773978,0.0-14.0-0.30,611e7d1295185bf6f56fd951,650c16f0f2faf8d7a0d14c09,651c0ad779d600d539e238f1,null,null,"<p style=""font-size: 60px; font-family: BACS"">ckdAmCmYA</p>",,,,,,,,,,
html-keyboard-response,282,774981,0.0-14.0-0.31,611e7d1295185bf6f56fd951,650c16f0f2faf8d7a0d14c09,651c0ad779d600d539e238f1,null,null,"<p style=""font-size: 60px; font-family: BACS"">adYrcZvkL</p>",,,,,,,,,,
html-keyboard-response,283,775984,0.0-14.0-0.32,611e7d1295185bf6f56fd951,650c16f0f2faf8d7a0d14c09,651c0ad779d600d539e238f1,null,null,"<p style=""font-size: 60px; font-family: BACS"">bdUNumkc</p>",,,,,,,,,,
html-keyboard-response,284,776987,0.0-14.0-0.33,611e7d1295185bf6f56fd951,650c16f0f2faf8d7a0d14c09,651c0ad779d600d539e238f1,null,null,"<p style=""font-size: 60px; font-family: BACS"">TdmAEKBO</p>",,,,,,,,,,
html-keyboard-response,285,777992,0.0-14.0-0.34,611e7d1295185bf6f56fd951,650c16f0f2faf8d7a0d14c09,651c0ad779d600d539e238f1,null,null,"<p style=""font-size: 60px; font-family: BACS"">LAclAUdvY</p>",,,,,,,,,,
html-keyboard-response,286,778995,0.0-14.0-0.35,611e7d1295185bf6f56fd951,650c16f0f2faf8d7a0d14c09,651c0ad779d600d539e238f1,null,null,"<p style=""font-size: 60px; font-family: BACS"">BOCRMbRC</p>",,,,,,,,,,
html-keyboard-response,287,779997,0.0-14.0-0.36,611e7d1295185bf6f56fd951,650c16f0f2faf8d7a0d14c09,651c0ad779d600d539e238f1,null,null,"<p style=""font-size: 60px; font-family: BACS"">JmNkQvlZ</p>",,,,,,,,,,
html-keyboard-response,288,780999,0.0-14.0-0.37,611e7d1295185bf6f56fd951,650c16f0f2faf8d7a0d14c09,651c0ad779d600d539e238f1,null,null,"<p style=""font-size: 60px; font-family: BACS"">mdkKYbBT</p>",,,,,,,,,,
html-keyboard-response,289,782002,0.0-14.0-0.38,611e7d1295185bf6f56fd951,650c16f0f2faf8d7a0d14c09,651c0ad779d600d539e238f1,null,null,"<p style=""font-size: 60px; font-family: BACS"">ckdAmEKBO</p>",,,,,,,,,,
html-keyboard-response,290,783004,0.0-14.0-0.39,611e7d1295185bf6f56fd951,650c16f0f2faf8d7a0d14c09,651c0ad779d600d539e238f1,null,null,"<p style=""font-size: 60px; font-family: BACS"">BOckPCMdP</p>",,,,,,,,,,
html-keyboard-response,291,784007,0.0-14.0-0.40,611e7d1295185bf6f56fd951,650c16f0f2faf8d7a0d14c09,651c0ad779d600d539e238f1,null,null,"<p style=""font-size: 60px; font-family: BACS"">LAclAZvkL</p>",,,,,,,,,,
html-keyboard-response,292,785021,0.0-14.0-0.41,611e7d1295185bf6f56fd951,650c16f0f2faf8d7a0d14c09,651c0ad779d600d539e238f1,null,null,"<p style=""font-size: 60px; font-family: BACS"">JmNkmkc</p>",,,,,,,,,,
html-keyboard-response,293,786026,0.0-14.0-0.42,611e7d1295185bf6f56fd951,650c16f0f2faf8d7a0d14c09,651c0ad779d600d539e238f1,null,null,"<p style=""font-size: 60px; font-family: BACS"">mdkKCMdP</p>",,,,,,,,,,
html-keyboard-response,294,787028,0.0-14.0-0.43,611e7d1295185bf6f56fd951,650c16f0f2faf8d7a0d14c09,651c0ad779d600d539e238f1,null,null,"<p style=""font-size: 60px; font-family: BACS"">COtBDbRC</p>",,,,,,,,,,
html-keyboard-response,295,788030,0.0-14.0-0.44,611e7d1295185bf6f56fd951,650c16f0f2faf8d7a0d14c09,651c0ad779d600d539e238f1,null,null,"<p style=""font-size: 60px; font-family: BACS"">OdYPEKBO</p>",,,,,,,,,,
html-keyboard-response,296,789034,0.0-14.0-0.45,611e7d1295185bf6f56fd951,650c16f0f2faf8d7a0d14c09,651c0ad779d600d539e238f1,null,null,"<p style=""font-size: 60px; font-family: BACS"">JmNkZvkL</p>",,,,,,,,,,
html-keyboard-response,297,790036,0.0-14.0-0.46,611e7d1295185bf6f56fd951,650c16f0f2faf8d7a0d14c09,651c0ad779d600d539e238f1,null,null,"<p style=""font-size: 60px; font-family: BACS"">mdkKbRC</p>",,,,,,,,,,
html-keyboard-response,298,791038,0.0-14.0-0.47,611e7d1295185bf6f56fd951,650c16f0f2faf8d7a0d14c09,651c0ad779d600d539e238f1,null,null,"<p style=""font-size: 60px; font-family: BACS"">TdmACMdP</p>",,,,,,,,,,
html-keyboard-response,299,792041,0.0-14.0-0.48,611e7d1295185bf6f56fd951,650c16f0f2faf8d7a0d14c09,651c0ad779d600d539e238f1,null,null,"<p style=""font-size: 60px; font-family: BACS"">kZUbUdvY</p>",,,,,,,,,,
html-keyboard-response,300,793051,0.0-14.0-0.49,611e7d1295185bf6f56fd951,650c16f0f2faf8d7a0d14c09,651c0ad779d600d539e238f1,null,null,"<p style=""font-size: 60px; font-family: BACS"">mBYlEKBO</p>",,,,,,,,,,
html-keyboard-response,301,794053,0.0-14.0-0.50,611e7d1295185bf6f56fd951,650c16f0f2faf8d7a0d14c09,651c0ad779d600d539e238f1,null,null,"<p style=""font-size: 60px; font-family: BACS"">aLNlkmkc</p>",,,,,,,,,,
html-keyboard-response,302,795060,0.0-14.0-0.51,611e7d1295185bf6f56fd951,650c16f0f2faf8d7a0d14c09,651c0ad779d600d539e238f1,null,null,"<p style=""font-size: 60px; font-family: BACS"">YJLcAZvkL</p>",,,,,,,,,,
html-keyboard-response,303,796063,0.0-14.0-0.52,611e7d1295185bf6f56fd951,650c16f0f2faf8d7a0d14c09,651c0ad779d600d539e238f1,null,null,"<p style=""font-size: 60px; font-family: BACS"">COtBDEKBO</p>",,,,,,,,,,
html-keyboard-response,304,797065,0.0-14.0-0.53,611e7d1295185bf6f56fd951,650c16f0f2faf8d7a0d14c09,651c0ad779d600d539e238f1,null,null,"<p style=""font-size: 60px; font-family: BACS"">bdUNuQvlZ</p>",,,,,,,,,,
html-keyboard-response,305,798068,0.0-14.0-0.54,611e7d1295185bf6f56fd951,650c16f0f2faf8d7a0d14c09,651c0ad779d600d539e238f1,null,null,"<p style=""font-size: 60px; font-family: BACS"">adYrcmkc</p>",,,,,,,,,,
html-keyboard-response,306,799071,0.0-14.0-0.55,611e7d1295185bf6f56fd951,650c16f0f2faf8d7a0d14c09,651c0ad779d600d539e238f1,null,null,"<p style=""font-size: 60px; font-family: BACS"">mBYlCmYA</p>",,,,,,,,,,
html-keyboard-response,307,800075,0.0-14.0-0.56,611e7d1295185bf6f56fd951,650c16f0f2faf8d7a0d14c09,651c0ad779d600d539e238f1,null,null,"<p style=""font-size: 60px; font-family: BACS"">QbkAcQvlZ</p>",,,,,,,,,,
html-keyboard-response,308,801078,0.0-14.0-0.57,611e7d1295185bf6f56fd951,650c16f0f2faf8d7a0d14c09,651c0ad779d600d539e238f1,null,null,"<p style=""font-size: 60px; font-family: BACS"">ckdAmbRC</p>",,,,,,,,,,
html-keyboard-response,309,802082,0.0-14.0-0.58,611e7d1295185bf6f56fd951,650c16f0f2faf8d7a0d14c09,651c0ad779d600d539e238f1,null,null,"<p style=""font-size: 60px; font-family: BACS"">QbkAcZvkL</p>",,,,,,,,,,
html-keyboard-response,310,803085,0.0-14.0-0.59,611e7d1295185bf6f56fd951,650c16f0f2faf8d7a0d14c09,651c0ad779d600d539e238f1,null,null,"<p style=""font-size: 60px; font-family: BACS"">YJLcAmkc</p>",,,,,,,,,,
html-keyboard-response,311,804088,0.0-14.0-0.60,611e7d1295185bf6f56fd951,650c16f0f2faf8d7a0d14c09,651c0ad779d600d539e238f1,null,null,"<p style=""font-size: 60px; font-family: BACS"">kZUbUZu</p>",,,,,,,,,,
html-keyboard-response,312,805091,0.0-14.0-0.61,611e7d1295185bf6f56fd951,650c16f0f2faf8d7a0d14c09,651c0ad779d600d539e238f1,null,null,"<p style=""font-size: 60px; font-family: BACS"">BOckPEKBO</p>",,,,,,,,,,
html-keyboard-response,313,806095,0.0-14.0-0.62,611e7d1295185bf6f56fd951,650c16f0f2faf8d7a0d14c09,651c0ad779d600d539e238f1,null,null,"<p style=""font-size: 60px; font-family: BACS"">LAclAmkc</p>",,,,,,,,,,
html-keyboard-response,314,807098,0.0-14.0-0.63,611e7d1295185bf6f56fd951,650c16f0f2faf8d7a0d14c09,651c0ad779d600d539e238f1,null,null,"<p style=""font-size: 60px; font-family: BACS"">TdmAbRC</p>",,,,,,,,,,
html-keyboard-response,315,808102,0.0-14.0-0.64,611e7d1295185bf6f56fd951,650c16f0f2faf8d7a0d14c09,651c0ad779d600d539e238f1,null,null,"<p style=""font-size: 60px; font-family: BACS"">OdYPYbBT</p>",,,,,,,,,,
html-keyboard-response,316,809104,0.0-14.0-0.65,611e7d1295185bf6f56fd951,650c16f0f2faf8d7a0d14c09,651c0ad779d600d539e238f1,null,null,"<p style=""font-size: 60px; font-family: BACS"">BOCRMCMdP</p>",,,,,,,,,,
html-keyboard-response,317,810108,0.0-14.0-0.66,611e7d1295185bf6f56fd951,650c16f0f2faf8d7a0d14c09,651c0ad779d600d539e238f1,null,null,"<p style=""font-size: 60px; font-family: BACS"">COtBDCmYA</p>",,,,,,,,,,
html-keyboard-response,318,811111,0.0-14.0-0.67,611e7d1295185bf6f56fd951,650c16f0f2faf8d7a0d14c09,651c0ad779d600d539e238f1,null,null,"<p style=""font-size: 60px; font-family: BACS"">mdkKEKBO</p>",,,,,,,,,,
html-keyboard-response,319,812114,0.0-14.0-0.68,611e7d1295185bf6f56fd951,650c16f0f2faf8d7a0d14c09,651c0ad779d600d539e238f1,null,null,"<p style=""font-size: 60px; font-family: BACS"">aLNlkUdvY</p>",,,,,,,,,,
html-keyboard-response,320,813116,0.0-14.0-0.69,611e7d1295185bf6f56fd951,650c16f0f2faf8d7a0d14c09,651c0ad779d600d539e238f1,null,null,"<p style=""font-size: 60px; font-family: BACS"">cBROBEKBO</p>",,,,,,,,,,
html-keyboard-response,321,814123,0.0-14.0-0.70,611e7d1295185bf6f56fd951,650c16f0f2faf8d7a0d14c09,651c0ad779d600d539e238f1,null,null,"<p style=""font-size: 60px; font-family: BACS"">rdLJaUdvY</p>",,,,,,,,,,
html-keyboard-response,322,815125,0.0-14.0-0.71,611e7d1295185bf6f56fd951,650c16f0f2faf8d7a0d14c09,651c0ad779d600d539e238f1,null,null,"<p style=""font-size: 60px; font-family: BACS"">YJLcAUZu</p>",,,,,,,,,,
html-keyboard-response,323,816128,0.0-14.0-0.72,611e7d1295185bf6f56fd951,650c16f0f2faf8d7a0d14c09,651c0ad779d600d539e238f1,null,null,"<p style=""font-size: 60px; font-family: BACS"">BOCRMCmYA</p>",,,,,,,,,,
html-keyboard-response,324,817131,0.0-14.0-0.73,611e7d1295185bf6f56fd951,650c16f0f2faf8d7a0d14c09,651c0ad779d600d539e238f1,null,null,"<p style=""font-size: 60px; font-family: BACS"">rdLJaZvkL</p>",,,,,,,,,,
html-keyboard-response,325,818134,0.0-14.0-0.74,611e7d1295185bf6f56fd951,650c16f0f2faf8d7a0d14c09,651c0ad779d600d539e238f1,null,null,"<p style=""font-size: 60px; font-family: BACS"">mBYlCMdP</p>",,,,,,,,,,
html-keyboard-response,326,819136,0.0-14.0-0.75,611e7d1295185bf6f56fd951,650c16f0f2faf8d7a0d14c09,651c0ad779d600d539e238f1,null,null,"<p style=""font-size: 60px; font-family: BACS"">aNYmbUZu</p>",,,,,,,,,,
html-keyboard-response,327,820139,0.0-14.0-0.76,611e7d1295185bf6f56fd951,650c16f0f2faf8d7a0d14c09,651c0ad779d600d539e238f1,null,null,"<p style=""font-size: 60px; font-family: BACS"">bdUNuUdvY</p>",,,,,,,,,,
html-keyboard-response,328,821146,0.0-14.0-0.77,611e7d1295185bf6f56fd951,650c16f0f2faf8d7a0d14c09,651c0ad779d600d539e238f1,null,null,"<p style=""font-size: 60px; font-family: BACS"">kZUbmkc</p>",,,,,,,,,,
html-keyboard-response,329,822148,0.0-14.0-0.78,611e7d1295185bf6f56fd951,650c16f0f2faf8d7a0d14c09,651c0ad779d600d539e238f1,null,null,"<p style=""font-size: 60px; font-family: BACS"">LAclAQvlZ</p>",,,,,,,,,,
html-keyboard-response,330,823149,0.0-14.0-0.79,611e7d1295185bf6f56fd951,650c16f0f2faf8d7a0d14c09,651c0ad779d600d539e238f1,null,null,"<p style=""font-size: 60px; font-family: BACS"">TdmACmYA</p>",,,,,,,,,,
html-keyboard-response,331,830181,0.0-15.0,611e7d1295185bf6f56fd951,650c16f0f2faf8d7a0d14c09,651c0ad779d600d539e238f1,7030, ,"<p>Great, you've seen the fourth block of words. You may now take a short break.</p>
      <p>Press the spacebar when you're ready to continue.</p>",,,,,,,,,,
html-keyboard-response,332,831184,0.0-16.0-0.0,611e7d1295185bf6f56fd951,650c16f0f2faf8d7a0d14c09,651c0ad779d600d539e238f1,null,null,"<p style=""font-size: 60px; font-family: BACS"">YJLcAQvlZ</p>",,,,,,,,,,
html-keyboard-response,333,832193,0.0-16.0-0.1,611e7d1295185bf6f56fd951,650c16f0f2faf8d7a0d14c09,651c0ad779d600d539e238f1,null,null,"<p style=""font-size: 60px; font-family: BACS"">YJLcAQvlZ</p>",,,,,,,,,,
html-keyboard-response,334,833197,0.0-16.0-0.2,611e7d1295185bf6f56fd951,650c16f0f2faf8d7a0d14c09,651c0ad779d600d539e238f1,null,null,"<p style=""font-size: 60px; font-family: BACS"">YJLcAQvlZ</p>",,,,,,,,,,
html-keyboard-response,335,834200,0.0-16.0-0.3,611e7d1295185bf6f56fd951,650c16f0f2faf8d7a0d14c09,651c0ad779d600d539e238f1,null,null,"<p style=""font-size: 60px; font-family: BACS"">YJLcAQvlZ</p>",,,,,,,,,,
html-keyboard-response,336,835203,0.0-16.0-0.4,611e7d1295185bf6f56fd951,650c16f0f2faf8d7a0d14c09,651c0ad779d600d539e238f1,null,null,"<p style=""font-size: 60px; font-family: BACS"">YJLcAQvlZ</p>",,,,,,,,,,
html-keyboard-response,337,836205,0.0-16.0-0.5,611e7d1295185bf6f56fd951,650c16f0f2faf8d7a0d14c09,651c0ad779d600d539e238f1,null,null,"<p style=""font-size: 60px; font-family: BACS"">YJLcAQvlZ</p>",,,,,,,,,,
html-keyboard-response,338,837210,0.0-16.0-0.6,611e7d1295185bf6f56fd951,650c16f0f2faf8d7a0d14c09,651c0ad779d600d539e238f1,null,null,"<p style=""font-size: 60px; font-family: BACS"">YJLcAQvlZ</p>",,,,,,,,,,
html-keyboard-response,339,838212,0.0-16.0-0.7,611e7d1295185bf6f56fd951,650c16f0f2faf8d7a0d14c09,651c0ad779d600d539e238f1,null,null,"<p style=""font-size: 60px; font-family: BACS"">YJLcAQvlZ</p>",,,,,,,,,,
html-keyboard-response,340,839214,0.0-16.0-0.8,611e7d1295185bf6f56fd951,650c16f0f2faf8d7a0d14c09,651c0ad779d600d539e238f1,null,null,"<p style=""font-size: 60px; font-family: BACS"">YJLcAQvlZ</p>",,,,,,,,,,
html-keyboard-response,341,840218,0.0-16.0-0.9,611e7d1295185bf6f56fd951,650c16f0f2faf8d7a0d14c09,651c0ad779d600d539e238f1,null,null,"<p style=""font-size: 60px; font-family: BACS"">YJLcAQvlZ</p>",,,,,,,,,,
html-keyboard-response,342,841220,0.0-16.0-0.10,611e7d1295185bf6f56fd951,650c16f0f2faf8d7a0d14c09,651c0ad779d600d539e238f1,null,null,"<p style=""font-size: 60px; font-family: BACS"">YJLcAQvlZ</p>",,,,,,,,,,
html-keyboard-response,343,842223,0.0-16.0-0.11,611e7d1295185bf6f56fd951,650c16f0f2faf8d7a0d14c09,651c0ad779d600d539e238f1,null,null,"<p style=""font-size: 60px; font-family: BACS"">YJLcAQvlZ</p>",,,,,,,,,,
html-keyboard-response,344,843227,0.0-16.0-0.12,611e7d1295185bf6f56fd951,650c16f0f2faf8d7a0d14c09,651c0ad779d600d539e238f1,null,null,"<p style=""font-size: 60px; font-family: BACS"">YJLcAQvlZ</p>",,,,,,,,,,
html-keyboard-response,345,844231,0.0-16.0-0.13,611e7d1295185bf6f56fd951,650c16f0f2faf8d7a0d14c09,651c0ad779d600d539e238f1,null,null,"<p style=""font-size: 60px; font-family: BACS"">YJLcAQvlZ</p>",,,,,,,,,,
html-keyboard-response,346,845232,0.0-16.0-0.14,611e7d1295185bf6f56fd951,650c16f0f2faf8d7a0d14c09,651c0ad779d600d539e238f1,null,null,"<p style=""font-size: 60px; font-family: BACS"">YJLcAQvlZ</p>",,,,,,,,,,
html-keyboard-response,347,846235,0.0-16.0-0.15,611e7d1295185bf6f56fd951,650c16f0f2faf8d7a0d14c09,651c0ad779d600d539e238f1,null,null,"<p style=""font-size: 60px; font-family: BACS"">YJLcAQvlZ</p>",,,,,,,,,,
html-keyboard-response,348,847245,0.0-16.0-0.16,611e7d1295185bf6f56fd951,650c16f0f2faf8d7a0d14c09,651c0ad779d600d539e238f1,null,null,"<p style=""font-size: 60px; font-family: BACS"">YJLcAQvlZ</p>",,,,,,,,,,
html-keyboard-response,349,848248,0.0-16.0-0.17,611e7d1295185bf6f56fd951,650c16f0f2faf8d7a0d14c09,651c0ad779d600d539e238f1,null,null,"<p style=""font-size: 60px; font-family: BACS"">YJLcAQvlZ</p>",,,,,,,,,,
html-keyboard-response,350,849254,0.0-16.0-0.18,611e7d1295185bf6f56fd951,650c16f0f2faf8d7a0d14c09,651c0ad779d600d539e238f1,null,null,"<p style=""font-size: 60px; font-family: BACS"">YJLcAQvlZ</p>",,,,,,,,,,
html-keyboard-response,351,850256,0.0-16.0-0.19,611e7d1295185bf6f56fd951,650c16f0f2faf8d7a0d14c09,651c0ad779d600d539e238f1,null,null,"<p style=""font-size: 60px; font-family: BACS"">YJLcAQvlZ</p>",,,,,,,,,,
html-keyboard-response,352,851259,0.0-16.0-0.20,611e7d1295185bf6f56fd951,650c16f0f2faf8d7a0d14c09,651c0ad779d600d539e238f1,null,null,"<p style=""font-size: 60px; font-family: BACS"">YJLcAQvlZ</p>",,,,,,,,,,
html-keyboard-response,353,852262,0.0-16.0-0.21,611e7d1295185bf6f56fd951,650c16f0f2faf8d7a0d14c09,651c0ad779d600d539e238f1,null,null,"<p style=""font-size: 60px; font-family: BACS"">YJLcAQvlZ</p>",,,,,,,,,,
html-keyboard-response,354,853265,0.0-16.0-0.22,611e7d1295185bf6f56fd951,650c16f0f2faf8d7a0d14c09,651c0ad779d600d539e238f1,null,null,"<p style=""font-size: 60px; font-family: BACS"">YJLcAQvlZ</p>",,,,,,,,,,
html-keyboard-response,355,854267,0.0-16.0-0.23,611e7d1295185bf6f56fd951,650c16f0f2faf8d7a0d14c09,651c0ad779d600d539e238f1,null,null,"<p style=""font-size: 60px; font-family: BACS"">YJLcAQvlZ</p>",,,,,,,,,,
html-keyboard-response,356,855270,0.0-16.0-0.24,611e7d1295185bf6f56fd951,650c16f0f2faf8d7a0d14c09,651c0ad779d600d539e238f1,null,null,"<p style=""font-size: 60px; font-family: BACS"">YJLcAQvlZ</p>",,,,,,,,,,
html-keyboard-response,357,856273,0.0-16.0-0.25,611e7d1295185bf6f56fd951,650c16f0f2faf8d7a0d14c09,651c0ad779d600d539e238f1,null,null,"<p style=""font-size: 60px; font-family: BACS"">YJLcAQvlZ</p>",,,,,,,,,,
html-keyboard-response,358,857279,0.0-16.0-0.26,611e7d1295185bf6f56fd951,650c16f0f2faf8d7a0d14c09,651c0ad779d600d539e238f1,null,null,"<p style=""font-size: 60px; font-family: BACS"">YJLcAQvlZ</p>",,,,,,,,,,
html-keyboard-response,359,858282,0.0-16.0-0.27,611e7d1295185bf6f56fd951,650c16f0f2faf8d7a0d14c09,651c0ad779d600d539e238f1,null,null,"<p style=""font-size: 60px; font-family: BACS"">YJLcAQvlZ</p>",,,,,,,,,,
html-keyboard-response,360,859285,0.0-16.0-0.28,611e7d1295185bf6f56fd951,650c16f0f2faf8d7a0d14c09,651c0ad779d600d539e238f1,null,null,"<p style=""font-size: 60px; font-family: BACS"">YJLcAQvlZ</p>",,,,,,,,,,
html-keyboard-response,361,860287,0.0-16.0-0.29,611e7d1295185bf6f56fd951,650c16f0f2faf8d7a0d14c09,651c0ad779d600d539e238f1,null,null,"<p style=""font-size: 60px; font-family: BACS"">YJLcAQvlZ</p>",,,,,,,,,,
html-keyboard-response,362,861289,0.0-16.0-0.30,611e7d1295185bf6f56fd951,650c16f0f2faf8d7a0d14c09,651c0ad779d600d539e238f1,null,null,"<p style=""font-size: 60px; font-family: BACS"">YJLcAQvlZ</p>",,,,,,,,,,
html-keyboard-response,363,862294,0.0-16.0-0.31,611e7d1295185bf6f56fd951,650c16f0f2faf8d7a0d14c09,651c0ad779d600d539e238f1,null,null,"<p style=""font-size: 60px; font-family: BACS"">YJLcAQvlZ</p>",,,,,,,,,,
html-keyboard-response,364,863297,0.0-16.0-0.32,611e7d1295185bf6f56fd951,650c16f0f2faf8d7a0d14c09,651c0ad779d600d539e238f1,null,null,"<p style=""font-size: 60px; font-family: BACS"">YJLcAQvlZ</p>",,,,,,,,,,
html-keyboard-response,365,864299,0.0-16.0-0.33,611e7d1295185bf6f56fd951,650c16f0f2faf8d7a0d14c09,651c0ad779d600d539e238f1,null,null,"<p style=""font-size: 60px; font-family: BACS"">YJLcAQvlZ</p>",,,,,,,,,,
html-keyboard-response,366,865302,0.0-16.0-0.34,611e7d1295185bf6f56fd951,650c16f0f2faf8d7a0d14c09,651c0ad779d600d539e238f1,null,null,"<p style=""font-size: 60px; font-family: BACS"">YJLcAQvlZ</p>",,,,,,,,,,
html-keyboard-response,367,866305,0.0-16.0-0.35,611e7d1295185bf6f56fd951,650c16f0f2faf8d7a0d14c09,651c0ad779d600d539e238f1,null,null,"<p style=""font-size: 60px; font-family: BACS"">YJLcAQvlZ</p>",,,,,,,,,,
html-keyboard-response,368,867308,0.0-16.0-0.36,611e7d1295185bf6f56fd951,650c16f0f2faf8d7a0d14c09,651c0ad779d600d539e238f1,null,null,"<p style=""font-size: 60px; font-family: BACS"">YJLcAQvlZ</p>",,,,,,,,,,
html-keyboard-response,369,868310,0.0-16.0-0.37,611e7d1295185bf6f56fd951,650c16f0f2faf8d7a0d14c09,651c0ad779d600d539e238f1,null,null,"<p style=""font-size: 60px; font-family: BACS"">YJLcAQvlZ</p>",,,,,,,,,,
html-keyboard-response,370,869312,0.0-16.0-0.38,611e7d1295185bf6f56fd951,650c16f0f2faf8d7a0d14c09,651c0ad779d600d539e238f1,null,null,"<p style=""font-size: 60px; font-family: BACS"">YJLcAQvlZ</p>",,,,,,,,,,
html-keyboard-response,371,870315,0.0-16.0-0.39,611e7d1295185bf6f56fd951,650c16f0f2faf8d7a0d14c09,651c0ad779d600d539e238f1,null,null,"<p style=""font-size: 60px; font-family: BACS"">YJLcAQvlZ</p>",,,,,,,,,,
html-keyboard-response,372,871317,0.0-16.0-0.40,611e7d1295185bf6f56fd951,650c16f0f2faf8d7a0d14c09,651c0ad779d600d539e238f1,null,null,"<p style=""font-size: 60px; font-family: BACS"">YJLcAQvlZ</p>",,,,,,,,,,
html-keyboard-response,373,872319,0.0-16.0-0.41,611e7d1295185bf6f56fd951,650c16f0f2faf8d7a0d14c09,651c0ad779d600d539e238f1,null,null,"<p style=""font-size: 60px; font-family: BACS"">YJLcAQvlZ</p>",,,,,,,,,,
html-keyboard-response,374,873321,0.0-16.0-0.42,611e7d1295185bf6f56fd951,650c16f0f2faf8d7a0d14c09,651c0ad779d600d539e238f1,null,null,"<p style=""font-size: 60px; font-family: BACS"">YJLcAQvlZ</p>",,,,,,,,,,
html-keyboard-response,375,874323,0.0-16.0-0.43,611e7d1295185bf6f56fd951,650c16f0f2faf8d7a0d14c09,651c0ad779d600d539e238f1,null,null,"<p style=""font-size: 60px; font-family: BACS"">YJLcAQvlZ</p>",,,,,,,,,,
html-keyboard-response,376,875329,0.0-16.0-0.44,611e7d1295185bf6f56fd951,650c16f0f2faf8d7a0d14c09,651c0ad779d600d539e238f1,null,null,"<p style=""font-size: 60px; font-family: BACS"">YJLcAQvlZ</p>",,,,,,,,,,
html-keyboard-response,377,876333,0.0-16.0-0.45,611e7d1295185bf6f56fd951,650c16f0f2faf8d7a0d14c09,651c0ad779d600d539e238f1,null,null,"<p style=""font-size: 60px; font-family: BACS"">YJLcAQvlZ</p>",,,,,,,,,,
html-keyboard-response,378,877336,0.0-16.0-0.46,611e7d1295185bf6f56fd951,650c16f0f2faf8d7a0d14c09,651c0ad779d600d539e238f1,null,null,"<p style=""font-size: 60px; font-family: BACS"">YJLcAQvlZ</p>",,,,,,,,,,
html-keyboard-response,379,878338,0.0-16.0-0.47,611e7d1295185bf6f56fd951,650c16f0f2faf8d7a0d14c09,651c0ad779d600d539e238f1,null,null,"<p style=""font-size: 60px; font-family: BACS"">YJLcAQvlZ</p>",,,,,,,,,,
html-keyboard-response,380,879340,0.0-16.0-0.48,611e7d1295185bf6f56fd951,650c16f0f2faf8d7a0d14c09,651c0ad779d600d539e238f1,null,null,"<p style=""font-size: 60px; font-family: BACS"">YJLcAQvlZ</p>",,,,,,,,,,
html-keyboard-response,381,880344,0.0-16.0-0.49,611e7d1295185bf6f56fd951,650c16f0f2faf8d7a0d14c09,651c0ad779d600d539e238f1,null,null,"<p style=""font-size: 60px; font-family: BACS"">YJLcAQvlZ</p>",,,,,,,,,,
html-keyboard-response,382,881347,0.0-16.0-0.50,611e7d1295185bf6f56fd951,650c16f0f2faf8d7a0d14c09,651c0ad779d600d539e238f1,null,null,"<p style=""font-size: 60px; font-family: BACS"">YJLcAQvlZ</p>",,,,,,,,,,
html-keyboard-response,383,882359,0.0-16.0-0.51,611e7d1295185bf6f56fd951,650c16f0f2faf8d7a0d14c09,651c0ad779d600d539e238f1,null,null,"<p style=""font-size: 60px; font-family: BACS"">YJLcAQvlZ</p>",,,,,,,,,,
html-keyboard-response,384,883366,0.0-16.0-0.52,611e7d1295185bf6f56fd951,650c16f0f2faf8d7a0d14c09,651c0ad779d600d539e238f1,null,null,"<p style=""font-size: 60px; font-family: BACS"">YJLcAQvlZ</p>",,,,,,,,,,
html-keyboard-response,385,884369,0.0-16.0-0.53,611e7d1295185bf6f56fd951,650c16f0f2faf8d7a0d14c09,651c0ad779d600d539e238f1,null,null,"<p style=""font-size: 60px; font-family: BACS"">YJLcAQvlZ</p>",,,,,,,,,,
html-keyboard-response,386,885371,0.0-16.0-0.54,611e7d1295185bf6f56fd951,650c16f0f2faf8d7a0d14c09,651c0ad779d600d539e238f1,null,null,"<p style=""font-size: 60px; font-family: BACS"">YJLcAQvlZ</p>",,,,,,,,,,
html-keyboard-response,387,886374,0.0-16.0-0.55,611e7d1295185bf6f56fd951,650c16f0f2faf8d7a0d14c09,651c0ad779d600d539e238f1,null,null,"<p style=""font-size: 60px; font-family: BACS"">YJLcAQvlZ</p>",,,,,,,,,,
html-keyboard-response,388,887379,0.0-16.0-0.56,611e7d1295185bf6f56fd951,650c16f0f2faf8d7a0d14c09,651c0ad779d600d539e238f1,null,null,"<p style=""font-size: 60px; font-family: BACS"">YJLcAQvlZ</p>",,,,,,,,,,
html-keyboard-response,389,888382,0.0-16.0-0.57,611e7d1295185bf6f56fd951,650c16f0f2faf8d7a0d14c09,651c0ad779d600d539e238f1,null,null,"<p style=""font-size: 60px; font-family: BACS"">YJLcAQvlZ</p>",,,,,,,,,,
html-keyboard-response,390,889386,0.0-16.0-0.58,611e7d1295185bf6f56fd951,650c16f0f2faf8d7a0d14c09,651c0ad779d600d539e238f1,null,null,"<p style=""font-size: 60px; font-family: BACS"">YJLcAQvlZ</p>",,,,,,,,,,
html-keyboard-response,391,890389,0.0-16.0-0.59,611e7d1295185bf6f56fd951,650c16f0f2faf8d7a0d14c09,651c0ad779d600d539e238f1,null,null,"<p style=""font-size: 60px; font-family: BACS"">YJLcAQvlZ</p>",,,,,,,,,,
html-keyboard-response,392,891393,0.0-16.0-0.60,611e7d1295185bf6f56fd951,650c16f0f2faf8d7a0d14c09,651c0ad779d600d539e238f1,null,null,"<p style=""font-size: 60px; font-family: BACS"">YJLcAQvlZ</p>",,,,,,,,,,
html-keyboard-response,393,892396,0.0-16.0-0.61,611e7d1295185bf6f56fd951,650c16f0f2faf8d7a0d14c09,651c0ad779d600d539e238f1,null,null,"<p style=""font-size: 60px; font-family: BACS"">YJLcAQvlZ</p>",,,,,,,,,,
html-keyboard-response,394,893399,0.0-16.0-0.62,611e7d1295185bf6f56fd951,650c16f0f2faf8d7a0d14c09,651c0ad779d600d539e238f1,null,null,"<p style=""font-size: 60px; font-family: BACS"">YJLcAQvlZ</p>",,,,,,,,,,
html-keyboard-response,395,894403,0.0-16.0-0.63,611e7d1295185bf6f56fd951,650c16f0f2faf8d7a0d14c09,651c0ad779d600d539e238f1,null,null,"<p style=""font-size: 60px; font-family: BACS"">YJLcAQvlZ</p>",,,,,,,,,,
html-keyboard-response,396,895405,0.0-16.0-0.64,611e7d1295185bf6f56fd951,650c16f0f2faf8d7a0d14c09,651c0ad779d600d539e238f1,null,null,"<p style=""font-size: 60px; font-family: BACS"">YJLcAQvlZ</p>",,,,,,,,,,
html-keyboard-response,397,896410,0.0-16.0-0.65,611e7d1295185bf6f56fd951,650c16f0f2faf8d7a0d14c09,651c0ad779d600d539e238f1,null,null,"<p style=""font-size: 60px; font-family: BACS"">YJLcAQvlZ</p>",,,,,,,,,,
html-keyboard-response,398,897412,0.0-16.0-0.66,611e7d1295185bf6f56fd951,650c16f0f2faf8d7a0d14c09,651c0ad779d600d539e238f1,null,null,"<p style=""font-size: 60px; font-family: BACS"">YJLcAQvlZ</p>",,,,,,,,,,
html-keyboard-response,399,898414,0.0-16.0-0.67,611e7d1295185bf6f56fd951,650c16f0f2faf8d7a0d14c09,651c0ad779d600d539e238f1,null,null,"<p style=""font-size: 60px; font-family: BACS"">YJLcAQvlZ</p>",,,,,,,,,,
html-keyboard-response,400,899417,0.0-16.0-0.68,611e7d1295185bf6f56fd951,650c16f0f2faf8d7a0d14c09,651c0ad779d600d539e238f1,null,null,"<p style=""font-size: 60px; font-family: BACS"">YJLcAQvlZ</p>",,,,,,,,,,
html-keyboard-response,401,900419,0.0-16.0-0.69,611e7d1295185bf6f56fd951,650c16f0f2faf8d7a0d14c09,651c0ad779d600d539e238f1,null,null,"<p style=""font-size: 60px; font-family: BACS"">YJLcAQvlZ</p>",,,,,,,,,,
html-keyboard-response,402,901421,0.0-16.0-0.70,611e7d1295185bf6f56fd951,650c16f0f2faf8d7a0d14c09,651c0ad779d600d539e238f1,null,null,"<p style=""font-size: 60px; font-family: BACS"">YJLcAQvlZ</p>",,,,,,,,,,
html-keyboard-response,403,902423,0.0-16.0-0.71,611e7d1295185bf6f56fd951,650c16f0f2faf8d7a0d14c09,651c0ad779d600d539e238f1,null,null,"<p style=""font-size: 60px; font-family: BACS"">YJLcAQvlZ</p>",,,,,,,,,,
html-keyboard-response,404,903427,0.0-16.0-0.72,611e7d1295185bf6f56fd951,650c16f0f2faf8d7a0d14c09,651c0ad779d600d539e238f1,null,null,"<p style=""font-size: 60px; font-family: BACS"">YJLcAQvlZ</p>",,,,,,,,,,
html-keyboard-response,405,904430,0.0-16.0-0.73,611e7d1295185bf6f56fd951,650c16f0f2faf8d7a0d14c09,651c0ad779d600d539e238f1,null,null,"<p style=""font-size: 60px; font-family: BACS"">YJLcAQvlZ</p>",,,,,,,,,,
html-keyboard-response,406,905432,0.0-16.0-0.74,611e7d1295185bf6f56fd951,650c16f0f2faf8d7a0d14c09,651c0ad779d600d539e238f1,null,null,"<p style=""font-size: 60px; font-family: BACS"">YJLcAQvlZ</p>",,,,,,,,,,
html-keyboard-response,407,906434,0.0-16.0-0.75,611e7d1295185bf6f56fd951,650c16f0f2faf8d7a0d14c09,651c0ad779d600d539e238f1,null,null,"<p style=""font-size: 60px; font-family: BACS"">YJLcAQvlZ</p>",,,,,,,,,,
html-keyboard-response,408,907436,0.0-16.0-0.76,611e7d1295185bf6f56fd951,650c16f0f2faf8d7a0d14c09,651c0ad779d600d539e238f1,null,null,"<p style=""font-size: 60px; font-family: BACS"">YJLcAQvlZ</p>",,,,,,,,,,
html-keyboard-response,409,908438,0.0-16.0-0.77,611e7d1295185bf6f56fd951,650c16f0f2faf8d7a0d14c09,651c0ad779d600d539e238f1,null,null,"<p style=""font-size: 60px; font-family: BACS"">YJLcAQvlZ</p>",,,,,,,,,,
html-keyboard-response,410,909441,0.0-16.0-0.78,611e7d1295185bf6f56fd951,650c16f0f2faf8d7a0d14c09,651c0ad779d600d539e238f1,null,null,"<p style=""font-size: 60px; font-family: BACS"">YJLcAQvlZ</p>",,,,,,,,,,
html-keyboard-response,411,910449,0.0-16.0-0.79,611e7d1295185bf6f56fd951,650c16f0f2faf8d7a0d14c09,651c0ad779d600d539e238f1,null,null,"<p style=""font-size: 60px; font-family: BACS"">YJLcAQvlZ</p>",,,,,,,,,,
html-keyboard-response,412,916728,0.0-17.0,611e7d1295185bf6f56fd951,650c16f0f2faf8d7a0d14c09,651c0ad779d600d539e238f1,6276, ,"<p>Great, you've seen the fifth block of words. You may now take a short break.</p>
      <p>Press the spacebar when you're ready to continue.</p>",,,,,,,,,,
html-keyboard-response,413,917730,0.0-18.0-0.0,611e7d1295185bf6f56fd951,650c16f0f2faf8d7a0d14c09,651c0ad779d600d539e238f1,null,null,"<p style=""font-size: 60px; font-family: BACS"">bdUNuUZu</p>",,,,,,,,,,
html-keyboard-response,414,918733,0.0-18.0-0.1,611e7d1295185bf6f56fd951,650c16f0f2faf8d7a0d14c09,651c0ad779d600d539e238f1,null,null,"<p style=""font-size: 60px; font-family: BACS"">TdmACMdP</p>",,,,,,,,,,
html-keyboard-response,415,919736,0.0-18.0-0.2,611e7d1295185bf6f56fd951,650c16f0f2faf8d7a0d14c09,651c0ad779d600d539e238f1,null,null,"<p style=""font-size: 60px; font-family: BACS"">OdYPCmYA</p>",,,,,,,,,,
html-keyboard-response,416,920739,0.0-18.0-0.3,611e7d1295185bf6f56fd951,650c16f0f2faf8d7a0d14c09,651c0ad779d600d539e238f1,null,null,"<p style=""font-size: 60px; font-family: BACS"">bdUNuQvlZ</p>",,,,,,,,,,
html-keyboard-response,417,921741,0.0-18.0-0.4,611e7d1295185bf6f56fd951,650c16f0f2faf8d7a0d14c09,651c0ad779d600d539e238f1,null,null,"<p style=""font-size: 60px; font-family: BACS"">BOCRMCmYA</p>",,,,,,,,,,
html-keyboard-response,418,922743,0.0-18.0-0.5,611e7d1295185bf6f56fd951,650c16f0f2faf8d7a0d14c09,651c0ad779d600d539e238f1,null,null,"<p style=""font-size: 60px; font-family: BACS"">aLNlkQvlZ</p>",,,,,,,,,,
html-keyboard-response,419,923746,0.0-18.0-0.6,611e7d1295185bf6f56fd951,650c16f0f2faf8d7a0d14c09,651c0ad779d600d539e238f1,null,null,"<p style=""font-size: 60px; font-family: BACS"">BOckPEKBO</p>",,,,,,,,,,
html-keyboard-response,420,924748,0.0-18.0-0.7,611e7d1295185bf6f56fd951,650c16f0f2faf8d7a0d14c09,651c0ad779d600d539e238f1,null,null,"<p style=""font-size: 60px; font-family: BACS"">adYrcZvkL</p>",,,,,,,,,,
html-keyboard-response,421,925751,0.0-18.0-0.8,611e7d1295185bf6f56fd951,650c16f0f2faf8d7a0d14c09,651c0ad779d600d539e238f1,null,null,"<p style=""font-size: 60px; font-family: BACS"">rdLJaUdvY</p>",,,,,,,,,,
html-keyboard-response,422,926754,0.0-18.0-0.9,611e7d1295185bf6f56fd951,650c16f0f2faf8d7a0d14c09,651c0ad779d600d539e238f1,null,null,"<p style=""font-size: 60px; font-family: BACS"">EYtYRCmYA</p>",,,,,,,,,,
html-keyboard-response,423,927758,0.0-18.0-0.10,611e7d1295185bf6f56fd951,650c16f0f2faf8d7a0d14c09,651c0ad779d600d539e238f1,null,null,"<p style=""font-size: 60px; font-family: BACS"">JmNkmkc</p>",,,,,,,,,,
html-keyboard-response,424,928764,0.0-18.0-0.11,611e7d1295185bf6f56fd951,650c16f0f2faf8d7a0d14c09,651c0ad779d600d539e238f1,null,null,"<p style=""font-size: 60px; font-family: BACS"">bdUNuUdvY</p>",,,,,,,,,,
html-keyboard-response,425,929767,0.0-18.0-0.12,611e7d1295185bf6f56fd951,650c16f0f2faf8d7a0d14c09,651c0ad779d600d539e238f1,null,null,"<p style=""font-size: 60px; font-family: BACS"">EYtYRCMdP</p>",,,,,,,,,,
html-keyboard-response,426,930769,0.0-18.0-0.13,611e7d1295185bf6f56fd951,650c16f0f2faf8d7a0d14c09,651c0ad779d600d539e238f1,null,null,"<p style=""font-size: 60px; font-family: BACS"">ckdAmYbBT</p>",,,,,,,,,,
html-keyboard-response,427,931772,0.0-18.0-0.14,611e7d1295185bf6f56fd951,650c16f0f2faf8d7a0d14c09,651c0ad779d600d539e238f1,null,null,"<p style=""font-size: 60px; font-family: BACS"">bdUNumkc</p>",,,,,,,,,,
html-keyboard-response,428,932774,0.0-18.0-0.15,611e7d1295185bf6f56fd951,650c16f0f2faf8d7a0d14c09,651c0ad779d600d539e238f1,null,null,"<p style=""font-size: 60px; font-family: BACS"">aNYmbUdvY</p>",,,,,,,,,,
html-keyboard-response,429,933776,0.0-18.0-0.16,611e7d1295185bf6f56fd951,650c16f0f2faf8d7a0d14c09,651c0ad779d600d539e238f1,null,null,"<p style=""font-size: 60px; font-family: BACS"">COtBDYbBT</p>",,,,,,,,,,
html-keyboard-response,430,934782,0.0-18.0-0.17,611e7d1295185bf6f56fd951,650c16f0f2faf8d7a0d14c09,651c0ad779d600d539e238f1,null,null,"<p style=""font-size: 60px; font-family: BACS"">mdkKEKBO</p>",,,,,,,,,,
html-keyboard-response,431,935785,0.0-18.0-0.18,611e7d1295185bf6f56fd951,650c16f0f2faf8d7a0d14c09,651c0ad779d600d539e238f1,null,null,"<p style=""font-size: 60px; font-family: BACS"">mBYlCmYA</p>",,,,,,,,,,
html-keyboard-response,432,936787,0.0-18.0-0.19,611e7d1295185bf6f56fd951,650c16f0f2faf8d7a0d14c09,651c0ad779d600d539e238f1,null,null,"<p style=""font-size: 60px; font-family: BACS"">EYtYRYbBT</p>",,,,,,,,,,
html-keyboard-response,433,937797,0.0-18.0-0.20,611e7d1295185bf6f56fd951,650c16f0f2faf8d7a0d14c09,651c0ad779d600d539e238f1,null,null,"<p style=""font-size: 60px; font-family: BACS"">rdLJaQvlZ</p>",,,,,,,,,,
html-keyboard-response,434,938800,0.0-18.0-0.21,611e7d1295185bf6f56fd951,650c16f0f2faf8d7a0d14c09,651c0ad779d600d539e238f1,null,null,"<p style=""font-size: 60px; font-family: BACS"">QbkAcZvkL</p>",,,,,,,,,,
html-keyboard-response,435,939802,0.0-18.0-0.22,611e7d1295185bf6f56fd951,650c16f0f2faf8d7a0d14c09,651c0ad779d600d539e238f1,null,null,"<p style=""font-size: 60px; font-family: BACS"">YJLcAmkc</p>",,,,,,,,,,
html-keyboard-response,436,940804,0.0-18.0-0.23,611e7d1295185bf6f56fd951,650c16f0f2faf8d7a0d14c09,651c0ad779d600d539e238f1,null,null,"<p style=""font-size: 60px; font-family: BACS"">LAclAUdvY</p>",,,,,,,,,,
html-keyboard-response,437,941806,0.0-18.0-0.24,611e7d1295185bf6f56fd951,650c16f0f2faf8d7a0d14c09,651c0ad779d600d539e238f1,null,null,"<p style=""font-size: 60px; font-family: BACS"">mdkKCMdP</p>",,,,,,,,,,
html-keyboard-response,438,942809,0.0-18.0-0.25,611e7d1295185bf6f56fd951,650c16f0f2faf8d7a0d14c09,651c0ad779d600d539e238f1,null,null,"<p style=""font-size: 60px; font-family: BACS"">rdLJamkc</p>",,,,,,,,,,
html-keyboard-response,439,943811,0.0-18.0-0.26,611e7d1295185bf6f56fd951,650c16f0f2faf8d7a0d14c09,651c0ad779d600d539e238f1,null,null,"<p style=""font-size: 60px; font-family: BACS"">TdmACmYA</p>",,,,,,,,,,
html-keyboard-response,440,944814,0.0-18.0-0.27,611e7d1295185bf6f56fd951,650c16f0f2faf8d7a0d14c09,651c0ad779d600d539e238f1,null,null,"<p style=""font-size: 60px; font-family: BACS"">YJLcAUZu</p>",,,,,,,,,,
html-keyboard-response,441,945817,0.0-18.0-0.28,611e7d1295185bf6f56fd951,650c16f0f2faf8d7a0d14c09,651c0ad779d600d539e238f1,null,null,"<p style=""font-size: 60px; font-family: BACS"">BOckPCmYA</p>",,,,,,,,,,
html-keyboard-response,442,946819,0.0-18.0-0.29,611e7d1295185bf6f56fd951,650c16f0f2faf8d7a0d14c09,651c0ad779d600d539e238f1,null,null,"<p style=""font-size: 60px; font-family: BACS"">OdYPEKBO</p>",,,,,,,,,,
html-keyboard-response,443,947821,0.0-18.0-0.30,611e7d1295185bf6f56fd951,650c16f0f2faf8d7a0d14c09,651c0ad779d600d539e238f1,null,null,"<p style=""font-size: 60px; font-family: BACS"">COtBDCmYA</p>",,,,,,,,,,
html-keyboard-response,444,948829,0.0-18.0-0.31,611e7d1295185bf6f56fd951,650c16f0f2faf8d7a0d14c09,651c0ad779d600d539e238f1,null,null,"<p style=""font-size: 60px; font-family: BACS"">ckdAmEKBO</p>",,,,,,,,,,
html-keyboard-response,445,949832,0.0-18.0-0.32,611e7d1295185bf6f56fd951,650c16f0f2faf8d7a0d14c09,651c0ad779d600d539e238f1,null,null,"<p style=""font-size: 60px; font-family: BACS"">kZUbUZu</p>",,,,,,,,,,
html-keyboard-response,446,950843,0.0-18.0-0.33,611e7d1295185bf6f56fd951,650c16f0f2faf8d7a0d14c09,651c0ad779d600d539e238f1,null,null,"<p style=""font-size: 60px; font-family: BACS"">mdkKbRC</p>",,,,,,,,,,
html-keyboard-response,447,951848,0.0-18.0-0.34,611e7d1295185bf6f56fd951,650c16f0f2faf8d7a0d14c09,651c0ad779d600d539e238f1,null,null,"<p style=""font-size: 60px; font-family: BACS"">adYrcUZu</p>",,,,,,,,,,
html-keyboard-response,448,952850,0.0-18.0-0.35,611e7d1295185bf6f56fd951,650c16f0f2faf8d7a0d14c09,651c0ad779d600d539e238f1,null,null,"<p style=""font-size: 60px; font-family: BACS"">aNYmbZvkL</p>",,,,,,,,,,
html-keyboard-response,449,953863,0.0-18.0-0.36,611e7d1295185bf6f56fd951,650c16f0f2faf8d7a0d14c09,651c0ad779d600d539e238f1,null,null,"<p style=""font-size: 60px; font-family: BACS"">mBYlYbBT</p>",,,,,,,,,,
html-keyboard-response,450,954866,0.0-18.0-0.37,611e7d1295185bf6f56fd951,650c16f0f2faf8d7a0d14c09,651c0ad779d600d539e238f1,null,null,"<p style=""font-size: 60px; font-family: BACS"">YJLcAQvlZ</p>",,,,,,,,,,
html-keyboard-response,451,955868,0.0-18.0-0.38,611e7d1295185bf6f56fd951,650c16f0f2faf8d7a0d14c09,651c0ad779d600d539e238f1,null,null,"<p style=""font-size: 60px; font-family: BACS"">mBYlEKBO</p>",,,,,,,,,,
html-keyboard-response,452,956877,0.0-18.0-0.39,611e7d1295185bf6f56fd951,650c16f0f2faf8d7a0d14c09,651c0ad779d600d539e238f1,null,null,"<p style=""font-size: 60px; font-family: BACS"">BOckPCMdP</p>",,,,,,,,,,
html-keyboard-response,453,957883,0.0-18.0-0.40,611e7d1295185bf6f56fd951,650c16f0f2faf8d7a0d14c09,651c0ad779d600d539e238f1,null,null,"<p style=""font-size: 60px; font-family: BACS"">LAclAQvlZ</p>",,,,,,,,,,
html-keyboard-response,454,958885,0.0-18.0-0.41,611e7d1295185bf6f56fd951,650c16f0f2faf8d7a0d14c09,651c0ad779d600d539e238f1,null,null,"<p style=""font-size: 60px; font-family: BACS"">BOCRMCMdP</p>",,,,,,,,,,
html-keyboard-response,455,959894,0.0-18.0-0.42,611e7d1295185bf6f56fd951,650c16f0f2faf8d7a0d14c09,651c0ad779d600d539e238f1,null,null,"<p style=""font-size: 60px; font-family: BACS"">QbkAcQvlZ</p>",,,,,,,,,,
html-keyboard-response,456,960898,0.0-18.0-0.43,611e7d1295185bf6f56fd951,650c16f0f2faf8d7a0d14c09,651c0ad779d600d539e238f1,null,null,"<p style=""font-size: 60px; font-family: BACS"">OdYPCMdP</p>",,,,,,,,,,
html-keyboard-response,457,961901,0.0-18.0-0.44,611e7d1295185bf6f56fd951,650c16f0f2faf8d7a0d14c09,651c0ad779d600d539e238f1,null,null,"<p style=""font-size: 60px; font-family: BACS"">cBROBYbBT</p>",,,,,,,,,,
html-keyboard-response,458,962907,0.0-18.0-0.45,611e7d1295185bf6f56fd951,650c16f0f2faf8d7a0d14c09,651c0ad779d600d539e238f1,null,null,"<p style=""font-size: 60px; font-family: BACS"">aLNlkmkc</p>",,,,,,,,,,
html-keyboard-response,459,963909,0.0-18.0-0.46,611e7d1295185bf6f56fd951,650c16f0f2faf8d7a0d14c09,651c0ad779d600d539e238f1,null,null,"<p style=""font-size: 60px; font-family: BACS"">BOckPbRC</p>",,,,,,,,,,
html-keyboard-response,460,964913,0.0-18.0-0.47,611e7d1295185bf6f56fd951,650c16f0f2faf8d7a0d14c09,651c0ad779d600d539e238f1,null,null,"<p style=""font-size: 60px; font-family: BACS"">adYrcUdvY</p>",,,,,,,,,,
html-keyboard-response,461,965915,0.0-18.0-0.48,611e7d1295185bf6f56fd951,650c16f0f2faf8d7a0d14c09,651c0ad779d600d539e238f1,null,null,"<p style=""font-size: 60px; font-family: BACS"">cBROBbRC</p>",,,,,,,,,,
html-keyboard-response,462,966927,0.0-18.0-0.49,611e7d1295185bf6f56fd951,650c16f0f2faf8d7a0d14c09,651c0ad779d600d539e238f1,null,null,"<p style=""font-size: 60px; font-family: BACS"">ckdAmCmYA</p>",,,,,,,,,,
html-keyboard-response,463,967932,0.0-18.0-0.50,611e7d1295185bf6f56fd951,650c16f0f2faf8d7a0d14c09,651c0ad779d600d539e238f1,null,null,"<p style=""font-size: 60px; font-family: BACS"">aNYmbUZu</p>",,,,,,,,,,
html-keyboard-response,464,968935,0.0-18.0-0.51,611e7d1295185bf6f56fd951,650c16f0f2faf8d7a0d14c09,651c0ad779d600d539e238f1,null,null,"<p style=""font-size: 60px; font-family: BACS"">LAclAmkc</p>",,,,,,,,,,
