"trial_type","trial_index","time_elapsed","internal_node_id","subject_id","study_id","session_id","rt","response","stimulus","success","item","task","correct_response","testing_condition","correct","target","confound","name"
"pavlovia","0","825","0.0-0.0","5e8e55509422bb10abed1f54","650c16f0f2faf8d7a0d14c09","651c1c9bf2f046c6abe73a48","","","","","","","","","","","",""
"survey-html-form","1","29672","0.0-1.0","5e8e55509422bb10abed1f54","650c16f0f2faf8d7a0d14c09","651c1c9bf2f046c6abe73a48","28846","{""ID"":""5e8e55509422bb10abed1f54""}","","","","","","","","","",""
"html-keyboard-response","2","36148","0.0-2.0","5e8e55509422bb10abed1f54","650c16f0f2faf8d7a0d14c09","651c1c9bf2f046c6abe73a48","6472"," ","<p style=""font-size: 15px;"">Before beginning, we ask that you read the consent information and confirm your agreement to participate in the experiment.</p>
      <p style=""font-size: 15px;""> We ask that you remember that this is a research project and that your participation is entirely voluntary. You can stop your participation at any time, without needing to provide any explanation. The study we're asking you to participate in aims at examining how readers process written words. You will be engaged in a session of apprximately 20 minutes, followed by a brief questionnaire. You will have the opportunity to take a few breaks during the experiment. You will be paid £4 for your participation, corresponding to a rate of £8/hour. While this experiment looks at cognitive faculties, this experiment doesn't constitute clinical proof of eventual pathologies.</p>
      <p style=""font-size: 15px;"">All of the information collected thanks to yours and others' participation will be held in a secure password-protected server, and will not be shared with anyone not authorised to view it. Your personal information will be kept with an arbitrary participant ID. Thanks to this data anonymity process, any researcher analysing the data won't be able to track the information back to a specific participant. Therefore, this process will make identifying you impossibile, even when results from the study will be published in scientific reviews, presented at congresses, or at any other public forum. More generally, the collected data will be treated in accordance with the laws on privacy and conformity to the Legislative Degree n. 196 ""Code regarding the protection of personal data"" of the 30th of June 2003 and to the European Regulation 2016/670 (General Data Protection Regulation - GDPR). The Data Protection Officer is Avv. Valentina Carollo, who can be contacted at the following email addresses: <a href=""mailto:dpo@sissa.it"">dpo@sissa.it</a> or <a href=""mailto:rpd@sissa.it"">rpd@sissa.it</a> - PEC: <a href=""mailto:protocollo@pec.sissa.it"">protocollo@pec.sissa.it</a>.</p>
      <p style=""font-size: 15px;""> Before expressing your consent to participate, we would like to remind you again that in case you need explanations on any aspect of the experimental procedure, the researcher is at your disposition (<a href=""mailto:aliebelt@sissa.it"">aliebelt@sissa.it</a>, <a href=""mailto:davide.crepaldi@sissa.it"">davide.crepaldi@sissa.it</a>).</p>
      <p style=""font-size: 15px;"">If you would like to download the informed consent form, you can do so here: <a href=""BASL-Informed_Consent.pdf"" download>informed consent form</a>.</p>
      <p style=""font-size: 15px;"">We ask that you press the spacebar to proceed to the consent section.</p>","","","","","","","","",""
"survey-html-form","3","48022","0.0-3.0","5e8e55509422bb10abed1f54","650c16f0f2faf8d7a0d14c09","651c1c9bf2f046c6abe73a48","11872","{""consent1"":""YES"",""consent2"":""YES"",""consent3"":""YES"",""consent4"":""YES"",""consent5"":""YES"",""consent6"":""YES""}","","","","","","","","","",""
"fullscreen","4","56775","0.0-4.0","5e8e55509422bb10abed1f54","650c16f0f2faf8d7a0d14c09","651c1c9bf2f046c6abe73a48","","","","true","","","","","","","",""
"html-keyboard-response","5","99911","0.0-5.0","5e8e55509422bb10abed1f54","650c16f0f2faf8d7a0d14c09","651c1c9bf2f046c6abe73a48","43134"," ","<p>Welcome, and thank you very much for your time!</p>
      <p>In this experiment, you'll be a language expert who's been asked to take a look at words that Earth has received in its first communication with aliens. Your task, in this first part of the experiment, is to pay close attention to the words you'll be shown; later, world leaders will ask you questions on what you saw. The words will be shown to you quite quickly; it seems that the aliens were in a hurry :-)</p>
      <p>Press the spacebar to continue.<p>","","","","","","","","",""
"html-keyboard-response","6","99980","0.0-6.0","5e8e55509422bb10abed1f54","650c16f0f2faf8d7a0d14c09","651c1c9bf2f046c6abe73a48","null","null","<p style=""font-size: 120px; font-family: BACS""> </p>","","","","","","","","",""
"html-keyboard-response","7","106954","0.0-7.0","5e8e55509422bb10abed1f54","650c16f0f2faf8d7a0d14c09","651c1c9bf2f046c6abe73a48","6973"," ","<p>Here is an example of the words you'll see:</p>
      <img src='esempio.png' height='400px'>
      <p>When you're ready to begin, press the spacebar.</p></div>","","","","","","","","",""
"html-keyboard-response","8","107958","0.0-8.0-0.0","5e8e55509422bb10abed1f54","650c16f0f2faf8d7a0d14c09","651c1c9bf2f046c6abe73a48","null","null","<p style=""font-size: 60px; font-family: BACS"">bvkrLkNc</p>","","","","","","","","",""
"html-keyboard-response","9","108961","0.0-8.0-0.1","5e8e55509422bb10abed1f54","650c16f0f2faf8d7a0d14c09","651c1c9bf2f046c6abe73a48","null","null","<p style=""font-size: 60px; font-family: BACS"">ALGZkJdr</p>","","","","","","","","",""
"html-keyboard-response","10","109972","0.0-8.0-0.2","5e8e55509422bb10abed1f54","650c16f0f2faf8d7a0d14c09","651c1c9bf2f046c6abe73a48","null","null","<p style=""font-size: 60px; font-family: BACS"">tmAKlRE</p>","","","","","","","","",""
"html-keyboard-response","11","110984","0.0-8.0-0.3","5e8e55509422bb10abed1f54","650c16f0f2faf8d7a0d14c09","651c1c9bf2f046c6abe73a48","null","null","<p style=""font-size: 60px; font-family: BACS"">UJmrLkNc</p>","","","","","","","","",""
"html-keyboard-response","12","111996","0.0-8.0-0.4","5e8e55509422bb10abed1f54","650c16f0f2faf8d7a0d14c09","651c1c9bf2f046c6abe73a48","null","null","<p style=""font-size: 60px; font-family: BACS"">hCktOPE</p>","","","","","","","","",""
"html-keyboard-response","13","113005","0.0-8.0-0.5","5e8e55509422bb10abed1f54","650c16f0f2faf8d7a0d14c09","651c1c9bf2f046c6abe73a48","null","null","<p style=""font-size: 60px; font-family: BACS"">ALGZlGc</p>","","","","","","","","",""
"html-keyboard-response","14","114010","0.0-8.0-0.6","5e8e55509422bb10abed1f54","650c16f0f2faf8d7a0d14c09","651c1c9bf2f046c6abe73a48","null","null","<p style=""font-size: 60px; font-family: BACS"">ZkGmYkJdr</p>","","","","","","","","",""
"html-keyboard-response","15","115025","0.0-8.0-0.7","5e8e55509422bb10abed1f54","650c16f0f2faf8d7a0d14c09","651c1c9bf2f046c6abe73a48","null","null","<p style=""font-size: 60px; font-family: BACS"">ObZbAlGc</p>","","","","","","","","",""
"html-keyboard-response","16","116037","0.0-8.0-0.8","5e8e55509422bb10abed1f54","650c16f0f2faf8d7a0d14c09","651c1c9bf2f046c6abe73a48","null","null","<p style=""font-size: 60px; font-family: BACS"">ArQudUr</p>","","","","","","","","",""
"html-keyboard-response","17","117049","0.0-8.0-0.9","5e8e55509422bb10abed1f54","650c16f0f2faf8d7a0d14c09","651c1c9bf2f046c6abe73a48","null","null","<p style=""font-size: 60px; font-family: BACS"">AlNUlGc</p>","","","","","","","","",""
"html-keyboard-response","18","118052","0.0-8.0-0.10","5e8e55509422bb10abed1f54","650c16f0f2faf8d7a0d14c09","651c1c9bf2f046c6abe73a48","null","null","<p style=""font-size: 60px; font-family: BACS"">dClOCYbBT</p>","","","","","","","","",""
"html-keyboard-response","19","119054","0.0-8.0-0.11","5e8e55509422bb10abed1f54","650c16f0f2faf8d7a0d14c09","651c1c9bf2f046c6abe73a48","null","null","<p style=""font-size: 60px; font-family: BACS"">hAROKOPE</p>","","","","","","","","",""
"html-keyboard-response","20","120057","0.0-8.0-0.12","5e8e55509422bb10abed1f54","650c16f0f2faf8d7a0d14c09","651c1c9bf2f046c6abe73a48","null","null","<p style=""font-size: 60px; font-family: BACS"">ALGZGQYQ</p>","","","","","","","","",""
"html-keyboard-response","21","121062","0.0-8.0-0.13","5e8e55509422bb10abed1f54","650c16f0f2faf8d7a0d14c09","651c1c9bf2f046c6abe73a48","null","null","<p style=""font-size: 60px; font-family: BACS"">AMkCOtM</p>","","","","","","","","",""
"html-keyboard-response","22","122074","0.0-8.0-0.14","5e8e55509422bb10abed1f54","650c16f0f2faf8d7a0d14c09","651c1c9bf2f046c6abe73a48","null","null","<p style=""font-size: 60px; font-family: BACS"">DhCPOPE</p>","","","","","","","","",""
"html-keyboard-response","23","123080","0.0-8.0-0.15","5e8e55509422bb10abed1f54","650c16f0f2faf8d7a0d14c09","651c1c9bf2f046c6abe73a48","null","null","<p style=""font-size: 60px; font-family: BACS"">hCktlRE</p>","","","","","","","","",""
"html-keyboard-response","24","124096","0.0-8.0-0.16","5e8e55509422bb10abed1f54","650c16f0f2faf8d7a0d14c09","651c1c9bf2f046c6abe73a48","null","null","<p style=""font-size: 60px; font-family: BACS"">JNkakJdr</p>","","","","","","","","",""
"html-keyboard-response","25","125100","0.0-8.0-0.17","5e8e55509422bb10abed1f54","650c16f0f2faf8d7a0d14c09","651c1c9bf2f046c6abe73a48","null","null","<p style=""font-size: 60px; font-family: BACS"">AMkCOPE</p>","","","","","","","","",""
"html-keyboard-response","26","126112","0.0-8.0-0.18","5e8e55509422bb10abed1f54","650c16f0f2faf8d7a0d14c09","651c1c9bf2f046c6abe73a48","null","null","<p style=""font-size: 60px; font-family: BACS"">aUZAGQYQ</p>","","","","","","","","",""
"html-keyboard-response","27","127127","0.0-8.0-0.19","5e8e55509422bb10abed1f54","650c16f0f2faf8d7a0d14c09","651c1c9bf2f046c6abe73a48","null","null","<p style=""font-size: 60px; font-family: BACS"">ArQuLkNc</p>","","","","","","","","",""
"html-keyboard-response","28","128141","0.0-8.0-0.20","5e8e55509422bb10abed1f54","650c16f0f2faf8d7a0d14c09","651c1c9bf2f046c6abe73a48","null","null","<p style=""font-size: 60px; font-family: BACS"">TCbDClRE</p>","","","","","","","","",""
"html-keyboard-response","29","129154","0.0-8.0-0.21","5e8e55509422bb10abed1f54","650c16f0f2faf8d7a0d14c09","651c1c9bf2f046c6abe73a48","null","null","<p style=""font-size: 60px; font-family: BACS"">tmAKOtM</p>","","","","","","","","",""
"html-keyboard-response","30","130156","0.0-8.0-0.22","5e8e55509422bb10abed1f54","650c16f0f2faf8d7a0d14c09","651c1c9bf2f046c6abe73a48","null","null","<p style=""font-size: 60px; font-family: BACS"">DhCPBCD</p>","","","","","","","","",""
"html-keyboard-response","31","131168","0.0-8.0-0.23","5e8e55509422bb10abed1f54","650c16f0f2faf8d7a0d14c09","651c1c9bf2f046c6abe73a48","null","null","<p style=""font-size: 60px; font-family: BACS"">dClOCOPE</p>","","","","","","","","",""
"html-keyboard-response","32","132178","0.0-8.0-0.24","5e8e55509422bb10abed1f54","650c16f0f2faf8d7a0d14c09","651c1c9bf2f046c6abe73a48","null","null","<p style=""font-size: 60px; font-family: BACS"">TCbDCBCD</p>","","","","","","","","",""
"html-keyboard-response","33","133224","0.0-8.0-0.25","5e8e55509422bb10abed1f54","650c16f0f2faf8d7a0d14c09","651c1c9bf2f046c6abe73a48","null","null","<p style=""font-size: 60px; font-family: BACS"">hAROKYbBT</p>","","","","","","","","",""
"html-keyboard-response","34","134237","0.0-8.0-0.26","5e8e55509422bb10abed1f54","650c16f0f2faf8d7a0d14c09","651c1c9bf2f046c6abe73a48","null","null","<p style=""font-size: 60px; font-family: BACS"">kPkRABCD</p>","","","","","","","","",""
"html-keyboard-response","35","135240","0.0-8.0-0.27","5e8e55509422bb10abed1f54","650c16f0f2faf8d7a0d14c09","651c1c9bf2f046c6abe73a48","null","null","<p style=""font-size: 60px; font-family: BACS"">MkmEdYbBT</p>","","","","","","","","",""
"html-keyboard-response","36","136253","0.0-8.0-0.28","5e8e55509422bb10abed1f54","650c16f0f2faf8d7a0d14c09","651c1c9bf2f046c6abe73a48","null","null","<p style=""font-size: 60px; font-family: BACS"">rbYbudUr</p>","","","","","","","","",""
"html-keyboard-response","37","137256","0.0-8.0-0.29","5e8e55509422bb10abed1f54","650c16f0f2faf8d7a0d14c09","651c1c9bf2f046c6abe73a48","null","null","<p style=""font-size: 60px; font-family: BACS"">ArQuGQYQ</p>","","","","","","","","",""
"html-keyboard-response","38","138260","0.0-8.0-0.30","5e8e55509422bb10abed1f54","650c16f0f2faf8d7a0d14c09","651c1c9bf2f046c6abe73a48","null","null","<p style=""font-size: 60px; font-family: BACS"">kPkRAOtM</p>","","","","","","","","",""
"html-keyboard-response","39","139269","0.0-8.0-0.31","5e8e55509422bb10abed1f54","650c16f0f2faf8d7a0d14c09","651c1c9bf2f046c6abe73a48","null","null","<p style=""font-size: 60px; font-family: BACS"">AlNULkNc</p>","","","","","","","","",""
"html-keyboard-response","40","140273","0.0-8.0-0.32","5e8e55509422bb10abed1f54","650c16f0f2faf8d7a0d14c09","651c1c9bf2f046c6abe73a48","null","null","<p style=""font-size: 60px; font-family: BACS"">UJmrGQYQ</p>","","","","","","","","",""
"html-keyboard-response","41","141276","0.0-8.0-0.33","5e8e55509422bb10abed1f54","650c16f0f2faf8d7a0d14c09","651c1c9bf2f046c6abe73a48","null","null","<p style=""font-size: 60px; font-family: BACS"">rbYbuLkNc</p>","","","","","","","","",""
"html-keyboard-response","42","142280","0.0-8.0-0.34","5e8e55509422bb10abed1f54","650c16f0f2faf8d7a0d14c09","651c1c9bf2f046c6abe73a48","null","null","<p style=""font-size: 60px; font-family: BACS"">aUZAdUr</p>","","","","","","","","",""
"html-keyboard-response","43","143284","0.0-8.0-0.35","5e8e55509422bb10abed1f54","650c16f0f2faf8d7a0d14c09","651c1c9bf2f046c6abe73a48","null","null","<p style=""font-size: 60px; font-family: BACS"">bcORBCD</p>","","","","","","","","",""
"html-keyboard-response","44","144288","0.0-8.0-0.36","5e8e55509422bb10abed1f54","650c16f0f2faf8d7a0d14c09","651c1c9bf2f046c6abe73a48","null","null","<p style=""font-size: 60px; font-family: BACS"">TCbDCOtM</p>","","","","","","","","",""
"html-keyboard-response","45","145292","0.0-8.0-0.37","5e8e55509422bb10abed1f54","650c16f0f2faf8d7a0d14c09","651c1c9bf2f046c6abe73a48","null","null","<p style=""font-size: 60px; font-family: BACS"">ZkGmYlGc</p>","","","","","","","","",""
"html-keyboard-response","46","146304","0.0-8.0-0.38","5e8e55509422bb10abed1f54","650c16f0f2faf8d7a0d14c09","651c1c9bf2f046c6abe73a48","null","null","<p style=""font-size: 60px; font-family: BACS"">JNkaGQYQ</p>","","","","","","","","",""
"html-keyboard-response","47","147316","0.0-8.0-0.39","5e8e55509422bb10abed1f54","650c16f0f2faf8d7a0d14c09","651c1c9bf2f046c6abe73a48","null","null","<p style=""font-size: 60px; font-family: BACS"">bvkrlGc</p>","","","","","","","","",""
"html-keyboard-response","48","148327","0.0-8.0-0.40","5e8e55509422bb10abed1f54","650c16f0f2faf8d7a0d14c09","651c1c9bf2f046c6abe73a48","null","null","<p style=""font-size: 60px; font-family: BACS"">hCktOtM</p>","","","","","","","","",""
"html-keyboard-response","49","149330","0.0-8.0-0.41","5e8e55509422bb10abed1f54","650c16f0f2faf8d7a0d14c09","651c1c9bf2f046c6abe73a48","null","null","<p style=""font-size: 60px; font-family: BACS"">ArQukJdr</p>","","","","","","","","",""
"html-keyboard-response","50","150342","0.0-8.0-0.42","5e8e55509422bb10abed1f54","650c16f0f2faf8d7a0d14c09","651c1c9bf2f046c6abe73a48","null","null","<p style=""font-size: 60px; font-family: BACS"">MkmEdOtM</p>","","","","","","","","",""
"html-keyboard-response","51","151344","0.0-8.0-0.43","5e8e55509422bb10abed1f54","650c16f0f2faf8d7a0d14c09","651c1c9bf2f046c6abe73a48","null","null","<p style=""font-size: 60px; font-family: BACS"">ObZbAdUr</p>","","","","","","","","",""
"html-keyboard-response","52","152348","0.0-8.0-0.44","5e8e55509422bb10abed1f54","650c16f0f2faf8d7a0d14c09","651c1c9bf2f046c6abe73a48","null","null","<p style=""font-size: 60px; font-family: BACS"">AlNUGQYQ</p>","","","","","","","","",""
"html-keyboard-response","53","153358","0.0-8.0-0.45","5e8e55509422bb10abed1f54","650c16f0f2faf8d7a0d14c09","651c1c9bf2f046c6abe73a48","null","null","<p style=""font-size: 60px; font-family: BACS"">tmAKYbBT</p>","","","","","","","","",""
"html-keyboard-response","54","154361","0.0-8.0-0.46","5e8e55509422bb10abed1f54","650c16f0f2faf8d7a0d14c09","651c1c9bf2f046c6abe73a48","null","null","<p style=""font-size: 60px; font-family: BACS"">aUZAlGc</p>","","","","","","","","",""
"html-keyboard-response","55","155365","0.0-8.0-0.47","5e8e55509422bb10abed1f54","650c16f0f2faf8d7a0d14c09","651c1c9bf2f046c6abe73a48","null","null","<p style=""font-size: 60px; font-family: BACS"">kPkRAOPE</p>","","","","","","","","",""
"html-keyboard-response","56","156375","0.0-8.0-0.48","5e8e55509422bb10abed1f54","650c16f0f2faf8d7a0d14c09","651c1c9bf2f046c6abe73a48","null","null","<p style=""font-size: 60px; font-family: BACS"">JNkadUr</p>","","","","","","","","",""
"html-keyboard-response","57","157386","0.0-8.0-0.49","5e8e55509422bb10abed1f54","650c16f0f2faf8d7a0d14c09","651c1c9bf2f046c6abe73a48","null","null","<p style=""font-size: 60px; font-family: BACS"">hAROKlRE</p>","","","","","","","","",""
"html-keyboard-response","58","158396","0.0-8.0-0.50","5e8e55509422bb10abed1f54","650c16f0f2faf8d7a0d14c09","651c1c9bf2f046c6abe73a48","null","null","<p style=""font-size: 60px; font-family: BACS"">tmAKOPE</p>","","","","","","","","",""
"html-keyboard-response","59","159400","0.0-8.0-0.51","5e8e55509422bb10abed1f54","650c16f0f2faf8d7a0d14c09","651c1c9bf2f046c6abe73a48","null","null","<p style=""font-size: 60px; font-family: BACS"">bcORlRE</p>","","","","","","","","",""
"html-keyboard-response","60","160412","0.0-8.0-0.52","5e8e55509422bb10abed1f54","650c16f0f2faf8d7a0d14c09","651c1c9bf2f046c6abe73a48","null","null","<p style=""font-size: 60px; font-family: BACS"">ZkGmYdUr</p>","","","","","","","","",""
"html-keyboard-response","61","161422","0.0-8.0-0.53","5e8e55509422bb10abed1f54","650c16f0f2faf8d7a0d14c09","651c1c9bf2f046c6abe73a48","null","null","<p style=""font-size: 60px; font-family: BACS"">AMkCYbBT</p>","","","","","","","","",""
"html-keyboard-response","62","162426","0.0-8.0-0.54","5e8e55509422bb10abed1f54","650c16f0f2faf8d7a0d14c09","651c1c9bf2f046c6abe73a48","null","null","<p style=""font-size: 60px; font-family: BACS"">UJmrdUr</p>","","","","","","","","",""
"html-keyboard-response","63","163439","0.0-8.0-0.55","5e8e55509422bb10abed1f54","650c16f0f2faf8d7a0d14c09","651c1c9bf2f046c6abe73a48","null","null","<p style=""font-size: 60px; font-family: BACS"">bvkrkJdr</p>","","","","","","","","",""
"html-keyboard-response","64","165230","0.0-8.0-0.56","5e8e55509422bb10abed1f54","650c16f0f2faf8d7a0d14c09","651c1c9bf2f046c6abe73a48","null","null","<p style=""font-size: 60px; font-family: BACS"">rbYbuGQYQ</p>","","","","","","","","",""
"html-keyboard-response","65","166231","0.0-8.0-0.57","5e8e55509422bb10abed1f54","650c16f0f2faf8d7a0d14c09","651c1c9bf2f046c6abe73a48","null","null","<p style=""font-size: 60px; font-family: BACS"">DhCPlRE</p>","","","","","","","","",""
"html-keyboard-response","66","167233","0.0-8.0-0.58","5e8e55509422bb10abed1f54","650c16f0f2faf8d7a0d14c09","651c1c9bf2f046c6abe73a48","null","null","<p style=""font-size: 60px; font-family: BACS"">AMkCBCD</p>","","","","","","","","",""
"html-keyboard-response","67","168243","0.0-8.0-0.59","5e8e55509422bb10abed1f54","650c16f0f2faf8d7a0d14c09","651c1c9bf2f046c6abe73a48","null","null","<p style=""font-size: 60px; font-family: BACS"">hAROKOtM</p>","","","","","","","","",""
"html-keyboard-response","68","169254","0.0-8.0-0.60","5e8e55509422bb10abed1f54","650c16f0f2faf8d7a0d14c09","651c1c9bf2f046c6abe73a48","null","null","<p style=""font-size: 60px; font-family: BACS"">aUZALkNc</p>","","","","","","","","",""
"html-keyboard-response","69","170256","0.0-8.0-0.61","5e8e55509422bb10abed1f54","650c16f0f2faf8d7a0d14c09","651c1c9bf2f046c6abe73a48","null","null","<p style=""font-size: 60px; font-family: BACS"">bcORYbBT</p>","","","","","","","","",""
"html-keyboard-response","70","171267","0.0-8.0-0.62","5e8e55509422bb10abed1f54","650c16f0f2faf8d7a0d14c09","651c1c9bf2f046c6abe73a48","null","null","<p style=""font-size: 60px; font-family: BACS"">MkmEdBCD</p>","","","","","","","","",""
"html-keyboard-response","71","172272","0.0-8.0-0.63","5e8e55509422bb10abed1f54","650c16f0f2faf8d7a0d14c09","651c1c9bf2f046c6abe73a48","null","null","<p style=""font-size: 60px; font-family: BACS"">ObZbAGQYQ</p>","","","","","","","","",""
"html-keyboard-response","72","173276","0.0-8.0-0.64","5e8e55509422bb10abed1f54","650c16f0f2faf8d7a0d14c09","651c1c9bf2f046c6abe73a48","null","null","<p style=""font-size: 60px; font-family: BACS"">ZkGmYLkNc</p>","","","","","","","","",""
"html-keyboard-response","73","174289","0.0-8.0-0.65","5e8e55509422bb10abed1f54","650c16f0f2faf8d7a0d14c09","651c1c9bf2f046c6abe73a48","null","null","<p style=""font-size: 60px; font-family: BACS"">dClOCOtM</p>","","","","","","","","",""
"html-keyboard-response","74","175301","0.0-8.0-0.66","5e8e55509422bb10abed1f54","650c16f0f2faf8d7a0d14c09","651c1c9bf2f046c6abe73a48","null","null","<p style=""font-size: 60px; font-family: BACS"">bcOROPE</p>","","","","","","","","",""
"html-keyboard-response","75","176312","0.0-8.0-0.67","5e8e55509422bb10abed1f54","650c16f0f2faf8d7a0d14c09","651c1c9bf2f046c6abe73a48","null","null","<p style=""font-size: 60px; font-family: BACS"">rbYbulGc</p>","","","","","","","","",""
"html-keyboard-response","76","177315","0.0-8.0-0.68","5e8e55509422bb10abed1f54","650c16f0f2faf8d7a0d14c09","651c1c9bf2f046c6abe73a48","null","null","<p style=""font-size: 60px; font-family: BACS"">TCbDCYbBT</p>","","","","","","","","",""
"html-keyboard-response","77","178320","0.0-8.0-0.69","5e8e55509422bb10abed1f54","650c16f0f2faf8d7a0d14c09","651c1c9bf2f046c6abe73a48","null","null","<p style=""font-size: 60px; font-family: BACS"">bvkrdUr</p>","","","","","","","","",""
"html-keyboard-response","78","179321","0.0-8.0-0.70","5e8e55509422bb10abed1f54","650c16f0f2faf8d7a0d14c09","651c1c9bf2f046c6abe73a48","null","null","<p style=""font-size: 60px; font-family: BACS"">ObZbAkJdr</p>","","","","","","","","",""
"html-keyboard-response","79","180326","0.0-8.0-0.71","5e8e55509422bb10abed1f54","650c16f0f2faf8d7a0d14c09","651c1c9bf2f046c6abe73a48","null","null","<p style=""font-size: 60px; font-family: BACS"">ALGZLkNc</p>","","","","","","","","",""
"html-keyboard-response","80","181328","0.0-8.0-0.72","5e8e55509422bb10abed1f54","650c16f0f2faf8d7a0d14c09","651c1c9bf2f046c6abe73a48","null","null","<p style=""font-size: 60px; font-family: BACS"">hCktBCD</p>","","","","","","","","",""
"html-keyboard-response","81","182329","0.0-8.0-0.73","5e8e55509422bb10abed1f54","650c16f0f2faf8d7a0d14c09","651c1c9bf2f046c6abe73a48","null","null","<p style=""font-size: 60px; font-family: BACS"">kPkRAlRE</p>","","","","","","","","",""
"html-keyboard-response","82","183334","0.0-8.0-0.74","5e8e55509422bb10abed1f54","650c16f0f2faf8d7a0d14c09","651c1c9bf2f046c6abe73a48","null","null","<p style=""font-size: 60px; font-family: BACS"">JNkalGc</p>","","","","","","","","",""
"html-keyboard-response","83","184346","0.0-8.0-0.75","5e8e55509422bb10abed1f54","650c16f0f2faf8d7a0d14c09","651c1c9bf2f046c6abe73a48","null","null","<p style=""font-size: 60px; font-family: BACS"">UJmrkJdr</p>","","","","","","","","",""
"html-keyboard-response","84","185357","0.0-8.0-0.76","5e8e55509422bb10abed1f54","650c16f0f2faf8d7a0d14c09","651c1c9bf2f046c6abe73a48","null","null","<p style=""font-size: 60px; font-family: BACS"">MkmEdlRE</p>","","","","","","","","",""
"html-keyboard-response","85","186359","0.0-8.0-0.77","5e8e55509422bb10abed1f54","650c16f0f2faf8d7a0d14c09","651c1c9bf2f046c6abe73a48","null","null","<p style=""font-size: 60px; font-family: BACS"">AlNUkJdr</p>","","","","","","","","",""
"html-keyboard-response","86","187363","0.0-8.0-0.78","5e8e55509422bb10abed1f54","650c16f0f2faf8d7a0d14c09","651c1c9bf2f046c6abe73a48","null","null","<p style=""font-size: 60px; font-family: BACS"">DhCPYbBT</p>","","","","","","","","",""
"html-keyboard-response","87","188375","0.0-8.0-0.79","5e8e55509422bb10abed1f54","650c16f0f2faf8d7a0d14c09","651c1c9bf2f046c6abe73a48","null","null","<p style=""font-size: 60px; font-family: BACS"">dClOCBCD</p>","","","","","","","","",""
"html-keyboard-response","88","191048","0.0-9.0","5e8e55509422bb10abed1f54","650c16f0f2faf8d7a0d14c09","651c1c9bf2f046c6abe73a48","2672"," ","<p>Great, you've seen the first block of words. You may now take a short break.</p>
      <p>Press the spacebar when you're ready to continue.</p>","","","","","","","","",""
"html-keyboard-response","89","192055","0.0-10.0-0.0","5e8e55509422bb10abed1f54","650c16f0f2faf8d7a0d14c09","651c1c9bf2f046c6abe73a48","null","null","<p style=""font-size: 60px; font-family: BACS"">UJmrdUr</p>","","","","","","","","",""
"html-keyboard-response","90","193066","0.0-10.0-0.1","5e8e55509422bb10abed1f54","650c16f0f2faf8d7a0d14c09","651c1c9bf2f046c6abe73a48","null","null","<p style=""font-size: 60px; font-family: BACS"">ArQuGQYQ</p>","","","","","","","","",""
"html-keyboard-response","91","194068","0.0-10.0-0.2","5e8e55509422bb10abed1f54","650c16f0f2faf8d7a0d14c09","651c1c9bf2f046c6abe73a48","null","null","<p style=""font-size: 60px; font-family: BACS"">ObZbAkJdr</p>","","","","","","","","",""
"html-keyboard-response","92","195070","0.0-10.0-0.3","5e8e55509422bb10abed1f54","650c16f0f2faf8d7a0d14c09","651c1c9bf2f046c6abe73a48","null","null","<p style=""font-size: 60px; font-family: BACS"">MkmEdOtM</p>","","","","","","","","",""
"html-keyboard-response","93","196073","0.0-10.0-0.4","5e8e55509422bb10abed1f54","650c16f0f2faf8d7a0d14c09","651c1c9bf2f046c6abe73a48","null","null","<p style=""font-size: 60px; font-family: BACS"">bcOROPE</p>","","","","","","","","",""
"html-keyboard-response","94","197086","0.0-10.0-0.5","5e8e55509422bb10abed1f54","650c16f0f2faf8d7a0d14c09","651c1c9bf2f046c6abe73a48","null","null","<p style=""font-size: 60px; font-family: BACS"">ZkGmYLkNc</p>","","","","","","","","",""
"html-keyboard-response","95","198097","0.0-10.0-0.6","5e8e55509422bb10abed1f54","650c16f0f2faf8d7a0d14c09","651c1c9bf2f046c6abe73a48","null","null","<p style=""font-size: 60px; font-family: BACS"">TCbDCOtM</p>","","","","","","","","",""
"html-keyboard-response","96","199100","0.0-10.0-0.7","5e8e55509422bb10abed1f54","650c16f0f2faf8d7a0d14c09","651c1c9bf2f046c6abe73a48","null","null","<p style=""font-size: 60px; font-family: BACS"">ObZbAGQYQ</p>","","","","","","","","",""
"html-keyboard-response","97","200102","0.0-10.0-0.8","5e8e55509422bb10abed1f54","650c16f0f2faf8d7a0d14c09","651c1c9bf2f046c6abe73a48","null","null","<p style=""font-size: 60px; font-family: BACS"">hAROKOtM</p>","","","","","","","","",""
"html-keyboard-response","98","201112","0.0-10.0-0.9","5e8e55509422bb10abed1f54","650c16f0f2faf8d7a0d14c09","651c1c9bf2f046c6abe73a48","null","null","<p style=""font-size: 60px; font-family: BACS"">dClOCBCD</p>","","","","","","","","",""
"html-keyboard-response","99","202122","0.0-10.0-0.10","5e8e55509422bb10abed1f54","650c16f0f2faf8d7a0d14c09","651c1c9bf2f046c6abe73a48","null","null","<p style=""font-size: 60px; font-family: BACS"">UJmrGQYQ</p>","","","","","","","","",""
"html-keyboard-response","100","203126","0.0-10.0-0.11","5e8e55509422bb10abed1f54","650c16f0f2faf8d7a0d14c09","651c1c9bf2f046c6abe73a48","null","null","<p style=""font-size: 60px; font-family: BACS"">JNkalGc</p>","","","","","","","","",""
"html-keyboard-response","101","204133","0.0-10.0-0.12","5e8e55509422bb10abed1f54","650c16f0f2faf8d7a0d14c09","651c1c9bf2f046c6abe73a48","null","null","<p style=""font-size: 60px; font-family: BACS"">AlNULkNc</p>","","","","","","","","",""
"html-keyboard-response","102","205143","0.0-10.0-0.13","5e8e55509422bb10abed1f54","650c16f0f2faf8d7a0d14c09","651c1c9bf2f046c6abe73a48","null","null","<p style=""font-size: 60px; font-family: BACS"">ArQukJdr</p>","","","","","","","","",""
"html-keyboard-response","103","206147","0.0-10.0-0.14","5e8e55509422bb10abed1f54","650c16f0f2faf8d7a0d14c09","651c1c9bf2f046c6abe73a48","null","null","<p style=""font-size: 60px; font-family: BACS"">JNkadUr</p>","","","","","","","","",""
"html-keyboard-response","104","207155","0.0-10.0-0.15","5e8e55509422bb10abed1f54","650c16f0f2faf8d7a0d14c09","651c1c9bf2f046c6abe73a48","null","null","<p style=""font-size: 60px; font-family: BACS"">bvkrkJdr</p>","","","","","","","","",""
"html-keyboard-response","105","208159","0.0-10.0-0.16","5e8e55509422bb10abed1f54","650c16f0f2faf8d7a0d14c09","651c1c9bf2f046c6abe73a48","null","null","<p style=""font-size: 60px; font-family: BACS"">hCktOPE</p>","","","","","","","","",""
"html-keyboard-response","106","209172","0.0-10.0-0.17","5e8e55509422bb10abed1f54","650c16f0f2faf8d7a0d14c09","651c1c9bf2f046c6abe73a48","null","null","<p style=""font-size: 60px; font-family: BACS"">ALGZLkNc</p>","","","","","","","","",""
"html-keyboard-response","107","210180","0.0-10.0-0.18","5e8e55509422bb10abed1f54","650c16f0f2faf8d7a0d14c09","651c1c9bf2f046c6abe73a48","null","null","<p style=""font-size: 60px; font-family: BACS"">rbYbuGQYQ</p>","","","","","","","","",""
"html-keyboard-response","108","211194","0.0-10.0-0.19","5e8e55509422bb10abed1f54","650c16f0f2faf8d7a0d14c09","651c1c9bf2f046c6abe73a48","null","null","<p style=""font-size: 60px; font-family: BACS"">UJmrkJdr</p>","","","","","","","","",""
"html-keyboard-response","109","212206","0.0-10.0-0.20","5e8e55509422bb10abed1f54","650c16f0f2faf8d7a0d14c09","651c1c9bf2f046c6abe73a48","null","null","<p style=""font-size: 60px; font-family: BACS"">TCbDCBCD</p>","","","","","","","","",""
"html-keyboard-response","110","213214","0.0-10.0-0.21","5e8e55509422bb10abed1f54","650c16f0f2faf8d7a0d14c09","651c1c9bf2f046c6abe73a48","null","null","<p style=""font-size: 60px; font-family: BACS"">rbYbulGc</p>","","","","","","","","",""
"html-keyboard-response","111","214216","0.0-10.0-0.22","5e8e55509422bb10abed1f54","650c16f0f2faf8d7a0d14c09","651c1c9bf2f046c6abe73a48","null","null","<p style=""font-size: 60px; font-family: BACS"">aUZAdUr</p>","","","","","","","","",""
"html-keyboard-response","112","215218","0.0-10.0-0.23","5e8e55509422bb10abed1f54","650c16f0f2faf8d7a0d14c09","651c1c9bf2f046c6abe73a48","null","null","<p style=""font-size: 60px; font-family: BACS"">tmAKYbBT</p>","","","","","","","","",""
"html-keyboard-response","113","216223","0.0-10.0-0.24","5e8e55509422bb10abed1f54","650c16f0f2faf8d7a0d14c09","651c1c9bf2f046c6abe73a48","null","null","<p style=""font-size: 60px; font-family: BACS"">aUZAlGc</p>","","","","","","","","",""
"html-keyboard-response","114","217226","0.0-10.0-0.25","5e8e55509422bb10abed1f54","650c16f0f2faf8d7a0d14c09","651c1c9bf2f046c6abe73a48","null","null","<p style=""font-size: 60px; font-family: BACS"">dClOCOPE</p>","","","","","","","","",""
"html-keyboard-response","115","218238","0.0-10.0-0.26","5e8e55509422bb10abed1f54","650c16f0f2faf8d7a0d14c09","651c1c9bf2f046c6abe73a48","null","null","<p style=""font-size: 60px; font-family: BACS"">DhCPlRE</p>","","","","","","","","",""
"html-keyboard-response","116","219239","0.0-10.0-0.27","5e8e55509422bb10abed1f54","650c16f0f2faf8d7a0d14c09","651c1c9bf2f046c6abe73a48","null","null","<p style=""font-size: 60px; font-family: BACS"">AlNUGQYQ</p>","","","","","","","","",""
"html-keyboard-response","117","220243","0.0-10.0-0.28","5e8e55509422bb10abed1f54","650c16f0f2faf8d7a0d14c09","651c1c9bf2f046c6abe73a48","null","null","<p style=""font-size: 60px; font-family: BACS"">rbYbuLkNc</p>","","","","","","","","",""
"html-keyboard-response","118","221245","0.0-10.0-0.29","5e8e55509422bb10abed1f54","650c16f0f2faf8d7a0d14c09","651c1c9bf2f046c6abe73a48","null","null","<p style=""font-size: 60px; font-family: BACS"">MkmEdBCD</p>","","","","","","","","",""
"html-keyboard-response","119","222256","0.0-10.0-0.30","5e8e55509422bb10abed1f54","650c16f0f2faf8d7a0d14c09","651c1c9bf2f046c6abe73a48","null","null","<p style=""font-size: 60px; font-family: BACS"">AMkCYbBT</p>","","","","","","","","",""
"html-keyboard-response","120","223266","0.0-10.0-0.31","5e8e55509422bb10abed1f54","650c16f0f2faf8d7a0d14c09","651c1c9bf2f046c6abe73a48","null","null","<p style=""font-size: 60px; font-family: BACS"">ZkGmYdUr</p>","","","","","","","","",""
"html-keyboard-response","121","224273","0.0-10.0-0.32","5e8e55509422bb10abed1f54","650c16f0f2faf8d7a0d14c09","651c1c9bf2f046c6abe73a48","null","null","<p style=""font-size: 60px; font-family: BACS"">JNkaGQYQ</p>","","","","","","","","",""
"html-keyboard-response","122","225285","0.0-10.0-0.33","5e8e55509422bb10abed1f54","650c16f0f2faf8d7a0d14c09","651c1c9bf2f046c6abe73a48","null","null","<p style=""font-size: 60px; font-family: BACS"">hCktBCD</p>","","","","","","","","",""
"html-keyboard-response","123","226288","0.0-10.0-0.34","5e8e55509422bb10abed1f54","650c16f0f2faf8d7a0d14c09","651c1c9bf2f046c6abe73a48","null","null","<p style=""font-size: 60px; font-family: BACS"">ALGZlGc</p>","","","","","","","","",""
"html-keyboard-response","124","227299","0.0-10.0-0.35","5e8e55509422bb10abed1f54","650c16f0f2faf8d7a0d14c09","651c1c9bf2f046c6abe73a48","null","null","<p style=""font-size: 60px; font-family: BACS"">TCbDCYbBT</p>","","","","","","","","",""
"html-keyboard-response","125","228309","0.0-10.0-0.36","5e8e55509422bb10abed1f54","650c16f0f2faf8d7a0d14c09","651c1c9bf2f046c6abe73a48","null","null","<p style=""font-size: 60px; font-family: BACS"">ZkGmYlGc</p>","","","","","","","","",""
"html-keyboard-response","126","229320","0.0-10.0-0.37","5e8e55509422bb10abed1f54","650c16f0f2faf8d7a0d14c09","651c1c9bf2f046c6abe73a48","null","null","<p style=""font-size: 60px; font-family: BACS"">TCbDClRE</p>","","","","","","","","",""
"html-keyboard-response","127","230323","0.0-10.0-0.38","5e8e55509422bb10abed1f54","650c16f0f2faf8d7a0d14c09","651c1c9bf2f046c6abe73a48","null","null","<p style=""font-size: 60px; font-family: BACS"">MkmEdYbBT</p>","","","","","","","","",""
"html-keyboard-response","128","231335","0.0-10.0-0.39","5e8e55509422bb10abed1f54","650c16f0f2faf8d7a0d14c09","651c1c9bf2f046c6abe73a48","null","null","<p style=""font-size: 60px; font-family: BACS"">hCktOtM</p>","","","","","","","","",""
"html-keyboard-response","129","232346","0.0-10.0-0.40","5e8e55509422bb10abed1f54","650c16f0f2faf8d7a0d14c09","651c1c9bf2f046c6abe73a48","null","null","<p style=""font-size: 60px; font-family: BACS"">DhCPYbBT</p>","","","","","","","","",""
"html-keyboard-response","130","233349","0.0-10.0-0.41","5e8e55509422bb10abed1f54","650c16f0f2faf8d7a0d14c09","651c1c9bf2f046c6abe73a48","null","null","<p style=""font-size: 60px; font-family: BACS"">ObZbAlGc</p>","","","","","","","","",""
"html-keyboard-response","131","234354","0.0-10.0-0.42","5e8e55509422bb10abed1f54","650c16f0f2faf8d7a0d14c09","651c1c9bf2f046c6abe73a48","null","null","<p style=""font-size: 60px; font-family: BACS"">hAROKYbBT</p>","","","","","","","","",""
"html-keyboard-response","132","235357","0.0-10.0-0.43","5e8e55509422bb10abed1f54","650c16f0f2faf8d7a0d14c09","651c1c9bf2f046c6abe73a48","null","null","<p style=""font-size: 60px; font-family: BACS"">ALGZGQYQ</p>","","","","","","","","",""
"html-keyboard-response","133","236367","0.0-10.0-0.44","5e8e55509422bb10abed1f54","650c16f0f2faf8d7a0d14c09","651c1c9bf2f046c6abe73a48","null","null","<p style=""font-size: 60px; font-family: BACS"">hCktlRE</p>","","","","","","","","",""
"html-keyboard-response","134","237370","0.0-10.0-0.45","5e8e55509422bb10abed1f54","650c16f0f2faf8d7a0d14c09","651c1c9bf2f046c6abe73a48","null","null","<p style=""font-size: 60px; font-family: BACS"">AMkCBCD</p>","","","","","","","","",""
"html-keyboard-response","135","238380","0.0-10.0-0.46","5e8e55509422bb10abed1f54","650c16f0f2faf8d7a0d14c09","651c1c9bf2f046c6abe73a48","null","null","<p style=""font-size: 60px; font-family: BACS"">kPkRAlRE</p>","","","","","","","","",""
"html-keyboard-response","136","239391","0.0-10.0-0.47","5e8e55509422bb10abed1f54","650c16f0f2faf8d7a0d14c09","651c1c9bf2f046c6abe73a48","null","null","<p style=""font-size: 60px; font-family: BACS"">bcORBCD</p>","","","","","","","","",""
"html-keyboard-response","137","240395","0.0-10.0-0.48","5e8e55509422bb10abed1f54","650c16f0f2faf8d7a0d14c09","651c1c9bf2f046c6abe73a48","null","null","<p style=""font-size: 60px; font-family: BACS"">ArQudUr</p>","","","","","","","","",""
"html-keyboard-response","138","241398","0.0-10.0-0.49","5e8e55509422bb10abed1f54","650c16f0f2faf8d7a0d14c09","651c1c9bf2f046c6abe73a48","null","null","<p style=""font-size: 60px; font-family: BACS"">kPkRAOPE</p>","","","","","","","","",""
"html-keyboard-response","139","242401","0.0-10.0-0.50","5e8e55509422bb10abed1f54","650c16f0f2faf8d7a0d14c09","651c1c9bf2f046c6abe73a48","null","null","<p style=""font-size: 60px; font-family: BACS"">tmAKOtM</p>","","","","","","","","",""
"html-keyboard-response","140","243404","0.0-10.0-0.51","5e8e55509422bb10abed1f54","650c16f0f2faf8d7a0d14c09","651c1c9bf2f046c6abe73a48","null","null","<p style=""font-size: 60px; font-family: BACS"">ArQuLkNc</p>","","","","","","","","",""
"html-keyboard-response","141","244416","0.0-10.0-0.52","5e8e55509422bb10abed1f54","650c16f0f2faf8d7a0d14c09","651c1c9bf2f046c6abe73a48","null","null","<p style=""font-size: 60px; font-family: BACS"">hAROKlRE</p>","","","","","","","","",""
"html-keyboard-response","142","245429","0.0-10.0-0.53","5e8e55509422bb10abed1f54","650c16f0f2faf8d7a0d14c09","651c1c9bf2f046c6abe73a48","null","null","<p style=""font-size: 60px; font-family: BACS"">dClOCOtM</p>","","","","","","","","",""
"html-keyboard-response","143","246443","0.0-10.0-0.54","5e8e55509422bb10abed1f54","650c16f0f2faf8d7a0d14c09","651c1c9bf2f046c6abe73a48","null","null","<p style=""font-size: 60px; font-family: BACS"">ALGZkJdr</p>","","","","","","","","",""
"html-keyboard-response","144","247446","0.0-10.0-0.55","5e8e55509422bb10abed1f54","650c16f0f2faf8d7a0d14c09","651c1c9bf2f046c6abe73a48","null","null","<p style=""font-size: 60px; font-family: BACS"">tmAKlRE</p>","","","","","","","","",""
"html-keyboard-response","145","248450","0.0-10.0-0.56","5e8e55509422bb10abed1f54","650c16f0f2faf8d7a0d14c09","651c1c9bf2f046c6abe73a48","null","null","<p style=""font-size: 60px; font-family: BACS"">ZkGmYkJdr</p>","","","","","","","","",""
"html-keyboard-response","146","249462","0.0-10.0-0.57","5e8e55509422bb10abed1f54","650c16f0f2faf8d7a0d14c09","651c1c9bf2f046c6abe73a48","null","null","<p style=""font-size: 60px; font-family: BACS"">bvkrdUr</p>","","","","","","","","",""
"html-keyboard-response","147","250466","0.0-10.0-0.58","5e8e55509422bb10abed1f54","650c16f0f2faf8d7a0d14c09","651c1c9bf2f046c6abe73a48","null","null","<p style=""font-size: 60px; font-family: BACS"">bcORlRE</p>","","","","","","","","",""
"html-keyboard-response","148","251469","0.0-10.0-0.59","5e8e55509422bb10abed1f54","650c16f0f2faf8d7a0d14c09","651c1c9bf2f046c6abe73a48","null","null","<p style=""font-size: 60px; font-family: BACS"">bvkrlGc</p>","","","","","","","","",""
"html-keyboard-response","149","252479","0.0-10.0-0.60","5e8e55509422bb10abed1f54","650c16f0f2faf8d7a0d14c09","651c1c9bf2f046c6abe73a48","null","null","<p style=""font-size: 60px; font-family: BACS"">AMkCOPE</p>","","","","","","","","",""
"html-keyboard-response","150","253483","0.0-10.0-0.61","5e8e55509422bb10abed1f54","650c16f0f2faf8d7a0d14c09","651c1c9bf2f046c6abe73a48","null","null","<p style=""font-size: 60px; font-family: BACS"">JNkakJdr</p>","","","","","","","","",""
"html-keyboard-response","151","254486","0.0-10.0-0.62","5e8e55509422bb10abed1f54","650c16f0f2faf8d7a0d14c09","651c1c9bf2f046c6abe73a48","null","null","<p style=""font-size: 60px; font-family: BACS"">dClOCYbBT</p>","","","","","","","","",""
"html-keyboard-response","152","255488","0.0-10.0-0.63","5e8e55509422bb10abed1f54","650c16f0f2faf8d7a0d14c09","651c1c9bf2f046c6abe73a48","null","null","<p style=""font-size: 60px; font-family: BACS"">hAROKOPE</p>","","","","","","","","",""
"html-keyboard-response","153","256491","0.0-10.0-0.64","5e8e55509422bb10abed1f54","650c16f0f2faf8d7a0d14c09","651c1c9bf2f046c6abe73a48","null","null","<p style=""font-size: 60px; font-family: BACS"">aUZAGQYQ</p>","","","","","","","","",""
"html-keyboard-response","154","257493","0.0-10.0-0.65","5e8e55509422bb10abed1f54","650c16f0f2faf8d7a0d14c09","651c1c9bf2f046c6abe73a48","null","null","<p style=""font-size: 60px; font-family: BACS"">rbYbudUr</p>","","","","","","","","",""
"html-keyboard-response","155","259226","0.0-10.0-0.66","5e8e55509422bb10abed1f54","650c16f0f2faf8d7a0d14c09","651c1c9bf2f046c6abe73a48","null","null","<p style=""font-size: 60px; font-family: BACS"">aUZALkNc</p>","","","","","","","","",""
"html-keyboard-response","156","261233","0.0-10.0-0.67","5e8e55509422bb10abed1f54","650c16f0f2faf8d7a0d14c09","651c1c9bf2f046c6abe73a48","null","null","<p style=""font-size: 60px; font-family: BACS"">tmAKOPE</p>","","","","","","","","",""
"html-keyboard-response","157","262234","0.0-10.0-0.68","5e8e55509422bb10abed1f54","650c16f0f2faf8d7a0d14c09","651c1c9bf2f046c6abe73a48","null","null","<p style=""font-size: 60px; font-family: BACS"">AlNUlGc</p>","","","","","","","","",""
"html-keyboard-response","158","264228","0.0-10.0-0.69","5e8e55509422bb10abed1f54","650c16f0f2faf8d7a0d14c09","651c1c9bf2f046c6abe73a48","null","null","<p style=""font-size: 60px; font-family: BACS"">kPkRAOtM</p>","","","","","","","","",""
"html-keyboard-response","159","265229","0.0-10.0-0.70","5e8e55509422bb10abed1f54","650c16f0f2faf8d7a0d14c09","651c1c9bf2f046c6abe73a48","null","null","<p style=""font-size: 60px; font-family: BACS"">DhCPOPE</p>","","","","","","","","",""
"html-keyboard-response","160","266237","0.0-10.0-0.71","5e8e55509422bb10abed1f54","650c16f0f2faf8d7a0d14c09","651c1c9bf2f046c6abe73a48","null","null","<p style=""font-size: 60px; font-family: BACS"">MkmEdlRE</p>","","","","","","","","",""
"html-keyboard-response","161","268222","0.0-10.0-0.72","5e8e55509422bb10abed1f54","650c16f0f2faf8d7a0d14c09","651c1c9bf2f046c6abe73a48","null","null","<p style=""font-size: 60px; font-family: BACS"">kPkRABCD</p>","","","","","","","","",""
"html-keyboard-response","162","269223","0.0-10.0-0.73","5e8e55509422bb10abed1f54","650c16f0f2faf8d7a0d14c09","651c1c9bf2f046c6abe73a48","null","null","<p style=""font-size: 60px; font-family: BACS"">AlNUkJdr</p>","","","","","","","","",""
"html-keyboard-response","163","270240","0.0-10.0-0.74","5e8e55509422bb10abed1f54","650c16f0f2faf8d7a0d14c09","651c1c9bf2f046c6abe73a48","null","null","<p style=""font-size: 60px; font-family: BACS"">bcORYbBT</p>","","","","","","","","",""
"html-keyboard-response","164","272224","0.0-10.0-0.75","5e8e55509422bb10abed1f54","650c16f0f2faf8d7a0d14c09","651c1c9bf2f046c6abe73a48","null","null","<p style=""font-size: 60px; font-family: BACS"">AMkCOtM</p>","","","","","","","","",""
"html-keyboard-response","165","273239","0.0-10.0-0.76","5e8e55509422bb10abed1f54","650c16f0f2faf8d7a0d14c09","651c1c9bf2f046c6abe73a48","null","null","<p style=""font-size: 60px; font-family: BACS"">UJmrLkNc</p>","","","","","","","","",""
"html-keyboard-response","166","275147","0.0-10.0-0.77","5e8e55509422bb10abed1f54","650c16f0f2faf8d7a0d14c09","651c1c9bf2f046c6abe73a48","null","null","<p style=""font-size: 60px; font-family: BACS"">ObZbAdUr</p>","","","","","","","","",""
"html-keyboard-response","167","276152","0.0-10.0-0.78","5e8e55509422bb10abed1f54","650c16f0f2faf8d7a0d14c09","651c1c9bf2f046c6abe73a48","null","null","<p style=""font-size: 60px; font-family: BACS"">bvkrLkNc</p>","","","","","","","","",""
"html-keyboard-response","168","277164","0.0-10.0-0.79","5e8e55509422bb10abed1f54","650c16f0f2faf8d7a0d14c09","651c1c9bf2f046c6abe73a48","null","null","<p style=""font-size: 60px; font-family: BACS"">DhCPBCD</p>","","","","","","","","",""
"html-keyboard-response","169","287334","0.0-11.0","5e8e55509422bb10abed1f54","650c16f0f2faf8d7a0d14c09","651c1c9bf2f046c6abe73a48","10170"," ","<p>Great, you've seen the second block of words. You may now take a short break.</p>
      <p>Press the spacebar when you're ready to continue.</p>","","","","","","","","",""
"html-keyboard-response","170","288342","0.0-12.0-0.0","5e8e55509422bb10abed1f54","650c16f0f2faf8d7a0d14c09","651c1c9bf2f046c6abe73a48","null","null","<p style=""font-size: 60px; font-family: BACS"">ObZbAGQYQ</p>","","","","","","","","",""
"html-keyboard-response","171","289348","0.0-12.0-0.1","5e8e55509422bb10abed1f54","650c16f0f2faf8d7a0d14c09","651c1c9bf2f046c6abe73a48","null","null","<p style=""font-size: 60px; font-family: BACS"">hCktBCD</p>","","","","","","","","",""
"html-keyboard-response","172","291225","0.0-12.0-0.2","5e8e55509422bb10abed1f54","650c16f0f2faf8d7a0d14c09","651c1c9bf2f046c6abe73a48","null","null","<p style=""font-size: 60px; font-family: BACS"">AlNUkJdr</p>","","","","","","","","",""
"html-keyboard-response","173","292235","0.0-12.0-0.3","5e8e55509422bb10abed1f54","650c16f0f2faf8d7a0d14c09","651c1c9bf2f046c6abe73a48","null","null","<p style=""font-size: 60px; font-family: BACS"">ALGZLkNc</p>","","","","","","","","",""
"html-keyboard-response","174","293668","0.0-12.0-0.4","5e8e55509422bb10abed1f54","650c16f0f2faf8d7a0d14c09","651c1c9bf2f046c6abe73a48","null","null","<p style=""font-size: 60px; font-family: BACS"">AlNUGQYQ</p>","","","","","","","","",""
"html-keyboard-response","175","294676","0.0-12.0-0.5","5e8e55509422bb10abed1f54","650c16f0f2faf8d7a0d14c09","651c1c9bf2f046c6abe73a48","null","null","<p style=""font-size: 60px; font-family: BACS"">DhCPYbBT</p>","","","","","","","","",""
"html-keyboard-response","176","295680","0.0-12.0-0.6","5e8e55509422bb10abed1f54","650c16f0f2faf8d7a0d14c09","651c1c9bf2f046c6abe73a48","null","null","<p style=""font-size: 60px; font-family: BACS"">ALGZlGc</p>","","","","","","","","",""
"html-keyboard-response","177","297222","0.0-12.0-0.7","5e8e55509422bb10abed1f54","650c16f0f2faf8d7a0d14c09","651c1c9bf2f046c6abe73a48","null","null","<p style=""font-size: 60px; font-family: BACS"">kPkRAlRE</p>","","","","","","","","",""
"html-keyboard-response","178","298238","0.0-12.0-0.8","5e8e55509422bb10abed1f54","650c16f0f2faf8d7a0d14c09","651c1c9bf2f046c6abe73a48","null","null","<p style=""font-size: 60px; font-family: BACS"">JNkakJdr</p>","","","","","","","","",""
"html-keyboard-response","179","299242","0.0-12.0-0.9","5e8e55509422bb10abed1f54","650c16f0f2faf8d7a0d14c09","651c1c9bf2f046c6abe73a48","null","null","<p style=""font-size: 60px; font-family: BACS"">hCktlRE</p>","","","","","","","","",""
"html-keyboard-response","180","300252","0.0-12.0-0.10","5e8e55509422bb10abed1f54","650c16f0f2faf8d7a0d14c09","651c1c9bf2f046c6abe73a48","null","null","<p style=""font-size: 60px; font-family: BACS"">bvkrlGc</p>","","","","","","","","",""
"html-keyboard-response","181","301265","0.0-12.0-0.11","5e8e55509422bb10abed1f54","650c16f0f2faf8d7a0d14c09","651c1c9bf2f046c6abe73a48","null","null","<p style=""font-size: 60px; font-family: BACS"">DhCPOPE</p>","","","","","","","","",""
"html-keyboard-response","182","303051","0.0-12.0-0.12","5e8e55509422bb10abed1f54","650c16f0f2faf8d7a0d14c09","651c1c9bf2f046c6abe73a48","null","null","<p style=""font-size: 60px; font-family: BACS"">kPkRABCD</p>","","","","","","","","",""
"html-keyboard-response","183","304058","0.0-12.0-0.13","5e8e55509422bb10abed1f54","650c16f0f2faf8d7a0d14c09","651c1c9bf2f046c6abe73a48","null","null","<p style=""font-size: 60px; font-family: BACS"">ALGZkJdr</p>","","","","","","","","",""
"html-keyboard-response","184","305060","0.0-12.0-0.14","5e8e55509422bb10abed1f54","650c16f0f2faf8d7a0d14c09","651c1c9bf2f046c6abe73a48","null","null","<p style=""font-size: 60px; font-family: BACS"">dClOCBCD</p>","","","","","","","","",""
"html-keyboard-response","185","306063","0.0-12.0-0.15","5e8e55509422bb10abed1f54","650c16f0f2faf8d7a0d14c09","651c1c9bf2f046c6abe73a48","null","null","<p style=""font-size: 60px; font-family: BACS"">MkmEdYbBT</p>","","","","","","","","",""
"html-keyboard-response","186","307077","0.0-12.0-0.16","5e8e55509422bb10abed1f54","650c16f0f2faf8d7a0d14c09","651c1c9bf2f046c6abe73a48","null","null","<p style=""font-size: 60px; font-family: BACS"">DhCPBCD</p>","","","","","","","","",""
"html-keyboard-response","187","308084","0.0-12.0-0.17","5e8e55509422bb10abed1f54","650c16f0f2faf8d7a0d14c09","651c1c9bf2f046c6abe73a48","null","null","<p style=""font-size: 60px; font-family: BACS"">tmAKOPE</p>","","","","","","","","",""
"html-keyboard-response","188","309086","0.0-12.0-0.18","5e8e55509422bb10abed1f54","650c16f0f2faf8d7a0d14c09","651c1c9bf2f046c6abe73a48","null","null","<p style=""font-size: 60px; font-family: BACS"">UJmrGQYQ</p>","","","","","","","","",""
"html-keyboard-response","189","310096","0.0-12.0-0.19","5e8e55509422bb10abed1f54","650c16f0f2faf8d7a0d14c09","651c1c9bf2f046c6abe73a48","null","null","<p style=""font-size: 60px; font-family: BACS"">TCbDClRE</p>","","","","","","","","",""
"html-keyboard-response","190","311107","0.0-12.0-0.20","5e8e55509422bb10abed1f54","650c16f0f2faf8d7a0d14c09","651c1c9bf2f046c6abe73a48","null","null","<p style=""font-size: 60px; font-family: BACS"">ArQudUr</p>","","","","","","","","",""
"html-keyboard-response","191","312111","0.0-12.0-0.21","5e8e55509422bb10abed1f54","650c16f0f2faf8d7a0d14c09","651c1c9bf2f046c6abe73a48","null","null","<p style=""font-size: 60px; font-family: BACS"">hAROKOPE</p>","","","","","","","","",""
"html-keyboard-response","192","313124","0.0-12.0-0.22","5e8e55509422bb10abed1f54","650c16f0f2faf8d7a0d14c09","651c1c9bf2f046c6abe73a48","null","null","<p style=""font-size: 60px; font-family: BACS"">aUZAGQYQ</p>","","","","","","","","",""
"html-keyboard-response","193","314134","0.0-12.0-0.23","5e8e55509422bb10abed1f54","650c16f0f2faf8d7a0d14c09","651c1c9bf2f046c6abe73a48","null","null","<p style=""font-size: 60px; font-family: BACS"">bvkrdUr</p>","","","","","","","","",""
"html-keyboard-response","194","315136","0.0-12.0-0.24","5e8e55509422bb10abed1f54","650c16f0f2faf8d7a0d14c09","651c1c9bf2f046c6abe73a48","null","null","<p style=""font-size: 60px; font-family: BACS"">ArQukJdr</p>","","","","","","","","",""
"html-keyboard-response","195","316138","0.0-12.0-0.25","5e8e55509422bb10abed1f54","650c16f0f2faf8d7a0d14c09","651c1c9bf2f046c6abe73a48","null","null","<p style=""font-size: 60px; font-family: BACS"">rbYbuGQYQ</p>","","","","","","","","",""
"html-keyboard-response","196","317141","0.0-12.0-0.26","5e8e55509422bb10abed1f54","650c16f0f2faf8d7a0d14c09","651c1c9bf2f046c6abe73a48","null","null","<p style=""font-size: 60px; font-family: BACS"">AMkCYbBT</p>","","","","","","","","",""
"html-keyboard-response","197","318145","0.0-12.0-0.27","5e8e55509422bb10abed1f54","650c16f0f2faf8d7a0d14c09","651c1c9bf2f046c6abe73a48","null","null","<p style=""font-size: 60px; font-family: BACS"">rbYbudUr</p>","","","","","","","","",""
"html-keyboard-response","198","319154","0.0-12.0-0.28","5e8e55509422bb10abed1f54","650c16f0f2faf8d7a0d14c09","651c1c9bf2f046c6abe73a48","null","null","<p style=""font-size: 60px; font-family: BACS"">UJmrLkNc</p>","","","","","","","","",""
"html-keyboard-response","199","320163","0.0-12.0-0.29","5e8e55509422bb10abed1f54","650c16f0f2faf8d7a0d14c09","651c1c9bf2f046c6abe73a48","null","null","<p style=""font-size: 60px; font-family: BACS"">hCktOtM</p>","","","","","","","","",""
"html-keyboard-response","200","321175","0.0-12.0-0.30","5e8e55509422bb10abed1f54","650c16f0f2faf8d7a0d14c09","651c1c9bf2f046c6abe73a48","null","null","<p style=""font-size: 60px; font-family: BACS"">ArQuLkNc</p>","","","","","","","","",""
"html-keyboard-response","201","322178","0.0-12.0-0.31","5e8e55509422bb10abed1f54","650c16f0f2faf8d7a0d14c09","651c1c9bf2f046c6abe73a48","null","null","<p style=""font-size: 60px; font-family: BACS"">ZkGmYlGc</p>","","","","","","","","",""
"html-keyboard-response","202","323189","0.0-12.0-0.32","5e8e55509422bb10abed1f54","650c16f0f2faf8d7a0d14c09","651c1c9bf2f046c6abe73a48","null","null","<p style=""font-size: 60px; font-family: BACS"">AMkCOtM</p>","","","","","","","","",""
"html-keyboard-response","203","324197","0.0-12.0-0.33","5e8e55509422bb10abed1f54","650c16f0f2faf8d7a0d14c09","651c1c9bf2f046c6abe73a48","null","null","<p style=""font-size: 60px; font-family: BACS"">rbYbuLkNc</p>","","","","","","","","",""
"html-keyboard-response","204","325207","0.0-12.0-0.34","5e8e55509422bb10abed1f54","650c16f0f2faf8d7a0d14c09","651c1c9bf2f046c6abe73a48","null","null","<p style=""font-size: 60px; font-family: BACS"">ObZbAkJdr</p>","","","","","","","","",""
"html-keyboard-response","205","326213","0.0-12.0-0.35","5e8e55509422bb10abed1f54","650c16f0f2faf8d7a0d14c09","651c1c9bf2f046c6abe73a48","null","null","<p style=""font-size: 60px; font-family: BACS"">dClOCYbBT</p>","","","","","","","","",""
"html-keyboard-response","206","327216","0.0-12.0-0.36","5e8e55509422bb10abed1f54","650c16f0f2faf8d7a0d14c09","651c1c9bf2f046c6abe73a48","null","null","<p style=""font-size: 60px; font-family: BACS"">DhCPlRE</p>","","","","","","","","",""
"html-keyboard-response","207","328218","0.0-12.0-0.37","5e8e55509422bb10abed1f54","650c16f0f2faf8d7a0d14c09","651c1c9bf2f046c6abe73a48","null","null","<p style=""font-size: 60px; font-family: BACS"">TCbDCBCD</p>","","","","","","","","",""
"html-keyboard-response","208","329222","0.0-12.0-0.38","5e8e55509422bb10abed1f54","650c16f0f2faf8d7a0d14c09","651c1c9bf2f046c6abe73a48","null","null","<p style=""font-size: 60px; font-family: BACS"">bcOROPE</p>","","","","","","","","",""
"html-keyboard-response","209","330240","0.0-12.0-0.39","5e8e55509422bb10abed1f54","650c16f0f2faf8d7a0d14c09","651c1c9bf2f046c6abe73a48","null","null","<p style=""font-size: 60px; font-family: BACS"">MkmEdOtM</p>","","","","","","","","",""
"html-keyboard-response","210","331243","0.0-12.0-0.40","5e8e55509422bb10abed1f54","650c16f0f2faf8d7a0d14c09","651c1c9bf2f046c6abe73a48","null","null","<p style=""font-size: 60px; font-family: BACS"">AlNUlGc</p>","","","","","","","","",""
"html-keyboard-response","211","332245","0.0-12.0-0.41","5e8e55509422bb10abed1f54","650c16f0f2faf8d7a0d14c09","651c1c9bf2f046c6abe73a48","null","null","<p style=""font-size: 60px; font-family: BACS"">ArQuGQYQ</p>","","","","","","","","",""
"html-keyboard-response","212","333250","0.0-12.0-0.42","5e8e55509422bb10abed1f54","650c16f0f2faf8d7a0d14c09","651c1c9bf2f046c6abe73a48","null","null","<p style=""font-size: 60px; font-family: BACS"">UJmrkJdr</p>","","","","","","","","",""
"html-keyboard-response","213","334255","0.0-12.0-0.43","5e8e55509422bb10abed1f54","650c16f0f2faf8d7a0d14c09","651c1c9bf2f046c6abe73a48","null","null","<p style=""font-size: 60px; font-family: BACS"">hAROKlRE</p>","","","","","","","","",""
"html-keyboard-response","214","335260","0.0-12.0-0.44","5e8e55509422bb10abed1f54","650c16f0f2faf8d7a0d14c09","651c1c9bf2f046c6abe73a48","null","null","<p style=""font-size: 60px; font-family: BACS"">ObZbAlGc</p>","","","","","","","","",""
"html-keyboard-response","215","336262","0.0-12.0-0.45","5e8e55509422bb10abed1f54","650c16f0f2faf8d7a0d14c09","651c1c9bf2f046c6abe73a48","null","null","<p style=""font-size: 60px; font-family: BACS"">hAROKOtM</p>","","","","","","","","",""
"html-keyboard-response","216","337272","0.0-12.0-0.46","5e8e55509422bb10abed1f54","650c16f0f2faf8d7a0d14c09","651c1c9bf2f046c6abe73a48","null","null","<p style=""font-size: 60px; font-family: BACS"">tmAKYbBT</p>","","","","","","","","",""
"html-keyboard-response","217","338279","0.0-12.0-0.47","5e8e55509422bb10abed1f54","650c16f0f2faf8d7a0d14c09","651c1c9bf2f046c6abe73a48","null","null","<p style=""font-size: 60px; font-family: BACS"">aUZALkNc</p>","","","","","","","","",""
"html-keyboard-response","218","339285","0.0-12.0-0.48","5e8e55509422bb10abed1f54","650c16f0f2faf8d7a0d14c09","651c1c9bf2f046c6abe73a48","null","null","<p style=""font-size: 60px; font-family: BACS"">bcORBCD</p>","","","","","","","","",""
"html-keyboard-response","219","340288","0.0-12.0-0.49","5e8e55509422bb10abed1f54","650c16f0f2faf8d7a0d14c09","651c1c9bf2f046c6abe73a48","null","null","<p style=""font-size: 60px; font-family: BACS"">hAROKYbBT</p>","","","","","","","","",""
"html-keyboard-response","220","341298","0.0-12.0-0.50","5e8e55509422bb10abed1f54","650c16f0f2faf8d7a0d14c09","651c1c9bf2f046c6abe73a48","null","null","<p style=""font-size: 60px; font-family: BACS"">dClOCOtM</p>","","","","","","","","",""
"html-keyboard-response","221","342309","0.0-12.0-0.51","5e8e55509422bb10abed1f54","650c16f0f2faf8d7a0d14c09","651c1c9bf2f046c6abe73a48","null","null","<p style=""font-size: 60px; font-family: BACS"">aUZAdUr</p>","","","","","","","","",""
"html-keyboard-response","222","343320","0.0-12.0-0.52","5e8e55509422bb10abed1f54","650c16f0f2faf8d7a0d14c09","651c1c9bf2f046c6abe73a48","null","null","<p style=""font-size: 60px; font-family: BACS"">ALGZGQYQ</p>","","","","","","","","",""
"html-keyboard-response","223","344326","0.0-12.0-0.53","5e8e55509422bb10abed1f54","650c16f0f2faf8d7a0d14c09","651c1c9bf2f046c6abe73a48","null","null","<p style=""font-size: 60px; font-family: BACS"">rbYbulGc</p>","","","","","","","","",""
"html-keyboard-response","224","345336","0.0-12.0-0.54","5e8e55509422bb10abed1f54","650c16f0f2faf8d7a0d14c09","651c1c9bf2f046c6abe73a48","null","null","<p style=""font-size: 60px; font-family: BACS"">AMkCBCD</p>","","","","","","","","",""
"html-keyboard-response","225","346348","0.0-12.0-0.55","5e8e55509422bb10abed1f54","650c16f0f2faf8d7a0d14c09","651c1c9bf2f046c6abe73a48","null","null","<p style=""font-size: 60px; font-family: BACS"">aUZAlGc</p>","","","","","","","","",""
"html-keyboard-response","226","347367","0.0-12.0-0.56","5e8e55509422bb10abed1f54","650c16f0f2faf8d7a0d14c09","651c1c9bf2f046c6abe73a48","null","null","<p style=""font-size: 60px; font-family: BACS"">bcORlRE</p>","","","","","","","","",""
"html-keyboard-response","227","348378","0.0-12.0-0.57","5e8e55509422bb10abed1f54","650c16f0f2faf8d7a0d14c09","651c1c9bf2f046c6abe73a48","null","null","<p style=""font-size: 60px; font-family: BACS"">ZkGmYdUr</p>","","","","","","","","",""
"html-keyboard-response","228","349382","0.0-12.0-0.58","5e8e55509422bb10abed1f54","650c16f0f2faf8d7a0d14c09","651c1c9bf2f046c6abe73a48","null","null","<p style=""font-size: 60px; font-family: BACS"">JNkaGQYQ</p>","","","","","","","","",""
"html-keyboard-response","229","351228","0.0-12.0-0.59","5e8e55509422bb10abed1f54","650c16f0f2faf8d7a0d14c09","651c1c9bf2f046c6abe73a48","null","null","<p style=""font-size: 60px; font-family: BACS"">bvkrkJdr</p>","","","","","","","","",""
"html-keyboard-response","230","352229","0.0-12.0-0.60","5e8e55509422bb10abed1f54","650c16f0f2faf8d7a0d14c09","651c1c9bf2f046c6abe73a48","null","null","<p style=""font-size: 60px; font-family: BACS"">bcORYbBT</p>","","","","","","","","",""
"html-keyboard-response","231","353243","0.0-12.0-0.61","5e8e55509422bb10abed1f54","650c16f0f2faf8d7a0d14c09","651c1c9bf2f046c6abe73a48","null","null","<p style=""font-size: 60px; font-family: BACS"">JNkalGc</p>","","","","","","","","",""
"html-keyboard-response","232","354249","0.0-12.0-0.62","5e8e55509422bb10abed1f54","650c16f0f2faf8d7a0d14c09","651c1c9bf2f046c6abe73a48","null","null","<p style=""font-size: 60px; font-family: BACS"">tmAKlRE</p>","","","","","","","","",""
"html-keyboard-response","233","355256","0.0-12.0-0.63","5e8e55509422bb10abed1f54","650c16f0f2faf8d7a0d14c09","651c1c9bf2f046c6abe73a48","null","null","<p style=""font-size: 60px; font-family: BACS"">UJmrdUr</p>","","","","","","","","",""
"html-keyboard-response","234","356260","0.0-12.0-0.64","5e8e55509422bb10abed1f54","650c16f0f2faf8d7a0d14c09","651c1c9bf2f046c6abe73a48","null","null","<p style=""font-size: 60px; font-family: BACS"">MkmEdBCD</p>","","","","","","","","",""
"html-keyboard-response","235","357276","0.0-12.0-0.65","5e8e55509422bb10abed1f54","650c16f0f2faf8d7a0d14c09","651c1c9bf2f046c6abe73a48","null","null","<p style=""font-size: 60px; font-family: BACS"">kPkRAOPE</p>","","","","","","","","",""
"html-keyboard-response","236","358289","0.0-12.0-0.66","5e8e55509422bb10abed1f54","650c16f0f2faf8d7a0d14c09","651c1c9bf2f046c6abe73a48","null","null","<p style=""font-size: 60px; font-family: BACS"">ObZbAdUr</p>","","","","","","","","",""
"html-keyboard-response","237","359294","0.0-12.0-0.67","5e8e55509422bb10abed1f54","650c16f0f2faf8d7a0d14c09","651c1c9bf2f046c6abe73a48","null","null","<p style=""font-size: 60px; font-family: BACS"">AMkCOPE</p>","","","","","","","","",""
"html-keyboard-response","238","360301","0.0-12.0-0.68","5e8e55509422bb10abed1f54","650c16f0f2faf8d7a0d14c09","651c1c9bf2f046c6abe73a48","null","null","<p style=""font-size: 60px; font-family: BACS"">ZkGmYLkNc</p>","","","","","","","","",""
"html-keyboard-response","239","361303","0.0-12.0-0.69","5e8e55509422bb10abed1f54","650c16f0f2faf8d7a0d14c09","651c1c9bf2f046c6abe73a48","null","null","<p style=""font-size: 60px; font-family: BACS"">TCbDCYbBT</p>","","","","","","","","",""
"html-keyboard-response","240","362317","0.0-12.0-0.70","5e8e55509422bb10abed1f54","650c16f0f2faf8d7a0d14c09","651c1c9bf2f046c6abe73a48","null","null","<p style=""font-size: 60px; font-family: BACS"">JNkadUr</p>","","","","","","","","",""
"html-keyboard-response","241","363319","0.0-12.0-0.71","5e8e55509422bb10abed1f54","650c16f0f2faf8d7a0d14c09","651c1c9bf2f046c6abe73a48","null","null","<p style=""font-size: 60px; font-family: BACS"">bvkrLkNc</p>","","","","","","","","",""
"html-keyboard-response","242","364323","0.0-12.0-0.72","5e8e55509422bb10abed1f54","650c16f0f2faf8d7a0d14c09","651c1c9bf2f046c6abe73a48","null","null","<p style=""font-size: 60px; font-family: BACS"">MkmEdlRE</p>","","","","","","","","",""
"html-keyboard-response","243","365325","0.0-12.0-0.73","5e8e55509422bb10abed1f54","650c16f0f2faf8d7a0d14c09","651c1c9bf2f046c6abe73a48","null","null","<p style=""font-size: 60px; font-family: BACS"">ZkGmYkJdr</p>","","","","","","","","",""
"html-keyboard-response","244","366327","0.0-12.0-0.74","5e8e55509422bb10abed1f54","650c16f0f2faf8d7a0d14c09","651c1c9bf2f046c6abe73a48","null","null","<p style=""font-size: 60px; font-family: BACS"">tmAKOtM</p>","","","","","","","","",""
"html-keyboard-response","245","367331","0.0-12.0-0.75","5e8e55509422bb10abed1f54","650c16f0f2faf8d7a0d14c09","651c1c9bf2f046c6abe73a48","null","null","<p style=""font-size: 60px; font-family: BACS"">dClOCOPE</p>","","","","","","","","",""
"html-keyboard-response","246","368333","0.0-12.0-0.76","5e8e55509422bb10abed1f54","650c16f0f2faf8d7a0d14c09","651c1c9bf2f046c6abe73a48","null","null","<p style=""font-size: 60px; font-family: BACS"">kPkRAOtM</p>","","","","","","","","",""
"html-keyboard-response","247","369335","0.0-12.0-0.77","5e8e55509422bb10abed1f54","650c16f0f2faf8d7a0d14c09","651c1c9bf2f046c6abe73a48","null","null","<p style=""font-size: 60px; font-family: BACS"">hCktOPE</p>","","","","","","","","",""
"html-keyboard-response","248","370338","0.0-12.0-0.78","5e8e55509422bb10abed1f54","650c16f0f2faf8d7a0d14c09","651c1c9bf2f046c6abe73a48","null","null","<p style=""font-size: 60px; font-family: BACS"">AlNULkNc</p>","","","","","","","","",""
"html-keyboard-response","249","371340","0.0-12.0-0.79","5e8e55509422bb10abed1f54","650c16f0f2faf8d7a0d14c09","651c1c9bf2f046c6abe73a48","null","null","<p style=""font-size: 60px; font-family: BACS"">TCbDCOtM</p>","","","","","","","","",""
"html-keyboard-response","250","387420","0.0-13.0","5e8e55509422bb10abed1f54","650c16f0f2faf8d7a0d14c09","651c1c9bf2f046c6abe73a48","16079"," ","<p>Great, you've seen the third block of words. You may now take a short break.</p>
      <p>Press the spacebar when you're ready to continue.</p>","","","","","","","","",""
"html-keyboard-response","251","388431","0.0-14.0-0.0","5e8e55509422bb10abed1f54","650c16f0f2faf8d7a0d14c09","651c1c9bf2f046c6abe73a48","null","null","<p style=""font-size: 60px; font-family: BACS"">ALGZkJdr</p>","","","","","","","","",""
"html-keyboard-response","252","389434","0.0-14.0-0.1","5e8e55509422bb10abed1f54","650c16f0f2faf8d7a0d14c09","651c1c9bf2f046c6abe73a48","null","null","<p style=""font-size: 60px; font-family: BACS"">kPkRAOtM</p>","","","","","","","","",""
"html-keyboard-response","253","390444","0.0-14.0-0.2","5e8e55509422bb10abed1f54","650c16f0f2faf8d7a0d14c09","651c1c9bf2f046c6abe73a48","null","null","<p style=""font-size: 60px; font-family: BACS"">ALGZLkNc</p>","","","","","","","","",""
"html-keyboard-response","254","391448","0.0-14.0-0.3","5e8e55509422bb10abed1f54","650c16f0f2faf8d7a0d14c09","651c1c9bf2f046c6abe73a48","null","null","<p style=""font-size: 60px; font-family: BACS"">TCbDCBCD</p>","","","","","","","","",""
"html-keyboard-response","255","392450","0.0-14.0-0.4","5e8e55509422bb10abed1f54","650c16f0f2faf8d7a0d14c09","651c1c9bf2f046c6abe73a48","null","null","<p style=""font-size: 60px; font-family: BACS"">ObZbAlGc</p>","","","","","","","","",""
"html-keyboard-response","256","393461","0.0-14.0-0.5","5e8e55509422bb10abed1f54","650c16f0f2faf8d7a0d14c09","651c1c9bf2f046c6abe73a48","null","null","<p style=""font-size: 60px; font-family: BACS"">dClOCOtM</p>","","","","","","","","",""
"html-keyboard-response","257","394463","0.0-14.0-0.6","5e8e55509422bb10abed1f54","650c16f0f2faf8d7a0d14c09","651c1c9bf2f046c6abe73a48","null","null","<p style=""font-size: 60px; font-family: BACS"">AlNUlGc</p>","","","","","","","","",""
"html-keyboard-response","258","395466","0.0-14.0-0.7","5e8e55509422bb10abed1f54","650c16f0f2faf8d7a0d14c09","651c1c9bf2f046c6abe73a48","null","null","<p style=""font-size: 60px; font-family: BACS"">JNkaGQYQ</p>","","","","","","","","",""
"html-keyboard-response","259","396477","0.0-14.0-0.8","5e8e55509422bb10abed1f54","650c16f0f2faf8d7a0d14c09","651c1c9bf2f046c6abe73a48","null","null","<p style=""font-size: 60px; font-family: BACS"">MkmEdlRE</p>","","","","","","","","",""
"html-keyboard-response","260","397487","0.0-14.0-0.9","5e8e55509422bb10abed1f54","650c16f0f2faf8d7a0d14c09","651c1c9bf2f046c6abe73a48","null","null","<p style=""font-size: 60px; font-family: BACS"">hAROKOtM</p>","","","","","","","","",""
"html-keyboard-response","261","398489","0.0-14.0-0.10","5e8e55509422bb10abed1f54","650c16f0f2faf8d7a0d14c09","651c1c9bf2f046c6abe73a48","null","null","<p style=""font-size: 60px; font-family: BACS"">ArQuLkNc</p>","","","","","","","","",""
"html-keyboard-response","262","399491","0.0-14.0-0.11","5e8e55509422bb10abed1f54","650c16f0f2faf8d7a0d14c09","651c1c9bf2f046c6abe73a48","null","null","<p style=""font-size: 60px; font-family: BACS"">AMkCOtM</p>","","","","","","","","",""
"html-keyboard-response","263","400494","0.0-14.0-0.12","5e8e55509422bb10abed1f54","650c16f0f2faf8d7a0d14c09","651c1c9bf2f046c6abe73a48","null","null","<p style=""font-size: 60px; font-family: BACS"">DhCPOPE</p>","","","","","","","","",""
"html-keyboard-response","264","401498","0.0-14.0-0.13","5e8e55509422bb10abed1f54","650c16f0f2faf8d7a0d14c09","651c1c9bf2f046c6abe73a48","null","null","<p style=""font-size: 60px; font-family: BACS"">aUZAlGc</p>","","","","","","","","",""
"html-keyboard-response","265","402505","0.0-14.0-0.14","5e8e55509422bb10abed1f54","650c16f0f2faf8d7a0d14c09","651c1c9bf2f046c6abe73a48","null","null","<p style=""font-size: 60px; font-family: BACS"">JNkakJdr</p>","","","","","","","","",""
"html-keyboard-response","266","403509","0.0-14.0-0.15","5e8e55509422bb10abed1f54","650c16f0f2faf8d7a0d14c09","651c1c9bf2f046c6abe73a48","null","null","<p style=""font-size: 60px; font-family: BACS"">ZkGmYlGc</p>","","","","","","","","",""
"html-keyboard-response","267","404512","0.0-14.0-0.16","5e8e55509422bb10abed1f54","650c16f0f2faf8d7a0d14c09","651c1c9bf2f046c6abe73a48","null","null","<p style=""font-size: 60px; font-family: BACS"">ALGZGQYQ</p>","","","","","","","","",""
"html-keyboard-response","268","405514","0.0-14.0-0.17","5e8e55509422bb10abed1f54","650c16f0f2faf8d7a0d14c09","651c1c9bf2f046c6abe73a48","null","null","<p style=""font-size: 60px; font-family: BACS"">hAROKlRE</p>","","","","","","","","",""
"html-keyboard-response","269","406517","0.0-14.0-0.18","5e8e55509422bb10abed1f54","650c16f0f2faf8d7a0d14c09","651c1c9bf2f046c6abe73a48","null","null","<p style=""font-size: 60px; font-family: BACS"">bvkrdUr</p>","","","","","","","","",""
"html-keyboard-response","270","407521","0.0-14.0-0.19","5e8e55509422bb10abed1f54","650c16f0f2faf8d7a0d14c09","651c1c9bf2f046c6abe73a48","null","null","<p style=""font-size: 60px; font-family: BACS"">ALGZlGc</p>","","","","","","","","",""
"html-keyboard-response","271","408532","0.0-14.0-0.20","5e8e55509422bb10abed1f54","650c16f0f2faf8d7a0d14c09","651c1c9bf2f046c6abe73a48","null","null","<p style=""font-size: 60px; font-family: BACS"">TCbDCYbBT</p>","","","","","","","","",""
"html-keyboard-response","272","409535","0.0-14.0-0.21","5e8e55509422bb10abed1f54","650c16f0f2faf8d7a0d14c09","651c1c9bf2f046c6abe73a48","null","null","<p style=""font-size: 60px; font-family: BACS"">ObZbAGQYQ</p>","","","","","","","","",""
"html-keyboard-response","273","410538","0.0-14.0-0.22","5e8e55509422bb10abed1f54","650c16f0f2faf8d7a0d14c09","651c1c9bf2f046c6abe73a48","null","null","<p style=""font-size: 60px; font-family: BACS"">tmAKlRE</p>","","","","","","","","",""
"html-keyboard-response","274","411541","0.0-14.0-0.23","5e8e55509422bb10abed1f54","650c16f0f2faf8d7a0d14c09","651c1c9bf2f046c6abe73a48","null","null","<p style=""font-size: 60px; font-family: BACS"">DhCPYbBT</p>","","","","","","","","",""
"html-keyboard-response","275","412545","0.0-14.0-0.24","5e8e55509422bb10abed1f54","650c16f0f2faf8d7a0d14c09","651c1c9bf2f046c6abe73a48","null","null","<p style=""font-size: 60px; font-family: BACS"">AlNUkJdr</p>","","","","","","","","",""
"html-keyboard-response","276","413554","0.0-14.0-0.25","5e8e55509422bb10abed1f54","650c16f0f2faf8d7a0d14c09","651c1c9bf2f046c6abe73a48","null","null","<p style=""font-size: 60px; font-family: BACS"">JNkadUr</p>","","","","","","","","",""
"html-keyboard-response","277","414569","0.0-14.0-0.26","5e8e55509422bb10abed1f54","650c16f0f2faf8d7a0d14c09","651c1c9bf2f046c6abe73a48","null","null","<p style=""font-size: 60px; font-family: BACS"">ZkGmYkJdr</p>","","","","","","","","",""
"html-keyboard-response","278","415575","0.0-14.0-0.27","5e8e55509422bb10abed1f54","650c16f0f2faf8d7a0d14c09","651c1c9bf2f046c6abe73a48","null","null","<p style=""font-size: 60px; font-family: BACS"">UJmrGQYQ</p>","","","","","","","","",""
"html-keyboard-response","279","416582","0.0-14.0-0.28","5e8e55509422bb10abed1f54","650c16f0f2faf8d7a0d14c09","651c1c9bf2f046c6abe73a48","null","null","<p style=""font-size: 60px; font-family: BACS"">TCbDClRE</p>","","","","","","","","",""
"html-keyboard-response","280","417593","0.0-14.0-0.29","5e8e55509422bb10abed1f54","650c16f0f2faf8d7a0d14c09","651c1c9bf2f046c6abe73a48","null","null","<p style=""font-size: 60px; font-family: BACS"">bcORBCD</p>","","","","","","","","",""
"html-keyboard-response","281","418595","0.0-14.0-0.30","5e8e55509422bb10abed1f54","650c16f0f2faf8d7a0d14c09","651c1c9bf2f046c6abe73a48","null","null","<p style=""font-size: 60px; font-family: BACS"">bvkrkJdr</p>","","","","","","","","",""
"html-keyboard-response","282","419600","0.0-14.0-0.31","5e8e55509422bb10abed1f54","650c16f0f2faf8d7a0d14c09","651c1c9bf2f046c6abe73a48","null","null","<p style=""font-size: 60px; font-family: BACS"">MkmEdOtM</p>","","","","","","","","",""
"html-keyboard-response","283","420603","0.0-14.0-0.32","5e8e55509422bb10abed1f54","650c16f0f2faf8d7a0d14c09","651c1c9bf2f046c6abe73a48","null","null","<p style=""font-size: 60px; font-family: BACS"">tmAKOPE</p>","","","","","","","","",""
"html-keyboard-response","284","421615","0.0-14.0-0.33","5e8e55509422bb10abed1f54","650c16f0f2faf8d7a0d14c09","651c1c9bf2f046c6abe73a48","null","null","<p style=""font-size: 60px; font-family: BACS"">DhCPlRE</p>","","","","","","","","",""
"html-keyboard-response","285","422629","0.0-14.0-0.34","5e8e55509422bb10abed1f54","650c16f0f2faf8d7a0d14c09","651c1c9bf2f046c6abe73a48","null","null","<p style=""font-size: 60px; font-family: BACS"">MkmEdYbBT</p>","","","","","","","","",""
"html-keyboard-response","286","423632","0.0-14.0-0.35","5e8e55509422bb10abed1f54","650c16f0f2faf8d7a0d14c09","651c1c9bf2f046c6abe73a48","null","null","<p style=""font-size: 60px; font-family: BACS"">UJmrLkNc</p>","","","","","","","","",""
"html-keyboard-response","287","424634","0.0-14.0-0.36","5e8e55509422bb10abed1f54","650c16f0f2faf8d7a0d14c09","651c1c9bf2f046c6abe73a48","null","null","<p style=""font-size: 60px; font-family: BACS"">AlNUGQYQ</p>","","","","","","","","",""
"html-keyboard-response","288","425646","0.0-14.0-0.37","5e8e55509422bb10abed1f54","650c16f0f2faf8d7a0d14c09","651c1c9bf2f046c6abe73a48","null","null","<p style=""font-size: 60px; font-family: BACS"">rbYbulGc</p>","","","","","","","","",""
"html-keyboard-response","289","426656","0.0-14.0-0.38","5e8e55509422bb10abed1f54","650c16f0f2faf8d7a0d14c09","651c1c9bf2f046c6abe73a48","null","null","<p style=""font-size: 60px; font-family: BACS"">MkmEdBCD</p>","","","","","","","","",""
"html-keyboard-response","290","427659","0.0-14.0-0.39","5e8e55509422bb10abed1f54","650c16f0f2faf8d7a0d14c09","651c1c9bf2f046c6abe73a48","null","null","<p style=""font-size: 60px; font-family: BACS"">bcOROPE</p>","","","","","","","","",""
"html-keyboard-response","291","428662","0.0-14.0-0.40","5e8e55509422bb10abed1f54","650c16f0f2faf8d7a0d14c09","651c1c9bf2f046c6abe73a48","null","null","<p style=""font-size: 60px; font-family: BACS"">kPkRAlRE</p>","","","","","","","","",""
"html-keyboard-response","292","429672","0.0-14.0-0.41","5e8e55509422bb10abed1f54","650c16f0f2faf8d7a0d14c09","651c1c9bf2f046c6abe73a48","null","null","<p style=""font-size: 60px; font-family: BACS"">hCktBCD</p>","","","","","","","","",""
"html-keyboard-response","293","430675","0.0-14.0-0.42","5e8e55509422bb10abed1f54","650c16f0f2faf8d7a0d14c09","651c1c9bf2f046c6abe73a48","null","null","<p style=""font-size: 60px; font-family: BACS"">dClOCYbBT</p>","","","","","","","","",""
"html-keyboard-response","294","431679","0.0-14.0-0.43","5e8e55509422bb10abed1f54","650c16f0f2faf8d7a0d14c09","651c1c9bf2f046c6abe73a48","null","null","<p style=""font-size: 60px; font-family: BACS"">hCktOPE</p>","","","","","","","","",""
"html-keyboard-response","295","432689","0.0-14.0-0.44","5e8e55509422bb10abed1f54","650c16f0f2faf8d7a0d14c09","651c1c9bf2f046c6abe73a48","null","null","<p style=""font-size: 60px; font-family: BACS"">ZkGmYLkNc</p>","","","","","","","","",""
"html-keyboard-response","296","433692","0.0-14.0-0.45","5e8e55509422bb10abed1f54","650c16f0f2faf8d7a0d14c09","651c1c9bf2f046c6abe73a48","null","null","<p style=""font-size: 60px; font-family: BACS"">UJmrkJdr</p>","","","","","","","","",""
"html-keyboard-response","297","434694","0.0-14.0-0.46","5e8e55509422bb10abed1f54","650c16f0f2faf8d7a0d14c09","651c1c9bf2f046c6abe73a48","null","null","<p style=""font-size: 60px; font-family: BACS"">hCktlRE</p>","","","","","","","","",""
"html-keyboard-response","298","435696","0.0-14.0-0.47","5e8e55509422bb10abed1f54","650c16f0f2faf8d7a0d14c09","651c1c9bf2f046c6abe73a48","null","null","<p style=""font-size: 60px; font-family: BACS"">aUZALkNc</p>","","","","","","","","",""
"html-keyboard-response","299","436698","0.0-14.0-0.48","5e8e55509422bb10abed1f54","650c16f0f2faf8d7a0d14c09","651c1c9bf2f046c6abe73a48","null","null","<p style=""font-size: 60px; font-family: BACS"">UJmrdUr</p>","","","","","","","","",""
"html-keyboard-response","300","437700","0.0-14.0-0.49","5e8e55509422bb10abed1f54","650c16f0f2faf8d7a0d14c09","651c1c9bf2f046c6abe73a48","null","null","<p style=""font-size: 60px; font-family: BACS"">kPkRAOPE</p>","","","","","","","","",""
"html-keyboard-response","301","438703","0.0-14.0-0.50","5e8e55509422bb10abed1f54","650c16f0f2faf8d7a0d14c09","651c1c9bf2f046c6abe73a48","null","null","<p style=""font-size: 60px; font-family: BACS"">ObZbAkJdr</p>","","","","","","","","",""
"html-keyboard-response","302","439710","0.0-14.0-0.51","5e8e55509422bb10abed1f54","650c16f0f2faf8d7a0d14c09","651c1c9bf2f046c6abe73a48","null","null","<p style=""font-size: 60px; font-family: BACS"">DhCPBCD</p>","","","","","","","","",""
"html-keyboard-response","303","440712","0.0-14.0-0.52","5e8e55509422bb10abed1f54","650c16f0f2faf8d7a0d14c09","651c1c9bf2f046c6abe73a48","null","null","<p style=""font-size: 60px; font-family: BACS"">aUZAGQYQ</p>","","","","","","","","",""
"html-keyboard-response","304","441716","0.0-14.0-0.53","5e8e55509422bb10abed1f54","650c16f0f2faf8d7a0d14c09","651c1c9bf2f046c6abe73a48","null","null","<p style=""font-size: 60px; font-family: BACS"">bvkrlGc</p>","","","","","","","","",""
"html-keyboard-response","305","442726","0.0-14.0-0.54","5e8e55509422bb10abed1f54","650c16f0f2faf8d7a0d14c09","651c1c9bf2f046c6abe73a48","null","null","<p style=""font-size: 60px; font-family: BACS"">tmAKYbBT</p>","","","","","","","","",""
"html-keyboard-response","306","443730","0.0-14.0-0.55","5e8e55509422bb10abed1f54","650c16f0f2faf8d7a0d14c09","651c1c9bf2f046c6abe73a48","null","null","<p style=""font-size: 60px; font-family: BACS"">AlNULkNc</p>","","","","","","","","",""
"html-keyboard-response","307","444732","0.0-14.0-0.56","5e8e55509422bb10abed1f54","650c16f0f2faf8d7a0d14c09","651c1c9bf2f046c6abe73a48","null","null","<p style=""font-size: 60px; font-family: BACS"">ZkGmYdUr</p>","","","","","","","","",""
"html-keyboard-response","308","445744","0.0-14.0-0.57","5e8e55509422bb10abed1f54","650c16f0f2faf8d7a0d14c09","651c1c9bf2f046c6abe73a48","null","null","<p style=""font-size: 60px; font-family: BACS"">tmAKOtM</p>","","","","","","","","",""
"html-keyboard-response","309","446754","0.0-14.0-0.58","5e8e55509422bb10abed1f54","650c16f0f2faf8d7a0d14c09","651c1c9bf2f046c6abe73a48","null","null","<p style=""font-size: 60px; font-family: BACS"">rbYbuLkNc</p>","","","","","","","","",""
"html-keyboard-response","310","447758","0.0-14.0-0.59","5e8e55509422bb10abed1f54","650c16f0f2faf8d7a0d14c09","651c1c9bf2f046c6abe73a48","null","null","<p style=""font-size: 60px; font-family: BACS"">AMkCBCD</p>","","","","","","","","",""
"html-keyboard-response","311","448761","0.0-14.0-0.60","5e8e55509422bb10abed1f54","650c16f0f2faf8d7a0d14c09","651c1c9bf2f046c6abe73a48","null","null","<p style=""font-size: 60px; font-family: BACS"">rbYbudUr</p>","","","","","","","","",""
"html-keyboard-response","312","449771","0.0-14.0-0.61","5e8e55509422bb10abed1f54","650c16f0f2faf8d7a0d14c09","651c1c9bf2f046c6abe73a48","null","null","<p style=""font-size: 60px; font-family: BACS"">dClOCBCD</p>","","","","","","","","",""
"html-keyboard-response","313","450781","0.0-14.0-0.62","5e8e55509422bb10abed1f54","650c16f0f2faf8d7a0d14c09","651c1c9bf2f046c6abe73a48","null","null","<p style=""font-size: 60px; font-family: BACS"">rbYbuGQYQ</p>","","","","","","","","",""
"html-keyboard-response","314","451793","0.0-14.0-0.63","5e8e55509422bb10abed1f54","650c16f0f2faf8d7a0d14c09","651c1c9bf2f046c6abe73a48","null","null","<p style=""font-size: 60px; font-family: BACS"">TCbDCOtM</p>","","","","","","","","",""
"html-keyboard-response","315","452802","0.0-14.0-0.64","5e8e55509422bb10abed1f54","650c16f0f2faf8d7a0d14c09","651c1c9bf2f046c6abe73a48","null","null","<p style=""font-size: 60px; font-family: BACS"">kPkRABCD</p>","","","","","","","","",""
"html-keyboard-response","316","453805","0.0-14.0-0.65","5e8e55509422bb10abed1f54","650c16f0f2faf8d7a0d14c09","651c1c9bf2f046c6abe73a48","null","null","<p style=""font-size: 60px; font-family: BACS"">ArQuGQYQ</p>","","","","","","","","",""
"html-keyboard-response","317","454808","0.0-14.0-0.66","5e8e55509422bb10abed1f54","650c16f0f2faf8d7a0d14c09","651c1c9bf2f046c6abe73a48","null","null","<p style=""font-size: 60px; font-family: BACS"">JNkalGc</p>","","","","","","","","",""
"html-keyboard-response","318","455824","0.0-14.0-0.67","5e8e55509422bb10abed1f54","650c16f0f2faf8d7a0d14c09","651c1c9bf2f046c6abe73a48","null","null","<p style=""font-size: 60px; font-family: BACS"">ObZbAdUr</p>","","","","","","","","",""
"html-keyboard-response","319","457230","0.0-14.0-0.68","5e8e55509422bb10abed1f54","650c16f0f2faf8d7a0d14c09","651c1c9bf2f046c6abe73a48","null","null","<p style=""font-size: 60px; font-family: BACS"">AMkCOPE</p>","","","","","","","","",""
"html-keyboard-response","320","459223","0.0-14.0-0.69","5e8e55509422bb10abed1f54","650c16f0f2faf8d7a0d14c09","651c1c9bf2f046c6abe73a48","null","null","<p style=""font-size: 60px; font-family: BACS"">hCktOtM</p>","","","","","","","","",""
"html-keyboard-response","321","460229","0.0-14.0-0.70","5e8e55509422bb10abed1f54","650c16f0f2faf8d7a0d14c09","651c1c9bf2f046c6abe73a48","null","null","<p style=""font-size: 60px; font-family: BACS"">bcORlRE</p>","","","","","","","","",""
"html-keyboard-response","322","461237","0.0-14.0-0.71","5e8e55509422bb10abed1f54","650c16f0f2faf8d7a0d14c09","651c1c9bf2f046c6abe73a48","null","null","<p style=""font-size: 60px; font-family: BACS"">ArQudUr</p>","","","","","","","","",""
"html-keyboard-response","323","463223","0.0-14.0-0.72","5e8e55509422bb10abed1f54","650c16f0f2faf8d7a0d14c09","651c1c9bf2f046c6abe73a48","null","null","<p style=""font-size: 60px; font-family: BACS"">hAROKYbBT</p>","","","","","","","","",""
"html-keyboard-response","324","464238","0.0-14.0-0.73","5e8e55509422bb10abed1f54","650c16f0f2faf8d7a0d14c09","651c1c9bf2f046c6abe73a48","null","null","<p style=""font-size: 60px; font-family: BACS"">aUZAdUr</p>","","","","","","","","",""
"html-keyboard-response","325","466232","0.0-14.0-0.74","5e8e55509422bb10abed1f54","650c16f0f2faf8d7a0d14c09","651c1c9bf2f046c6abe73a48","null","null","<p style=""font-size: 60px; font-family: BACS"">bcORYbBT</p>","","","","","","","","",""
"html-keyboard-response","326","467246","0.0-14.0-0.75","5e8e55509422bb10abed1f54","650c16f0f2faf8d7a0d14c09","651c1c9bf2f046c6abe73a48","null","null","<p style=""font-size: 60px; font-family: BACS"">hAROKOPE</p>","","","","","","","","",""
"html-keyboard-response","327","469234","0.0-14.0-0.76","5e8e55509422bb10abed1f54","650c16f0f2faf8d7a0d14c09","651c1c9bf2f046c6abe73a48","null","null","<p style=""font-size: 60px; font-family: BACS"">bvkrLkNc</p>","","","","","","","","",""
"html-keyboard-response","328","471235","0.0-14.0-0.77","5e8e55509422bb10abed1f54","650c16f0f2faf8d7a0d14c09","651c1c9bf2f046c6abe73a48","null","null","<p style=""font-size: 60px; font-family: BACS"">ArQukJdr</p>","","","","","","","","",""
"html-keyboard-response","329","473224","0.0-14.0-0.78","5e8e55509422bb10abed1f54","650c16f0f2faf8d7a0d14c09","651c1c9bf2f046c6abe73a48","null","null","<p style=""font-size: 60px; font-family: BACS"">AMkCYbBT</p>","","","","","","","","",""
"html-keyboard-response","330","474231","0.0-14.0-0.79","5e8e55509422bb10abed1f54","650c16f0f2faf8d7a0d14c09","651c1c9bf2f046c6abe73a48","null","null","<p style=""font-size: 60px; font-family: BACS"">dClOCOPE</p>","","","","","","","","",""
"html-keyboard-response","331","483303","0.0-15.0","5e8e55509422bb10abed1f54","650c16f0f2faf8d7a0d14c09","651c1c9bf2f046c6abe73a48","9077"," ","<p>Great, you've seen the fourth block of words. You may now take a short break.</p>
      <p>Press the spacebar when you're ready to continue.</p>","","","","","","","","",""
"html-keyboard-response","332","484307","0.0-16.0-0.0","5e8e55509422bb10abed1f54","650c16f0f2faf8d7a0d14c09","651c1c9bf2f046c6abe73a48","null","null","<p style=""font-size: 60px; font-family: BACS"">dClOCBCD</p>","","","","","","","","",""
"html-keyboard-response","333","485318","0.0-16.0-0.1","5e8e55509422bb10abed1f54","650c16f0f2faf8d7a0d14c09","651c1c9bf2f046c6abe73a48","null","null","<p style=""font-size: 60px; font-family: BACS"">dClOCBCD</p>","","","","","","","","",""
"html-keyboard-response","334","486321","0.0-16.0-0.2","5e8e55509422bb10abed1f54","650c16f0f2faf8d7a0d14c09","651c1c9bf2f046c6abe73a48","null","null","<p style=""font-size: 60px; font-family: BACS"">dClOCBCD</p>","","","","","","","","",""
"html-keyboard-response","335","487324","0.0-16.0-0.3","5e8e55509422bb10abed1f54","650c16f0f2faf8d7a0d14c09","651c1c9bf2f046c6abe73a48","null","null","<p style=""font-size: 60px; font-family: BACS"">dClOCBCD</p>","","","","","","","","",""
"html-keyboard-response","336","488339","0.0-16.0-0.4","5e8e55509422bb10abed1f54","650c16f0f2faf8d7a0d14c09","651c1c9bf2f046c6abe73a48","null","null","<p style=""font-size: 60px; font-family: BACS"">dClOCBCD</p>","","","","","","","","",""
"html-keyboard-response","337","489343","0.0-16.0-0.5","5e8e55509422bb10abed1f54","650c16f0f2faf8d7a0d14c09","651c1c9bf2f046c6abe73a48","null","null","<p style=""font-size: 60px; font-family: BACS"">dClOCBCD</p>","","","","","","","","",""
"html-keyboard-response","338","490346","0.0-16.0-0.6","5e8e55509422bb10abed1f54","650c16f0f2faf8d7a0d14c09","651c1c9bf2f046c6abe73a48","null","null","<p style=""font-size: 60px; font-family: BACS"">dClOCBCD</p>","","","","","","","","",""
"html-keyboard-response","339","491350","0.0-16.0-0.7","5e8e55509422bb10abed1f54","650c16f0f2faf8d7a0d14c09","651c1c9bf2f046c6abe73a48","null","null","<p style=""font-size: 60px; font-family: BACS"">dClOCBCD</p>","","","","","","","","",""
"html-keyboard-response","340","492352","0.0-16.0-0.8","5e8e55509422bb10abed1f54","650c16f0f2faf8d7a0d14c09","651c1c9bf2f046c6abe73a48","null","null","<p style=""font-size: 60px; font-family: BACS"">dClOCBCD</p>","","","","","","","","",""
"html-keyboard-response","341","493355","0.0-16.0-0.9","5e8e55509422bb10abed1f54","650c16f0f2faf8d7a0d14c09","651c1c9bf2f046c6abe73a48","null","null","<p style=""font-size: 60px; font-family: BACS"">dClOCBCD</p>","","","","","","","","",""
"html-keyboard-response","342","494357","0.0-16.0-0.10","5e8e55509422bb10abed1f54","650c16f0f2faf8d7a0d14c09","651c1c9bf2f046c6abe73a48","null","null","<p style=""font-size: 60px; font-family: BACS"">dClOCBCD</p>","","","","","","","","",""
"html-keyboard-response","343","495359","0.0-16.0-0.11","5e8e55509422bb10abed1f54","650c16f0f2faf8d7a0d14c09","651c1c9bf2f046c6abe73a48","null","null","<p style=""font-size: 60px; font-family: BACS"">dClOCBCD</p>","","","","","","","","",""
"html-keyboard-response","344","496362","0.0-16.0-0.12","5e8e55509422bb10abed1f54","650c16f0f2faf8d7a0d14c09","651c1c9bf2f046c6abe73a48","null","null","<p style=""font-size: 60px; font-family: BACS"">dClOCBCD</p>","","","","","","","","",""
"html-keyboard-response","345","497374","0.0-16.0-0.13","5e8e55509422bb10abed1f54","650c16f0f2faf8d7a0d14c09","651c1c9bf2f046c6abe73a48","null","null","<p style=""font-size: 60px; font-family: BACS"">dClOCBCD</p>","","","","","","","","",""
"html-keyboard-response","346","498376","0.0-16.0-0.14","5e8e55509422bb10abed1f54","650c16f0f2faf8d7a0d14c09","651c1c9bf2f046c6abe73a48","null","null","<p style=""font-size: 60px; font-family: BACS"">dClOCBCD</p>","","","","","","","","",""
"html-keyboard-response","347","499381","0.0-16.0-0.15","5e8e55509422bb10abed1f54","650c16f0f2faf8d7a0d14c09","651c1c9bf2f046c6abe73a48","null","null","<p style=""font-size: 60px; font-family: BACS"">dClOCBCD</p>","","","","","","","","",""
"html-keyboard-response","348","500397","0.0-16.0-0.16","5e8e55509422bb10abed1f54","650c16f0f2faf8d7a0d14c09","651c1c9bf2f046c6abe73a48","null","null","<p style=""font-size: 60px; font-family: BACS"">dClOCBCD</p>","","","","","","","","",""
"html-keyboard-response","349","501400","0.0-16.0-0.17","5e8e55509422bb10abed1f54","650c16f0f2faf8d7a0d14c09","651c1c9bf2f046c6abe73a48","null","null","<p style=""font-size: 60px; font-family: BACS"">dClOCBCD</p>","","","","","","","","",""
"html-keyboard-response","350","502412","0.0-16.0-0.18","5e8e55509422bb10abed1f54","650c16f0f2faf8d7a0d14c09","651c1c9bf2f046c6abe73a48","null","null","<p style=""font-size: 60px; font-family: BACS"">dClOCBCD</p>","","","","","","","","",""
"html-keyboard-response","351","503422","0.0-16.0-0.19","5e8e55509422bb10abed1f54","650c16f0f2faf8d7a0d14c09","651c1c9bf2f046c6abe73a48","null","null","<p style=""font-size: 60px; font-family: BACS"">dClOCBCD</p>","","","","","","","","",""
"html-keyboard-response","352","504424","0.0-16.0-0.20","5e8e55509422bb10abed1f54","650c16f0f2faf8d7a0d14c09","651c1c9bf2f046c6abe73a48","null","null","<p style=""font-size: 60px; font-family: BACS"">dClOCBCD</p>","","","","","","","","",""
"html-keyboard-response","353","505430","0.0-16.0-0.21","5e8e55509422bb10abed1f54","650c16f0f2faf8d7a0d14c09","651c1c9bf2f046c6abe73a48","null","null","<p style=""font-size: 60px; font-family: BACS"">dClOCBCD</p>","","","","","","","","",""
"html-keyboard-response","354","506432","0.0-16.0-0.22","5e8e55509422bb10abed1f54","650c16f0f2faf8d7a0d14c09","651c1c9bf2f046c6abe73a48","null","null","<p style=""font-size: 60px; font-family: BACS"">dClOCBCD</p>","","","","","","","","",""
"html-keyboard-response","355","507447","0.0-16.0-0.23","5e8e55509422bb10abed1f54","650c16f0f2faf8d7a0d14c09","651c1c9bf2f046c6abe73a48","null","null","<p style=""font-size: 60px; font-family: BACS"">dClOCBCD</p>","","","","","","","","",""
"html-keyboard-response","356","508462","0.0-16.0-0.24","5e8e55509422bb10abed1f54","650c16f0f2faf8d7a0d14c09","651c1c9bf2f046c6abe73a48","null","null","<p style=""font-size: 60px; font-family: BACS"">dClOCBCD</p>","","","","","","","","",""
"html-keyboard-response","357","509472","0.0-16.0-0.25","5e8e55509422bb10abed1f54","650c16f0f2faf8d7a0d14c09","651c1c9bf2f046c6abe73a48","null","null","<p style=""font-size: 60px; font-family: BACS"">dClOCBCD</p>","","","","","","","","",""
"html-keyboard-response","358","510475","0.0-16.0-0.26","5e8e55509422bb10abed1f54","650c16f0f2faf8d7a0d14c09","651c1c9bf2f046c6abe73a48","null","null","<p style=""font-size: 60px; font-family: BACS"">dClOCBCD</p>","","","","","","","","",""
"html-keyboard-response","359","511477","0.0-16.0-0.27","5e8e55509422bb10abed1f54","650c16f0f2faf8d7a0d14c09","651c1c9bf2f046c6abe73a48","null","null","<p style=""font-size: 60px; font-family: BACS"">dClOCBCD</p>","","","","","","","","",""
"html-keyboard-response","360","512480","0.0-16.0-0.28","5e8e55509422bb10abed1f54","650c16f0f2faf8d7a0d14c09","651c1c9bf2f046c6abe73a48","null","null","<p style=""font-size: 60px; font-family: BACS"">dClOCBCD</p>","","","","","","","","",""
"html-keyboard-response","361","513493","0.0-16.0-0.29","5e8e55509422bb10abed1f54","650c16f0f2faf8d7a0d14c09","651c1c9bf2f046c6abe73a48","null","null","<p style=""font-size: 60px; font-family: BACS"">dClOCBCD</p>","","","","","","","","",""
"html-keyboard-response","362","514503","0.0-16.0-0.30","5e8e55509422bb10abed1f54","650c16f0f2faf8d7a0d14c09","651c1c9bf2f046c6abe73a48","null","null","<p style=""font-size: 60px; font-family: BACS"">dClOCBCD</p>","","","","","","","","",""
"html-keyboard-response","363","515514","0.0-16.0-0.31","5e8e55509422bb10abed1f54","650c16f0f2faf8d7a0d14c09","651c1c9bf2f046c6abe73a48","null","null","<p style=""font-size: 60px; font-family: BACS"">dClOCBCD</p>","","","","","","","","",""
"html-keyboard-response","364","516516","0.0-16.0-0.32","5e8e55509422bb10abed1f54","650c16f0f2faf8d7a0d14c09","651c1c9bf2f046c6abe73a48","null","null","<p style=""font-size: 60px; font-family: BACS"">dClOCBCD</p>","","","","","","","","",""
"html-keyboard-response","365","517520","0.0-16.0-0.33","5e8e55509422bb10abed1f54","650c16f0f2faf8d7a0d14c09","651c1c9bf2f046c6abe73a48","null","null","<p style=""font-size: 60px; font-family: BACS"">dClOCBCD</p>","","","","","","","","",""
"html-keyboard-response","366","518524","0.0-16.0-0.34","5e8e55509422bb10abed1f54","650c16f0f2faf8d7a0d14c09","651c1c9bf2f046c6abe73a48","null","null","<p style=""font-size: 60px; font-family: BACS"">dClOCBCD</p>","","","","","","","","",""
"html-keyboard-response","367","519526","0.0-16.0-0.35","5e8e55509422bb10abed1f54","650c16f0f2faf8d7a0d14c09","651c1c9bf2f046c6abe73a48","null","null","<p style=""font-size: 60px; font-family: BACS"">dClOCBCD</p>","","","","","","","","",""
"html-keyboard-response","368","520538","0.0-16.0-0.36","5e8e55509422bb10abed1f54","650c16f0f2faf8d7a0d14c09","651c1c9bf2f046c6abe73a48","null","null","<p style=""font-size: 60px; font-family: BACS"">dClOCBCD</p>","","","","","","","","",""
"html-keyboard-response","369","521547","0.0-16.0-0.37","5e8e55509422bb10abed1f54","650c16f0f2faf8d7a0d14c09","651c1c9bf2f046c6abe73a48","null","null","<p style=""font-size: 60px; font-family: BACS"">dClOCBCD</p>","","","","","","","","",""
"html-keyboard-response","370","522550","0.0-16.0-0.38","5e8e55509422bb10abed1f54","650c16f0f2faf8d7a0d14c09","651c1c9bf2f046c6abe73a48","null","null","<p style=""font-size: 60px; font-family: BACS"">dClOCBCD</p>","","","","","","","","",""
"html-keyboard-response","371","523555","0.0-16.0-0.39","5e8e55509422bb10abed1f54","650c16f0f2faf8d7a0d14c09","651c1c9bf2f046c6abe73a48","null","null","<p style=""font-size: 60px; font-family: BACS"">dClOCBCD</p>","","","","","","","","",""
"html-keyboard-response","372","524566","0.0-16.0-0.40","5e8e55509422bb10abed1f54","650c16f0f2faf8d7a0d14c09","651c1c9bf2f046c6abe73a48","null","null","<p style=""font-size: 60px; font-family: BACS"">dClOCBCD</p>","","","","","","","","",""
"html-keyboard-response","373","525568","0.0-16.0-0.41","5e8e55509422bb10abed1f54","650c16f0f2faf8d7a0d14c09","651c1c9bf2f046c6abe73a48","null","null","<p style=""font-size: 60px; font-family: BACS"">dClOCBCD</p>","","","","","","","","",""
"html-keyboard-response","374","526578","0.0-16.0-0.42","5e8e55509422bb10abed1f54","650c16f0f2faf8d7a0d14c09","651c1c9bf2f046c6abe73a48","null","null","<p style=""font-size: 60px; font-family: BACS"">dClOCBCD</p>","","","","","","","","",""
"html-keyboard-response","375","527583","0.0-16.0-0.43","5e8e55509422bb10abed1f54","650c16f0f2faf8d7a0d14c09","651c1c9bf2f046c6abe73a48","null","null","<p style=""font-size: 60px; font-family: BACS"">dClOCBCD</p>","","","","","","","","",""
"html-keyboard-response","376","528584","0.0-16.0-0.44","5e8e55509422bb10abed1f54","650c16f0f2faf8d7a0d14c09","651c1c9bf2f046c6abe73a48","null","null","<p style=""font-size: 60px; font-family: BACS"">dClOCBCD</p>","","","","","","","","",""
"html-keyboard-response","377","529586","0.0-16.0-0.45","5e8e55509422bb10abed1f54","650c16f0f2faf8d7a0d14c09","651c1c9bf2f046c6abe73a48","null","null","<p style=""font-size: 60px; font-family: BACS"">dClOCBCD</p>","","","","","","","","",""
"html-keyboard-response","378","530589","0.0-16.0-0.46","5e8e55509422bb10abed1f54","650c16f0f2faf8d7a0d14c09","651c1c9bf2f046c6abe73a48","null","null","<p style=""font-size: 60px; font-family: BACS"">dClOCBCD</p>","","","","","","","","",""
"html-keyboard-response","379","531591","0.0-16.0-0.47","5e8e55509422bb10abed1f54","650c16f0f2faf8d7a0d14c09","651c1c9bf2f046c6abe73a48","null","null","<p style=""font-size: 60px; font-family: BACS"">dClOCBCD</p>","","","","","","","","",""
"html-keyboard-response","380","532600","0.0-16.0-0.48","5e8e55509422bb10abed1f54","650c16f0f2faf8d7a0d14c09","651c1c9bf2f046c6abe73a48","null","null","<p style=""font-size: 60px; font-family: BACS"">dClOCBCD</p>","","","","","","","","",""
"html-keyboard-response","381","533607","0.0-16.0-0.49","5e8e55509422bb10abed1f54","650c16f0f2faf8d7a0d14c09","651c1c9bf2f046c6abe73a48","null","null","<p style=""font-size: 60px; font-family: BACS"">dClOCBCD</p>","","","","","","","","",""
"html-keyboard-response","382","534615","0.0-16.0-0.50","5e8e55509422bb10abed1f54","650c16f0f2faf8d7a0d14c09","651c1c9bf2f046c6abe73a48","null","null","<p style=""font-size: 60px; font-family: BACS"">dClOCBCD</p>","","","","","","","","",""
"html-keyboard-response","383","535618","0.0-16.0-0.51","5e8e55509422bb10abed1f54","650c16f0f2faf8d7a0d14c09","651c1c9bf2f046c6abe73a48","null","null","<p style=""font-size: 60px; font-family: BACS"">dClOCBCD</p>","","","","","","","","",""
"html-keyboard-response","384","536631","0.0-16.0-0.52","5e8e55509422bb10abed1f54","650c16f0f2faf8d7a0d14c09","651c1c9bf2f046c6abe73a48","null","null","<p style=""font-size: 60px; font-family: BACS"">dClOCBCD</p>","","","","","","","","",""
"html-keyboard-response","385","537636","0.0-16.0-0.53","5e8e55509422bb10abed1f54","650c16f0f2faf8d7a0d14c09","651c1c9bf2f046c6abe73a48","null","null","<p style=""font-size: 60px; font-family: BACS"">dClOCBCD</p>","","","","","","","","",""
"html-keyboard-response","386","538639","0.0-16.0-0.54","5e8e55509422bb10abed1f54","650c16f0f2faf8d7a0d14c09","651c1c9bf2f046c6abe73a48","null","null","<p style=""font-size: 60px; font-family: BACS"">dClOCBCD</p>","","","","","","","","",""
"html-keyboard-response","387","539650","0.0-16.0-0.55","5e8e55509422bb10abed1f54","650c16f0f2faf8d7a0d14c09","651c1c9bf2f046c6abe73a48","null","null","<p style=""font-size: 60px; font-family: BACS"">dClOCBCD</p>","","","","","","","","",""
"html-keyboard-response","388","540658","0.0-16.0-0.56","5e8e55509422bb10abed1f54","650c16f0f2faf8d7a0d14c09","651c1c9bf2f046c6abe73a48","null","null","<p style=""font-size: 60px; font-family: BACS"">dClOCBCD</p>","","","","","","","","",""
"html-keyboard-response","389","541668","0.0-16.0-0.57","5e8e55509422bb10abed1f54","650c16f0f2faf8d7a0d14c09","651c1c9bf2f046c6abe73a48","null","null","<p style=""font-size: 60px; font-family: BACS"">dClOCBCD</p>","","","","","","","","",""
"html-keyboard-response","390","542673","0.0-16.0-0.58","5e8e55509422bb10abed1f54","650c16f0f2faf8d7a0d14c09","651c1c9bf2f046c6abe73a48","null","null","<p style=""font-size: 60px; font-family: BACS"">dClOCBCD</p>","","","","","","","","",""
"html-keyboard-response","391","543683","0.0-16.0-0.59","5e8e55509422bb10abed1f54","650c16f0f2faf8d7a0d14c09","651c1c9bf2f046c6abe73a48","null","null","<p style=""font-size: 60px; font-family: BACS"">dClOCBCD</p>","","","","","","","","",""
"html-keyboard-response","392","544685","0.0-16.0-0.60","5e8e55509422bb10abed1f54","650c16f0f2faf8d7a0d14c09","651c1c9bf2f046c6abe73a48","null","null","<p style=""font-size: 60px; font-family: BACS"">dClOCBCD</p>","","","","","","","","",""
"html-keyboard-response","393","545688","0.0-16.0-0.61","5e8e55509422bb10abed1f54","650c16f0f2faf8d7a0d14c09","651c1c9bf2f046c6abe73a48","null","null","<p style=""font-size: 60px; font-family: BACS"">dClOCBCD</p>","","","","","","","","",""
"html-keyboard-response","394","546691","0.0-16.0-0.62","5e8e55509422bb10abed1f54","650c16f0f2faf8d7a0d14c09","651c1c9bf2f046c6abe73a48","null","null","<p style=""font-size: 60px; font-family: BACS"">dClOCBCD</p>","","","","","","","","",""
"html-keyboard-response","395","547704","0.0-16.0-0.63","5e8e55509422bb10abed1f54","650c16f0f2faf8d7a0d14c09","651c1c9bf2f046c6abe73a48","null","null","<p style=""font-size: 60px; font-family: BACS"">dClOCBCD</p>","","","","","","","","",""
"html-keyboard-response","396","548713","0.0-16.0-0.64","5e8e55509422bb10abed1f54","650c16f0f2faf8d7a0d14c09","651c1c9bf2f046c6abe73a48","null","null","<p style=""font-size: 60px; font-family: BACS"">dClOCBCD</p>","","","","","","","","",""
"html-keyboard-response","397","549715","0.0-16.0-0.65","5e8e55509422bb10abed1f54","650c16f0f2faf8d7a0d14c09","651c1c9bf2f046c6abe73a48","null","null","<p style=""font-size: 60px; font-family: BACS"">dClOCBCD</p>","","","","","","","","",""
"html-keyboard-response","398","550719","0.0-16.0-0.66","5e8e55509422bb10abed1f54","650c16f0f2faf8d7a0d14c09","651c1c9bf2f046c6abe73a48","null","null","<p style=""font-size: 60px; font-family: BACS"">dClOCBCD</p>","","","","","","","","",""
