"trial_type","trial_index","time_elapsed","internal_node_id","subject_id","study_id","session_id","rt","response","stimulus","success","item","task","correct_response","testing_condition","correct","target","confound","name"
"pavlovia","0","780","0.0-0.0","64526929d8f9b780b29d4d8d","64e77d7b61f440b60e28659d","64ecab58adc5ab68880b196d","","","","","","","","","","","",""
"survey-html-form","1","13159","0.0-1.0","64526929d8f9b780b29d4d8d","64e77d7b61f440b60e28659d","64ecab58adc5ab68880b196d","12378","{""ID"":""64526929d8f9b780b29d4d8d""}","","","","","","","","","",""
"html-keyboard-response","2","17417","0.0-2.0","64526929d8f9b780b29d4d8d","64e77d7b61f440b60e28659d","64ecab58adc5ab68880b196d","4257"," ","<p style=""font-size: 15px;"">Before beginning, we ask that you read the consent information and confirm your agreement to participate in the experiment.</p>
      <p style=""font-size: 15px;""> We ask that you remember that this is a research project and that your participation is entirely voluntary. You can stop your participation at any time, without needing to provide any explanation. The study we're asking you to participate in aims at examining how readers process written words. You will be engaged in a session of apprximately 20 minutes, followed by a brief questionnaire. You will have the opportunity to take a few breaks during the experiment. You will be paid £4 for your participation, corresponding to a rate of £8/hour. While this experiment looks at cognitive faculties, this experiment doesn't constitute clinical proof of eventual pathologies.</p>
      <p style=""font-size: 15px;"">All of the information collected thanks to yours and others' participation will be held in a secure password-protected server, and will not be shared with anyone not authorised to view it. Your personal information will be kept with an arbitrary participant ID. Thanks to this data anonymity process, any researcher analysing the data won't be able to track the information back to a specific participant. Therefore, this process will make identifying you impossibile, even when results from the study will be published in scientific reviews, presented at congresses, or at any other public forum. More generally, the collected data will be treated in accordance with the laws on privacy and conformity to the Legislative Degree n. 196 ""Code regarding the protection of personal data"" of the 30th of June 2003 and to the European Regulation 2016/670 (General Data Protection Regulation - GDPR). The Data Protection Officer is Avv. Valentina Carollo, who can be contacted at the following email addresses: <a href=""mailto:dpo@sissa.it"">dpo@sissa.it</a> or <a href=""mailto:rpd@sissa.it"">rpd@sissa.it</a> - PEC: <a href=""mailto:protocollo@pec.sissa.it"">protocollo@pec.sissa.it</a>.</p>
      <p style=""font-size: 15px;""> Before expressing your consent to participate, we would like to remind you again that in case you need explanations on any aspect of the experimental procedure, the researcher is at your disposition (<a href=""mailto:aliebelt@sissa.it"">aliebelt@sissa.it</a>, <a href=""mailto:davide.crepaldi@sissa.it"">davide.crepaldi@sissa.it</a>).</p>
      <p style=""font-size: 15px;"">If you would like to download the informed consent form, you can do so here: <a href=""BASL-Informed_Consent.pdf"" download>informed consent form</a>.</p>
      <p style=""font-size: 15px;"">We ask that you press the spacebar to proceed to the consent section.</p>","","","","","","","","",""
"survey-html-form","3","29816","0.0-3.0","64526929d8f9b780b29d4d8d","64e77d7b61f440b60e28659d","64ecab58adc5ab68880b196d","12397","{""consent1"":""YES"",""consent2"":""YES"",""consent3"":""YES"",""consent4"":""YES"",""consent5"":""YES"",""consent6"":""YES""}","","","","","","","","","",""
"fullscreen","4","139411","0.0-4.0","64526929d8f9b780b29d4d8d","64e77d7b61f440b60e28659d","64ecab58adc5ab68880b196d","","","","true","","","","","","","",""
"html-keyboard-response","5","157953","0.0-5.0","64526929d8f9b780b29d4d8d","64e77d7b61f440b60e28659d","64ecab58adc5ab68880b196d","18541"," ","<p>Welcome, and thank you very much for your time!</p>
      <p>In this experiment, you'll be a language expert who's been asked to take a look at words that Earth has received in its first communication with aliens. Your task, in this first part of the experiment, is to pay close attention to the words you'll be shown; later, world leaders will ask you questions on what you saw. The words will be shown to you quite quickly; it seems that the aliens were in a hurry :-)</p>
      <p>Press the spacebar to continue.<p>","","","","","","","","",""
"html-keyboard-response","6","163367","0.0-6.0","64526929d8f9b780b29d4d8d","64e77d7b61f440b60e28659d","64ecab58adc5ab68880b196d","5414"," ","<p>Here is an example of the words you'll see:</p>
      <img src='esempio.png' height='400px'>
      <p>When you're ready to begin, press the spacebar.</p></div>","","","","","","","","",""
"html-keyboard-response","7","164372","0.0-7.0-0.0","64526929d8f9b780b29d4d8d","64e77d7b61f440b60e28659d","64ecab58adc5ab68880b196d","null","null","<p style=""font-size: 60px; font-family: BACS"">dMThkAdYl</p>","","","","","","","","",""
"html-keyboard-response","8","165379","0.0-7.0-0.1","64526929d8f9b780b29d4d8d","64e77d7b61f440b60e28659d","64ecab58adc5ab68880b196d","null","null","<p style=""font-size: 60px; font-family: BACS"">NaJbGUa</p>","","","","","","","","",""
"html-keyboard-response","9","166383","0.0-7.0-0.2","64526929d8f9b780b29d4d8d","64e77d7b61f440b60e28659d","64ecab58adc5ab68880b196d","null","null","<p style=""font-size: 60px; font-family: BACS"">lbBDEhBK</p>","","","","","","","","",""
"html-keyboard-response","10","167391","0.0-7.0-0.3","64526929d8f9b780b29d4d8d","64e77d7b61f440b60e28659d","64ecab58adc5ab68880b196d","null","null","<p style=""font-size: 60px; font-family: BACS"">GLluAcUN</p>","","","","","","","","",""
"html-keyboard-response","11","168398","0.0-7.0-0.4","64526929d8f9b780b29d4d8d","64e77d7b61f440b60e28659d","64ecab58adc5ab68880b196d","null","null","<p style=""font-size: 60px; font-family: BACS"">lbBDEAdYl</p>","","","","","","","","",""
"html-keyboard-response","12","169399","0.0-7.0-0.5","64526929d8f9b780b29d4d8d","64e77d7b61f440b60e28659d","64ecab58adc5ab68880b196d","null","null","<p style=""font-size: 60px; font-family: BACS"">lYruadmkv</p>","","","","","","","","",""
"html-keyboard-response","13","170404","0.0-7.0-0.6","64526929d8f9b780b29d4d8d","64e77d7b61f440b60e28659d","64ecab58adc5ab68880b196d","null","null","<p style=""font-size: 60px; font-family: BACS"">PYkCAdYl</p>","","","","","","","","",""
"html-keyboard-response","14","171410","0.0-7.0-0.7","64526929d8f9b780b29d4d8d","64e77d7b61f440b60e28659d","64ecab58adc5ab68880b196d","null","null","<p style=""font-size: 60px; font-family: BACS"">McMDhBK</p>","","","","","","","","",""
"html-keyboard-response","15","172417","0.0-7.0-0.8","64526929d8f9b780b29d4d8d","64e77d7b61f440b60e28659d","64ecab58adc5ab68880b196d","null","null","<p style=""font-size: 60px; font-family: BACS"">rLaZYArG</p>","","","","","","","","",""
"html-keyboard-response","16","173422","0.0-7.0-0.9","64526929d8f9b780b29d4d8d","64e77d7b61f440b60e28659d","64ecab58adc5ab68880b196d","null","null","<p style=""font-size: 60px; font-family: BACS"">ktBdAdYl</p>","","","","","","","","",""
"html-keyboard-response","17","174426","0.0-7.0-0.10","64526929d8f9b780b29d4d8d","64e77d7b61f440b60e28659d","64ecab58adc5ab68880b196d","null","null","<p style=""font-size: 60px; font-family: BACS"">rLaZJcL</p>","","","","","","","","",""
"html-keyboard-response","18","175431","0.0-7.0-0.11","64526929d8f9b780b29d4d8d","64e77d7b61f440b60e28659d","64ecab58adc5ab68880b196d","null","null","<p style=""font-size: 60px; font-family: BACS"">McMDAdYl</p>","","","","","","","","",""
"html-keyboard-response","19","176437","0.0-7.0-0.12","64526929d8f9b780b29d4d8d","64e77d7b61f440b60e28659d","64ecab58adc5ab68880b196d","null","null","<p style=""font-size: 60px; font-family: BACS"">LQurYArG</p>","","","","","","","","",""
"html-keyboard-response","20","177445","0.0-7.0-0.13","64526929d8f9b780b29d4d8d","64e77d7b61f440b60e28659d","64ecab58adc5ab68880b196d","null","null","<p style=""font-size: 60px; font-family: BACS"">ktBdtcB</p>","","","","","","","","",""
"html-keyboard-response","21","178455","0.0-7.0-0.14","64526929d8f9b780b29d4d8d","64e77d7b61f440b60e28659d","64ecab58adc5ab68880b196d","null","null","<p style=""font-size: 60px; font-family: BACS"">lYruaYArG</p>","","","","","","","","",""
"html-keyboard-response","22","179464","0.0-7.0-0.15","64526929d8f9b780b29d4d8d","64e77d7b61f440b60e28659d","64ecab58adc5ab68880b196d","null","null","<p style=""font-size: 60px; font-family: BACS"">KRARmRYlD</p>","","","","","","","","",""
"html-keyboard-response","23","180470","0.0-7.0-0.16","64526929d8f9b780b29d4d8d","64e77d7b61f440b60e28659d","64ecab58adc5ab68880b196d","null","null","<p style=""font-size: 60px; font-family: BACS"">PYkCTmTm</p>","","","","","","","","",""
"html-keyboard-response","24","181482","0.0-7.0-0.17","64526929d8f9b780b29d4d8d","64e77d7b61f440b60e28659d","64ecab58adc5ab68880b196d","null","null","<p style=""font-size: 60px; font-family: BACS"">bYGOZGUa</p>","","","","","","","","",""
"html-keyboard-response","25","182489","0.0-7.0-0.18","64526929d8f9b780b29d4d8d","64e77d7b61f440b60e28659d","64ecab58adc5ab68880b196d","null","null","<p style=""font-size: 60px; font-family: BACS"">McMDTmTm</p>","","","","","","","","",""
"html-keyboard-response","26","183497","0.0-7.0-0.19","64526929d8f9b780b29d4d8d","64e77d7b61f440b60e28659d","64ecab58adc5ab68880b196d","null","null","<p style=""font-size: 60px; font-family: BACS"">LQurcUN</p>","","","","","","","","",""
"html-keyboard-response","27","184501","0.0-7.0-0.20","64526929d8f9b780b29d4d8d","64e77d7b61f440b60e28659d","64ecab58adc5ab68880b196d","null","null","<p style=""font-size: 60px; font-family: BACS"">YlYcTmTm</p>","","","","","","","","",""
"html-keyboard-response","28","185504","0.0-7.0-0.21","64526929d8f9b780b29d4d8d","64e77d7b61f440b60e28659d","64ecab58adc5ab68880b196d","null","null","<p style=""font-size: 60px; font-family: BACS"">dMThkRYlD</p>","","","","","","","","",""
"html-keyboard-response","29","186505","0.0-7.0-0.22","64526929d8f9b780b29d4d8d","64e77d7b61f440b60e28659d","64ecab58adc5ab68880b196d","null","null","<p style=""font-size: 60px; font-family: BACS"">PYkCtcB</p>","","","","","","","","",""
"html-keyboard-response","30","187506","0.0-7.0-0.23","64526929d8f9b780b29d4d8d","64e77d7b61f440b60e28659d","64ecab58adc5ab68880b196d","null","null","<p style=""font-size: 60px; font-family: BACS"">ObZbAJcL</p>","","","","","","","","",""
"html-keyboard-response","31","188507","0.0-7.0-0.24","64526929d8f9b780b29d4d8d","64e77d7b61f440b60e28659d","64ecab58adc5ab68880b196d","null","null","<p style=""font-size: 60px; font-family: BACS"">cAZucUN</p>","","","","","","","","",""
"html-keyboard-response","32","189513","0.0-7.0-0.25","64526929d8f9b780b29d4d8d","64e77d7b61f440b60e28659d","64ecab58adc5ab68880b196d","null","null","<p style=""font-size: 60px; font-family: BACS"">YlYchBK</p>","","","","","","","","",""
"html-keyboard-response","33","190521","0.0-7.0-0.26","64526929d8f9b780b29d4d8d","64e77d7b61f440b60e28659d","64ecab58adc5ab68880b196d","null","null","<p style=""font-size: 60px; font-family: BACS"">KRARmAdYl</p>","","","","","","","","",""
"html-keyboard-response","34","191527","0.0-7.0-0.27","64526929d8f9b780b29d4d8d","64e77d7b61f440b60e28659d","64ecab58adc5ab68880b196d","null","null","<p style=""font-size: 60px; font-family: BACS"">ckduAGUa</p>","","","","","","","","",""
"html-keyboard-response","35","192536","0.0-7.0-0.28","64526929d8f9b780b29d4d8d","64e77d7b61f440b60e28659d","64ecab58adc5ab68880b196d","null","null","<p style=""font-size: 60px; font-family: BACS"">bYGOZYArG</p>","","","","","","","","",""
"html-keyboard-response","36","193545","0.0-7.0-0.29","64526929d8f9b780b29d4d8d","64e77d7b61f440b60e28659d","64ecab58adc5ab68880b196d","null","null","<p style=""font-size: 60px; font-family: BACS"">ktBdRYlD</p>","","","","","","","","",""
"html-keyboard-response","37","194558","0.0-7.0-0.30","64526929d8f9b780b29d4d8d","64e77d7b61f440b60e28659d","64ecab58adc5ab68880b196d","null","null","<p style=""font-size: 60px; font-family: BACS"">ckduAdmkv</p>","","","","","","","","",""
"html-keyboard-response","38","195572","0.0-7.0-0.31","64526929d8f9b780b29d4d8d","64e77d7b61f440b60e28659d","64ecab58adc5ab68880b196d","null","null","<p style=""font-size: 60px; font-family: BACS"">GJGcZJcL</p>","","","","","","","","",""
"html-keyboard-response","39","196581","0.0-7.0-0.32","64526929d8f9b780b29d4d8d","64e77d7b61f440b60e28659d","64ecab58adc5ab68880b196d","null","null","<p style=""font-size: 60px; font-family: BACS"">rLaZcUN</p>","","","","","","","","",""
"html-keyboard-response","40","197590","0.0-7.0-0.33","64526929d8f9b780b29d4d8d","64e77d7b61f440b60e28659d","64ecab58adc5ab68880b196d","null","null","<p style=""font-size: 60px; font-family: BACS"">ObZbAYArG</p>","","","","","","","","",""
"html-keyboard-response","41","198600","0.0-7.0-0.34","64526929d8f9b780b29d4d8d","64e77d7b61f440b60e28659d","64ecab58adc5ab68880b196d","null","null","<p style=""font-size: 60px; font-family: BACS"">cAZudmkv</p>","","","","","","","","",""
"html-keyboard-response","42","199603","0.0-7.0-0.35","64526929d8f9b780b29d4d8d","64e77d7b61f440b60e28659d","64ecab58adc5ab68880b196d","null","null","<p style=""font-size: 60px; font-family: BACS"">McMDtcB</p>","","","","","","","","",""
"html-keyboard-response","43","200609","0.0-7.0-0.36","64526929d8f9b780b29d4d8d","64e77d7b61f440b60e28659d","64ecab58adc5ab68880b196d","null","null","<p style=""font-size: 60px; font-family: BACS"">lhCTCTmTm</p>","","","","","","","","",""
"html-keyboard-response","44","201611","0.0-7.0-0.37","64526929d8f9b780b29d4d8d","64e77d7b61f440b60e28659d","64ecab58adc5ab68880b196d","null","null","<p style=""font-size: 60px; font-family: BACS"">ABPRBtcB</p>","","","","","","","","",""
"html-keyboard-response","45","202617","0.0-7.0-0.38","64526929d8f9b780b29d4d8d","64e77d7b61f440b60e28659d","64ecab58adc5ab68880b196d","null","null","<p style=""font-size: 60px; font-family: BACS"">cAZuGUa</p>","","","","","","","","",""
"html-keyboard-response","46","203625","0.0-7.0-0.39","64526929d8f9b780b29d4d8d","64e77d7b61f440b60e28659d","64ecab58adc5ab68880b196d","null","null","<p style=""font-size: 60px; font-family: BACS"">LQurJcL</p>","","","","","","","","",""
"html-keyboard-response","47","204635","0.0-7.0-0.40","64526929d8f9b780b29d4d8d","64e77d7b61f440b60e28659d","64ecab58adc5ab68880b196d","null","null","<p style=""font-size: 60px; font-family: BACS"">GLluAGUa</p>","","","","","","","","",""
"html-keyboard-response","48","205641","0.0-7.0-0.41","64526929d8f9b780b29d4d8d","64e77d7b61f440b60e28659d","64ecab58adc5ab68880b196d","null","null","<p style=""font-size: 60px; font-family: BACS"">cAZuYArG</p>","","","","","","","","",""
"html-keyboard-response","49","206649","0.0-7.0-0.42","64526929d8f9b780b29d4d8d","64e77d7b61f440b60e28659d","64ecab58adc5ab68880b196d","null","null","<p style=""font-size: 60px; font-family: BACS"">ABPRBRYlD</p>","","","","","","","","",""
"html-keyboard-response","50","207651","0.0-7.0-0.43","64526929d8f9b780b29d4d8d","64e77d7b61f440b60e28659d","64ecab58adc5ab68880b196d","null","null","<p style=""font-size: 60px; font-family: BACS"">CRdBdAdYl</p>","","","","","","","","",""
"html-keyboard-response","51","208666","0.0-7.0-0.44","64526929d8f9b780b29d4d8d","64e77d7b61f440b60e28659d","64ecab58adc5ab68880b196d","null","null","<p style=""font-size: 60px; font-family: BACS"">bYGOZcUN</p>","","","","","","","","",""
"html-keyboard-response","52","209672","0.0-7.0-0.45","64526929d8f9b780b29d4d8d","64e77d7b61f440b60e28659d","64ecab58adc5ab68880b196d","null","null","<p style=""font-size: 60px; font-family: BACS"">rLaZdmkv</p>","","","","","","","","",""
"html-keyboard-response","53","210675","0.0-7.0-0.46","64526929d8f9b780b29d4d8d","64e77d7b61f440b60e28659d","64ecab58adc5ab68880b196d","null","null","<p style=""font-size: 60px; font-family: BACS"">ckduAJcL</p>","","","","","","","","",""
"html-keyboard-response","54","211678","0.0-7.0-0.47","64526929d8f9b780b29d4d8d","64e77d7b61f440b60e28659d","64ecab58adc5ab68880b196d","null","null","<p style=""font-size: 60px; font-family: BACS"">YlYcRYlD</p>","","","","","","","","",""
"html-keyboard-response","55","212688","0.0-7.0-0.48","64526929d8f9b780b29d4d8d","64e77d7b61f440b60e28659d","64ecab58adc5ab68880b196d","null","null","<p style=""font-size: 60px; font-family: BACS"">GJGcZdmkv</p>","","","","","","","","",""
"html-keyboard-response","56","213693","0.0-7.0-0.49","64526929d8f9b780b29d4d8d","64e77d7b61f440b60e28659d","64ecab58adc5ab68880b196d","null","null","<p style=""font-size: 60px; font-family: BACS"">YlYctcB</p>","","","","","","","","",""
"html-keyboard-response","57","214695","0.0-7.0-0.50","64526929d8f9b780b29d4d8d","64e77d7b61f440b60e28659d","64ecab58adc5ab68880b196d","null","null","<p style=""font-size: 60px; font-family: BACS"">ObZbAGUa</p>","","","","","","","","",""
"html-keyboard-response","58","215704","0.0-7.0-0.51","64526929d8f9b780b29d4d8d","64e77d7b61f440b60e28659d","64ecab58adc5ab68880b196d","null","null","<p style=""font-size: 60px; font-family: BACS"">KRARmtcB</p>","","","","","","","","",""
"html-keyboard-response","59","216712","0.0-7.0-0.52","64526929d8f9b780b29d4d8d","64e77d7b61f440b60e28659d","64ecab58adc5ab68880b196d","null","null","<p style=""font-size: 60px; font-family: BACS"">bYGOZdmkv</p>","","","","","","","","",""
"html-keyboard-response","60","217719","0.0-7.0-0.53","64526929d8f9b780b29d4d8d","64e77d7b61f440b60e28659d","64ecab58adc5ab68880b196d","null","null","<p style=""font-size: 60px; font-family: BACS"">ABPRBhBK</p>","","","","","","","","",""
"html-keyboard-response","61","218727","0.0-7.0-0.54","64526929d8f9b780b29d4d8d","64e77d7b61f440b60e28659d","64ecab58adc5ab68880b196d","null","null","<p style=""font-size: 60px; font-family: BACS"">lbBDETmTm</p>","","","","","","","","",""
"html-keyboard-response","62","219736","0.0-7.0-0.55","64526929d8f9b780b29d4d8d","64e77d7b61f440b60e28659d","64ecab58adc5ab68880b196d","null","null","<p style=""font-size: 60px; font-family: BACS"">lYruaJcL</p>","","","","","","","","",""
"html-keyboard-response","63","220741","0.0-7.0-0.56","64526929d8f9b780b29d4d8d","64e77d7b61f440b60e28659d","64ecab58adc5ab68880b196d","null","null","<p style=""font-size: 60px; font-family: BACS"">lbBDERYlD</p>","","","","","","","","",""
"html-keyboard-response","64","221749","0.0-7.0-0.57","64526929d8f9b780b29d4d8d","64e77d7b61f440b60e28659d","64ecab58adc5ab68880b196d","null","null","<p style=""font-size: 60px; font-family: BACS"">GJGcZcUN</p>","","","","","","","","",""
"html-keyboard-response","65","222757","0.0-7.0-0.58","64526929d8f9b780b29d4d8d","64e77d7b61f440b60e28659d","64ecab58adc5ab68880b196d","null","null","<p style=""font-size: 60px; font-family: BACS"">lYruaGUa</p>","","","","","","","","",""
"html-keyboard-response","66","223765","0.0-7.0-0.59","64526929d8f9b780b29d4d8d","64e77d7b61f440b60e28659d","64ecab58adc5ab68880b196d","null","null","<p style=""font-size: 60px; font-family: BACS"">NaJbYArG</p>","","","","","","","","",""
"html-keyboard-response","67","224772","0.0-7.0-0.60","64526929d8f9b780b29d4d8d","64e77d7b61f440b60e28659d","64ecab58adc5ab68880b196d","null","null","<p style=""font-size: 60px; font-family: BACS"">LQurdmkv</p>","","","","","","","","",""
"html-keyboard-response","68","225784","0.0-7.0-0.61","64526929d8f9b780b29d4d8d","64e77d7b61f440b60e28659d","64ecab58adc5ab68880b196d","null","null","<p style=""font-size: 60px; font-family: BACS"">dMThkhBK</p>","","","","","","","","",""
"html-keyboard-response","69","226788","0.0-7.0-0.62","64526929d8f9b780b29d4d8d","64e77d7b61f440b60e28659d","64ecab58adc5ab68880b196d","null","null","<p style=""font-size: 60px; font-family: BACS"">ckduAYArG</p>","","","","","","","","",""
"html-keyboard-response","70","227796","0.0-7.0-0.63","64526929d8f9b780b29d4d8d","64e77d7b61f440b60e28659d","64ecab58adc5ab68880b196d","null","null","<p style=""font-size: 60px; font-family: BACS"">ObZbAcUN</p>","","","","","","","","",""
"html-keyboard-response","71","228808","0.0-7.0-0.64","64526929d8f9b780b29d4d8d","64e77d7b61f440b60e28659d","64ecab58adc5ab68880b196d","null","null","<p style=""font-size: 60px; font-family: BACS"">GJGcZGUa</p>","","","","","","","","",""
"html-keyboard-response","72","229815","0.0-7.0-0.65","64526929d8f9b780b29d4d8d","64e77d7b61f440b60e28659d","64ecab58adc5ab68880b196d","null","null","<p style=""font-size: 60px; font-family: BACS"">dMThktcB</p>","","","","","","","","",""
"html-keyboard-response","73","230822","0.0-7.0-0.66","64526929d8f9b780b29d4d8d","64e77d7b61f440b60e28659d","64ecab58adc5ab68880b196d","null","null","<p style=""font-size: 60px; font-family: BACS"">lhCTChBK</p>","","","","","","","","",""
"html-keyboard-response","74","231823","0.0-7.0-0.67","64526929d8f9b780b29d4d8d","64e77d7b61f440b60e28659d","64ecab58adc5ab68880b196d","null","null","<p style=""font-size: 60px; font-family: BACS"">NaJbJcL</p>","","","","","","","","",""
"html-keyboard-response","75","232825","0.0-7.0-0.68","64526929d8f9b780b29d4d8d","64e77d7b61f440b60e28659d","64ecab58adc5ab68880b196d","null","null","<p style=""font-size: 60px; font-family: BACS"">KRARmhBK</p>","","","","","","","","",""
"html-keyboard-response","76","233832","0.0-7.0-0.69","64526929d8f9b780b29d4d8d","64e77d7b61f440b60e28659d","64ecab58adc5ab68880b196d","null","null","<p style=""font-size: 60px; font-family: BACS"">GLluAdmkv</p>","","","","","","","","",""
"html-keyboard-response","77","234835","0.0-7.0-0.70","64526929d8f9b780b29d4d8d","64e77d7b61f440b60e28659d","64ecab58adc5ab68880b196d","null","null","<p style=""font-size: 60px; font-family: BACS"">CRdBdhBK</p>","","","","","","","","",""
"html-keyboard-response","78","235844","0.0-7.0-0.71","64526929d8f9b780b29d4d8d","64e77d7b61f440b60e28659d","64ecab58adc5ab68880b196d","null","null","<p style=""font-size: 60px; font-family: BACS"">GLluAJcL</p>","","","","","","","","",""
"html-keyboard-response","79","236849","0.0-7.0-0.72","64526929d8f9b780b29d4d8d","64e77d7b61f440b60e28659d","64ecab58adc5ab68880b196d","null","null","<p style=""font-size: 60px; font-family: BACS"">lhCTCtcB</p>","","","","","","","","",""
"html-keyboard-response","80","237850","0.0-7.0-0.73","64526929d8f9b780b29d4d8d","64e77d7b61f440b60e28659d","64ecab58adc5ab68880b196d","null","null","<p style=""font-size: 60px; font-family: BACS"">PYkCRYlD</p>","","","","","","","","",""
"html-keyboard-response","81","238866","0.0-7.0-0.74","64526929d8f9b780b29d4d8d","64e77d7b61f440b60e28659d","64ecab58adc5ab68880b196d","null","null","<p style=""font-size: 60px; font-family: BACS"">ktBdTmTm</p>","","","","","","","","",""
"html-keyboard-response","82","239867","0.0-7.0-0.75","64526929d8f9b780b29d4d8d","64e77d7b61f440b60e28659d","64ecab58adc5ab68880b196d","null","null","<p style=""font-size: 60px; font-family: BACS"">NaJbcUN</p>","","","","","","","","",""
"html-keyboard-response","83","240880","0.0-7.0-0.76","64526929d8f9b780b29d4d8d","64e77d7b61f440b60e28659d","64ecab58adc5ab68880b196d","null","null","<p style=""font-size: 60px; font-family: BACS"">CRdBdTmTm</p>","","","","","","","","",""
"html-keyboard-response","84","241882","0.0-7.0-0.77","64526929d8f9b780b29d4d8d","64e77d7b61f440b60e28659d","64ecab58adc5ab68880b196d","null","null","<p style=""font-size: 60px; font-family: BACS"">lhCTCAdYl</p>","","","","","","","","",""
"html-keyboard-response","85","242895","0.0-7.0-0.78","64526929d8f9b780b29d4d8d","64e77d7b61f440b60e28659d","64ecab58adc5ab68880b196d","null","null","<p style=""font-size: 60px; font-family: BACS"">CRdBdRYlD</p>","","","","","","","","",""
"html-keyboard-response","86","243899","0.0-7.0-0.79","64526929d8f9b780b29d4d8d","64e77d7b61f440b60e28659d","64ecab58adc5ab68880b196d","null","null","<p style=""font-size: 60px; font-family: BACS"">ABPRBTmTm</p>","","","","","","","","",""
"html-keyboard-response","87","261152","0.0-8.0","64526929d8f9b780b29d4d8d","64e77d7b61f440b60e28659d","64ecab58adc5ab68880b196d","17252"," ","<p>Great, you've seen the first block of words. You may now take a short break.</p>
      <p>Press the spacebar when you're ready to continue.</p>","","","","","","","","",""
"html-keyboard-response","88","262167","0.0-9.0-0.0","64526929d8f9b780b29d4d8d","64e77d7b61f440b60e28659d","64ecab58adc5ab68880b196d","null","null","<p style=""font-size: 60px; font-family: BACS"">ktBdRYlD</p>","","","","","","","","",""
"html-keyboard-response","89","263168","0.0-9.0-0.1","64526929d8f9b780b29d4d8d","64e77d7b61f440b60e28659d","64ecab58adc5ab68880b196d","null","null","<p style=""font-size: 60px; font-family: BACS"">CRdBdhBK</p>","","","","","","","","",""
"html-keyboard-response","90","264177","0.0-9.0-0.2","64526929d8f9b780b29d4d8d","64e77d7b61f440b60e28659d","64ecab58adc5ab68880b196d","null","null","<p style=""font-size: 60px; font-family: BACS"">KRARmtcB</p>","","","","","","","","",""
"html-keyboard-response","91","265187","0.0-9.0-0.3","64526929d8f9b780b29d4d8d","64e77d7b61f440b60e28659d","64ecab58adc5ab68880b196d","null","null","<p style=""font-size: 60px; font-family: BACS"">PYkCTmTm</p>","","","","","","","","",""
"html-keyboard-response","92","266199","0.0-9.0-0.4","64526929d8f9b780b29d4d8d","64e77d7b61f440b60e28659d","64ecab58adc5ab68880b196d","null","null","<p style=""font-size: 60px; font-family: BACS"">lhCTChBK</p>","","","","","","","","",""
"html-keyboard-response","93","267209","0.0-9.0-0.5","64526929d8f9b780b29d4d8d","64e77d7b61f440b60e28659d","64ecab58adc5ab68880b196d","null","null","<p style=""font-size: 60px; font-family: BACS"">GJGcZJcL</p>","","","","","","","","",""
"html-keyboard-response","94","268211","0.0-9.0-0.6","64526929d8f9b780b29d4d8d","64e77d7b61f440b60e28659d","64ecab58adc5ab68880b196d","null","null","<p style=""font-size: 60px; font-family: BACS"">ktBdtcB</p>","","","","","","","","",""
"html-keyboard-response","95","269213","0.0-9.0-0.7","64526929d8f9b780b29d4d8d","64e77d7b61f440b60e28659d","64ecab58adc5ab68880b196d","null","null","<p style=""font-size: 60px; font-family: BACS"">cAZucUN</p>","","","","","","","","",""
"html-keyboard-response","96","270214","0.0-9.0-0.8","64526929d8f9b780b29d4d8d","64e77d7b61f440b60e28659d","64ecab58adc5ab68880b196d","null","null","<p style=""font-size: 60px; font-family: BACS"">dMThkRYlD</p>","","","","","","","","",""
"html-keyboard-response","97","271215","0.0-9.0-0.9","64526929d8f9b780b29d4d8d","64e77d7b61f440b60e28659d","64ecab58adc5ab68880b196d","null","null","<p style=""font-size: 60px; font-family: BACS"">GLluAJcL</p>","","","","","","","","",""
"html-keyboard-response","98","272215","0.0-9.0-0.10","64526929d8f9b780b29d4d8d","64e77d7b61f440b60e28659d","64ecab58adc5ab68880b196d","null","null","<p style=""font-size: 60px; font-family: BACS"">lhCTCAdYl</p>","","","","","","","","",""
"html-keyboard-response","99","273229","0.0-9.0-0.11","64526929d8f9b780b29d4d8d","64e77d7b61f440b60e28659d","64ecab58adc5ab68880b196d","null","null","<p style=""font-size: 60px; font-family: BACS"">cAZuYArG</p>","","","","","","","","",""
"html-keyboard-response","100","274236","0.0-9.0-0.12","64526929d8f9b780b29d4d8d","64e77d7b61f440b60e28659d","64ecab58adc5ab68880b196d","null","null","<p style=""font-size: 60px; font-family: BACS"">ckduAJcL</p>","","","","","","","","",""
"html-keyboard-response","101","275242","0.0-9.0-0.13","64526929d8f9b780b29d4d8d","64e77d7b61f440b60e28659d","64ecab58adc5ab68880b196d","null","null","<p style=""font-size: 60px; font-family: BACS"">McMDTmTm</p>","","","","","","","","",""
"html-keyboard-response","102","276248","0.0-9.0-0.14","64526929d8f9b780b29d4d8d","64e77d7b61f440b60e28659d","64ecab58adc5ab68880b196d","null","null","<p style=""font-size: 60px; font-family: BACS"">LQurJcL</p>","","","","","","","","",""
"html-keyboard-response","103","277255","0.0-9.0-0.15","64526929d8f9b780b29d4d8d","64e77d7b61f440b60e28659d","64ecab58adc5ab68880b196d","null","null","<p style=""font-size: 60px; font-family: BACS"">McMDhBK</p>","","","","","","","","",""
"html-keyboard-response","104","278267","0.0-9.0-0.16","64526929d8f9b780b29d4d8d","64e77d7b61f440b60e28659d","64ecab58adc5ab68880b196d","null","null","<p style=""font-size: 60px; font-family: BACS"">NaJbGUa</p>","","","","","","","","",""
"html-keyboard-response","105","279279","0.0-9.0-0.17","64526929d8f9b780b29d4d8d","64e77d7b61f440b60e28659d","64ecab58adc5ab68880b196d","null","null","<p style=""font-size: 60px; font-family: BACS"">McMDAdYl</p>","","","","","","","","",""
"html-keyboard-response","106","280280","0.0-9.0-0.18","64526929d8f9b780b29d4d8d","64e77d7b61f440b60e28659d","64ecab58adc5ab68880b196d","null","null","<p style=""font-size: 60px; font-family: BACS"">GLluAGUa</p>","","","","","","","","",""
"html-keyboard-response","107","281293","0.0-9.0-0.19","64526929d8f9b780b29d4d8d","64e77d7b61f440b60e28659d","64ecab58adc5ab68880b196d","null","null","<p style=""font-size: 60px; font-family: BACS"">ObZbAYArG</p>","","","","","","","","",""
"html-keyboard-response","108","282302","0.0-9.0-0.20","64526929d8f9b780b29d4d8d","64e77d7b61f440b60e28659d","64ecab58adc5ab68880b196d","null","null","<p style=""font-size: 60px; font-family: BACS"">lYruaGUa</p>","","","","","","","","",""
"html-keyboard-response","109","283311","0.0-9.0-0.21","64526929d8f9b780b29d4d8d","64e77d7b61f440b60e28659d","64ecab58adc5ab68880b196d","null","null","<p style=""font-size: 60px; font-family: BACS"">ABPRBTmTm</p>","","","","","","","","",""
"html-keyboard-response","110","284319","0.0-9.0-0.22","64526929d8f9b780b29d4d8d","64e77d7b61f440b60e28659d","64ecab58adc5ab68880b196d","null","null","<p style=""font-size: 60px; font-family: BACS"">bYGOZGUa</p>","","","","","","","","",""
"html-keyboard-response","111","285327","0.0-9.0-0.23","64526929d8f9b780b29d4d8d","64e77d7b61f440b60e28659d","64ecab58adc5ab68880b196d","null","null","<p style=""font-size: 60px; font-family: BACS"">ktBdTmTm</p>","","","","","","","","",""
"html-keyboard-response","112","286334","0.0-9.0-0.24","64526929d8f9b780b29d4d8d","64e77d7b61f440b60e28659d","64ecab58adc5ab68880b196d","null","null","<p style=""font-size: 60px; font-family: BACS"">lYruadmkv</p>","","","","","","","","",""
"html-keyboard-response","113","287336","0.0-9.0-0.25","64526929d8f9b780b29d4d8d","64e77d7b61f440b60e28659d","64ecab58adc5ab68880b196d","null","null","<p style=""font-size: 60px; font-family: BACS"">KRARmRYlD</p>","","","","","","","","",""
"html-keyboard-response","114","288337","0.0-9.0-0.26","64526929d8f9b780b29d4d8d","64e77d7b61f440b60e28659d","64ecab58adc5ab68880b196d","null","null","<p style=""font-size: 60px; font-family: BACS"">lhCTCTmTm</p>","","","","","","","","",""
"html-keyboard-response","115","289348","0.0-9.0-0.27","64526929d8f9b780b29d4d8d","64e77d7b61f440b60e28659d","64ecab58adc5ab68880b196d","null","null","<p style=""font-size: 60px; font-family: BACS"">rLaZYArG</p>","","","","","","","","",""
"html-keyboard-response","116","290354","0.0-9.0-0.28","64526929d8f9b780b29d4d8d","64e77d7b61f440b60e28659d","64ecab58adc5ab68880b196d","null","null","<p style=""font-size: 60px; font-family: BACS"">dMThktcB</p>","","","","","","","","",""
"html-keyboard-response","117","291359","0.0-9.0-0.29","64526929d8f9b780b29d4d8d","64e77d7b61f440b60e28659d","64ecab58adc5ab68880b196d","null","null","<p style=""font-size: 60px; font-family: BACS"">YlYcTmTm</p>","","","","","","","","",""
"html-keyboard-response","118","292365","0.0-9.0-0.30","64526929d8f9b780b29d4d8d","64e77d7b61f440b60e28659d","64ecab58adc5ab68880b196d","null","null","<p style=""font-size: 60px; font-family: BACS"">ObZbAcUN</p>","","","","","","","","",""
"html-keyboard-response","119","293366","0.0-9.0-0.31","64526929d8f9b780b29d4d8d","64e77d7b61f440b60e28659d","64ecab58adc5ab68880b196d","null","null","<p style=""font-size: 60px; font-family: BACS"">lbBDEhBK</p>","","","","","","","","",""
"html-keyboard-response","120","294377","0.0-9.0-0.32","64526929d8f9b780b29d4d8d","64e77d7b61f440b60e28659d","64ecab58adc5ab68880b196d","null","null","<p style=""font-size: 60px; font-family: BACS"">GLluAdmkv</p>","","","","","","","","",""
"html-keyboard-response","121","295385","0.0-9.0-0.33","64526929d8f9b780b29d4d8d","64e77d7b61f440b60e28659d","64ecab58adc5ab68880b196d","null","null","<p style=""font-size: 60px; font-family: BACS"">ObZbAJcL</p>","","","","","","","","",""
"html-keyboard-response","122","296390","0.0-9.0-0.34","64526929d8f9b780b29d4d8d","64e77d7b61f440b60e28659d","64ecab58adc5ab68880b196d","null","null","<p style=""font-size: 60px; font-family: BACS"">lbBDERYlD</p>","","","","","","","","",""
"html-keyboard-response","123","297395","0.0-9.0-0.35","64526929d8f9b780b29d4d8d","64e77d7b61f440b60e28659d","64ecab58adc5ab68880b196d","null","null","<p style=""font-size: 60px; font-family: BACS"">KRARmhBK</p>","","","","","","","","",""
"html-keyboard-response","124","298398","0.0-9.0-0.36","64526929d8f9b780b29d4d8d","64e77d7b61f440b60e28659d","64ecab58adc5ab68880b196d","null","null","<p style=""font-size: 60px; font-family: BACS"">ObZbAGUa</p>","","","","","","","","",""
"html-keyboard-response","125","299407","0.0-9.0-0.37","64526929d8f9b780b29d4d8d","64e77d7b61f440b60e28659d","64ecab58adc5ab68880b196d","null","null","<p style=""font-size: 60px; font-family: BACS"">GLluAcUN</p>","","","","","","","","",""
"html-keyboard-response","126","300411","0.0-9.0-0.38","64526929d8f9b780b29d4d8d","64e77d7b61f440b60e28659d","64ecab58adc5ab68880b196d","null","null","<p style=""font-size: 60px; font-family: BACS"">CRdBdTmTm</p>","","","","","","","","",""
"html-keyboard-response","127","301413","0.0-9.0-0.39","64526929d8f9b780b29d4d8d","64e77d7b61f440b60e28659d","64ecab58adc5ab68880b196d","null","null","<p style=""font-size: 60px; font-family: BACS"">YlYchBK</p>","","","","","","","","",""
"html-keyboard-response","128","302422","0.0-9.0-0.40","64526929d8f9b780b29d4d8d","64e77d7b61f440b60e28659d","64ecab58adc5ab68880b196d","null","null","<p style=""font-size: 60px; font-family: BACS"">ckduAdmkv</p>","","","","","","","","",""
"html-keyboard-response","129","303431","0.0-9.0-0.41","64526929d8f9b780b29d4d8d","64e77d7b61f440b60e28659d","64ecab58adc5ab68880b196d","null","null","<p style=""font-size: 60px; font-family: BACS"">NaJbJcL</p>","","","","","","","","",""
"html-keyboard-response","130","304441","0.0-9.0-0.42","64526929d8f9b780b29d4d8d","64e77d7b61f440b60e28659d","64ecab58adc5ab68880b196d","null","null","<p style=""font-size: 60px; font-family: BACS"">GJGcZGUa</p>","","","","","","","","",""
"html-keyboard-response","131","305451","0.0-9.0-0.43","64526929d8f9b780b29d4d8d","64e77d7b61f440b60e28659d","64ecab58adc5ab68880b196d","null","null","<p style=""font-size: 60px; font-family: BACS"">lYruaYArG</p>","","","","","","","","",""
"html-keyboard-response","132","306453","0.0-9.0-0.44","64526929d8f9b780b29d4d8d","64e77d7b61f440b60e28659d","64ecab58adc5ab68880b196d","null","null","<p style=""font-size: 60px; font-family: BACS"">CRdBdAdYl</p>","","","","","","","","",""
"html-keyboard-response","133","307457","0.0-9.0-0.45","64526929d8f9b780b29d4d8d","64e77d7b61f440b60e28659d","64ecab58adc5ab68880b196d","null","null","<p style=""font-size: 60px; font-family: BACS"">NaJbYArG</p>","","","","","","","","",""
"html-keyboard-response","134","308463","0.0-9.0-0.46","64526929d8f9b780b29d4d8d","64e77d7b61f440b60e28659d","64ecab58adc5ab68880b196d","null","null","<p style=""font-size: 60px; font-family: BACS"">bYGOZdmkv</p>","","","","","","","","",""
"html-keyboard-response","135","309464","0.0-9.0-0.47","64526929d8f9b780b29d4d8d","64e77d7b61f440b60e28659d","64ecab58adc5ab68880b196d","null","null","<p style=""font-size: 60px; font-family: BACS"">McMDtcB</p>","","","","","","","","",""
"html-keyboard-response","136","310476","0.0-9.0-0.48","64526929d8f9b780b29d4d8d","64e77d7b61f440b60e28659d","64ecab58adc5ab68880b196d","null","null","<p style=""font-size: 60px; font-family: BACS"">CRdBdRYlD</p>","","","","","","","","",""
"html-keyboard-response","137","311493","0.0-9.0-0.49","64526929d8f9b780b29d4d8d","64e77d7b61f440b60e28659d","64ecab58adc5ab68880b196d","null","null","<p style=""font-size: 60px; font-family: BACS"">ckduAGUa</p>","","","","","","","","",""
"html-keyboard-response","138","312499","0.0-9.0-0.50","64526929d8f9b780b29d4d8d","64e77d7b61f440b60e28659d","64ecab58adc5ab68880b196d","null","null","<p style=""font-size: 60px; font-family: BACS"">GJGcZcUN</p>","","","","","","","","",""
"html-keyboard-response","139","313501","0.0-9.0-0.51","64526929d8f9b780b29d4d8d","64e77d7b61f440b60e28659d","64ecab58adc5ab68880b196d","null","null","<p style=""font-size: 60px; font-family: BACS"">rLaZJcL</p>","","","","","","","","",""
"html-keyboard-response","140","314505","0.0-9.0-0.52","64526929d8f9b780b29d4d8d","64e77d7b61f440b60e28659d","64ecab58adc5ab68880b196d","null","null","<p style=""font-size: 60px; font-family: BACS"">ktBdAdYl</p>","","","","","","","","",""
"html-keyboard-response","141","315509","0.0-9.0-0.53","64526929d8f9b780b29d4d8d","64e77d7b61f440b60e28659d","64ecab58adc5ab68880b196d","null","null","<p style=""font-size: 60px; font-family: BACS"">ckduAYArG</p>","","","","","","","","",""
"html-keyboard-response","142","316516","0.0-9.0-0.54","64526929d8f9b780b29d4d8d","64e77d7b61f440b60e28659d","64ecab58adc5ab68880b196d","null","null","<p style=""font-size: 60px; font-family: BACS"">ABPRBtcB</p>","","","","","","","","",""
"html-keyboard-response","143","317520","0.0-9.0-0.55","64526929d8f9b780b29d4d8d","64e77d7b61f440b60e28659d","64ecab58adc5ab68880b196d","null","null","<p style=""font-size: 60px; font-family: BACS"">LQurdmkv</p>","","","","","","","","",""
"html-keyboard-response","144","318530","0.0-9.0-0.56","64526929d8f9b780b29d4d8d","64e77d7b61f440b60e28659d","64ecab58adc5ab68880b196d","null","null","<p style=""font-size: 60px; font-family: BACS"">PYkCtcB</p>","","","","","","","","",""
"html-keyboard-response","145","319535","0.0-9.0-0.57","64526929d8f9b780b29d4d8d","64e77d7b61f440b60e28659d","64ecab58adc5ab68880b196d","null","null","<p style=""font-size: 60px; font-family: BACS"">ABPRBhBK</p>","","","","","","","","",""
"html-keyboard-response","146","320546","0.0-9.0-0.58","64526929d8f9b780b29d4d8d","64e77d7b61f440b60e28659d","64ecab58adc5ab68880b196d","null","null","<p style=""font-size: 60px; font-family: BACS"">lYruaJcL</p>","","","","","","","","",""
"html-keyboard-response","147","321550","0.0-9.0-0.59","64526929d8f9b780b29d4d8d","64e77d7b61f440b60e28659d","64ecab58adc5ab68880b196d","null","null","<p style=""font-size: 60px; font-family: BACS"">rLaZdmkv</p>","","","","","","","","",""
"html-keyboard-response","148","322555","0.0-9.0-0.60","64526929d8f9b780b29d4d8d","64e77d7b61f440b60e28659d","64ecab58adc5ab68880b196d","null","null","<p style=""font-size: 60px; font-family: BACS"">PYkCRYlD</p>","","","","","","","","",""
"html-keyboard-response","149","323565","0.0-9.0-0.61","64526929d8f9b780b29d4d8d","64e77d7b61f440b60e28659d","64ecab58adc5ab68880b196d","null","null","<p style=""font-size: 60px; font-family: BACS"">KRARmAdYl</p>","","","","","","","","",""
"html-keyboard-response","150","324572","0.0-9.0-0.62","64526929d8f9b780b29d4d8d","64e77d7b61f440b60e28659d","64ecab58adc5ab68880b196d","null","null","<p style=""font-size: 60px; font-family: BACS"">cAZudmkv</p>","","","","","","","","",""
"html-keyboard-response","151","325584","0.0-9.0-0.63","64526929d8f9b780b29d4d8d","64e77d7b61f440b60e28659d","64ecab58adc5ab68880b196d","null","null","<p style=""font-size: 60px; font-family: BACS"">YlYcRYlD</p>","","","","","","","","",""
"html-keyboard-response","152","326590","0.0-9.0-0.64","64526929d8f9b780b29d4d8d","64e77d7b61f440b60e28659d","64ecab58adc5ab68880b196d","null","null","<p style=""font-size: 60px; font-family: BACS"">LQurYArG</p>","","","","","","","","",""
"html-keyboard-response","153","327599","0.0-9.0-0.65","64526929d8f9b780b29d4d8d","64e77d7b61f440b60e28659d","64ecab58adc5ab68880b196d","null","null","<p style=""font-size: 60px; font-family: BACS"">PYkCAdYl</p>","","","","","","","","",""
"html-keyboard-response","154","328601","0.0-9.0-0.66","64526929d8f9b780b29d4d8d","64e77d7b61f440b60e28659d","64ecab58adc5ab68880b196d","null","null","<p style=""font-size: 60px; font-family: BACS"">lhCTCtcB</p>","","","","","","","","",""
"html-keyboard-response","155","329609","0.0-9.0-0.67","64526929d8f9b780b29d4d8d","64e77d7b61f440b60e28659d","64ecab58adc5ab68880b196d","null","null","<p style=""font-size: 60px; font-family: BACS"">bYGOZcUN</p>","","","","","","","","",""
"html-keyboard-response","156","330623","0.0-9.0-0.68","64526929d8f9b780b29d4d8d","64e77d7b61f440b60e28659d","64ecab58adc5ab68880b196d","null","null","<p style=""font-size: 60px; font-family: BACS"">dMThkAdYl</p>","","","","","","","","",""
"html-keyboard-response","157","331630","0.0-9.0-0.69","64526929d8f9b780b29d4d8d","64e77d7b61f440b60e28659d","64ecab58adc5ab68880b196d","null","null","<p style=""font-size: 60px; font-family: BACS"">NaJbcUN</p>","","","","","","","","",""
"html-keyboard-response","158","332640","0.0-9.0-0.70","64526929d8f9b780b29d4d8d","64e77d7b61f440b60e28659d","64ecab58adc5ab68880b196d","null","null","<p style=""font-size: 60px; font-family: BACS"">lbBDETmTm</p>","","","","","","","","",""
"html-keyboard-response","159","333648","0.0-9.0-0.71","64526929d8f9b780b29d4d8d","64e77d7b61f440b60e28659d","64ecab58adc5ab68880b196d","null","null","<p style=""font-size: 60px; font-family: BACS"">rLaZcUN</p>","","","","","","","","",""
"html-keyboard-response","160","334654","0.0-9.0-0.72","64526929d8f9b780b29d4d8d","64e77d7b61f440b60e28659d","64ecab58adc5ab68880b196d","null","null","<p style=""font-size: 60px; font-family: BACS"">dMThkhBK</p>","","","","","","","","",""
"html-keyboard-response","161","335658","0.0-9.0-0.73","64526929d8f9b780b29d4d8d","64e77d7b61f440b60e28659d","64ecab58adc5ab68880b196d","null","null","<p style=""font-size: 60px; font-family: BACS"">lbBDEAdYl</p>","","","","","","","","",""
"html-keyboard-response","162","336667","0.0-9.0-0.74","64526929d8f9b780b29d4d8d","64e77d7b61f440b60e28659d","64ecab58adc5ab68880b196d","null","null","<p style=""font-size: 60px; font-family: BACS"">YlYctcB</p>","","","","","","","","",""
"html-keyboard-response","163","337679","0.0-9.0-0.75","64526929d8f9b780b29d4d8d","64e77d7b61f440b60e28659d","64ecab58adc5ab68880b196d","null","null","<p style=""font-size: 60px; font-family: BACS"">ABPRBRYlD</p>","","","","","","","","",""
"html-keyboard-response","164","338680","0.0-9.0-0.76","64526929d8f9b780b29d4d8d","64e77d7b61f440b60e28659d","64ecab58adc5ab68880b196d","null","null","<p style=""font-size: 60px; font-family: BACS"">bYGOZYArG</p>","","","","","","","","",""
"html-keyboard-response","165","339692","0.0-9.0-0.77","64526929d8f9b780b29d4d8d","64e77d7b61f440b60e28659d","64ecab58adc5ab68880b196d","null","null","<p style=""font-size: 60px; font-family: BACS"">cAZuGUa</p>","","","","","","","","",""
"html-keyboard-response","166","340693","0.0-9.0-0.78","64526929d8f9b780b29d4d8d","64e77d7b61f440b60e28659d","64ecab58adc5ab68880b196d","null","null","<p style=""font-size: 60px; font-family: BACS"">GJGcZdmkv</p>","","","","","","","","",""
"html-keyboard-response","167","341707","0.0-9.0-0.79","64526929d8f9b780b29d4d8d","64e77d7b61f440b60e28659d","64ecab58adc5ab68880b196d","null","null","<p style=""font-size: 60px; font-family: BACS"">LQurcUN</p>","","","","","","","","",""
"html-keyboard-response","168","345985","0.0-10.0","64526929d8f9b780b29d4d8d","64e77d7b61f440b60e28659d","64ecab58adc5ab68880b196d","4277"," ","<p>Great, you've seen the second block of words. You may now take a short break.</p>
      <p>Press the spacebar when you're ready to continue.</p>","","","","","","","","",""
"html-keyboard-response","169","346993","0.0-11.0-0.0","64526929d8f9b780b29d4d8d","64e77d7b61f440b60e28659d","64ecab58adc5ab68880b196d","null","null","<p style=""font-size: 60px; font-family: BACS"">CRdBdRYlD</p>","","","","","","","","",""
"html-keyboard-response","170","348001","0.0-11.0-0.1","64526929d8f9b780b29d4d8d","64e77d7b61f440b60e28659d","64ecab58adc5ab68880b196d","null","null","<p style=""font-size: 60px; font-family: BACS"">PYkCAdYl</p>","","","","","","","","",""
"html-keyboard-response","171","349008","0.0-11.0-0.2","64526929d8f9b780b29d4d8d","64e77d7b61f440b60e28659d","64ecab58adc5ab68880b196d","null","null","<p style=""font-size: 60px; font-family: BACS"">NaJbYArG</p>","","","","","","","","",""
"html-keyboard-response","172","350014","0.0-11.0-0.3","64526929d8f9b780b29d4d8d","64e77d7b61f440b60e28659d","64ecab58adc5ab68880b196d","null","null","<p style=""font-size: 60px; font-family: BACS"">GJGcZcUN</p>","","","","","","","","",""
"html-keyboard-response","173","351022","0.0-11.0-0.4","64526929d8f9b780b29d4d8d","64e77d7b61f440b60e28659d","64ecab58adc5ab68880b196d","null","null","<p style=""font-size: 60px; font-family: BACS"">ktBdAdYl</p>","","","","","","","","",""
"html-keyboard-response","174","352031","0.0-11.0-0.5","64526929d8f9b780b29d4d8d","64e77d7b61f440b60e28659d","64ecab58adc5ab68880b196d","null","null","<p style=""font-size: 60px; font-family: BACS"">ckduAJcL</p>","","","","","","","","",""
"html-keyboard-response","175","353032","0.0-11.0-0.6","64526929d8f9b780b29d4d8d","64e77d7b61f440b60e28659d","64ecab58adc5ab68880b196d","null","null","<p style=""font-size: 60px; font-family: BACS"">CRdBdAdYl</p>","","","","","","","","",""
"html-keyboard-response","176","354036","0.0-11.0-0.7","64526929d8f9b780b29d4d8d","64e77d7b61f440b60e28659d","64ecab58adc5ab68880b196d","null","null","<p style=""font-size: 60px; font-family: BACS"">bYGOZdmkv</p>","","","","","","","","",""
"html-keyboard-response","177","355045","0.0-11.0-0.8","64526929d8f9b780b29d4d8d","64e77d7b61f440b60e28659d","64ecab58adc5ab68880b196d","null","null","<p style=""font-size: 60px; font-family: BACS"">ABPRBRYlD</p>","","","","","","","","",""
"html-keyboard-response","178","356050","0.0-11.0-0.9","64526929d8f9b780b29d4d8d","64e77d7b61f440b60e28659d","64ecab58adc5ab68880b196d","null","null","<p style=""font-size: 60px; font-family: BACS"">LQurdmkv</p>","","","","","","","","",""
"html-keyboard-response","179","357053","0.0-11.0-0.10","64526929d8f9b780b29d4d8d","64e77d7b61f440b60e28659d","64ecab58adc5ab68880b196d","null","null","<p style=""font-size: 60px; font-family: BACS"">YlYcTmTm</p>","","","","","","","","",""
"html-keyboard-response","180","358059","0.0-11.0-0.11","64526929d8f9b780b29d4d8d","64e77d7b61f440b60e28659d","64ecab58adc5ab68880b196d","null","null","<p style=""font-size: 60px; font-family: BACS"">cAZudmkv</p>","","","","","","","","",""
"html-keyboard-response","181","359070","0.0-11.0-0.12","64526929d8f9b780b29d4d8d","64e77d7b61f440b60e28659d","64ecab58adc5ab68880b196d","null","null","<p style=""font-size: 60px; font-family: BACS"">KRARmAdYl</p>","","","","","","","","",""
"html-keyboard-response","182","360073","0.0-11.0-0.13","64526929d8f9b780b29d4d8d","64e77d7b61f440b60e28659d","64ecab58adc5ab68880b196d","null","null","<p style=""font-size: 60px; font-family: BACS"">rLaZJcL</p>","","","","","","","","",""
"html-keyboard-response","183","361079","0.0-11.0-0.14","64526929d8f9b780b29d4d8d","64e77d7b61f440b60e28659d","64ecab58adc5ab68880b196d","null","null","<p style=""font-size: 60px; font-family: BACS"">CRdBdhBK</p>","","","","","","","","",""
"html-keyboard-response","184","362088","0.0-11.0-0.15","64526929d8f9b780b29d4d8d","64e77d7b61f440b60e28659d","64ecab58adc5ab68880b196d","null","null","<p style=""font-size: 60px; font-family: BACS"">ObZbAcUN</p>","","","","","","","","",""
"html-keyboard-response","185","363089","0.0-11.0-0.16","64526929d8f9b780b29d4d8d","64e77d7b61f440b60e28659d","64ecab58adc5ab68880b196d","null","null","<p style=""font-size: 60px; font-family: BACS"">McMDTmTm</p>","","","","","","","","",""
"html-keyboard-response","186","364102","0.0-11.0-0.17","64526929d8f9b780b29d4d8d","64e77d7b61f440b60e28659d","64ecab58adc5ab68880b196d","null","null","<p style=""font-size: 60px; font-family: BACS"">lbBDERYlD</p>","","","","","","","","",""
"html-keyboard-response","187","365110","0.0-11.0-0.18","64526929d8f9b780b29d4d8d","64e77d7b61f440b60e28659d","64ecab58adc5ab68880b196d","null","null","<p style=""font-size: 60px; font-family: BACS"">dMThkAdYl</p>","","","","","","","","",""
"html-keyboard-response","188","366118","0.0-11.0-0.19","64526929d8f9b780b29d4d8d","64e77d7b61f440b60e28659d","64ecab58adc5ab68880b196d","null","null","<p style=""font-size: 60px; font-family: BACS"">cAZuYArG</p>","","","","","","","","",""
"html-keyboard-response","189","367118","0.0-11.0-0.20","64526929d8f9b780b29d4d8d","64e77d7b61f440b60e28659d","64ecab58adc5ab68880b196d","null","null","<p style=""font-size: 60px; font-family: BACS"">NaJbGUa</p>","","","","","","","","",""
"html-keyboard-response","190","368131","0.0-11.0-0.21","64526929d8f9b780b29d4d8d","64e77d7b61f440b60e28659d","64ecab58adc5ab68880b196d","null","null","<p style=""font-size: 60px; font-family: BACS"">lhCTCAdYl</p>","","","","","","","","",""
"html-keyboard-response","191","369135","0.0-11.0-0.22","64526929d8f9b780b29d4d8d","64e77d7b61f440b60e28659d","64ecab58adc5ab68880b196d","null","null","<p style=""font-size: 60px; font-family: BACS"">CRdBdTmTm</p>","","","","","","","","",""
"html-keyboard-response","192","370141","0.0-11.0-0.23","64526929d8f9b780b29d4d8d","64e77d7b61f440b60e28659d","64ecab58adc5ab68880b196d","null","null","<p style=""font-size: 60px; font-family: BACS"">dMThkhBK</p>","","","","","","","","",""
"html-keyboard-response","193","371143","0.0-11.0-0.24","64526929d8f9b780b29d4d8d","64e77d7b61f440b60e28659d","64ecab58adc5ab68880b196d","null","null","<p style=""font-size: 60px; font-family: BACS"">GJGcZGUa</p>","","","","","","","","",""
"html-keyboard-response","194","372144","0.0-11.0-0.25","64526929d8f9b780b29d4d8d","64e77d7b61f440b60e28659d","64ecab58adc5ab68880b196d","null","null","<p style=""font-size: 60px; font-family: BACS"">lbBDETmTm</p>","","","","","","","","",""
"html-keyboard-response","195","373155","0.0-11.0-0.26","64526929d8f9b780b29d4d8d","64e77d7b61f440b60e28659d","64ecab58adc5ab68880b196d","null","null","<p style=""font-size: 60px; font-family: BACS"">ABPRBhBK</p>","","","","","","","","",""
"html-keyboard-response","196","374164","0.0-11.0-0.27","64526929d8f9b780b29d4d8d","64e77d7b61f440b60e28659d","64ecab58adc5ab68880b196d","null","null","<p style=""font-size: 60px; font-family: BACS"">GLluAdmkv</p>","","","","","","","","",""
"html-keyboard-response","197","375167","0.0-11.0-0.28","64526929d8f9b780b29d4d8d","64e77d7b61f440b60e28659d","64ecab58adc5ab68880b196d","null","null","<p style=""font-size: 60px; font-family: BACS"">ktBdRYlD</p>","","","","","","","","",""
"html-keyboard-response","198","376175","0.0-11.0-0.29","64526929d8f9b780b29d4d8d","64e77d7b61f440b60e28659d","64ecab58adc5ab68880b196d","null","null","<p style=""font-size: 60px; font-family: BACS"">NaJbcUN</p>","","","","","","","","",""
"html-keyboard-response","199","377176","0.0-11.0-0.30","64526929d8f9b780b29d4d8d","64e77d7b61f440b60e28659d","64ecab58adc5ab68880b196d","null","null","<p style=""font-size: 60px; font-family: BACS"">lhCTChBK</p>","","","","","","","","",""
"html-keyboard-response","200","378177","0.0-11.0-0.31","64526929d8f9b780b29d4d8d","64e77d7b61f440b60e28659d","64ecab58adc5ab68880b196d","null","null","<p style=""font-size: 60px; font-family: BACS"">bYGOZGUa</p>","","","","","","","","",""
"html-keyboard-response","201","379179","0.0-11.0-0.32","64526929d8f9b780b29d4d8d","64e77d7b61f440b60e28659d","64ecab58adc5ab68880b196d","null","null","<p style=""font-size: 60px; font-family: BACS"">rLaZcUN</p>","","","","","","","","",""
"html-keyboard-response","202","380192","0.0-11.0-0.33","64526929d8f9b780b29d4d8d","64e77d7b61f440b60e28659d","64ecab58adc5ab68880b196d","null","null","<p style=""font-size: 60px; font-family: BACS"">lbBDEhBK</p>","","","","","","","","",""
"html-keyboard-response","203","381198","0.0-11.0-0.34","64526929d8f9b780b29d4d8d","64e77d7b61f440b60e28659d","64ecab58adc5ab68880b196d","null","null","<p style=""font-size: 60px; font-family: BACS"">ObZbAJcL</p>","","","","","","","","",""
"html-keyboard-response","204","382206","0.0-11.0-0.35","64526929d8f9b780b29d4d8d","64e77d7b61f440b60e28659d","64ecab58adc5ab68880b196d","null","null","<p style=""font-size: 60px; font-family: BACS"">McMDhBK</p>","","","","","","","","",""
"html-keyboard-response","205","383214","0.0-11.0-0.36","64526929d8f9b780b29d4d8d","64e77d7b61f440b60e28659d","64ecab58adc5ab68880b196d","null","null","<p style=""font-size: 60px; font-family: BACS"">PYkCRYlD</p>","","","","","","","","",""
"html-keyboard-response","206","384229","0.0-11.0-0.37","64526929d8f9b780b29d4d8d","64e77d7b61f440b60e28659d","64ecab58adc5ab68880b196d","null","null","<p style=""font-size: 60px; font-family: BACS"">LQurcUN</p>","","","","","","","","",""
"html-keyboard-response","207","385239","0.0-11.0-0.38","64526929d8f9b780b29d4d8d","64e77d7b61f440b60e28659d","64ecab58adc5ab68880b196d","null","null","<p style=""font-size: 60px; font-family: BACS"">lhCTCTmTm</p>","","","","","","","","",""
"html-keyboard-response","208","386248","0.0-11.0-0.39","64526929d8f9b780b29d4d8d","64e77d7b61f440b60e28659d","64ecab58adc5ab68880b196d","null","null","<p style=""font-size: 60px; font-family: BACS"">GJGcZdmkv</p>","","","","","","","","",""
"html-keyboard-response","209","387263","0.0-11.0-0.40","64526929d8f9b780b29d4d8d","64e77d7b61f440b60e28659d","64ecab58adc5ab68880b196d","null","null","<p style=""font-size: 60px; font-family: BACS"">ckduAYArG</p>","","","","","","","","",""
"html-keyboard-response","210","388270","0.0-11.0-0.41","64526929d8f9b780b29d4d8d","64e77d7b61f440b60e28659d","64ecab58adc5ab68880b196d","null","null","<p style=""font-size: 60px; font-family: BACS"">bYGOZcUN</p>","","","","","","","","",""
"html-keyboard-response","211","389272","0.0-11.0-0.42","64526929d8f9b780b29d4d8d","64e77d7b61f440b60e28659d","64ecab58adc5ab68880b196d","null","null","<p style=""font-size: 60px; font-family: BACS"">KRARmhBK</p>","","","","","","","","",""
"html-keyboard-response","212","390280","0.0-11.0-0.43","64526929d8f9b780b29d4d8d","64e77d7b61f440b60e28659d","64ecab58adc5ab68880b196d","null","null","<p style=""font-size: 60px; font-family: BACS"">PYkCTmTm</p>","","","","","","","","",""
"html-keyboard-response","213","391281","0.0-11.0-0.44","64526929d8f9b780b29d4d8d","64e77d7b61f440b60e28659d","64ecab58adc5ab68880b196d","null","null","<p style=""font-size: 60px; font-family: BACS"">LQurYArG</p>","","","","","","","","",""
"html-keyboard-response","214","392283","0.0-11.0-0.45","64526929d8f9b780b29d4d8d","64e77d7b61f440b60e28659d","64ecab58adc5ab68880b196d","null","null","<p style=""font-size: 60px; font-family: BACS"">ktBdTmTm</p>","","","","","","","","",""
"html-keyboard-response","215","393295","0.0-11.0-0.46","64526929d8f9b780b29d4d8d","64e77d7b61f440b60e28659d","64ecab58adc5ab68880b196d","null","null","<p style=""font-size: 60px; font-family: BACS"">lYruadmkv</p>","","","","","","","","",""
"html-keyboard-response","216","394303","0.0-11.0-0.47","64526929d8f9b780b29d4d8d","64e77d7b61f440b60e28659d","64ecab58adc5ab68880b196d","null","null","<p style=""font-size: 60px; font-family: BACS"">dMThkRYlD</p>","","","","","","","","",""
"html-keyboard-response","217","395308","0.0-11.0-0.48","64526929d8f9b780b29d4d8d","64e77d7b61f440b60e28659d","64ecab58adc5ab68880b196d","null","null","<p style=""font-size: 60px; font-family: BACS"">bYGOZYArG</p>","","","","","","","","",""
"html-keyboard-response","218","396309","0.0-11.0-0.49","64526929d8f9b780b29d4d8d","64e77d7b61f440b60e28659d","64ecab58adc5ab68880b196d","null","null","<p style=""font-size: 60px; font-family: BACS"">KRARmRYlD</p>","","","","","","","","",""
"html-keyboard-response","219","397323","0.0-11.0-0.50","64526929d8f9b780b29d4d8d","64e77d7b61f440b60e28659d","64ecab58adc5ab68880b196d","null","null","<p style=""font-size: 60px; font-family: BACS"">NaJbJcL</p>","","","","","","","","",""
"html-keyboard-response","220","398324","0.0-11.0-0.51","64526929d8f9b780b29d4d8d","64e77d7b61f440b60e28659d","64ecab58adc5ab68880b196d","null","null","<p style=""font-size: 60px; font-family: BACS"">YlYctcB</p>","","","","","","","","",""
"html-keyboard-response","221","399336","0.0-11.0-0.52","64526929d8f9b780b29d4d8d","64e77d7b61f440b60e28659d","64ecab58adc5ab68880b196d","null","null","<p style=""font-size: 60px; font-family: BACS"">McMDAdYl</p>","","","","","","","","",""
"html-keyboard-response","222","400343","0.0-11.0-0.53","64526929d8f9b780b29d4d8d","64e77d7b61f440b60e28659d","64ecab58adc5ab68880b196d","null","null","<p style=""font-size: 60px; font-family: BACS"">lhCTCtcB</p>","","","","","","","","",""
"html-keyboard-response","223","401353","0.0-11.0-0.54","64526929d8f9b780b29d4d8d","64e77d7b61f440b60e28659d","64ecab58adc5ab68880b196d","null","null","<p style=""font-size: 60px; font-family: BACS"">YlYcRYlD</p>","","","","","","","","",""
"html-keyboard-response","224","402362","0.0-11.0-0.55","64526929d8f9b780b29d4d8d","64e77d7b61f440b60e28659d","64ecab58adc5ab68880b196d","null","null","<p style=""font-size: 60px; font-family: BACS"">ObZbAYArG</p>","","","","","","","","",""
"html-keyboard-response","225","403364","0.0-11.0-0.56","64526929d8f9b780b29d4d8d","64e77d7b61f440b60e28659d","64ecab58adc5ab68880b196d","null","null","<p style=""font-size: 60px; font-family: BACS"">GLluAJcL</p>","","","","","","","","",""
"html-keyboard-response","226","404365","0.0-11.0-0.57","64526929d8f9b780b29d4d8d","64e77d7b61f440b60e28659d","64ecab58adc5ab68880b196d","null","null","<p style=""font-size: 60px; font-family: BACS"">PYkCtcB</p>","","","","","","","","",""
"html-keyboard-response","227","405373","0.0-11.0-0.58","64526929d8f9b780b29d4d8d","64e77d7b61f440b60e28659d","64ecab58adc5ab68880b196d","null","null","<p style=""font-size: 60px; font-family: BACS"">LQurJcL</p>","","","","","","","","",""
"html-keyboard-response","228","406387","0.0-11.0-0.59","64526929d8f9b780b29d4d8d","64e77d7b61f440b60e28659d","64ecab58adc5ab68880b196d","null","null","<p style=""font-size: 60px; font-family: BACS"">ABPRBTmTm</p>","","","","","","","","",""
"html-keyboard-response","229","407395","0.0-11.0-0.60","64526929d8f9b780b29d4d8d","64e77d7b61f440b60e28659d","64ecab58adc5ab68880b196d","null","null","<p style=""font-size: 60px; font-family: BACS"">ckduAGUa</p>","","","","","","","","",""
"html-keyboard-response","230","408396","0.0-11.0-0.61","64526929d8f9b780b29d4d8d","64e77d7b61f440b60e28659d","64ecab58adc5ab68880b196d","null","null","<p style=""font-size: 60px; font-family: BACS"">ktBdtcB</p>","","","","","","","","",""
"html-keyboard-response","231","409397","0.0-11.0-0.62","64526929d8f9b780b29d4d8d","64e77d7b61f440b60e28659d","64ecab58adc5ab68880b196d","null","null","<p style=""font-size: 60px; font-family: BACS"">ObZbAGUa</p>","","","","","","","","",""
"html-keyboard-response","232","410403","0.0-11.0-0.63","64526929d8f9b780b29d4d8d","64e77d7b61f440b60e28659d","64ecab58adc5ab68880b196d","null","null","<p style=""font-size: 60px; font-family: BACS"">ABPRBtcB</p>","","","","","","","","",""
"html-keyboard-response","233","411409","0.0-11.0-0.64","64526929d8f9b780b29d4d8d","64e77d7b61f440b60e28659d","64ecab58adc5ab68880b196d","null","null","<p style=""font-size: 60px; font-family: BACS"">GLluAcUN</p>","","","","","","","","",""
"html-keyboard-response","234","412414","0.0-11.0-0.65","64526929d8f9b780b29d4d8d","64e77d7b61f440b60e28659d","64ecab58adc5ab68880b196d","null","null","<p style=""font-size: 60px; font-family: BACS"">KRARmtcB</p>","","","","","","","","",""
"html-keyboard-response","235","413422","0.0-11.0-0.66","64526929d8f9b780b29d4d8d","64e77d7b61f440b60e28659d","64ecab58adc5ab68880b196d","null","null","<p style=""font-size: 60px; font-family: BACS"">GLluAGUa</p>","","","","","","","","",""
"html-keyboard-response","236","414423","0.0-11.0-0.67","64526929d8f9b780b29d4d8d","64e77d7b61f440b60e28659d","64ecab58adc5ab68880b196d","null","null","<p style=""font-size: 60px; font-family: BACS"">cAZucUN</p>","","","","","","","","",""
"html-keyboard-response","237","415437","0.0-11.0-0.68","64526929d8f9b780b29d4d8d","64e77d7b61f440b60e28659d","64ecab58adc5ab68880b196d","null","null","<p style=""font-size: 60px; font-family: BACS"">lbBDEAdYl</p>","","","","","","","","",""
"html-keyboard-response","238","416447","0.0-11.0-0.69","64526929d8f9b780b29d4d8d","64e77d7b61f440b60e28659d","64ecab58adc5ab68880b196d","null","null","<p style=""font-size: 60px; font-family: BACS"">lYruaJcL</p>","","","","","","","","",""
"html-keyboard-response","239","417457","0.0-11.0-0.70","64526929d8f9b780b29d4d8d","64e77d7b61f440b60e28659d","64ecab58adc5ab68880b196d","null","null","<p style=""font-size: 60px; font-family: BACS"">cAZuGUa</p>","","","","","","","","",""
"html-keyboard-response","240","418462","0.0-11.0-0.71","64526929d8f9b780b29d4d8d","64e77d7b61f440b60e28659d","64ecab58adc5ab68880b196d","null","null","<p style=""font-size: 60px; font-family: BACS"">rLaZdmkv</p>","","","","","","","","",""
"html-keyboard-response","241","419475","0.0-11.0-0.72","64526929d8f9b780b29d4d8d","64e77d7b61f440b60e28659d","64ecab58adc5ab68880b196d","null","null","<p style=""font-size: 60px; font-family: BACS"">McMDtcB</p>","","","","","","","","",""
"html-keyboard-response","242","420484","0.0-11.0-0.73","64526929d8f9b780b29d4d8d","64e77d7b61f440b60e28659d","64ecab58adc5ab68880b196d","null","null","<p style=""font-size: 60px; font-family: BACS"">YlYchBK</p>","","","","","","","","",""
"html-keyboard-response","243","421494","0.0-11.0-0.74","64526929d8f9b780b29d4d8d","64e77d7b61f440b60e28659d","64ecab58adc5ab68880b196d","null","null","<p style=""font-size: 60px; font-family: BACS"">dMThktcB</p>","","","","","","","","",""
"html-keyboard-response","244","422500","0.0-11.0-0.75","64526929d8f9b780b29d4d8d","64e77d7b61f440b60e28659d","64ecab58adc5ab68880b196d","null","null","<p style=""font-size: 60px; font-family: BACS"">lYruaGUa</p>","","","","","","","","",""
"html-keyboard-response","245","423507","0.0-11.0-0.76","64526929d8f9b780b29d4d8d","64e77d7b61f440b60e28659d","64ecab58adc5ab68880b196d","null","null","<p style=""font-size: 60px; font-family: BACS"">ckduAdmkv</p>","","","","","","","","",""
"html-keyboard-response","246","424518","0.0-11.0-0.77","64526929d8f9b780b29d4d8d","64e77d7b61f440b60e28659d","64ecab58adc5ab68880b196d","null","null","<p style=""font-size: 60px; font-family: BACS"">lYruaYArG</p>","","","","","","","","",""
"html-keyboard-response","247","425524","0.0-11.0-0.78","64526929d8f9b780b29d4d8d","64e77d7b61f440b60e28659d","64ecab58adc5ab68880b196d","null","null","<p style=""font-size: 60px; font-family: BACS"">GJGcZJcL</p>","","","","","","","","",""
"html-keyboard-response","248","426532","0.0-11.0-0.79","64526929d8f9b780b29d4d8d","64e77d7b61f440b60e28659d","64ecab58adc5ab68880b196d","null","null","<p style=""font-size: 60px; font-family: BACS"">rLaZYArG</p>","","","","","","","","",""
"html-keyboard-response","249","428169","0.0-12.0","64526929d8f9b780b29d4d8d","64e77d7b61f440b60e28659d","64ecab58adc5ab68880b196d","1636"," ","<p>Great, you've seen the third block of words. You may now take a short break.</p>
      <p>Press the spacebar when you're ready to continue.</p>","","","","","","","","",""
"html-keyboard-response","250","429176","0.0-13.0-0.0","64526929d8f9b780b29d4d8d","64e77d7b61f440b60e28659d","64ecab58adc5ab68880b196d","null","null","<p style=""font-size: 60px; font-family: BACS"">GLluAGUa</p>","","","","","","","","",""
"html-keyboard-response","251","430182","0.0-13.0-0.1","64526929d8f9b780b29d4d8d","64e77d7b61f440b60e28659d","64ecab58adc5ab68880b196d","null","null","<p style=""font-size: 60px; font-family: BACS"">dMThkRYlD</p>","","","","","","","","",""
"html-keyboard-response","252","431191","0.0-13.0-0.2","64526929d8f9b780b29d4d8d","64e77d7b61f440b60e28659d","64ecab58adc5ab68880b196d","null","null","<p style=""font-size: 60px; font-family: BACS"">GLluAJcL</p>","","","","","","","","",""
"html-keyboard-response","253","432197","0.0-13.0-0.3","64526929d8f9b780b29d4d8d","64e77d7b61f440b60e28659d","64ecab58adc5ab68880b196d","null","null","<p style=""font-size: 60px; font-family: BACS"">NaJbcUN</p>","","","","","","","","",""
"html-keyboard-response","254","433200","0.0-13.0-0.4","64526929d8f9b780b29d4d8d","64e77d7b61f440b60e28659d","64ecab58adc5ab68880b196d","null","null","<p style=""font-size: 60px; font-family: BACS"">ktBdTmTm</p>","","","","","","","","",""
"html-keyboard-response","255","434201","0.0-13.0-0.5","64526929d8f9b780b29d4d8d","64e77d7b61f440b60e28659d","64ecab58adc5ab68880b196d","null","null","<p style=""font-size: 60px; font-family: BACS"">McMDtcB</p>","","","","","","","","",""
"html-keyboard-response","256","435208","0.0-13.0-0.6","64526929d8f9b780b29d4d8d","64e77d7b61f440b60e28659d","64ecab58adc5ab68880b196d","null","null","<p style=""font-size: 60px; font-family: BACS"">LQurJcL</p>","","","","","","","","",""
"html-keyboard-response","257","436217","0.0-13.0-0.7","64526929d8f9b780b29d4d8d","64e77d7b61f440b60e28659d","64ecab58adc5ab68880b196d","null","null","<p style=""font-size: 60px; font-family: BACS"">cAZuGUa</p>","","","","","","","","",""
"html-keyboard-response","258","437229","0.0-13.0-0.8","64526929d8f9b780b29d4d8d","64e77d7b61f440b60e28659d","64ecab58adc5ab68880b196d","null","null","<p style=""font-size: 60px; font-family: BACS"">LQurcUN</p>","","","","","","","","",""
"html-keyboard-response","259","438230","0.0-13.0-0.9","64526929d8f9b780b29d4d8d","64e77d7b61f440b60e28659d","64ecab58adc5ab68880b196d","null","null","<p style=""font-size: 60px; font-family: BACS"">ObZbAGUa</p>","","","","","","","","",""
"html-keyboard-response","260","439237","0.0-13.0-0.10","64526929d8f9b780b29d4d8d","64e77d7b61f440b60e28659d","64ecab58adc5ab68880b196d","null","null","<p style=""font-size: 60px; font-family: BACS"">McMDTmTm</p>","","","","","","","","",""
"html-keyboard-response","261","440245","0.0-13.0-0.11","64526929d8f9b780b29d4d8d","64e77d7b61f440b60e28659d","64ecab58adc5ab68880b196d","null","null","<p style=""font-size: 60px; font-family: BACS"">GJGcZdmkv</p>","","","","","","","","",""
"html-keyboard-response","262","441254","0.0-13.0-0.12","64526929d8f9b780b29d4d8d","64e77d7b61f440b60e28659d","64ecab58adc5ab68880b196d","null","null","<p style=""font-size: 60px; font-family: BACS"">ABPRBRYlD</p>","","","","","","","","",""
"html-keyboard-response","263","442262","0.0-13.0-0.13","64526929d8f9b780b29d4d8d","64e77d7b61f440b60e28659d","64ecab58adc5ab68880b196d","null","null","<p style=""font-size: 60px; font-family: BACS"">lYruaGUa</p>","","","","","","","","",""
"html-keyboard-response","264","443272","0.0-13.0-0.14","64526929d8f9b780b29d4d8d","64e77d7b61f440b60e28659d","64ecab58adc5ab68880b196d","null","null","<p style=""font-size: 60px; font-family: BACS"">CRdBdhBK</p>","","","","","","","","",""
"html-keyboard-response","265","444279","0.0-13.0-0.15","64526929d8f9b780b29d4d8d","64e77d7b61f440b60e28659d","64ecab58adc5ab68880b196d","null","null","<p style=""font-size: 60px; font-family: BACS"">PYkCtcB</p>","","","","","","","","",""
"html-keyboard-response","266","445294","0.0-13.0-0.16","64526929d8f9b780b29d4d8d","64e77d7b61f440b60e28659d","64ecab58adc5ab68880b196d","null","null","<p style=""font-size: 60px; font-family: BACS"">ObZbAJcL</p>","","","","","","","","",""
"html-keyboard-response","267","446296","0.0-13.0-0.17","64526929d8f9b780b29d4d8d","64e77d7b61f440b60e28659d","64ecab58adc5ab68880b196d","null","null","<p style=""font-size: 60px; font-family: BACS"">lbBDEAdYl</p>","","","","","","","","",""
"html-keyboard-response","268","447298","0.0-13.0-0.18","64526929d8f9b780b29d4d8d","64e77d7b61f440b60e28659d","64ecab58adc5ab68880b196d","null","null","<p style=""font-size: 60px; font-family: BACS"">NaJbGUa</p>","","","","","","","","",""
"html-keyboard-response","269","448312","0.0-13.0-0.19","64526929d8f9b780b29d4d8d","64e77d7b61f440b60e28659d","64ecab58adc5ab68880b196d","null","null","<p style=""font-size: 60px; font-family: BACS"">KRARmhBK</p>","","","","","","","","",""
"html-keyboard-response","270","449319","0.0-13.0-0.20","64526929d8f9b780b29d4d8d","64e77d7b61f440b60e28659d","64ecab58adc5ab68880b196d","null","null","<p style=""font-size: 60px; font-family: BACS"">PYkCTmTm</p>","","","","","","","","",""
"html-keyboard-response","271","450319","0.0-13.0-0.21","64526929d8f9b780b29d4d8d","64e77d7b61f440b60e28659d","64ecab58adc5ab68880b196d","null","null","<p style=""font-size: 60px; font-family: BACS"">lYruaYArG</p>","","","","","","","","",""
"html-keyboard-response","272","451321","0.0-13.0-0.22","64526929d8f9b780b29d4d8d","64e77d7b61f440b60e28659d","64ecab58adc5ab68880b196d","null","null","<p style=""font-size: 60px; font-family: BACS"">KRARmRYlD</p>","","","","","","","","",""
"html-keyboard-response","273","452321","0.0-13.0-0.23","64526929d8f9b780b29d4d8d","64e77d7b61f440b60e28659d","64ecab58adc5ab68880b196d","null","null","<p style=""font-size: 60px; font-family: BACS"">rLaZYArG</p>","","","","","","","","",""
"html-keyboard-response","274","453333","0.0-13.0-0.24","64526929d8f9b780b29d4d8d","64e77d7b61f440b60e28659d","64ecab58adc5ab68880b196d","null","null","<p style=""font-size: 60px; font-family: BACS"">lbBDETmTm</p>","","","","","","","","",""
"html-keyboard-response","275","454349","0.0-13.0-0.25","64526929d8f9b780b29d4d8d","64e77d7b61f440b60e28659d","64ecab58adc5ab68880b196d","null","null","<p style=""font-size: 60px; font-family: BACS"">rLaZdmkv</p>","","","","","","","","",""
"html-keyboard-response","276","455357","0.0-13.0-0.26","64526929d8f9b780b29d4d8d","64e77d7b61f440b60e28659d","64ecab58adc5ab68880b196d","null","null","<p style=""font-size: 60px; font-family: BACS"">lbBDEhBK</p>","","","","","","","","",""
"html-keyboard-response","277","456362","0.0-13.0-0.27","64526929d8f9b780b29d4d8d","64e77d7b61f440b60e28659d","64ecab58adc5ab68880b196d","null","null","<p style=""font-size: 60px; font-family: BACS"">ktBdRYlD</p>","","","","","","","","",""
"html-keyboard-response","278","457372","0.0-13.0-0.28","64526929d8f9b780b29d4d8d","64e77d7b61f440b60e28659d","64ecab58adc5ab68880b196d","null","null","<p style=""font-size: 60px; font-family: BACS"">KRARmtcB</p>","","","","","","","","",""
"html-keyboard-response","279","458380","0.0-13.0-0.29","64526929d8f9b780b29d4d8d","64e77d7b61f440b60e28659d","64ecab58adc5ab68880b196d","null","null","<p style=""font-size: 60px; font-family: BACS"">ABPRBhBK</p>","","","","","","","","",""
"html-keyboard-response","280","459382","0.0-13.0-0.30","64526929d8f9b780b29d4d8d","64e77d7b61f440b60e28659d","64ecab58adc5ab68880b196d","null","null","<p style=""font-size: 60px; font-family: BACS"">rLaZcUN</p>","","","","","","","","",""
"html-keyboard-response","281","460389","0.0-13.0-0.31","64526929d8f9b780b29d4d8d","64e77d7b61f440b60e28659d","64ecab58adc5ab68880b196d","null","null","<p style=""font-size: 60px; font-family: BACS"">ckduAYArG</p>","","","","","","","","",""
"html-keyboard-response","282","461395","0.0-13.0-0.32","64526929d8f9b780b29d4d8d","64e77d7b61f440b60e28659d","64ecab58adc5ab68880b196d","null","null","<p style=""font-size: 60px; font-family: BACS"">McMDAdYl</p>","","","","","","","","",""
"html-keyboard-response","283","462403","0.0-13.0-0.33","64526929d8f9b780b29d4d8d","64e77d7b61f440b60e28659d","64ecab58adc5ab68880b196d","null","null","<p style=""font-size: 60px; font-family: BACS"">dMThktcB</p>","","","","","","","","",""
"html-keyboard-response","284","463409","0.0-13.0-0.34","64526929d8f9b780b29d4d8d","64e77d7b61f440b60e28659d","64ecab58adc5ab68880b196d","null","null","<p style=""font-size: 60px; font-family: BACS"">bYGOZdmkv</p>","","","","","","","","",""
"html-keyboard-response","285","464411","0.0-13.0-0.35","64526929d8f9b780b29d4d8d","64e77d7b61f440b60e28659d","64ecab58adc5ab68880b196d","null","null","<p style=""font-size: 60px; font-family: BACS"">GJGcZJcL</p>","","","","","","","","",""
"html-keyboard-response","286","465416","0.0-13.0-0.36","64526929d8f9b780b29d4d8d","64e77d7b61f440b60e28659d","64ecab58adc5ab68880b196d","null","null","<p style=""font-size: 60px; font-family: BACS"">ObZbAcUN</p>","","","","","","","","",""
"html-keyboard-response","287","466421","0.0-13.0-0.37","64526929d8f9b780b29d4d8d","64e77d7b61f440b60e28659d","64ecab58adc5ab68880b196d","null","null","<p style=""font-size: 60px; font-family: BACS"">YlYcRYlD</p>","","","","","","","","",""
"html-keyboard-response","288","467428","0.0-13.0-0.38","64526929d8f9b780b29d4d8d","64e77d7b61f440b60e28659d","64ecab58adc5ab68880b196d","null","null","<p style=""font-size: 60px; font-family: BACS"">ckduAJcL</p>","","","","","","","","",""
"html-keyboard-response","289","468429","0.0-13.0-0.39","64526929d8f9b780b29d4d8d","64e77d7b61f440b60e28659d","64ecab58adc5ab68880b196d","null","null","<p style=""font-size: 60px; font-family: BACS"">ktBdtcB</p>","","","","","","","","",""
"html-keyboard-response","290","469442","0.0-13.0-0.40","64526929d8f9b780b29d4d8d","64e77d7b61f440b60e28659d","64ecab58adc5ab68880b196d","null","null","<p style=""font-size: 60px; font-family: BACS"">lhCTCTmTm</p>","","","","","","","","",""
"html-keyboard-response","291","470449","0.0-13.0-0.41","64526929d8f9b780b29d4d8d","64e77d7b61f440b60e28659d","64ecab58adc5ab68880b196d","null","null","<p style=""font-size: 60px; font-family: BACS"">bYGOZcUN</p>","","","","","","","","",""
"html-keyboard-response","292","471456","0.0-13.0-0.42","64526929d8f9b780b29d4d8d","64e77d7b61f440b60e28659d","64ecab58adc5ab68880b196d","null","null","<p style=""font-size: 60px; font-family: BACS"">PYkCRYlD</p>","","","","","","","","",""
"html-keyboard-response","293","472466","0.0-13.0-0.43","64526929d8f9b780b29d4d8d","64e77d7b61f440b60e28659d","64ecab58adc5ab68880b196d","null","null","<p style=""font-size: 60px; font-family: BACS"">lhCTCAdYl</p>","","","","","","","","",""
"html-keyboard-response","294","473476","0.0-13.0-0.44","64526929d8f9b780b29d4d8d","64e77d7b61f440b60e28659d","64ecab58adc5ab68880b196d","null","null","<p style=""font-size: 60px; font-family: BACS"">NaJbJcL</p>","","","","","","","","",""
"html-keyboard-response","295","474491","0.0-13.0-0.45","64526929d8f9b780b29d4d8d","64e77d7b61f440b60e28659d","64ecab58adc5ab68880b196d","null","null","<p style=""font-size: 60px; font-family: BACS"">KRARmAdYl</p>","","","","","","","","",""
"html-keyboard-response","296","475498","0.0-13.0-0.46","64526929d8f9b780b29d4d8d","64e77d7b61f440b60e28659d","64ecab58adc5ab68880b196d","null","null","<p style=""font-size: 60px; font-family: BACS"">cAZucUN</p>","","","","","","","","",""
"html-keyboard-response","297","476508","0.0-13.0-0.47","64526929d8f9b780b29d4d8d","64e77d7b61f440b60e28659d","64ecab58adc5ab68880b196d","null","null","<p style=""font-size: 60px; font-family: BACS"">CRdBdAdYl</p>","","","","","","","","",""
"html-keyboard-response","298","477516","0.0-13.0-0.48","64526929d8f9b780b29d4d8d","64e77d7b61f440b60e28659d","64ecab58adc5ab68880b196d","null","null","<p style=""font-size: 60px; font-family: BACS"">NaJbYArG</p>","","","","","","","","",""
"html-keyboard-response","299","478524","0.0-13.0-0.49","64526929d8f9b780b29d4d8d","64e77d7b61f440b60e28659d","64ecab58adc5ab68880b196d","null","null","<p style=""font-size: 60px; font-family: BACS"">dMThkAdYl</p>","","","","","","","","",""
"html-keyboard-response","300","479535","0.0-13.0-0.50","64526929d8f9b780b29d4d8d","64e77d7b61f440b60e28659d","64ecab58adc5ab68880b196d","null","null","<p style=""font-size: 60px; font-family: BACS"">ckduAdmkv</p>","","","","","","","","",""
"html-keyboard-response","301","480542","0.0-13.0-0.51","64526929d8f9b780b29d4d8d","64e77d7b61f440b60e28659d","64ecab58adc5ab68880b196d","null","null","<p style=""font-size: 60px; font-family: BACS"">CRdBdTmTm</p>","","","","","","","","",""
"html-keyboard-response","302","481547","0.0-13.0-0.52","64526929d8f9b780b29d4d8d","64e77d7b61f440b60e28659d","64ecab58adc5ab68880b196d","null","null","<p style=""font-size: 60px; font-family: BACS"">GLluAdmkv</p>","","","","","","","","",""
"html-keyboard-response","303","482559","0.0-13.0-0.53","64526929d8f9b780b29d4d8d","64e77d7b61f440b60e28659d","64ecab58adc5ab68880b196d","null","null","<p style=""font-size: 60px; font-family: BACS"">bYGOZGUa</p>","","","","","","","","",""
"html-keyboard-response","304","483572","0.0-13.0-0.54","64526929d8f9b780b29d4d8d","64e77d7b61f440b60e28659d","64ecab58adc5ab68880b196d","null","null","<p style=""font-size: 60px; font-family: BACS"">LQurdmkv</p>","","","","","","","","",""
"html-keyboard-response","305","484583","0.0-13.0-0.55","64526929d8f9b780b29d4d8d","64e77d7b61f440b60e28659d","64ecab58adc5ab68880b196d","null","null","<p style=""font-size: 60px; font-family: BACS"">YlYcTmTm</p>","","","","","","","","",""
"html-keyboard-response","306","485593","0.0-13.0-0.56","64526929d8f9b780b29d4d8d","64e77d7b61f440b60e28659d","64ecab58adc5ab68880b196d","null","null","<p style=""font-size: 60px; font-family: BACS"">ckduAGUa</p>","","","","","","","","",""
"html-keyboard-response","307","486595","0.0-13.0-0.57","64526929d8f9b780b29d4d8d","64e77d7b61f440b60e28659d","64ecab58adc5ab68880b196d","null","null","<p style=""font-size: 60px; font-family: BACS"">ObZbAYArG</p>","","","","","","","","",""
"html-keyboard-response","308","487603","0.0-13.0-0.58","64526929d8f9b780b29d4d8d","64e77d7b61f440b60e28659d","64ecab58adc5ab68880b196d","null","null","<p style=""font-size: 60px; font-family: BACS"">PYkCAdYl</p>","","","","","","","","",""
"html-keyboard-response","309","488604","0.0-13.0-0.59","64526929d8f9b780b29d4d8d","64e77d7b61f440b60e28659d","64ecab58adc5ab68880b196d","null","null","<p style=""font-size: 60px; font-family: BACS"">GJGcZcUN</p>","","","","","","","","",""
"html-keyboard-response","310","489605","0.0-13.0-0.60","64526929d8f9b780b29d4d8d","64e77d7b61f440b60e28659d","64ecab58adc5ab68880b196d","null","null","<p style=""font-size: 60px; font-family: BACS"">YlYctcB</p>","","","","","","","","",""
"html-keyboard-response","311","490607","0.0-13.0-0.61","64526929d8f9b780b29d4d8d","64e77d7b61f440b60e28659d","64ecab58adc5ab68880b196d","null","null","<p style=""font-size: 60px; font-family: BACS"">CRdBdRYlD</p>","","","","","","","","",""
"html-keyboard-response","312","491608","0.0-13.0-0.62","64526929d8f9b780b29d4d8d","64e77d7b61f440b60e28659d","64ecab58adc5ab68880b196d","null","null","<p style=""font-size: 60px; font-family: BACS"">YlYchBK</p>","","","","","","","","",""
"html-keyboard-response","313","492621","0.0-13.0-0.63","64526929d8f9b780b29d4d8d","64e77d7b61f440b60e28659d","64ecab58adc5ab68880b196d","null","null","<p style=""font-size: 60px; font-family: BACS"">LQurYArG</p>","","","","","","","","",""
"html-keyboard-response","314","493630","0.0-13.0-0.64","64526929d8f9b780b29d4d8d","64e77d7b61f440b60e28659d","64ecab58adc5ab68880b196d","null","null","<p style=""font-size: 60px; font-family: BACS"">rLaZJcL</p>","","","","","","","","",""
"html-keyboard-response","315","494643","0.0-13.0-0.65","64526929d8f9b780b29d4d8d","64e77d7b61f440b60e28659d","64ecab58adc5ab68880b196d","null","null","<p style=""font-size: 60px; font-family: BACS"">lYruadmkv</p>","","","","","","","","",""
"html-keyboard-response","316","495650","0.0-13.0-0.66","64526929d8f9b780b29d4d8d","64e77d7b61f440b60e28659d","64ecab58adc5ab68880b196d","null","null","<p style=""font-size: 60px; font-family: BACS"">McMDhBK</p>","","","","","","","","",""
"html-keyboard-response","317","496657","0.0-13.0-0.67","64526929d8f9b780b29d4d8d","64e77d7b61f440b60e28659d","64ecab58adc5ab68880b196d","null","null","<p style=""font-size: 60px; font-family: BACS"">lbBDERYlD</p>","","","","","","","","",""
"html-keyboard-response","318","497670","0.0-13.0-0.68","64526929d8f9b780b29d4d8d","64e77d7b61f440b60e28659d","64ecab58adc5ab68880b196d","null","null","<p style=""font-size: 60px; font-family: BACS"">GJGcZGUa</p>","","","","","","","","",""
"html-keyboard-response","319","498671","0.0-13.0-0.69","64526929d8f9b780b29d4d8d","64e77d7b61f440b60e28659d","64ecab58adc5ab68880b196d","null","null","<p style=""font-size: 60px; font-family: BACS"">cAZuYArG</p>","","","","","","","","",""
"html-keyboard-response","320","499673","0.0-13.0-0.70","64526929d8f9b780b29d4d8d","64e77d7b61f440b60e28659d","64ecab58adc5ab68880b196d","null","null","<p style=""font-size: 60px; font-family: BACS"">ktBdAdYl</p>","","","","","","","","",""
"html-keyboard-response","321","500689","0.0-13.0-0.71","64526929d8f9b780b29d4d8d","64e77d7b61f440b60e28659d","64ecab58adc5ab68880b196d","null","null","<p style=""font-size: 60px; font-family: BACS"">cAZudmkv</p>","","","","","","","","",""
"html-keyboard-response","322","501690","0.0-13.0-0.72","64526929d8f9b780b29d4d8d","64e77d7b61f440b60e28659d","64ecab58adc5ab68880b196d","null","null","<p style=""font-size: 60px; font-family: BACS"">lhCTCtcB</p>","","","","","","","","",""
"html-keyboard-response","323","502692","0.0-13.0-0.73","64526929d8f9b780b29d4d8d","64e77d7b61f440b60e28659d","64ecab58adc5ab68880b196d","null","null","<p style=""font-size: 60px; font-family: BACS"">GLluAcUN</p>","","","","","","","","",""
"html-keyboard-response","324","503697","0.0-13.0-0.74","64526929d8f9b780b29d4d8d","64e77d7b61f440b60e28659d","64ecab58adc5ab68880b196d","null","null","<p style=""font-size: 60px; font-family: BACS"">bYGOZYArG</p>","","","","","","","","",""
"html-keyboard-response","325","504701","0.0-13.0-0.75","64526929d8f9b780b29d4d8d","64e77d7b61f440b60e28659d","64ecab58adc5ab68880b196d","null","null","<p style=""font-size: 60px; font-family: BACS"">ABPRBTmTm</p>","","","","","","","","",""
"html-keyboard-response","326","505705","0.0-13.0-0.76","64526929d8f9b780b29d4d8d","64e77d7b61f440b60e28659d","64ecab58adc5ab68880b196d","null","null","<p style=""font-size: 60px; font-family: BACS"">dMThkhBK</p>","","","","","","","","",""
"html-keyboard-response","327","506712","0.0-13.0-0.77","64526929d8f9b780b29d4d8d","64e77d7b61f440b60e28659d","64ecab58adc5ab68880b196d","null","null","<p style=""font-size: 60px; font-family: BACS"">ABPRBtcB</p>","","","","","","","","",""
"html-keyboard-response","328","507719","0.0-13.0-0.78","64526929d8f9b780b29d4d8d","64e77d7b61f440b60e28659d","64ecab58adc5ab68880b196d","null","null","<p style=""font-size: 60px; font-family: BACS"">lYruaJcL</p>","","","","","","","","",""
"html-keyboard-response","329","508726","0.0-13.0-0.79","64526929d8f9b780b29d4d8d","64e77d7b61f440b60e28659d","64ecab58adc5ab68880b196d","null","null","<p style=""font-size: 60px; font-family: BACS"">lhCTChBK</p>","","","","","","","","",""
"html-keyboard-response","330","510240","0.0-14.0","64526929d8f9b780b29d4d8d","64e77d7b61f440b60e28659d","64ecab58adc5ab68880b196d","1514"," ","<p>Great, you've seen the fourth block of words. You may now take a short break.</p>
      <p>Press the spacebar when you're ready to continue.</p>","","","","","","","","",""
"html-keyboard-response","331","511248","0.0-15.0-0.0","64526929d8f9b780b29d4d8d","64e77d7b61f440b60e28659d","64ecab58adc5ab68880b196d","null","null","<p style=""font-size: 60px; font-family: BACS"">ABPRBTmTm</p>","","","","","","","","",""
"html-keyboard-response","332","512253","0.0-15.0-0.1","64526929d8f9b780b29d4d8d","64e77d7b61f440b60e28659d","64ecab58adc5ab68880b196d","null","null","<p style=""font-size: 60px; font-family: BACS"">ABPRBTmTm</p>","","","","","","","","",""
"html-keyboard-response","333","513256","0.0-15.0-0.2","64526929d8f9b780b29d4d8d","64e77d7b61f440b60e28659d","64ecab58adc5ab68880b196d","null","null","<p style=""font-size: 60px; font-family: BACS"">ABPRBTmTm</p>","","","","","","","","",""
"html-keyboard-response","334","514260","0.0-15.0-0.3","64526929d8f9b780b29d4d8d","64e77d7b61f440b60e28659d","64ecab58adc5ab68880b196d","null","null","<p style=""font-size: 60px; font-family: BACS"">ABPRBTmTm</p>","","","","","","","","",""
"html-keyboard-response","335","515261","0.0-15.0-0.4","64526929d8f9b780b29d4d8d","64e77d7b61f440b60e28659d","64ecab58adc5ab68880b196d","null","null","<p style=""font-size: 60px; font-family: BACS"">ABPRBTmTm</p>","","","","","","","","",""
"html-keyboard-response","336","516274","0.0-15.0-0.5","64526929d8f9b780b29d4d8d","64e77d7b61f440b60e28659d","64ecab58adc5ab68880b196d","null","null","<p style=""font-size: 60px; font-family: BACS"">ABPRBTmTm</p>","","","","","","","","",""
"html-keyboard-response","337","517275","0.0-15.0-0.6","64526929d8f9b780b29d4d8d","64e77d7b61f440b60e28659d","64ecab58adc5ab68880b196d","null","null","<p style=""font-size: 60px; font-family: BACS"">ABPRBTmTm</p>","","","","","","","","",""
"html-keyboard-response","338","518278","0.0-15.0-0.7","64526929d8f9b780b29d4d8d","64e77d7b61f440b60e28659d","64ecab58adc5ab68880b196d","null","null","<p style=""font-size: 60px; font-family: BACS"">ABPRBTmTm</p>","","","","","","","","",""
"html-keyboard-response","339","519286","0.0-15.0-0.8","64526929d8f9b780b29d4d8d","64e77d7b61f440b60e28659d","64ecab58adc5ab68880b196d","null","null","<p style=""font-size: 60px; font-family: BACS"">ABPRBTmTm</p>","","","","","","","","",""
"html-keyboard-response","340","520300","0.0-15.0-0.9","64526929d8f9b780b29d4d8d","64e77d7b61f440b60e28659d","64ecab58adc5ab68880b196d","null","null","<p style=""font-size: 60px; font-family: BACS"">ABPRBTmTm</p>","","","","","","","","",""
"html-keyboard-response","341","521309","0.0-15.0-0.10","64526929d8f9b780b29d4d8d","64e77d7b61f440b60e28659d","64ecab58adc5ab68880b196d","null","null","<p style=""font-size: 60px; font-family: BACS"">ABPRBTmTm</p>","","","","","","","","",""
"html-keyboard-response","342","522315","0.0-15.0-0.11","64526929d8f9b780b29d4d8d","64e77d7b61f440b60e28659d","64ecab58adc5ab68880b196d","null","null","<p style=""font-size: 60px; font-family: BACS"">ABPRBTmTm</p>","","","","","","","","",""
"html-keyboard-response","343","523330","0.0-15.0-0.12","64526929d8f9b780b29d4d8d","64e77d7b61f440b60e28659d","64ecab58adc5ab68880b196d","null","null","<p style=""font-size: 60px; font-family: BACS"">ABPRBTmTm</p>","","","","","","","","",""
"html-keyboard-response","344","524340","0.0-15.0-0.13","64526929d8f9b780b29d4d8d","64e77d7b61f440b60e28659d","64ecab58adc5ab68880b196d","null","null","<p style=""font-size: 60px; font-family: BACS"">ABPRBTmTm</p>","","","","","","","","",""
"html-keyboard-response","345","525347","0.0-15.0-0.14","64526929d8f9b780b29d4d8d","64e77d7b61f440b60e28659d","64ecab58adc5ab68880b196d","null","null","<p style=""font-size: 60px; font-family: BACS"">ABPRBTmTm</p>","","","","","","","","",""
"html-keyboard-response","346","526353","0.0-15.0-0.15","64526929d8f9b780b29d4d8d","64e77d7b61f440b60e28659d","64ecab58adc5ab68880b196d","null","null","<p style=""font-size: 60px; font-family: BACS"">ABPRBTmTm</p>","","","","","","","","",""
"html-keyboard-response","347","527362","0.0-15.0-0.16","64526929d8f9b780b29d4d8d","64e77d7b61f440b60e28659d","64ecab58adc5ab68880b196d","null","null","<p style=""font-size: 60px; font-family: BACS"">ABPRBTmTm</p>","","","","","","","","",""
"html-keyboard-response","348","528367","0.0-15.0-0.17","64526929d8f9b780b29d4d8d","64e77d7b61f440b60e28659d","64ecab58adc5ab68880b196d","null","null","<p style=""font-size: 60px; font-family: BACS"">ABPRBTmTm</p>","","","","","","","","",""
"html-keyboard-response","349","529376","0.0-15.0-0.18","64526929d8f9b780b29d4d8d","64e77d7b61f440b60e28659d","64ecab58adc5ab68880b196d","null","null","<p style=""font-size: 60px; font-family: BACS"">ABPRBTmTm</p>","","","","","","","","",""
"html-keyboard-response","350","530385","0.0-15.0-0.19","64526929d8f9b780b29d4d8d","64e77d7b61f440b60e28659d","64ecab58adc5ab68880b196d","null","null","<p style=""font-size: 60px; font-family: BACS"">ABPRBTmTm</p>","","","","","","","","",""
"html-keyboard-response","351","531393","0.0-15.0-0.20","64526929d8f9b780b29d4d8d","64e77d7b61f440b60e28659d","64ecab58adc5ab68880b196d","null","null","<p style=""font-size: 60px; font-family: BACS"">ABPRBTmTm</p>","","","","","","","","",""
"html-keyboard-response","352","532394","0.0-15.0-0.21","64526929d8f9b780b29d4d8d","64e77d7b61f440b60e28659d","64ecab58adc5ab68880b196d","null","null","<p style=""font-size: 60px; font-family: BACS"">ABPRBTmTm</p>","","","","","","","","",""
"html-keyboard-response","353","533399","0.0-15.0-0.22","64526929d8f9b780b29d4d8d","64e77d7b61f440b60e28659d","64ecab58adc5ab68880b196d","null","null","<p style=""font-size: 60px; font-family: BACS"">ABPRBTmTm</p>","","","","","","","","",""
"html-keyboard-response","354","534409","0.0-15.0-0.23","64526929d8f9b780b29d4d8d","64e77d7b61f440b60e28659d","64ecab58adc5ab68880b196d","null","null","<p style=""font-size: 60px; font-family: BACS"">ABPRBTmTm</p>","","","","","","","","",""
"html-keyboard-response","355","535416","0.0-15.0-0.24","64526929d8f9b780b29d4d8d","64e77d7b61f440b60e28659d","64ecab58adc5ab68880b196d","null","null","<p style=""font-size: 60px; font-family: BACS"">ABPRBTmTm</p>","","","","","","","","",""
"html-keyboard-response","356","536423","0.0-15.0-0.25","64526929d8f9b780b29d4d8d","64e77d7b61f440b60e28659d","64ecab58adc5ab68880b196d","null","null","<p style=""font-size: 60px; font-family: BACS"">ABPRBTmTm</p>","","","","","","","","",""
"html-keyboard-response","357","537429","0.0-15.0-0.26","64526929d8f9b780b29d4d8d","64e77d7b61f440b60e28659d","64ecab58adc5ab68880b196d","null","null","<p style=""font-size: 60px; font-family: BACS"">ABPRBTmTm</p>","","","","","","","","",""
"html-keyboard-response","358","538439","0.0-15.0-0.27","64526929d8f9b780b29d4d8d","64e77d7b61f440b60e28659d","64ecab58adc5ab68880b196d","null","null","<p style=""font-size: 60px; font-family: BACS"">ABPRBTmTm</p>","","","","","","","","",""
"html-keyboard-response","359","539447","0.0-15.0-0.28","64526929d8f9b780b29d4d8d","64e77d7b61f440b60e28659d","64ecab58adc5ab68880b196d","null","null","<p style=""font-size: 60px; font-family: BACS"">ABPRBTmTm</p>","","","","","","","","",""
"html-keyboard-response","360","540463","0.0-15.0-0.29","64526929d8f9b780b29d4d8d","64e77d7b61f440b60e28659d","64ecab58adc5ab68880b196d","null","null","<p style=""font-size: 60px; font-family: BACS"">ABPRBTmTm</p>","","","","","","","","",""
"html-keyboard-response","361","541469","0.0-15.0-0.30","64526929d8f9b780b29d4d8d","64e77d7b61f440b60e28659d","64ecab58adc5ab68880b196d","null","null","<p style=""font-size: 60px; font-family: BACS"">ABPRBTmTm</p>","","","","","","","","",""
"html-keyboard-response","362","542477","0.0-15.0-0.31","64526929d8f9b780b29d4d8d","64e77d7b61f440b60e28659d","64ecab58adc5ab68880b196d","null","null","<p style=""font-size: 60px; font-family: BACS"">ABPRBTmTm</p>","","","","","","","","",""
"html-keyboard-response","363","543486","0.0-15.0-0.32","64526929d8f9b780b29d4d8d","64e77d7b61f440b60e28659d","64ecab58adc5ab68880b196d","null","null","<p style=""font-size: 60px; font-family: BACS"">ABPRBTmTm</p>","","","","","","","","",""
"html-keyboard-response","364","544491","0.0-15.0-0.33","64526929d8f9b780b29d4d8d","64e77d7b61f440b60e28659d","64ecab58adc5ab68880b196d","null","null","<p style=""font-size: 60px; font-family: BACS"">ABPRBTmTm</p>","","","","","","","","",""
"html-keyboard-response","365","545496","0.0-15.0-0.34","64526929d8f9b780b29d4d8d","64e77d7b61f440b60e28659d","64ecab58adc5ab68880b196d","null","null","<p style=""font-size: 60px; font-family: BACS"">ABPRBTmTm</p>","","","","","","","","",""
"html-keyboard-response","366","546503","0.0-15.0-0.35","64526929d8f9b780b29d4d8d","64e77d7b61f440b60e28659d","64ecab58adc5ab68880b196d","null","null","<p style=""font-size: 60px; font-family: BACS"">ABPRBTmTm</p>","","","","","","","","",""
"html-keyboard-response","367","547509","0.0-15.0-0.36","64526929d8f9b780b29d4d8d","64e77d7b61f440b60e28659d","64ecab58adc5ab68880b196d","null","null","<p style=""font-size: 60px; font-family: BACS"">ABPRBTmTm</p>","","","","","","","","",""
"html-keyboard-response","368","548521","0.0-15.0-0.37","64526929d8f9b780b29d4d8d","64e77d7b61f440b60e28659d","64ecab58adc5ab68880b196d","null","null","<p style=""font-size: 60px; font-family: BACS"">ABPRBTmTm</p>","","","","","","","","",""
"html-keyboard-response","369","549529","0.0-15.0-0.38","64526929d8f9b780b29d4d8d","64e77d7b61f440b60e28659d","64ecab58adc5ab68880b196d","null","null","<p style=""font-size: 60px; font-family: BACS"">ABPRBTmTm</p>","","","","","","","","",""
"html-keyboard-response","370","550540","0.0-15.0-0.39","64526929d8f9b780b29d4d8d","64e77d7b61f440b60e28659d","64ecab58adc5ab68880b196d","null","null","<p style=""font-size: 60px; font-family: BACS"">ABPRBTmTm</p>","","","","","","","","",""
"html-keyboard-response","371","551548","0.0-15.0-0.40","64526929d8f9b780b29d4d8d","64e77d7b61f440b60e28659d","64ecab58adc5ab68880b196d","null","null","<p style=""font-size: 60px; font-family: BACS"">ABPRBTmTm</p>","","","","","","","","",""
"html-keyboard-response","372","552558","0.0-15.0-0.41","64526929d8f9b780b29d4d8d","64e77d7b61f440b60e28659d","64ecab58adc5ab68880b196d","null","null","<p style=""font-size: 60px; font-family: BACS"">ABPRBTmTm</p>","","","","","","","","",""
"html-keyboard-response","373","553569","0.0-15.0-0.42","64526929d8f9b780b29d4d8d","64e77d7b61f440b60e28659d","64ecab58adc5ab68880b196d","null","null","<p style=""font-size: 60px; font-family: BACS"">ABPRBTmTm</p>","","","","","","","","",""
"html-keyboard-response","374","554576","0.0-15.0-0.43","64526929d8f9b780b29d4d8d","64e77d7b61f440b60e28659d","64ecab58adc5ab68880b196d","null","null","<p style=""font-size: 60px; font-family: BACS"">ABPRBTmTm</p>","","","","","","","","",""
"html-keyboard-response","375","555583","0.0-15.0-0.44","64526929d8f9b780b29d4d8d","64e77d7b61f440b60e28659d","64ecab58adc5ab68880b196d","null","null","<p style=""font-size: 60px; font-family: BACS"">ABPRBTmTm</p>","","","","","","","","",""
"html-keyboard-response","376","556591","0.0-15.0-0.45","64526929d8f9b780b29d4d8d","64e77d7b61f440b60e28659d","64ecab58adc5ab68880b196d","null","null","<p style=""font-size: 60px; font-family: BACS"">ABPRBTmTm</p>","","","","","","","","",""
"html-keyboard-response","377","557593","0.0-15.0-0.46","64526929d8f9b780b29d4d8d","64e77d7b61f440b60e28659d","64ecab58adc5ab68880b196d","null","null","<p style=""font-size: 60px; font-family: BACS"">ABPRBTmTm</p>","","","","","","","","",""
"html-keyboard-response","378","558605","0.0-15.0-0.47","64526929d8f9b780b29d4d8d","64e77d7b61f440b60e28659d","64ecab58adc5ab68880b196d","null","null","<p style=""font-size: 60px; font-family: BACS"">ABPRBTmTm</p>","","","","","","","","",""
"html-keyboard-response","379","559611","0.0-15.0-0.48","64526929d8f9b780b29d4d8d","64e77d7b61f440b60e28659d","64ecab58adc5ab68880b196d","null","null","<p style=""font-size: 60px; font-family: BACS"">ABPRBTmTm</p>","","","","","","","","",""
"html-keyboard-response","380","560616","0.0-15.0-0.49","64526929d8f9b780b29d4d8d","64e77d7b61f440b60e28659d","64ecab58adc5ab68880b196d","null","null","<p style=""font-size: 60px; font-family: BACS"">ABPRBTmTm</p>","","","","","","","","",""
"html-keyboard-response","381","561617","0.0-15.0-0.50","64526929d8f9b780b29d4d8d","64e77d7b61f440b60e28659d","64ecab58adc5ab68880b196d","null","null","<p style=""font-size: 60px; font-family: BACS"">ABPRBTmTm</p>","","","","","","","","",""
"html-keyboard-response","382","562632","0.0-15.0-0.51","64526929d8f9b780b29d4d8d","64e77d7b61f440b60e28659d","64ecab58adc5ab68880b196d","null","null","<p style=""font-size: 60px; font-family: BACS"">ABPRBTmTm</p>","","","","","","","","",""
"html-keyboard-response","383","563638","0.0-15.0-0.52","64526929d8f9b780b29d4d8d","64e77d7b61f440b60e28659d","64ecab58adc5ab68880b196d","null","null","<p style=""font-size: 60px; font-family: BACS"">ABPRBTmTm</p>","","","","","","","","",""
"html-keyboard-response","384","564642","0.0-15.0-0.53","64526929d8f9b780b29d4d8d","64e77d7b61f440b60e28659d","64ecab58adc5ab68880b196d","null","null","<p style=""font-size: 60px; font-family: BACS"">ABPRBTmTm</p>","","","","","","","","",""
"html-keyboard-response","385","565647","0.0-15.0-0.54","64526929d8f9b780b29d4d8d","64e77d7b61f440b60e28659d","64ecab58adc5ab68880b196d","null","null","<p style=""font-size: 60px; font-family: BACS"">ABPRBTmTm</p>","","","","","","","","",""
"html-keyboard-response","386","566654","0.0-15.0-0.55","64526929d8f9b780b29d4d8d","64e77d7b61f440b60e28659d","64ecab58adc5ab68880b196d","null","null","<p style=""font-size: 60px; font-family: BACS"">ABPRBTmTm</p>","","","","","","","","",""
"html-keyboard-response","387","567662","0.0-15.0-0.56","64526929d8f9b780b29d4d8d","64e77d7b61f440b60e28659d","64ecab58adc5ab68880b196d","null","null","<p style=""font-size: 60px; font-family: BACS"">ABPRBTmTm</p>","","","","","","","","",""
"html-keyboard-response","388","568669","0.0-15.0-0.57","64526929d8f9b780b29d4d8d","64e77d7b61f440b60e28659d","64ecab58adc5ab68880b196d","null","null","<p style=""font-size: 60px; font-family: BACS"">ABPRBTmTm</p>","","","","","","","","",""
"html-keyboard-response","389","569675","0.0-15.0-0.58","64526929d8f9b780b29d4d8d","64e77d7b61f440b60e28659d","64ecab58adc5ab68880b196d","null","null","<p style=""font-size: 60px; font-family: BACS"">ABPRBTmTm</p>","","","","","","","","",""
"html-keyboard-response","390","570685","0.0-15.0-0.59","64526929d8f9b780b29d4d8d","64e77d7b61f440b60e28659d","64ecab58adc5ab68880b196d","null","null","<p style=""font-size: 60px; font-family: BACS"">ABPRBTmTm</p>","","","","","","","","",""
"html-keyboard-response","391","571691","0.0-15.0-0.60","64526929d8f9b780b29d4d8d","64e77d7b61f440b60e28659d","64ecab58adc5ab68880b196d","null","null","<p style=""font-size: 60px; font-family: BACS"">ABPRBTmTm</p>","","","","","","","","",""
"html-keyboard-response","392","572696","0.0-15.0-0.61","64526929d8f9b780b29d4d8d","64e77d7b61f440b60e28659d","64ecab58adc5ab68880b196d","null","null","<p style=""font-size: 60px; font-family: BACS"">ABPRBTmTm</p>","","","","","","","","",""
"html-keyboard-response","393","573704","0.0-15.0-0.62","64526929d8f9b780b29d4d8d","64e77d7b61f440b60e28659d","64ecab58adc5ab68880b196d","null","null","<p style=""font-size: 60px; font-family: BACS"">ABPRBTmTm</p>","","","","","","","","",""
"html-keyboard-response","394","574721","0.0-15.0-0.63","64526929d8f9b780b29d4d8d","64e77d7b61f440b60e28659d","64ecab58adc5ab68880b196d","null","null","<p style=""font-size: 60px; font-family: BACS"">ABPRBTmTm</p>","","","","","","","","",""
"html-keyboard-response","395","575729","0.0-15.0-0.64","64526929d8f9b780b29d4d8d","64e77d7b61f440b60e28659d","64ecab58adc5ab68880b196d","null","null","<p style=""font-size: 60px; font-family: BACS"">ABPRBTmTm</p>","","","","","","","","",""
"html-keyboard-response","396","576736","0.0-15.0-0.65","64526929d8f9b780b29d4d8d","64e77d7b61f440b60e28659d","64ecab58adc5ab68880b196d","null","null","<p style=""font-size: 60px; font-family: BACS"">ABPRBTmTm</p>","","","","","","","","",""
"html-keyboard-response","397","577738","0.0-15.0-0.66","64526929d8f9b780b29d4d8d","64e77d7b61f440b60e28659d","64ecab58adc5ab68880b196d","null","null","<p style=""font-size: 60px; font-family: BACS"">ABPRBTmTm</p>","","","","","","","","",""
"html-keyboard-response","398","578747","0.0-15.0-0.67","64526929d8f9b780b29d4d8d","64e77d7b61f440b60e28659d","64ecab58adc5ab68880b196d","null","null","<p style=""font-size: 60px; font-family: BACS"">ABPRBTmTm</p>","","","","","","","","",""
