"trial_type","trial_index","time_elapsed","internal_node_id","subject_id","study_id","session_id","rt","response","stimulus","success","item","task","correct_response","testing_condition","correct","target","confound","name"
"pavlovia","0","712","0.0-0.0","607ea5504e74d104da5a108a","650c16f0f2faf8d7a0d14c09","651c1d406531011b4724a5e2","","","","","","","","","","","",""
"survey-html-form","1","8403","0.0-1.0","607ea5504e74d104da5a108a","650c16f0f2faf8d7a0d14c09","651c1d406531011b4724a5e2","7688","{""ID"":""607ea5504e74d104da5a108a""}","","","","","","","","","",""
"html-keyboard-response","2","20455","0.0-2.0","607ea5504e74d104da5a108a","650c16f0f2faf8d7a0d14c09","651c1d406531011b4724a5e2","12051"," ","<p style=""font-size: 15px;"">Before beginning, we ask that you read the consent information and confirm your agreement to participate in the experiment.</p>
      <p style=""font-size: 15px;""> We ask that you remember that this is a research project and that your participation is entirely voluntary. You can stop your participation at any time, without needing to provide any explanation. The study we're asking you to participate in aims at examining how readers process written words. You will be engaged in a session of apprximately 20 minutes, followed by a brief questionnaire. You will have the opportunity to take a few breaks during the experiment. You will be paid £4 for your participation, corresponding to a rate of £8/hour. While this experiment looks at cognitive faculties, this experiment doesn't constitute clinical proof of eventual pathologies.</p>
      <p style=""font-size: 15px;"">All of the information collected thanks to yours and others' participation will be held in a secure password-protected server, and will not be shared with anyone not authorised to view it. Your personal information will be kept with an arbitrary participant ID. Thanks to this data anonymity process, any researcher analysing the data won't be able to track the information back to a specific participant. Therefore, this process will make identifying you impossibile, even when results from the study will be published in scientific reviews, presented at congresses, or at any other public forum. More generally, the collected data will be treated in accordance with the laws on privacy and conformity to the Legislative Degree n. 196 ""Code regarding the protection of personal data"" of the 30th of June 2003 and to the European Regulation 2016/670 (General Data Protection Regulation - GDPR). The Data Protection Officer is Avv. Valentina Carollo, who can be contacted at the following email addresses: <a href=""mailto:dpo@sissa.it"">dpo@sissa.it</a> or <a href=""mailto:rpd@sissa.it"">rpd@sissa.it</a> - PEC: <a href=""mailto:protocollo@pec.sissa.it"">protocollo@pec.sissa.it</a>.</p>
      <p style=""font-size: 15px;""> Before expressing your consent to participate, we would like to remind you again that in case you need explanations on any aspect of the experimental procedure, the researcher is at your disposition (<a href=""mailto:aliebelt@sissa.it"">aliebelt@sissa.it</a>, <a href=""mailto:davide.crepaldi@sissa.it"">davide.crepaldi@sissa.it</a>).</p>
      <p style=""font-size: 15px;"">If you would like to download the informed consent form, you can do so here: <a href=""BASL-Informed_Consent.pdf"" download>informed consent form</a>.</p>
      <p style=""font-size: 15px;"">We ask that you press the spacebar to proceed to the consent section.</p>","","","","","","","","",""
"survey-html-form","3","44674","0.0-3.0","607ea5504e74d104da5a108a","650c16f0f2faf8d7a0d14c09","651c1d406531011b4724a5e2","24217","{""consent1"":""YES"",""consent2"":""YES"",""consent3"":""YES"",""consent4"":""YES"",""consent5"":""YES"",""consent6"":""YES""}","","","","","","","","","",""
"fullscreen","4","54732","0.0-4.0","607ea5504e74d104da5a108a","650c16f0f2faf8d7a0d14c09","651c1d406531011b4724a5e2","","","","true","","","","","","","",""
"html-keyboard-response","5","72265","0.0-5.0","607ea5504e74d104da5a108a","650c16f0f2faf8d7a0d14c09","651c1d406531011b4724a5e2","17531"," ","<p>Welcome, and thank you very much for your time!</p>
      <p>In this experiment, you'll be a language expert who's been asked to take a look at words that Earth has received in its first communication with aliens. Your task, in this first part of the experiment, is to pay close attention to the words you'll be shown; later, world leaders will ask you questions on what you saw. The words will be shown to you quite quickly; it seems that the aliens were in a hurry :-)</p>
      <p>Press the spacebar to continue.<p>","","","","","","","","",""
"html-keyboard-response","6","72318","0.0-6.0","607ea5504e74d104da5a108a","650c16f0f2faf8d7a0d14c09","651c1d406531011b4724a5e2","null","null","<p style=""font-size: 120px; font-family: BACS""> </p>","","","","","","","","",""
"html-keyboard-response","7","79172","0.0-7.0","607ea5504e74d104da5a108a","650c16f0f2faf8d7a0d14c09","651c1d406531011b4724a5e2","6854"," ","<p>Here is an example of the words you'll see:</p>
      <img src='esempio.png' height='400px'>
      <p>When you're ready to begin, press the spacebar.</p></div>","","","","","","","","",""
"html-keyboard-response","8","80191","0.0-8.0-0.0","607ea5504e74d104da5a108a","650c16f0f2faf8d7a0d14c09","651c1d406531011b4724a5e2","null","null","<p style=""font-size: 60px; font-family: BACS"">BOCRMcDR</p>","","","","","","","","",""
"html-keyboard-response","9","81204","0.0-8.0-0.1","607ea5504e74d104da5a108a","650c16f0f2faf8d7a0d14c09","651c1d406531011b4724a5e2","null","null","<p style=""font-size: 60px; font-family: BACS"">JdGmUdvY</p>","","","","","","","","",""
"html-keyboard-response","10","82213","0.0-8.0-0.2","607ea5504e74d104da5a108a","650c16f0f2faf8d7a0d14c09","651c1d406531011b4724a5e2","null","null","<p style=""font-size: 60px; font-family: BACS"">TObCODOAK</p>","","","","","","","","",""
"html-keyboard-response","11","83215","0.0-8.0-0.3","607ea5504e74d104da5a108a","650c16f0f2faf8d7a0d14c09","651c1d406531011b4724a5e2","null","null","<p style=""font-size: 60px; font-family: BACS"">uauObadk</p>","","","","","","","","",""
"html-keyboard-response","12","84230","0.0-8.0-0.4","607ea5504e74d104da5a108a","650c16f0f2faf8d7a0d14c09","651c1d406531011b4724a5e2","null","null","<p style=""font-size: 60px; font-family: BACS"">LuNZUdvY</p>","","","","","","","","",""
"html-keyboard-response","13","85233","0.0-8.0-0.5","607ea5504e74d104da5a108a","650c16f0f2faf8d7a0d14c09","651c1d406531011b4724a5e2","null","null","<p style=""font-size: 60px; font-family: BACS"">NaAQdJud</p>","","","","","","","","",""
"html-keyboard-response","14","86249","0.0-8.0-0.6","607ea5504e74d104da5a108a","650c16f0f2faf8d7a0d14c09","651c1d406531011b4724a5e2","null","null","<p style=""font-size: 60px; font-family: BACS"">CtmbhRKm</p>","","","","","","","","",""
"html-keyboard-response","15","87254","0.0-8.0-0.7","607ea5504e74d104da5a108a","650c16f0f2faf8d7a0d14c09","651c1d406531011b4724a5e2","null","null","<p style=""font-size: 60px; font-family: BACS"">mLdkZNUZ</p>","","","","","","","","",""
"html-keyboard-response","16","88259","0.0-8.0-0.8","607ea5504e74d104da5a108a","650c16f0f2faf8d7a0d14c09","651c1d406531011b4724a5e2","null","null","<p style=""font-size: 60px; font-family: BACS"">uQuZcJud</p>","","","","","","","","",""
"html-keyboard-response","17","89273","0.0-8.0-0.9","607ea5504e74d104da5a108a","650c16f0f2faf8d7a0d14c09","651c1d406531011b4724a5e2","null","null","<p style=""font-size: 60px; font-family: BACS"">htmhCtcB</p>","","","","","","","","",""
"html-keyboard-response","18","90288","0.0-8.0-0.10","607ea5504e74d104da5a108a","650c16f0f2faf8d7a0d14c09","651c1d406531011b4724a5e2","null","null","<p style=""font-size: 60px; font-family: BACS"">uQuZcAZbl</p>","","","","","","","","",""
"html-keyboard-response","19","91302","0.0-8.0-0.11","607ea5504e74d104da5a108a","650c16f0f2faf8d7a0d14c09","651c1d406531011b4724a5e2","null","null","<p style=""font-size: 60px; font-family: BACS"">LuNZJud</p>","","","","","","","","",""
"html-keyboard-response","20","92320","0.0-8.0-0.12","607ea5504e74d104da5a108a","650c16f0f2faf8d7a0d14c09","651c1d406531011b4724a5e2","null","null","<p style=""font-size: 60px; font-family: BACS"">bNdmGNUZ</p>","","","","","","","","",""
"html-keyboard-response","21","93335","0.0-8.0-0.13","607ea5504e74d104da5a108a","650c16f0f2faf8d7a0d14c09","651c1d406531011b4724a5e2","null","null","<p style=""font-size: 60px; font-family: BACS"">BOCRMhRKm</p>","","","","","","","","",""
"html-keyboard-response","22","94352","0.0-8.0-0.14","607ea5504e74d104da5a108a","650c16f0f2faf8d7a0d14c09","651c1d406531011b4724a5e2","null","null","<p style=""font-size: 60px; font-family: BACS"">EPMDkPTl</p>","","","","","","","","",""
"html-keyboard-response","23","95367","0.0-8.0-0.15","607ea5504e74d104da5a108a","650c16f0f2faf8d7a0d14c09","651c1d406531011b4724a5e2","null","null","<p style=""font-size: 60px; font-family: BACS"">TObCOtcB</p>","","","","","","","","",""
"html-keyboard-response","24","96383","0.0-8.0-0.16","607ea5504e74d104da5a108a","650c16f0f2faf8d7a0d14c09","651c1d406531011b4724a5e2","null","null","<p style=""font-size: 60px; font-family: BACS"">UJkGUdvY</p>","","","","","","","","",""
"html-keyboard-response","25","97398","0.0-8.0-0.17","607ea5504e74d104da5a108a","650c16f0f2faf8d7a0d14c09","651c1d406531011b4724a5e2","null","null","<p style=""font-size: 60px; font-family: BACS"">TObCOcDR</p>","","","","","","","","",""
"html-keyboard-response","26","98415","0.0-8.0-0.18","607ea5504e74d104da5a108a","650c16f0f2faf8d7a0d14c09","651c1d406531011b4724a5e2","null","null","<p style=""font-size: 60px; font-family: BACS"">dCtMADOAK</p>","","","","","","","","",""
"html-keyboard-response","27","99421","0.0-8.0-0.19","607ea5504e74d104da5a108a","650c16f0f2faf8d7a0d14c09","651c1d406531011b4724a5e2","null","null","<p style=""font-size: 60px; font-family: BACS"">EPERdcDR</p>","","","","","","","","",""
"html-keyboard-response","28","100438","0.0-8.0-0.20","607ea5504e74d104da5a108a","650c16f0f2faf8d7a0d14c09","651c1d406531011b4724a5e2","null","null","<p style=""font-size: 60px; font-family: BACS"">bmdABhRKm</p>","","","","","","","","",""
"html-keyboard-response","29","101441","0.0-8.0-0.21","607ea5504e74d104da5a108a","650c16f0f2faf8d7a0d14c09","651c1d406531011b4724a5e2","null","null","<p style=""font-size: 60px; font-family: BACS"">UAcduNUZ</p>","","","","","","","","",""
"html-keyboard-response","30","102458","0.0-8.0-0.22","607ea5504e74d104da5a108a","650c16f0f2faf8d7a0d14c09","651c1d406531011b4724a5e2","null","null","<p style=""font-size: 60px; font-family: BACS"">mLdkZUdvY</p>","","","","","","","","",""
"html-keyboard-response","31","103464","0.0-8.0-0.23","607ea5504e74d104da5a108a","650c16f0f2faf8d7a0d14c09","651c1d406531011b4724a5e2","null","null","<p style=""font-size: 60px; font-family: BACS"">CtmbPTl</p>","","","","","","","","",""
"html-keyboard-response","32","104479","0.0-8.0-0.24","607ea5504e74d104da5a108a","650c16f0f2faf8d7a0d14c09","651c1d406531011b4724a5e2","null","null","<p style=""font-size: 60px; font-family: BACS"">UJkGbadk</p>","","","","","","","","",""
"html-keyboard-response","33","105484","0.0-8.0-0.25","607ea5504e74d104da5a108a","650c16f0f2faf8d7a0d14c09","651c1d406531011b4724a5e2","null","null","<p style=""font-size: 60px; font-family: BACS"">YadrUdvY</p>","","","","","","","","",""
"html-keyboard-response","34","106499","0.0-8.0-0.26","607ea5504e74d104da5a108a","650c16f0f2faf8d7a0d14c09","651c1d406531011b4724a5e2","null","null","<p style=""font-size: 60px; font-family: BACS"">NaAQdAZbl</p>","","","","","","","","",""
"html-keyboard-response","35","107505","0.0-8.0-0.27","607ea5504e74d104da5a108a","650c16f0f2faf8d7a0d14c09","651c1d406531011b4724a5e2","null","null","<p style=""font-size: 60px; font-family: BACS"">mLdkZJud</p>","","","","","","","","",""
"html-keyboard-response","36","108506","0.0-8.0-0.28","607ea5504e74d104da5a108a","650c16f0f2faf8d7a0d14c09","651c1d406531011b4724a5e2","null","null","<p style=""font-size: 60px; font-family: BACS"">EPMDkhRKm</p>","","","","","","","","",""
"html-keyboard-response","37","109509","0.0-8.0-0.29","607ea5504e74d104da5a108a","650c16f0f2faf8d7a0d14c09","651c1d406531011b4724a5e2","null","null","<p style=""font-size: 60px; font-family: BACS"">kRCkOPTl</p>","","","","","","","","",""
"html-keyboard-response","38","110515","0.0-8.0-0.30","607ea5504e74d104da5a108a","650c16f0f2faf8d7a0d14c09","651c1d406531011b4724a5e2","null","null","<p style=""font-size: 60px; font-family: BACS"">CtmbcDR</p>","","","","","","","","",""
"html-keyboard-response","39","111520","0.0-8.0-0.31","607ea5504e74d104da5a108a","650c16f0f2faf8d7a0d14c09","651c1d406531011b4724a5e2","null","null","<p style=""font-size: 60px; font-family: BACS"">uauOJud</p>","","","","","","","","",""
"html-keyboard-response","40","112543","0.0-8.0-0.32","607ea5504e74d104da5a108a","650c16f0f2faf8d7a0d14c09","651c1d406531011b4724a5e2","null","null","<p style=""font-size: 60px; font-family: BACS"">htmhCcDR</p>","","","","","","","","",""
"html-keyboard-response","41","113558","0.0-8.0-0.33","607ea5504e74d104da5a108a","650c16f0f2faf8d7a0d14c09","651c1d406531011b4724a5e2","null","null","<p style=""font-size: 60px; font-family: BACS"">mLdkZAZbl</p>","","","","","","","","",""
"html-keyboard-response","42","114570","0.0-8.0-0.34","607ea5504e74d104da5a108a","650c16f0f2faf8d7a0d14c09","651c1d406531011b4724a5e2","null","null","<p style=""font-size: 60px; font-family: BACS"">UJkGNUZ</p>","","","","","","","","",""
"html-keyboard-response","43","115573","0.0-8.0-0.35","607ea5504e74d104da5a108a","650c16f0f2faf8d7a0d14c09","651c1d406531011b4724a5e2","null","null","<p style=""font-size: 60px; font-family: BACS"">UAcduAZbl</p>","","","","","","","","",""
"html-keyboard-response","44","116578","0.0-8.0-0.36","607ea5504e74d104da5a108a","650c16f0f2faf8d7a0d14c09","651c1d406531011b4724a5e2","null","null","<p style=""font-size: 60px; font-family: BACS"">JdGmbadk</p>","","","","","","","","",""
"html-keyboard-response","45","117580","0.0-8.0-0.37","607ea5504e74d104da5a108a","650c16f0f2faf8d7a0d14c09","651c1d406531011b4724a5e2","null","null","<p style=""font-size: 60px; font-family: BACS"">EPERdhRKm</p>","","","","","","","","",""
"html-keyboard-response","46","118583","0.0-8.0-0.38","607ea5504e74d104da5a108a","650c16f0f2faf8d7a0d14c09","651c1d406531011b4724a5e2","null","null","<p style=""font-size: 60px; font-family: BACS"">dCtMAtcB</p>","","","","","","","","",""
"html-keyboard-response","47","119584","0.0-8.0-0.39","607ea5504e74d104da5a108a","650c16f0f2faf8d7a0d14c09","651c1d406531011b4724a5e2","null","null","<p style=""font-size: 60px; font-family: BACS"">UAcdubadk</p>","","","","","","","","",""
"html-keyboard-response","48","120586","0.0-8.0-0.40","607ea5504e74d104da5a108a","650c16f0f2faf8d7a0d14c09","651c1d406531011b4724a5e2","null","null","<p style=""font-size: 60px; font-family: BACS"">BOCRMDOAK</p>","","","","","","","","",""
"html-keyboard-response","49","121591","0.0-8.0-0.41","607ea5504e74d104da5a108a","650c16f0f2faf8d7a0d14c09","651c1d406531011b4724a5e2","null","null","<p style=""font-size: 60px; font-family: BACS"">YadrJud</p>","","","","","","","","",""
"html-keyboard-response","50","122592","0.0-8.0-0.42","607ea5504e74d104da5a108a","650c16f0f2faf8d7a0d14c09","651c1d406531011b4724a5e2","null","null","<p style=""font-size: 60px; font-family: BACS"">dCtMAPTl</p>","","","","","","","","",""
"html-keyboard-response","51","123596","0.0-8.0-0.43","607ea5504e74d104da5a108a","650c16f0f2faf8d7a0d14c09","651c1d406531011b4724a5e2","null","null","<p style=""font-size: 60px; font-family: BACS"">kRCkOcDR</p>","","","","","","","","",""
"html-keyboard-response","52","124599","0.0-8.0-0.44","607ea5504e74d104da5a108a","650c16f0f2faf8d7a0d14c09","651c1d406531011b4724a5e2","null","null","<p style=""font-size: 60px; font-family: BACS"">JdGmAZbl</p>","","","","","","","","",""
"html-keyboard-response","53","125602","0.0-8.0-0.45","607ea5504e74d104da5a108a","650c16f0f2faf8d7a0d14c09","651c1d406531011b4724a5e2","null","null","<p style=""font-size: 60px; font-family: BACS"">kKEdMPTl</p>","","","","","","","","",""
"html-keyboard-response","54","126618","0.0-8.0-0.46","607ea5504e74d104da5a108a","650c16f0f2faf8d7a0d14c09","651c1d406531011b4724a5e2","null","null","<p style=""font-size: 60px; font-family: BACS"">EPMDktcB</p>","","","","","","","","",""
"html-keyboard-response","55","127621","0.0-8.0-0.47","607ea5504e74d104da5a108a","650c16f0f2faf8d7a0d14c09","651c1d406531011b4724a5e2","null","null","<p style=""font-size: 60px; font-family: BACS"">NaAQdbadk</p>","","","","","","","","",""
"html-keyboard-response","56","128622","0.0-8.0-0.48","607ea5504e74d104da5a108a","650c16f0f2faf8d7a0d14c09","651c1d406531011b4724a5e2","null","null","<p style=""font-size: 60px; font-family: BACS"">YadrNUZ</p>","","","","","","","","",""
"html-keyboard-response","57","129624","0.0-8.0-0.49","607ea5504e74d104da5a108a","650c16f0f2faf8d7a0d14c09","651c1d406531011b4724a5e2","null","null","<p style=""font-size: 60px; font-family: BACS"">kKEdMhRKm</p>","","","","","","","","",""
"html-keyboard-response","58","130637","0.0-8.0-0.50","607ea5504e74d104da5a108a","650c16f0f2faf8d7a0d14c09","651c1d406531011b4724a5e2","null","null","<p style=""font-size: 60px; font-family: BACS"">htmhCPTl</p>","","","","","","","","",""
"html-keyboard-response","59","131638","0.0-8.0-0.51","607ea5504e74d104da5a108a","650c16f0f2faf8d7a0d14c09","651c1d406531011b4724a5e2","null","null","<p style=""font-size: 60px; font-family: BACS"">BOCRMtcB</p>","","","","","","","","",""
"html-keyboard-response","60","132641","0.0-8.0-0.52","607ea5504e74d104da5a108a","650c16f0f2faf8d7a0d14c09","651c1d406531011b4724a5e2","null","null","<p style=""font-size: 60px; font-family: BACS"">bmdABPTl</p>","","","","","","","","",""
"html-keyboard-response","61","133643","0.0-8.0-0.53","607ea5504e74d104da5a108a","650c16f0f2faf8d7a0d14c09","651c1d406531011b4724a5e2","null","null","<p style=""font-size: 60px; font-family: BACS"">TObCOhRKm</p>","","","","","","","","",""
"html-keyboard-response","62","134648","0.0-8.0-0.54","607ea5504e74d104da5a108a","650c16f0f2faf8d7a0d14c09","651c1d406531011b4724a5e2","null","null","<p style=""font-size: 60px; font-family: BACS"">LuNZNUZ</p>","","","","","","","","",""
"html-keyboard-response","63","135649","0.0-8.0-0.55","607ea5504e74d104da5a108a","650c16f0f2faf8d7a0d14c09","651c1d406531011b4724a5e2","null","null","<p style=""font-size: 60px; font-family: BACS"">uQuZcbadk</p>","","","","","","","","",""
"html-keyboard-response","64","136665","0.0-8.0-0.56","607ea5504e74d104da5a108a","650c16f0f2faf8d7a0d14c09","651c1d406531011b4724a5e2","null","null","<p style=""font-size: 60px; font-family: BACS"">bmdABDOAK</p>","","","","","","","","",""
"html-keyboard-response","65","137670","0.0-8.0-0.57","607ea5504e74d104da5a108a","650c16f0f2faf8d7a0d14c09","651c1d406531011b4724a5e2","null","null","<p style=""font-size: 60px; font-family: BACS"">bNdmGbadk</p>","","","","","","","","",""
"html-keyboard-response","66","138679","0.0-8.0-0.58","607ea5504e74d104da5a108a","650c16f0f2faf8d7a0d14c09","651c1d406531011b4724a5e2","null","null","<p style=""font-size: 60px; font-family: BACS"">uauONUZ</p>","","","","","","","","",""
"html-keyboard-response","67","139692","0.0-8.0-0.59","607ea5504e74d104da5a108a","650c16f0f2faf8d7a0d14c09","651c1d406531011b4724a5e2","null","null","<p style=""font-size: 60px; font-family: BACS"">JdGmJud</p>","","","","","","","","",""
"html-keyboard-response","68","140704","0.0-8.0-0.60","607ea5504e74d104da5a108a","650c16f0f2faf8d7a0d14c09","651c1d406531011b4724a5e2","null","null","<p style=""font-size: 60px; font-family: BACS"">kRCkOhRKm</p>","","","","","","","","",""
"html-keyboard-response","69","141707","0.0-8.0-0.61","607ea5504e74d104da5a108a","650c16f0f2faf8d7a0d14c09","651c1d406531011b4724a5e2","null","null","<p style=""font-size: 60px; font-family: BACS"">kKEdMDOAK</p>","","","","","","","","",""
"html-keyboard-response","70","142720","0.0-8.0-0.62","607ea5504e74d104da5a108a","650c16f0f2faf8d7a0d14c09","651c1d406531011b4724a5e2","null","null","<p style=""font-size: 60px; font-family: BACS"">NaAQdNUZ</p>","","","","","","","","",""
"html-keyboard-response","71","143736","0.0-8.0-0.63","607ea5504e74d104da5a108a","650c16f0f2faf8d7a0d14c09","651c1d406531011b4724a5e2","null","null","<p style=""font-size: 60px; font-family: BACS"">dCtMAcDR</p>","","","","","","","","",""
"html-keyboard-response","72","144751","0.0-8.0-0.64","607ea5504e74d104da5a108a","650c16f0f2faf8d7a0d14c09","651c1d406531011b4724a5e2","null","null","<p style=""font-size: 60px; font-family: BACS"">bNdmGAZbl</p>","","","","","","","","",""
"html-keyboard-response","73","145754","0.0-8.0-0.65","607ea5504e74d104da5a108a","650c16f0f2faf8d7a0d14c09","651c1d406531011b4724a5e2","null","null","<p style=""font-size: 60px; font-family: BACS"">UJkGJud</p>","","","","","","","","",""
"html-keyboard-response","74","146756","0.0-8.0-0.66","607ea5504e74d104da5a108a","650c16f0f2faf8d7a0d14c09","651c1d406531011b4724a5e2","null","null","<p style=""font-size: 60px; font-family: BACS"">kRCkODOAK</p>","","","","","","","","",""
"html-keyboard-response","75","147771","0.0-8.0-0.67","607ea5504e74d104da5a108a","650c16f0f2faf8d7a0d14c09","651c1d406531011b4724a5e2","null","null","<p style=""font-size: 60px; font-family: BACS"">bNdmGUdvY</p>","","","","","","","","",""
"html-keyboard-response","76","148772","0.0-8.0-0.68","607ea5504e74d104da5a108a","650c16f0f2faf8d7a0d14c09","651c1d406531011b4724a5e2","null","null","<p style=""font-size: 60px; font-family: BACS"">EPERdPTl</p>","","","","","","","","",""
"html-keyboard-response","77","149787","0.0-8.0-0.69","607ea5504e74d104da5a108a","650c16f0f2faf8d7a0d14c09","651c1d406531011b4724a5e2","null","null","<p style=""font-size: 60px; font-family: BACS"">bmdABtcB</p>","","","","","","","","",""
"html-keyboard-response","78","150789","0.0-8.0-0.70","607ea5504e74d104da5a108a","650c16f0f2faf8d7a0d14c09","651c1d406531011b4724a5e2","null","null","<p style=""font-size: 60px; font-family: BACS"">uQuZcUdvY</p>","","","","","","","","",""
"html-keyboard-response","79","151804","0.0-8.0-0.71","607ea5504e74d104da5a108a","650c16f0f2faf8d7a0d14c09","651c1d406531011b4724a5e2","null","null","<p style=""font-size: 60px; font-family: BACS"">uauOAZbl</p>","","","","","","","","",""
"html-keyboard-response","80","152805","0.0-8.0-0.72","607ea5504e74d104da5a108a","650c16f0f2faf8d7a0d14c09","651c1d406531011b4724a5e2","null","null","<p style=""font-size: 60px; font-family: BACS"">EPERdtcB</p>","","","","","","","","",""
"html-keyboard-response","81","153820","0.0-8.0-0.73","607ea5504e74d104da5a108a","650c16f0f2faf8d7a0d14c09","651c1d406531011b4724a5e2","null","null","<p style=""font-size: 60px; font-family: BACS"">CtmbDOAK</p>","","","","","","","","",""
"html-keyboard-response","82","154834","0.0-8.0-0.74","607ea5504e74d104da5a108a","650c16f0f2faf8d7a0d14c09","651c1d406531011b4724a5e2","null","null","<p style=""font-size: 60px; font-family: BACS"">kKEdMtcB</p>","","","","","","","","",""
"html-keyboard-response","83","155837","0.0-8.0-0.75","607ea5504e74d104da5a108a","650c16f0f2faf8d7a0d14c09","651c1d406531011b4724a5e2","null","null","<p style=""font-size: 60px; font-family: BACS"">EPMDkcDR</p>","","","","","","","","",""
"html-keyboard-response","84","156841","0.0-8.0-0.76","607ea5504e74d104da5a108a","650c16f0f2faf8d7a0d14c09","651c1d406531011b4724a5e2","null","null","<p style=""font-size: 60px; font-family: BACS"">LuNZAZbl</p>","","","","","","","","",""
"html-keyboard-response","85","157846","0.0-8.0-0.77","607ea5504e74d104da5a108a","650c16f0f2faf8d7a0d14c09","651c1d406531011b4724a5e2","null","null","<p style=""font-size: 60px; font-family: BACS"">UAcduUdvY</p>","","","","","","","","",""
"html-keyboard-response","86","158851","0.0-8.0-0.78","607ea5504e74d104da5a108a","650c16f0f2faf8d7a0d14c09","651c1d406531011b4724a5e2","null","null","<p style=""font-size: 60px; font-family: BACS"">htmhCDOAK</p>","","","","","","","","",""
"html-keyboard-response","87","159867","0.0-8.0-0.79","607ea5504e74d104da5a108a","650c16f0f2faf8d7a0d14c09","651c1d406531011b4724a5e2","null","null","<p style=""font-size: 60px; font-family: BACS"">Yadrbadk</p>","","","","","","","","",""
"html-keyboard-response","88","160064","0.0-9.0","607ea5504e74d104da5a108a","650c16f0f2faf8d7a0d14c09","651c1d406531011b4724a5e2","197"," ","<p>Great, you've seen the first block of words. You may now take a short break.</p>
      <p>Press the spacebar when you're ready to continue.</p>","","","","","","","","",""
"html-keyboard-response","89","161072","0.0-10.0-0.0","607ea5504e74d104da5a108a","650c16f0f2faf8d7a0d14c09","651c1d406531011b4724a5e2","null","null","<p style=""font-size: 60px; font-family: BACS"">CtmbcDR</p>","","","","","","","","",""
"html-keyboard-response","90","162077","0.0-10.0-0.1","607ea5504e74d104da5a108a","650c16f0f2faf8d7a0d14c09","651c1d406531011b4724a5e2","null","null","<p style=""font-size: 60px; font-family: BACS"">kKEdMtcB</p>","","","","","","","","",""
"html-keyboard-response","91","163080","0.0-10.0-0.2","607ea5504e74d104da5a108a","650c16f0f2faf8d7a0d14c09","651c1d406531011b4724a5e2","null","null","<p style=""font-size: 60px; font-family: BACS"">bNdmGAZbl</p>","","","","","","","","",""
"html-keyboard-response","92","164095","0.0-10.0-0.3","607ea5504e74d104da5a108a","650c16f0f2faf8d7a0d14c09","651c1d406531011b4724a5e2","null","null","<p style=""font-size: 60px; font-family: BACS"">Yadrbadk</p>","","","","","","","","",""
"html-keyboard-response","93","165104","0.0-10.0-0.4","607ea5504e74d104da5a108a","650c16f0f2faf8d7a0d14c09","651c1d406531011b4724a5e2","null","null","<p style=""font-size: 60px; font-family: BACS"">bmdABPTl</p>","","","","","","","","",""
"html-keyboard-response","94","166116","0.0-10.0-0.5","607ea5504e74d104da5a108a","650c16f0f2faf8d7a0d14c09","651c1d406531011b4724a5e2","null","null","<p style=""font-size: 60px; font-family: BACS"">htmhCDOAK</p>","","","","","","","","",""
"html-keyboard-response","95","167133","0.0-10.0-0.6","607ea5504e74d104da5a108a","650c16f0f2faf8d7a0d14c09","651c1d406531011b4724a5e2","null","null","<p style=""font-size: 60px; font-family: BACS"">EPERdhRKm</p>","","","","","","","","",""
"html-keyboard-response","96","168139","0.0-10.0-0.7","607ea5504e74d104da5a108a","650c16f0f2faf8d7a0d14c09","651c1d406531011b4724a5e2","null","null","<p style=""font-size: 60px; font-family: BACS"">kRCkOPTl</p>","","","","","","","","",""
"html-keyboard-response","97","169142","0.0-10.0-0.8","607ea5504e74d104da5a108a","650c16f0f2faf8d7a0d14c09","651c1d406531011b4724a5e2","null","null","<p style=""font-size: 60px; font-family: BACS"">NaAQdNUZ</p>","","","","","","","","",""
"html-keyboard-response","98","170155","0.0-10.0-0.9","607ea5504e74d104da5a108a","650c16f0f2faf8d7a0d14c09","651c1d406531011b4724a5e2","null","null","<p style=""font-size: 60px; font-family: BACS"">CtmbDOAK</p>","","","","","","","","",""
"html-keyboard-response","99","171172","0.0-10.0-0.10","607ea5504e74d104da5a108a","650c16f0f2faf8d7a0d14c09","651c1d406531011b4724a5e2","null","null","<p style=""font-size: 60px; font-family: BACS"">TObCOtcB</p>","","","","","","","","",""
"html-keyboard-response","100","172180","0.0-10.0-0.11","607ea5504e74d104da5a108a","650c16f0f2faf8d7a0d14c09","651c1d406531011b4724a5e2","null","null","<p style=""font-size: 60px; font-family: BACS"">LuNZJud</p>","","","","","","","","",""
"html-keyboard-response","101","173187","0.0-10.0-0.12","607ea5504e74d104da5a108a","650c16f0f2faf8d7a0d14c09","651c1d406531011b4724a5e2","null","null","<p style=""font-size: 60px; font-family: BACS"">UJkGNUZ</p>","","","","","","","","",""
"html-keyboard-response","102","174188","0.0-10.0-0.13","607ea5504e74d104da5a108a","650c16f0f2faf8d7a0d14c09","651c1d406531011b4724a5e2","null","null","<p style=""font-size: 60px; font-family: BACS"">htmhCtcB</p>","","","","","","","","",""
"html-keyboard-response","103","175190","0.0-10.0-0.14","607ea5504e74d104da5a108a","650c16f0f2faf8d7a0d14c09","651c1d406531011b4724a5e2","null","null","<p style=""font-size: 60px; font-family: BACS"">bNdmGbadk</p>","","","","","","","","",""
"html-keyboard-response","104","176205","0.0-10.0-0.15","607ea5504e74d104da5a108a","650c16f0f2faf8d7a0d14c09","651c1d406531011b4724a5e2","null","null","<p style=""font-size: 60px; font-family: BACS"">TObCOhRKm</p>","","","","","","","","",""
"html-keyboard-response","105","177222","0.0-10.0-0.16","607ea5504e74d104da5a108a","650c16f0f2faf8d7a0d14c09","651c1d406531011b4724a5e2","null","null","<p style=""font-size: 60px; font-family: BACS"">BOCRMcDR</p>","","","","","","","","",""
"html-keyboard-response","106","178226","0.0-10.0-0.17","607ea5504e74d104da5a108a","650c16f0f2faf8d7a0d14c09","651c1d406531011b4724a5e2","null","null","<p style=""font-size: 60px; font-family: BACS"">kKEdMPTl</p>","","","","","","","","",""
"html-keyboard-response","107","179239","0.0-10.0-0.18","607ea5504e74d104da5a108a","650c16f0f2faf8d7a0d14c09","651c1d406531011b4724a5e2","null","null","<p style=""font-size: 60px; font-family: BACS"">TObCODOAK</p>","","","","","","","","",""
"html-keyboard-response","108","180241","0.0-10.0-0.19","607ea5504e74d104da5a108a","650c16f0f2faf8d7a0d14c09","651c1d406531011b4724a5e2","null","null","<p style=""font-size: 60px; font-family: BACS"">UJkGJud</p>","","","","","","","","",""
"html-keyboard-response","109","181255","0.0-10.0-0.20","607ea5504e74d104da5a108a","650c16f0f2faf8d7a0d14c09","651c1d406531011b4724a5e2","null","null","<p style=""font-size: 60px; font-family: BACS"">BOCRMDOAK</p>","","","","","","","","",""
"html-keyboard-response","110","182256","0.0-10.0-0.21","607ea5504e74d104da5a108a","650c16f0f2faf8d7a0d14c09","651c1d406531011b4724a5e2","null","null","<p style=""font-size: 60px; font-family: BACS"">mLdkZAZbl</p>","","","","","","","","",""
"html-keyboard-response","111","183267","0.0-10.0-0.22","607ea5504e74d104da5a108a","650c16f0f2faf8d7a0d14c09","651c1d406531011b4724a5e2","null","null","<p style=""font-size: 60px; font-family: BACS"">UAcdubadk</p>","","","","","","","","",""
"html-keyboard-response","112","184272","0.0-10.0-0.23","607ea5504e74d104da5a108a","650c16f0f2faf8d7a0d14c09","651c1d406531011b4724a5e2","null","null","<p style=""font-size: 60px; font-family: BACS"">EPERdPTl</p>","","","","","","","","",""
"html-keyboard-response","113","185288","0.0-10.0-0.24","607ea5504e74d104da5a108a","650c16f0f2faf8d7a0d14c09","651c1d406531011b4724a5e2","null","null","<p style=""font-size: 60px; font-family: BACS"">YadrUdvY</p>","","","","","","","","",""
"html-keyboard-response","114","186303","0.0-10.0-0.25","607ea5504e74d104da5a108a","650c16f0f2faf8d7a0d14c09","651c1d406531011b4724a5e2","null","null","<p style=""font-size: 60px; font-family: BACS"">LuNZAZbl</p>","","","","","","","","",""
"html-keyboard-response","115","187314","0.0-10.0-0.26","607ea5504e74d104da5a108a","650c16f0f2faf8d7a0d14c09","651c1d406531011b4724a5e2","null","null","<p style=""font-size: 60px; font-family: BACS"">EPMDkhRKm</p>","","","","","","","","",""
"html-keyboard-response","116","188320","0.0-10.0-0.27","607ea5504e74d104da5a108a","650c16f0f2faf8d7a0d14c09","651c1d406531011b4724a5e2","null","null","<p style=""font-size: 60px; font-family: BACS"">uauOAZbl</p>","","","","","","","","",""
"html-keyboard-response","117","189335","0.0-10.0-0.28","607ea5504e74d104da5a108a","650c16f0f2faf8d7a0d14c09","651c1d406531011b4724a5e2","null","null","<p style=""font-size: 60px; font-family: BACS"">EPMDktcB</p>","","","","","","","","",""
"html-keyboard-response","118","190352","0.0-10.0-0.29","607ea5504e74d104da5a108a","650c16f0f2faf8d7a0d14c09","651c1d406531011b4724a5e2","null","null","<p style=""font-size: 60px; font-family: BACS"">JdGmJud</p>","","","","","","","","",""
"html-keyboard-response","119","191366","0.0-10.0-0.30","607ea5504e74d104da5a108a","650c16f0f2faf8d7a0d14c09","651c1d406531011b4724a5e2","null","null","<p style=""font-size: 60px; font-family: BACS"">LuNZUdvY</p>","","","","","","","","",""
"html-keyboard-response","120","192368","0.0-10.0-0.31","607ea5504e74d104da5a108a","650c16f0f2faf8d7a0d14c09","651c1d406531011b4724a5e2","null","null","<p style=""font-size: 60px; font-family: BACS"">kRCkODOAK</p>","","","","","","","","",""
"html-keyboard-response","121","193371","0.0-10.0-0.32","607ea5504e74d104da5a108a","650c16f0f2faf8d7a0d14c09","651c1d406531011b4724a5e2","null","null","<p style=""font-size: 60px; font-family: BACS"">EPERdtcB</p>","","","","","","","","",""
"html-keyboard-response","122","194376","0.0-10.0-0.33","607ea5504e74d104da5a108a","650c16f0f2faf8d7a0d14c09","651c1d406531011b4724a5e2","null","null","<p style=""font-size: 60px; font-family: BACS"">dCtMAcDR</p>","","","","","","","","",""
"html-keyboard-response","123","195382","0.0-10.0-0.34","607ea5504e74d104da5a108a","650c16f0f2faf8d7a0d14c09","651c1d406531011b4724a5e2","null","null","<p style=""font-size: 60px; font-family: BACS"">htmhCPTl</p>","","","","","","","","",""
"html-keyboard-response","124","196387","0.0-10.0-0.35","607ea5504e74d104da5a108a","650c16f0f2faf8d7a0d14c09","651c1d406531011b4724a5e2","null","null","<p style=""font-size: 60px; font-family: BACS"">uauONUZ</p>","","","","","","","","",""
"html-keyboard-response","125","197391","0.0-10.0-0.36","607ea5504e74d104da5a108a","650c16f0f2faf8d7a0d14c09","651c1d406531011b4724a5e2","null","null","<p style=""font-size: 60px; font-family: BACS"">UJkGbadk</p>","","","","","","","","",""
"html-keyboard-response","126","198404","0.0-10.0-0.37","607ea5504e74d104da5a108a","650c16f0f2faf8d7a0d14c09","651c1d406531011b4724a5e2","null","null","<p style=""font-size: 60px; font-family: BACS"">mLdkZJud</p>","","","","","","","","",""
"html-keyboard-response","127","199405","0.0-10.0-0.38","607ea5504e74d104da5a108a","650c16f0f2faf8d7a0d14c09","651c1d406531011b4724a5e2","null","null","<p style=""font-size: 60px; font-family: BACS"">NaAQdbadk</p>","","","","","","","","",""
"html-keyboard-response","128","200420","0.0-10.0-0.39","607ea5504e74d104da5a108a","650c16f0f2faf8d7a0d14c09","651c1d406531011b4724a5e2","null","null","<p style=""font-size: 60px; font-family: BACS"">kRCkOcDR</p>","","","","","","","","",""
"html-keyboard-response","129","201423","0.0-10.0-0.40","607ea5504e74d104da5a108a","650c16f0f2faf8d7a0d14c09","651c1d406531011b4724a5e2","null","null","<p style=""font-size: 60px; font-family: BACS"">uauOJud</p>","","","","","","","","",""
"html-keyboard-response","130","202430","0.0-10.0-0.41","607ea5504e74d104da5a108a","650c16f0f2faf8d7a0d14c09","651c1d406531011b4724a5e2","null","null","<p style=""font-size: 60px; font-family: BACS"">mLdkZNUZ</p>","","","","","","","","",""
"html-keyboard-response","131","203443","0.0-10.0-0.42","607ea5504e74d104da5a108a","650c16f0f2faf8d7a0d14c09","651c1d406531011b4724a5e2","null","null","<p style=""font-size: 60px; font-family: BACS"">EPMDkPTl</p>","","","","","","","","",""
"html-keyboard-response","132","204446","0.0-10.0-0.43","607ea5504e74d104da5a108a","650c16f0f2faf8d7a0d14c09","651c1d406531011b4724a5e2","null","null","<p style=""font-size: 60px; font-family: BACS"">uQuZcUdvY</p>","","","","","","","","",""
"html-keyboard-response","133","205462","0.0-10.0-0.44","607ea5504e74d104da5a108a","650c16f0f2faf8d7a0d14c09","651c1d406531011b4724a5e2","null","null","<p style=""font-size: 60px; font-family: BACS"">bmdABDOAK</p>","","","","","","","","",""
"html-keyboard-response","134","206477","0.0-10.0-0.45","607ea5504e74d104da5a108a","650c16f0f2faf8d7a0d14c09","651c1d406531011b4724a5e2","null","null","<p style=""font-size: 60px; font-family: BACS"">uQuZcbadk</p>","","","","","","","","",""
"html-keyboard-response","135","207478","0.0-10.0-0.46","607ea5504e74d104da5a108a","650c16f0f2faf8d7a0d14c09","651c1d406531011b4724a5e2","null","null","<p style=""font-size: 60px; font-family: BACS"">EPERdcDR</p>","","","","","","","","",""
"html-keyboard-response","136","208480","0.0-10.0-0.47","607ea5504e74d104da5a108a","650c16f0f2faf8d7a0d14c09","651c1d406531011b4724a5e2","null","null","<p style=""font-size: 60px; font-family: BACS"">bmdABtcB</p>","","","","","","","","",""
"html-keyboard-response","137","209483","0.0-10.0-0.48","607ea5504e74d104da5a108a","650c16f0f2faf8d7a0d14c09","651c1d406531011b4724a5e2","null","null","<p style=""font-size: 60px; font-family: BACS"">LuNZNUZ</p>","","","","","","","","",""
"html-keyboard-response","138","210484","0.0-10.0-0.49","607ea5504e74d104da5a108a","650c16f0f2faf8d7a0d14c09","651c1d406531011b4724a5e2","null","null","<p style=""font-size: 60px; font-family: BACS"">JdGmbadk</p>","","","","","","","","",""
"html-keyboard-response","139","211496","0.0-10.0-0.50","607ea5504e74d104da5a108a","650c16f0f2faf8d7a0d14c09","651c1d406531011b4724a5e2","null","null","<p style=""font-size: 60px; font-family: BACS"">kKEdMDOAK</p>","","","","","","","","",""
"html-keyboard-response","140","212501","0.0-10.0-0.51","607ea5504e74d104da5a108a","650c16f0f2faf8d7a0d14c09","651c1d406531011b4724a5e2","null","null","<p style=""font-size: 60px; font-family: BACS"">mLdkZUdvY</p>","","","","","","","","",""
"html-keyboard-response","141","213512","0.0-10.0-0.52","607ea5504e74d104da5a108a","650c16f0f2faf8d7a0d14c09","651c1d406531011b4724a5e2","null","null","<p style=""font-size: 60px; font-family: BACS"">YadrNUZ</p>","","","","","","","","",""
"html-keyboard-response","142","214527","0.0-10.0-0.53","607ea5504e74d104da5a108a","650c16f0f2faf8d7a0d14c09","651c1d406531011b4724a5e2","null","null","<p style=""font-size: 60px; font-family: BACS"">NaAQdJud</p>","","","","","","","","",""
"html-keyboard-response","143","215531","0.0-10.0-0.54","607ea5504e74d104da5a108a","650c16f0f2faf8d7a0d14c09","651c1d406531011b4724a5e2","null","null","<p style=""font-size: 60px; font-family: BACS"">UAcduUdvY</p>","","","","","","","","",""
"html-keyboard-response","144","216536","0.0-10.0-0.55","607ea5504e74d104da5a108a","650c16f0f2faf8d7a0d14c09","651c1d406531011b4724a5e2","null","null","<p style=""font-size: 60px; font-family: BACS"">YadrJud</p>","","","","","","","","",""
"html-keyboard-response","145","217549","0.0-10.0-0.56","607ea5504e74d104da5a108a","650c16f0f2faf8d7a0d14c09","651c1d406531011b4724a5e2","null","null","<p style=""font-size: 60px; font-family: BACS"">TObCOcDR</p>","","","","","","","","",""
"html-keyboard-response","146","218565","0.0-10.0-0.57","607ea5504e74d104da5a108a","650c16f0f2faf8d7a0d14c09","651c1d406531011b4724a5e2","null","null","<p style=""font-size: 60px; font-family: BACS"">CtmbhRKm</p>","","","","","","","","",""
"html-keyboard-response","147","219582","0.0-10.0-0.58","607ea5504e74d104da5a108a","650c16f0f2faf8d7a0d14c09","651c1d406531011b4724a5e2","null","null","<p style=""font-size: 60px; font-family: BACS"">dCtMADOAK</p>","","","","","","","","",""
"html-keyboard-response","148","220595","0.0-10.0-0.59","607ea5504e74d104da5a108a","650c16f0f2faf8d7a0d14c09","651c1d406531011b4724a5e2","null","null","<p style=""font-size: 60px; font-family: BACS"">kKEdMhRKm</p>","","","","","","","","",""
"html-keyboard-response","149","221599","0.0-10.0-0.60","607ea5504e74d104da5a108a","650c16f0f2faf8d7a0d14c09","651c1d406531011b4724a5e2","null","null","<p style=""font-size: 60px; font-family: BACS"">BOCRMtcB</p>","","","","","","","","",""
"html-keyboard-response","150","222602","0.0-10.0-0.61","607ea5504e74d104da5a108a","650c16f0f2faf8d7a0d14c09","651c1d406531011b4724a5e2","null","null","<p style=""font-size: 60px; font-family: BACS"">UJkGUdvY</p>","","","","","","","","",""
"html-keyboard-response","151","223605","0.0-10.0-0.62","607ea5504e74d104da5a108a","650c16f0f2faf8d7a0d14c09","651c1d406531011b4724a5e2","null","null","<p style=""font-size: 60px; font-family: BACS"">dCtMAPTl</p>","","","","","","","","",""
"html-keyboard-response","152","224609","0.0-10.0-0.63","607ea5504e74d104da5a108a","650c16f0f2faf8d7a0d14c09","651c1d406531011b4724a5e2","null","null","<p style=""font-size: 60px; font-family: BACS"">JdGmAZbl</p>","","","","","","","","",""
"html-keyboard-response","153","225620","0.0-10.0-0.64","607ea5504e74d104da5a108a","650c16f0f2faf8d7a0d14c09","651c1d406531011b4724a5e2","null","null","<p style=""font-size: 60px; font-family: BACS"">htmhCcDR</p>","","","","","","","","",""
"html-keyboard-response","154","226623","0.0-10.0-0.65","607ea5504e74d104da5a108a","650c16f0f2faf8d7a0d14c09","651c1d406531011b4724a5e2","null","null","<p style=""font-size: 60px; font-family: BACS"">dCtMAtcB</p>","","","","","","","","",""
"html-keyboard-response","155","227628","0.0-10.0-0.66","607ea5504e74d104da5a108a","650c16f0f2faf8d7a0d14c09","651c1d406531011b4724a5e2","null","null","<p style=""font-size: 60px; font-family: BACS"">JdGmUdvY</p>","","","","","","","","",""
"html-keyboard-response","156","228632","0.0-10.0-0.67","607ea5504e74d104da5a108a","650c16f0f2faf8d7a0d14c09","651c1d406531011b4724a5e2","null","null","<p style=""font-size: 60px; font-family: BACS"">CtmbPTl</p>","","","","","","","","",""
"html-keyboard-response","157","229645","0.0-10.0-0.68","607ea5504e74d104da5a108a","650c16f0f2faf8d7a0d14c09","651c1d406531011b4724a5e2","null","null","<p style=""font-size: 60px; font-family: BACS"">bNdmGNUZ</p>","","","","","","","","",""
"html-keyboard-response","158","230663","0.0-10.0-0.69","607ea5504e74d104da5a108a","650c16f0f2faf8d7a0d14c09","651c1d406531011b4724a5e2","null","null","<p style=""font-size: 60px; font-family: BACS"">uQuZcAZbl</p>","","","","","","","","",""
"html-keyboard-response","159","231670","0.0-10.0-0.70","607ea5504e74d104da5a108a","650c16f0f2faf8d7a0d14c09","651c1d406531011b4724a5e2","null","null","<p style=""font-size: 60px; font-family: BACS"">uauObadk</p>","","","","","","","","",""
"html-keyboard-response","160","232687","0.0-10.0-0.71","607ea5504e74d104da5a108a","650c16f0f2faf8d7a0d14c09","651c1d406531011b4724a5e2","null","null","<p style=""font-size: 60px; font-family: BACS"">bmdABhRKm</p>","","","","","","","","",""
"html-keyboard-response","161","233690","0.0-10.0-0.72","607ea5504e74d104da5a108a","650c16f0f2faf8d7a0d14c09","651c1d406531011b4724a5e2","null","null","<p style=""font-size: 60px; font-family: BACS"">UAcduNUZ</p>","","","","","","","","",""
"html-keyboard-response","162","234696","0.0-10.0-0.73","607ea5504e74d104da5a108a","650c16f0f2faf8d7a0d14c09","651c1d406531011b4724a5e2","null","null","<p style=""font-size: 60px; font-family: BACS"">BOCRMhRKm</p>","","","","","","","","",""
"html-keyboard-response","163","235697","0.0-10.0-0.74","607ea5504e74d104da5a108a","650c16f0f2faf8d7a0d14c09","651c1d406531011b4724a5e2","null","null","<p style=""font-size: 60px; font-family: BACS"">UAcduAZbl</p>","","","","","","","","",""
"html-keyboard-response","164","236713","0.0-10.0-0.75","607ea5504e74d104da5a108a","650c16f0f2faf8d7a0d14c09","651c1d406531011b4724a5e2","null","null","<p style=""font-size: 60px; font-family: BACS"">uQuZcJud</p>","","","","","","","","",""
"html-keyboard-response","165","237713","0.0-10.0-0.76","607ea5504e74d104da5a108a","650c16f0f2faf8d7a0d14c09","651c1d406531011b4724a5e2","null","null","<p style=""font-size: 60px; font-family: BACS"">NaAQdAZbl</p>","","","","","","","","",""
"html-keyboard-response","166","238717","0.0-10.0-0.77","607ea5504e74d104da5a108a","650c16f0f2faf8d7a0d14c09","651c1d406531011b4724a5e2","null","null","<p style=""font-size: 60px; font-family: BACS"">bNdmGUdvY</p>","","","","","","","","",""
"html-keyboard-response","167","239718","0.0-10.0-0.78","607ea5504e74d104da5a108a","650c16f0f2faf8d7a0d14c09","651c1d406531011b4724a5e2","null","null","<p style=""font-size: 60px; font-family: BACS"">EPMDkcDR</p>","","","","","","","","",""
"html-keyboard-response","168","240734","0.0-10.0-0.79","607ea5504e74d104da5a108a","650c16f0f2faf8d7a0d14c09","651c1d406531011b4724a5e2","null","null","<p style=""font-size: 60px; font-family: BACS"">kRCkOhRKm</p>","","","","","","","","",""
"html-keyboard-response","169","246057","0.0-11.0","607ea5504e74d104da5a108a","650c16f0f2faf8d7a0d14c09","651c1d406531011b4724a5e2","5323"," ","<p>Great, you've seen the second block of words. You may now take a short break.</p>
      <p>Press the spacebar when you're ready to continue.</p>","","","","","","","","",""
"html-keyboard-response","170","247068","0.0-12.0-0.0","607ea5504e74d104da5a108a","650c16f0f2faf8d7a0d14c09","651c1d406531011b4724a5e2","null","null","<p style=""font-size: 60px; font-family: BACS"">UJkGbadk</p>","","","","","","","","",""
"html-keyboard-response","171","248070","0.0-12.0-0.1","607ea5504e74d104da5a108a","650c16f0f2faf8d7a0d14c09","651c1d406531011b4724a5e2","null","null","<p style=""font-size: 60px; font-family: BACS"">TObCOcDR</p>","","","","","","","","",""
"html-keyboard-response","172","249087","0.0-12.0-0.2","607ea5504e74d104da5a108a","650c16f0f2faf8d7a0d14c09","651c1d406531011b4724a5e2","null","null","<p style=""font-size: 60px; font-family: BACS"">dCtMAtcB</p>","","","","","","","","",""
"html-keyboard-response","173","250103","0.0-12.0-0.3","607ea5504e74d104da5a108a","650c16f0f2faf8d7a0d14c09","651c1d406531011b4724a5e2","null","null","<p style=""font-size: 60px; font-family: BACS"">kRCkOcDR</p>","","","","","","","","",""
"html-keyboard-response","174","251105","0.0-12.0-0.4","607ea5504e74d104da5a108a","650c16f0f2faf8d7a0d14c09","651c1d406531011b4724a5e2","null","null","<p style=""font-size: 60px; font-family: BACS"">uQuZcbadk</p>","","","","","","","","",""
"html-keyboard-response","175","252106","0.0-12.0-0.5","607ea5504e74d104da5a108a","650c16f0f2faf8d7a0d14c09","651c1d406531011b4724a5e2","null","null","<p style=""font-size: 60px; font-family: BACS"">dCtMAcDR</p>","","","","","","","","",""
"html-keyboard-response","176","253107","0.0-12.0-0.6","607ea5504e74d104da5a108a","650c16f0f2faf8d7a0d14c09","651c1d406531011b4724a5e2","null","null","<p style=""font-size: 60px; font-family: BACS"">BOCRMtcB</p>","","","","","","","","",""
"html-keyboard-response","177","254112","0.0-12.0-0.7","607ea5504e74d104da5a108a","650c16f0f2faf8d7a0d14c09","651c1d406531011b4724a5e2","null","null","<p style=""font-size: 60px; font-family: BACS"">uauOAZbl</p>","","","","","","","","",""
"html-keyboard-response","178","255116","0.0-12.0-0.8","607ea5504e74d104da5a108a","650c16f0f2faf8d7a0d14c09","651c1d406531011b4724a5e2","null","null","<p style=""font-size: 60px; font-family: BACS"">bmdABDOAK</p>","","","","","","","","",""
"html-keyboard-response","179","256121","0.0-12.0-0.9","607ea5504e74d104da5a108a","650c16f0f2faf8d7a0d14c09","651c1d406531011b4724a5e2","null","null","<p style=""font-size: 60px; font-family: BACS"">bNdmGUdvY</p>","","","","","","","","",""
"html-keyboard-response","180","257126","0.0-12.0-0.10","607ea5504e74d104da5a108a","650c16f0f2faf8d7a0d14c09","651c1d406531011b4724a5e2","null","null","<p style=""font-size: 60px; font-family: BACS"">UAcdubadk</p>","","","","","","","","",""
"html-keyboard-response","181","258132","0.0-12.0-0.11","607ea5504e74d104da5a108a","650c16f0f2faf8d7a0d14c09","651c1d406531011b4724a5e2","null","null","<p style=""font-size: 60px; font-family: BACS"">EPMDkPTl</p>","","","","","","","","",""
"html-keyboard-response","182","259137","0.0-12.0-0.12","607ea5504e74d104da5a108a","650c16f0f2faf8d7a0d14c09","651c1d406531011b4724a5e2","null","null","<p style=""font-size: 60px; font-family: BACS"">LuNZJud</p>","","","","","","","","",""
"html-keyboard-response","183","260138","0.0-12.0-0.13","607ea5504e74d104da5a108a","650c16f0f2faf8d7a0d14c09","651c1d406531011b4724a5e2","null","null","<p style=""font-size: 60px; font-family: BACS"">kRCkOPTl</p>","","","","","","","","",""
"html-keyboard-response","184","261154","0.0-12.0-0.14","607ea5504e74d104da5a108a","650c16f0f2faf8d7a0d14c09","651c1d406531011b4724a5e2","null","null","<p style=""font-size: 60px; font-family: BACS"">BOCRMhRKm</p>","","","","","","","","",""
"html-keyboard-response","185","262170","0.0-12.0-0.15","607ea5504e74d104da5a108a","650c16f0f2faf8d7a0d14c09","651c1d406531011b4724a5e2","null","null","<p style=""font-size: 60px; font-family: BACS"">EPMDktcB</p>","","","","","","","","",""
"html-keyboard-response","186","263186","0.0-12.0-0.16","607ea5504e74d104da5a108a","650c16f0f2faf8d7a0d14c09","651c1d406531011b4724a5e2","null","null","<p style=""font-size: 60px; font-family: BACS"">UAcduNUZ</p>","","","","","","","","",""
"html-keyboard-response","187","264202","0.0-12.0-0.17","607ea5504e74d104da5a108a","650c16f0f2faf8d7a0d14c09","651c1d406531011b4724a5e2","null","null","<p style=""font-size: 60px; font-family: BACS"">TObCOhRKm</p>","","","","","","","","",""
"html-keyboard-response","188","265218","0.0-12.0-0.18","607ea5504e74d104da5a108a","650c16f0f2faf8d7a0d14c09","651c1d406531011b4724a5e2","null","null","<p style=""font-size: 60px; font-family: BACS"">JdGmUdvY</p>","","","","","","","","",""
"html-keyboard-response","189","266235","0.0-12.0-0.19","607ea5504e74d104da5a108a","650c16f0f2faf8d7a0d14c09","651c1d406531011b4724a5e2","null","null","<p style=""font-size: 60px; font-family: BACS"">htmhCtcB</p>","","","","","","","","",""
"html-keyboard-response","190","267250","0.0-12.0-0.20","607ea5504e74d104da5a108a","650c16f0f2faf8d7a0d14c09","651c1d406531011b4724a5e2","null","null","<p style=""font-size: 60px; font-family: BACS"">LuNZAZbl</p>","","","","","","","","",""
"html-keyboard-response","191","268252","0.0-12.0-0.21","607ea5504e74d104da5a108a","650c16f0f2faf8d7a0d14c09","651c1d406531011b4724a5e2","null","null","<p style=""font-size: 60px; font-family: BACS"">uauObadk</p>","","","","","","","","",""
"html-keyboard-response","192","269265","0.0-12.0-0.22","607ea5504e74d104da5a108a","650c16f0f2faf8d7a0d14c09","651c1d406531011b4724a5e2","null","null","<p style=""font-size: 60px; font-family: BACS"">EPMDkcDR</p>","","","","","","","","",""
"html-keyboard-response","193","270270","0.0-12.0-0.23","607ea5504e74d104da5a108a","650c16f0f2faf8d7a0d14c09","651c1d406531011b4724a5e2","null","null","<p style=""font-size: 60px; font-family: BACS"">htmhCPTl</p>","","","","","","","","",""
"html-keyboard-response","194","271284","0.0-12.0-0.24","607ea5504e74d104da5a108a","650c16f0f2faf8d7a0d14c09","651c1d406531011b4724a5e2","null","null","<p style=""font-size: 60px; font-family: BACS"">kRCkODOAK</p>","","","","","","","","",""
"html-keyboard-response","195","272299","0.0-12.0-0.25","607ea5504e74d104da5a108a","650c16f0f2faf8d7a0d14c09","651c1d406531011b4724a5e2","null","null","<p style=""font-size: 60px; font-family: BACS"">CtmbhRKm</p>","","","","","","","","",""
"html-keyboard-response","196","273303","0.0-12.0-0.26","607ea5504e74d104da5a108a","650c16f0f2faf8d7a0d14c09","651c1d406531011b4724a5e2","null","null","<p style=""font-size: 60px; font-family: BACS"">bmdABtcB</p>","","","","","","","","",""
"html-keyboard-response","197","274320","0.0-12.0-0.27","607ea5504e74d104da5a108a","650c16f0f2faf8d7a0d14c09","651c1d406531011b4724a5e2","null","null","<p style=""font-size: 60px; font-family: BACS"">mLdkZJud</p>","","","","","","","","",""
"html-keyboard-response","198","275333","0.0-12.0-0.28","607ea5504e74d104da5a108a","650c16f0f2faf8d7a0d14c09","651c1d406531011b4724a5e2","null","null","<p style=""font-size: 60px; font-family: BACS"">kKEdMtcB</p>","","","","","","","","",""
"html-keyboard-response","199","276334","0.0-12.0-0.29","607ea5504e74d104da5a108a","650c16f0f2faf8d7a0d14c09","651c1d406531011b4724a5e2","null","null","<p style=""font-size: 60px; font-family: BACS"">EPMDkhRKm</p>","","","","","","","","",""
"html-keyboard-response","200","277341","0.0-12.0-0.30","607ea5504e74d104da5a108a","650c16f0f2faf8d7a0d14c09","651c1d406531011b4724a5e2","null","null","<p style=""font-size: 60px; font-family: BACS"">NaAQdNUZ</p>","","","","","","","","",""
"html-keyboard-response","201","278348","0.0-12.0-0.31","607ea5504e74d104da5a108a","650c16f0f2faf8d7a0d14c09","651c1d406531011b4724a5e2","null","null","<p style=""font-size: 60px; font-family: BACS"">CtmbDOAK</p>","","","","","","","","",""
"html-keyboard-response","202","279361","0.0-12.0-0.32","607ea5504e74d104da5a108a","650c16f0f2faf8d7a0d14c09","651c1d406531011b4724a5e2","null","null","<p style=""font-size: 60px; font-family: BACS"">UJkGJud</p>","","","","","","","","",""
"html-keyboard-response","203","280364","0.0-12.0-0.33","607ea5504e74d104da5a108a","650c16f0f2faf8d7a0d14c09","651c1d406531011b4724a5e2","null","null","<p style=""font-size: 60px; font-family: BACS"">bNdmGAZbl</p>","","","","","","","","",""
"html-keyboard-response","204","281366","0.0-12.0-0.34","607ea5504e74d104da5a108a","650c16f0f2faf8d7a0d14c09","651c1d406531011b4724a5e2","null","null","<p style=""font-size: 60px; font-family: BACS"">UJkGNUZ</p>","","","","","","","","",""
"html-keyboard-response","205","282367","0.0-12.0-0.35","607ea5504e74d104da5a108a","650c16f0f2faf8d7a0d14c09","651c1d406531011b4724a5e2","null","null","<p style=""font-size: 60px; font-family: BACS"">CtmbcDR</p>","","","","","","","","",""
"html-keyboard-response","206","283376","0.0-12.0-0.36","607ea5504e74d104da5a108a","650c16f0f2faf8d7a0d14c09","651c1d406531011b4724a5e2","null","null","<p style=""font-size: 60px; font-family: BACS"">JdGmAZbl</p>","","","","","","","","",""
"html-keyboard-response","207","284380","0.0-12.0-0.37","607ea5504e74d104da5a108a","650c16f0f2faf8d7a0d14c09","651c1d406531011b4724a5e2","null","null","<p style=""font-size: 60px; font-family: BACS"">BOCRMcDR</p>","","","","","","","","",""
"html-keyboard-response","208","285391","0.0-12.0-0.38","607ea5504e74d104da5a108a","650c16f0f2faf8d7a0d14c09","651c1d406531011b4724a5e2","null","null","<p style=""font-size: 60px; font-family: BACS"">EPERdtcB</p>","","","","","","","","",""
"html-keyboard-response","209","286404","0.0-12.0-0.39","607ea5504e74d104da5a108a","650c16f0f2faf8d7a0d14c09","651c1d406531011b4724a5e2","null","null","<p style=""font-size: 60px; font-family: BACS"">dCtMADOAK</p>","","","","","","","","",""
"html-keyboard-response","210","287405","0.0-12.0-0.40","607ea5504e74d104da5a108a","650c16f0f2faf8d7a0d14c09","651c1d406531011b4724a5e2","null","null","<p style=""font-size: 60px; font-family: BACS"">kRCkOhRKm</p>","","","","","","","","",""
"html-keyboard-response","211","288421","0.0-12.0-0.41","607ea5504e74d104da5a108a","650c16f0f2faf8d7a0d14c09","651c1d406531011b4724a5e2","null","null","<p style=""font-size: 60px; font-family: BACS"">YadrNUZ</p>","","","","","","","","",""
"html-keyboard-response","212","289426","0.0-12.0-0.42","607ea5504e74d104da5a108a","650c16f0f2faf8d7a0d14c09","651c1d406531011b4724a5e2","null","null","<p style=""font-size: 60px; font-family: BACS"">NaAQdAZbl</p>","","","","","","","","",""
"html-keyboard-response","213","290433","0.0-12.0-0.43","607ea5504e74d104da5a108a","650c16f0f2faf8d7a0d14c09","651c1d406531011b4724a5e2","null","null","<p style=""font-size: 60px; font-family: BACS"">mLdkZNUZ</p>","","","","","","","","",""
"html-keyboard-response","214","291451","0.0-12.0-0.44","607ea5504e74d104da5a108a","650c16f0f2faf8d7a0d14c09","651c1d406531011b4724a5e2","null","null","<p style=""font-size: 60px; font-family: BACS"">EPERdPTl</p>","","","","","","","","",""
"html-keyboard-response","215","292462","0.0-12.0-0.45","607ea5504e74d104da5a108a","650c16f0f2faf8d7a0d14c09","651c1d406531011b4724a5e2","null","null","<p style=""font-size: 60px; font-family: BACS"">kKEdMDOAK</p>","","","","","","","","",""
"html-keyboard-response","216","293477","0.0-12.0-0.46","607ea5504e74d104da5a108a","650c16f0f2faf8d7a0d14c09","651c1d406531011b4724a5e2","null","null","<p style=""font-size: 60px; font-family: BACS"">uauOJud</p>","","","","","","","","",""
"html-keyboard-response","217","294482","0.0-12.0-0.47","607ea5504e74d104da5a108a","650c16f0f2faf8d7a0d14c09","651c1d406531011b4724a5e2","null","null","<p style=""font-size: 60px; font-family: BACS"">EPERdhRKm</p>","","","","","","","","",""
"html-keyboard-response","218","295488","0.0-12.0-0.48","607ea5504e74d104da5a108a","650c16f0f2faf8d7a0d14c09","651c1d406531011b4724a5e2","null","null","<p style=""font-size: 60px; font-family: BACS"">JdGmJud</p>","","","","","","","","",""
"html-keyboard-response","219","296493","0.0-12.0-0.49","607ea5504e74d104da5a108a","650c16f0f2faf8d7a0d14c09","651c1d406531011b4724a5e2","null","null","<p style=""font-size: 60px; font-family: BACS"">kKEdMhRKm</p>","","","","","","","","",""
"html-keyboard-response","220","297498","0.0-12.0-0.50","607ea5504e74d104da5a108a","650c16f0f2faf8d7a0d14c09","651c1d406531011b4724a5e2","null","null","<p style=""font-size: 60px; font-family: BACS"">BOCRMDOAK</p>","","","","","","","","",""
"html-keyboard-response","221","298513","0.0-12.0-0.51","607ea5504e74d104da5a108a","650c16f0f2faf8d7a0d14c09","651c1d406531011b4724a5e2","null","null","<p style=""font-size: 60px; font-family: BACS"">kKEdMPTl</p>","","","","","","","","",""
"html-keyboard-response","222","299515","0.0-12.0-0.52","607ea5504e74d104da5a108a","650c16f0f2faf8d7a0d14c09","651c1d406531011b4724a5e2","null","null","<p style=""font-size: 60px; font-family: BACS"">EPERdcDR</p>","","","","","","","","",""
"html-keyboard-response","223","300529","0.0-12.0-0.53","607ea5504e74d104da5a108a","650c16f0f2faf8d7a0d14c09","651c1d406531011b4724a5e2","null","null","<p style=""font-size: 60px; font-family: BACS"">LuNZUdvY</p>","","","","","","","","",""
"html-keyboard-response","224","301532","0.0-12.0-0.54","607ea5504e74d104da5a108a","650c16f0f2faf8d7a0d14c09","651c1d406531011b4724a5e2","null","null","<p style=""font-size: 60px; font-family: BACS"">TObCOtcB</p>","","","","","","","","",""
"html-keyboard-response","225","302547","0.0-12.0-0.55","607ea5504e74d104da5a108a","650c16f0f2faf8d7a0d14c09","651c1d406531011b4724a5e2","null","null","<p style=""font-size: 60px; font-family: BACS"">htmhCDOAK</p>","","","","","","","","",""
"html-keyboard-response","226","303550","0.0-12.0-0.56","607ea5504e74d104da5a108a","650c16f0f2faf8d7a0d14c09","651c1d406531011b4724a5e2","null","null","<p style=""font-size: 60px; font-family: BACS"">YadrJud</p>","","","","","","","","",""
"html-keyboard-response","227","304566","0.0-12.0-0.57","607ea5504e74d104da5a108a","650c16f0f2faf8d7a0d14c09","651c1d406531011b4724a5e2","null","null","<p style=""font-size: 60px; font-family: BACS"">uQuZcAZbl</p>","","","","","","","","",""
"html-keyboard-response","228","305581","0.0-12.0-0.58","607ea5504e74d104da5a108a","650c16f0f2faf8d7a0d14c09","651c1d406531011b4724a5e2","null","null","<p style=""font-size: 60px; font-family: BACS"">mLdkZUdvY</p>","","","","","","","","",""
"html-keyboard-response","229","306592","0.0-12.0-0.59","607ea5504e74d104da5a108a","650c16f0f2faf8d7a0d14c09","651c1d406531011b4724a5e2","null","null","<p style=""font-size: 60px; font-family: BACS"">CtmbPTl</p>","","","","","","","","",""
"html-keyboard-response","230","307595","0.0-12.0-0.60","607ea5504e74d104da5a108a","650c16f0f2faf8d7a0d14c09","651c1d406531011b4724a5e2","null","null","<p style=""font-size: 60px; font-family: BACS"">NaAQdJud</p>","","","","","","","","",""
"html-keyboard-response","231","308609","0.0-12.0-0.61","607ea5504e74d104da5a108a","650c16f0f2faf8d7a0d14c09","651c1d406531011b4724a5e2","null","null","<p style=""font-size: 60px; font-family: BACS"">bmdABPTl</p>","","","","","","","","",""
"html-keyboard-response","232","309612","0.0-12.0-0.62","607ea5504e74d104da5a108a","650c16f0f2faf8d7a0d14c09","651c1d406531011b4724a5e2","null","null","<p style=""font-size: 60px; font-family: BACS"">UAcduAZbl</p>","","","","","","","","",""
"html-keyboard-response","233","310615","0.0-12.0-0.63","607ea5504e74d104da5a108a","650c16f0f2faf8d7a0d14c09","651c1d406531011b4724a5e2","null","null","<p style=""font-size: 60px; font-family: BACS"">Yadrbadk</p>","","","","","","","","",""
"html-keyboard-response","234","311629","0.0-12.0-0.64","607ea5504e74d104da5a108a","650c16f0f2faf8d7a0d14c09","651c1d406531011b4724a5e2","null","null","<p style=""font-size: 60px; font-family: BACS"">bNdmGNUZ</p>","","","","","","","","",""
"html-keyboard-response","235","312643","0.0-12.0-0.65","607ea5504e74d104da5a108a","650c16f0f2faf8d7a0d14c09","651c1d406531011b4724a5e2","null","null","<p style=""font-size: 60px; font-family: BACS"">mLdkZAZbl</p>","","","","","","","","",""
"html-keyboard-response","236","313647","0.0-12.0-0.66","607ea5504e74d104da5a108a","650c16f0f2faf8d7a0d14c09","651c1d406531011b4724a5e2","null","null","<p style=""font-size: 60px; font-family: BACS"">UJkGUdvY</p>","","","","","","","","",""
"html-keyboard-response","237","314655","0.0-12.0-0.67","607ea5504e74d104da5a108a","650c16f0f2faf8d7a0d14c09","651c1d406531011b4724a5e2","null","null","<p style=""font-size: 60px; font-family: BACS"">dCtMAPTl</p>","","","","","","","","",""
"html-keyboard-response","238","315670","0.0-12.0-0.68","607ea5504e74d104da5a108a","650c16f0f2faf8d7a0d14c09","651c1d406531011b4724a5e2","null","null","<p style=""font-size: 60px; font-family: BACS"">bmdABhRKm</p>","","","","","","","","",""
"html-keyboard-response","239","316673","0.0-12.0-0.69","607ea5504e74d104da5a108a","650c16f0f2faf8d7a0d14c09","651c1d406531011b4724a5e2","null","null","<p style=""font-size: 60px; font-family: BACS"">UAcduUdvY</p>","","","","","","","","",""
"html-keyboard-response","240","317676","0.0-12.0-0.70","607ea5504e74d104da5a108a","650c16f0f2faf8d7a0d14c09","651c1d406531011b4724a5e2","null","null","<p style=""font-size: 60px; font-family: BACS"">LuNZNUZ</p>","","","","","","","","",""
"html-keyboard-response","241","318682","0.0-12.0-0.71","607ea5504e74d104da5a108a","650c16f0f2faf8d7a0d14c09","651c1d406531011b4724a5e2","null","null","<p style=""font-size: 60px; font-family: BACS"">bNdmGbadk</p>","","","","","","","","",""
"html-keyboard-response","242","319685","0.0-12.0-0.72","607ea5504e74d104da5a108a","650c16f0f2faf8d7a0d14c09","651c1d406531011b4724a5e2","null","null","<p style=""font-size: 60px; font-family: BACS"">uauONUZ</p>","","","","","","","","",""
"html-keyboard-response","243","320694","0.0-12.0-0.73","607ea5504e74d104da5a108a","650c16f0f2faf8d7a0d14c09","651c1d406531011b4724a5e2","null","null","<p style=""font-size: 60px; font-family: BACS"">htmhCcDR</p>","","","","","","","","",""
"html-keyboard-response","244","321701","0.0-12.0-0.74","607ea5504e74d104da5a108a","650c16f0f2faf8d7a0d14c09","651c1d406531011b4724a5e2","null","null","<p style=""font-size: 60px; font-family: BACS"">YadrUdvY</p>","","","","","","","","",""
"html-keyboard-response","245","322717","0.0-12.0-0.75","607ea5504e74d104da5a108a","650c16f0f2faf8d7a0d14c09","651c1d406531011b4724a5e2","null","null","<p style=""font-size: 60px; font-family: BACS"">TObCODOAK</p>","","","","","","","","",""
"html-keyboard-response","246","323732","0.0-12.0-0.76","607ea5504e74d104da5a108a","650c16f0f2faf8d7a0d14c09","651c1d406531011b4724a5e2","null","null","<p style=""font-size: 60px; font-family: BACS"">uQuZcUdvY</p>","","","","","","","","",""
"html-keyboard-response","247","324735","0.0-12.0-0.77","607ea5504e74d104da5a108a","650c16f0f2faf8d7a0d14c09","651c1d406531011b4724a5e2","null","null","<p style=""font-size: 60px; font-family: BACS"">JdGmbadk</p>","","","","","","","","",""
"html-keyboard-response","248","325744","0.0-12.0-0.78","607ea5504e74d104da5a108a","650c16f0f2faf8d7a0d14c09","651c1d406531011b4724a5e2","null","null","<p style=""font-size: 60px; font-family: BACS"">uQuZcJud</p>","","","","","","","","",""
"html-keyboard-response","249","326757","0.0-12.0-0.79","607ea5504e74d104da5a108a","650c16f0f2faf8d7a0d14c09","651c1d406531011b4724a5e2","null","null","<p style=""font-size: 60px; font-family: BACS"">NaAQdbadk</p>","","","","","","","","",""
"html-keyboard-response","250","329228","0.0-13.0","607ea5504e74d104da5a108a","650c16f0f2faf8d7a0d14c09","651c1d406531011b4724a5e2","2469"," ","<p>Great, you've seen the third block of words. You may now take a short break.</p>
      <p>Press the spacebar when you're ready to continue.</p>","","","","","","","","",""
"html-keyboard-response","251","330232","0.0-14.0-0.0","607ea5504e74d104da5a108a","650c16f0f2faf8d7a0d14c09","651c1d406531011b4724a5e2","null","null","<p style=""font-size: 60px; font-family: BACS"">CtmbcDR</p>","","","","","","","","",""
"html-keyboard-response","252","331247","0.0-14.0-0.1","607ea5504e74d104da5a108a","650c16f0f2faf8d7a0d14c09","651c1d406531011b4724a5e2","null","null","<p style=""font-size: 60px; font-family: BACS"">UJkGJud</p>","","","","","","","","",""
"html-keyboard-response","253","332258","0.0-14.0-0.2","607ea5504e74d104da5a108a","650c16f0f2faf8d7a0d14c09","651c1d406531011b4724a5e2","null","null","<p style=""font-size: 60px; font-family: BACS"">kRCkOhRKm</p>","","","","","","","","",""
"html-keyboard-response","254","333272","0.0-14.0-0.3","607ea5504e74d104da5a108a","650c16f0f2faf8d7a0d14c09","651c1d406531011b4724a5e2","null","null","<p style=""font-size: 60px; font-family: BACS"">htmhCDOAK</p>","","","","","","","","",""
"html-keyboard-response","255","334287","0.0-14.0-0.4","607ea5504e74d104da5a108a","650c16f0f2faf8d7a0d14c09","651c1d406531011b4724a5e2","null","null","<p style=""font-size: 60px; font-family: BACS"">uQuZcUdvY</p>","","","","","","","","",""
"html-keyboard-response","256","335300","0.0-14.0-0.5","607ea5504e74d104da5a108a","650c16f0f2faf8d7a0d14c09","651c1d406531011b4724a5e2","null","null","<p style=""font-size: 60px; font-family: BACS"">bmdABDOAK</p>","","","","","","","","",""
"html-keyboard-response","257","336302","0.0-14.0-0.6","607ea5504e74d104da5a108a","650c16f0f2faf8d7a0d14c09","651c1d406531011b4724a5e2","null","null","<p style=""font-size: 60px; font-family: BACS"">kKEdMtcB</p>","","","","","","","","",""
"html-keyboard-response","258","337313","0.0-14.0-0.7","607ea5504e74d104da5a108a","650c16f0f2faf8d7a0d14c09","651c1d406531011b4724a5e2","null","null","<p style=""font-size: 60px; font-family: BACS"">EPERdcDR</p>","","","","","","","","",""
"html-keyboard-response","259","338316","0.0-14.0-0.8","607ea5504e74d104da5a108a","650c16f0f2faf8d7a0d14c09","651c1d406531011b4724a5e2","null","null","<p style=""font-size: 60px; font-family: BACS"">kKEdMhRKm</p>","","","","","","","","",""
"html-keyboard-response","260","339332","0.0-14.0-0.9","607ea5504e74d104da5a108a","650c16f0f2faf8d7a0d14c09","651c1d406531011b4724a5e2","null","null","<p style=""font-size: 60px; font-family: BACS"">bNdmGbadk</p>","","","","","","","","",""
"html-keyboard-response","261","340343","0.0-14.0-0.10","607ea5504e74d104da5a108a","650c16f0f2faf8d7a0d14c09","651c1d406531011b4724a5e2","null","null","<p style=""font-size: 60px; font-family: BACS"">htmhCcDR</p>","","","","","","","","",""
"html-keyboard-response","262","341346","0.0-14.0-0.11","607ea5504e74d104da5a108a","650c16f0f2faf8d7a0d14c09","651c1d406531011b4724a5e2","null","null","<p style=""font-size: 60px; font-family: BACS"">bNdmGUdvY</p>","","","","","","","","",""
"html-keyboard-response","263","342361","0.0-14.0-0.12","607ea5504e74d104da5a108a","650c16f0f2faf8d7a0d14c09","651c1d406531011b4724a5e2","null","null","<p style=""font-size: 60px; font-family: BACS"">TObCOcDR</p>","","","","","","","","",""
"html-keyboard-response","264","343375","0.0-14.0-0.13","607ea5504e74d104da5a108a","650c16f0f2faf8d7a0d14c09","651c1d406531011b4724a5e2","null","null","<p style=""font-size: 60px; font-family: BACS"">UAcduUdvY</p>","","","","","","","","",""
"html-keyboard-response","265","344376","0.0-14.0-0.14","607ea5504e74d104da5a108a","650c16f0f2faf8d7a0d14c09","651c1d406531011b4724a5e2","null","null","<p style=""font-size: 60px; font-family: BACS"">EPMDkPTl</p>","","","","","","","","",""
"html-keyboard-response","266","345391","0.0-14.0-0.15","607ea5504e74d104da5a108a","650c16f0f2faf8d7a0d14c09","651c1d406531011b4724a5e2","null","null","<p style=""font-size: 60px; font-family: BACS"">CtmbhRKm</p>","","","","","","","","",""
"html-keyboard-response","267","346403","0.0-14.0-0.16","607ea5504e74d104da5a108a","650c16f0f2faf8d7a0d14c09","651c1d406531011b4724a5e2","null","null","<p style=""font-size: 60px; font-family: BACS"">JdGmAZbl</p>","","","","","","","","",""
"html-keyboard-response","268","347420","0.0-14.0-0.17","607ea5504e74d104da5a108a","650c16f0f2faf8d7a0d14c09","651c1d406531011b4724a5e2","null","null","<p style=""font-size: 60px; font-family: BACS"">kKEdMPTl</p>","","","","","","","","",""
"html-keyboard-response","269","348437","0.0-14.0-0.18","607ea5504e74d104da5a108a","650c16f0f2faf8d7a0d14c09","651c1d406531011b4724a5e2","null","null","<p style=""font-size: 60px; font-family: BACS"">mLdkZAZbl</p>","","","","","","","","",""
"html-keyboard-response","270","349450","0.0-14.0-0.19","607ea5504e74d104da5a108a","650c16f0f2faf8d7a0d14c09","651c1d406531011b4724a5e2","null","null","<p style=""font-size: 60px; font-family: BACS"">BOCRMDOAK</p>","","","","","","","","",""
"html-keyboard-response","271","350451","0.0-14.0-0.20","607ea5504e74d104da5a108a","650c16f0f2faf8d7a0d14c09","651c1d406531011b4724a5e2","null","null","<p style=""font-size: 60px; font-family: BACS"">LuNZUdvY</p>","","","","","","","","",""
"html-keyboard-response","272","351466","0.0-14.0-0.21","607ea5504e74d104da5a108a","650c16f0f2faf8d7a0d14c09","651c1d406531011b4724a5e2","null","null","<p style=""font-size: 60px; font-family: BACS"">bmdABtcB</p>","","","","","","","","",""
"html-keyboard-response","273","352480","0.0-14.0-0.22","607ea5504e74d104da5a108a","650c16f0f2faf8d7a0d14c09","651c1d406531011b4724a5e2","null","null","<p style=""font-size: 60px; font-family: BACS"">YadrNUZ</p>","","","","","","","","",""
"html-keyboard-response","274","353484","0.0-14.0-0.23","607ea5504e74d104da5a108a","650c16f0f2faf8d7a0d14c09","651c1d406531011b4724a5e2","null","null","<p style=""font-size: 60px; font-family: BACS"">htmhCPTl</p>","","","","","","","","",""
"html-keyboard-response","275","354500","0.0-14.0-0.24","607ea5504e74d104da5a108a","650c16f0f2faf8d7a0d14c09","651c1d406531011b4724a5e2","null","null","<p style=""font-size: 60px; font-family: BACS"">TObCOtcB</p>","","","","","","","","",""
"html-keyboard-response","276","355513","0.0-14.0-0.25","607ea5504e74d104da5a108a","650c16f0f2faf8d7a0d14c09","651c1d406531011b4724a5e2","null","null","<p style=""font-size: 60px; font-family: BACS"">mLdkZNUZ</p>","","","","","","","","",""
"html-keyboard-response","277","356529","0.0-14.0-0.26","607ea5504e74d104da5a108a","650c16f0f2faf8d7a0d14c09","651c1d406531011b4724a5e2","null","null","<p style=""font-size: 60px; font-family: BACS"">EPMDkhRKm</p>","","","","","","","","",""
"html-keyboard-response","278","357532","0.0-14.0-0.27","607ea5504e74d104da5a108a","650c16f0f2faf8d7a0d14c09","651c1d406531011b4724a5e2","null","null","<p style=""font-size: 60px; font-family: BACS"">CtmbPTl</p>","","","","","","","","",""
"html-keyboard-response","279","358537","0.0-14.0-0.28","607ea5504e74d104da5a108a","650c16f0f2faf8d7a0d14c09","651c1d406531011b4724a5e2","null","null","<p style=""font-size: 60px; font-family: BACS"">JdGmbadk</p>","","","","","","","","",""
"html-keyboard-response","280","359543","0.0-14.0-0.29","607ea5504e74d104da5a108a","650c16f0f2faf8d7a0d14c09","651c1d406531011b4724a5e2","null","null","<p style=""font-size: 60px; font-family: BACS"">dCtMAtcB</p>","","","","","","","","",""
"html-keyboard-response","281","360551","0.0-14.0-0.30","607ea5504e74d104da5a108a","650c16f0f2faf8d7a0d14c09","651c1d406531011b4724a5e2","null","null","<p style=""font-size: 60px; font-family: BACS"">LuNZJud</p>","","","","","","","","",""
"html-keyboard-response","282","361552","0.0-14.0-0.31","607ea5504e74d104da5a108a","650c16f0f2faf8d7a0d14c09","651c1d406531011b4724a5e2","null","null","<p style=""font-size: 60px; font-family: BACS"">JdGmUdvY</p>","","","","","","","","",""
"html-keyboard-response","283","362564","0.0-14.0-0.32","607ea5504e74d104da5a108a","650c16f0f2faf8d7a0d14c09","651c1d406531011b4724a5e2","null","null","<p style=""font-size: 60px; font-family: BACS"">UAcdubadk</p>","","","","","","","","",""
"html-keyboard-response","284","363565","0.0-14.0-0.33","607ea5504e74d104da5a108a","650c16f0f2faf8d7a0d14c09","651c1d406531011b4724a5e2","null","null","<p style=""font-size: 60px; font-family: BACS"">BOCRMhRKm</p>","","","","","","","","",""
"html-keyboard-response","285","364568","0.0-14.0-0.34","607ea5504e74d104da5a108a","650c16f0f2faf8d7a0d14c09","651c1d406531011b4724a5e2","null","null","<p style=""font-size: 60px; font-family: BACS"">EPMDktcB</p>","","","","","","","","",""
"html-keyboard-response","286","365569","0.0-14.0-0.35","607ea5504e74d104da5a108a","650c16f0f2faf8d7a0d14c09","651c1d406531011b4724a5e2","null","null","<p style=""font-size: 60px; font-family: BACS"">uQuZcbadk</p>","","","","","","","","",""
"html-keyboard-response","287","366579","0.0-14.0-0.36","607ea5504e74d104da5a108a","650c16f0f2faf8d7a0d14c09","651c1d406531011b4724a5e2","null","null","<p style=""font-size: 60px; font-family: BACS"">CtmbDOAK</p>","","","","","","","","",""
"html-keyboard-response","288","367586","0.0-14.0-0.37","607ea5504e74d104da5a108a","650c16f0f2faf8d7a0d14c09","651c1d406531011b4724a5e2","null","null","<p style=""font-size: 60px; font-family: BACS"">bmdABhRKm</p>","","","","","","","","",""
"html-keyboard-response","289","368589","0.0-14.0-0.38","607ea5504e74d104da5a108a","650c16f0f2faf8d7a0d14c09","651c1d406531011b4724a5e2","null","null","<p style=""font-size: 60px; font-family: BACS"">uauOAZbl</p>","","","","","","","","",""
"html-keyboard-response","290","369599","0.0-14.0-0.39","607ea5504e74d104da5a108a","650c16f0f2faf8d7a0d14c09","651c1d406531011b4724a5e2","null","null","<p style=""font-size: 60px; font-family: BACS"">NaAQdbadk</p>","","","","","","","","",""
"html-keyboard-response","291","370614","0.0-14.0-0.40","607ea5504e74d104da5a108a","650c16f0f2faf8d7a0d14c09","651c1d406531011b4724a5e2","null","null","<p style=""font-size: 60px; font-family: BACS"">EPERdtcB</p>","","","","","","","","",""
"html-keyboard-response","292","371615","0.0-14.0-0.41","607ea5504e74d104da5a108a","650c16f0f2faf8d7a0d14c09","651c1d406531011b4724a5e2","null","null","<p style=""font-size: 60px; font-family: BACS"">mLdkZUdvY</p>","","","","","","","","",""
"html-keyboard-response","293","372631","0.0-14.0-0.42","607ea5504e74d104da5a108a","650c16f0f2faf8d7a0d14c09","651c1d406531011b4724a5e2","null","null","<p style=""font-size: 60px; font-family: BACS"">BOCRMcDR</p>","","","","","","","","",""
"html-keyboard-response","294","373646","0.0-14.0-0.43","607ea5504e74d104da5a108a","650c16f0f2faf8d7a0d14c09","651c1d406531011b4724a5e2","null","null","<p style=""font-size: 60px; font-family: BACS"">uQuZcJud</p>","","","","","","","","",""
"html-keyboard-response","295","374657","0.0-14.0-0.44","607ea5504e74d104da5a108a","650c16f0f2faf8d7a0d14c09","651c1d406531011b4724a5e2","null","null","<p style=""font-size: 60px; font-family: BACS"">kRCkOcDR</p>","","","","","","","","",""
"html-keyboard-response","296","375673","0.0-14.0-0.45","607ea5504e74d104da5a108a","650c16f0f2faf8d7a0d14c09","651c1d406531011b4724a5e2","null","null","<p style=""font-size: 60px; font-family: BACS"">NaAQdJud</p>","","","","","","","","",""
"html-keyboard-response","297","376675","0.0-14.0-0.46","607ea5504e74d104da5a108a","650c16f0f2faf8d7a0d14c09","651c1d406531011b4724a5e2","null","null","<p style=""font-size: 60px; font-family: BACS"">uauObadk</p>","","","","","","","","",""
"html-keyboard-response","298","377687","0.0-14.0-0.47","607ea5504e74d104da5a108a","650c16f0f2faf8d7a0d14c09","651c1d406531011b4724a5e2","null","null","<p style=""font-size: 60px; font-family: BACS"">kRCkODOAK</p>","","","","","","","","",""
"html-keyboard-response","299","378705","0.0-14.0-0.48","607ea5504e74d104da5a108a","650c16f0f2faf8d7a0d14c09","651c1d406531011b4724a5e2","null","null","<p style=""font-size: 60px; font-family: BACS"">UAcduNUZ</p>","","","","","","","","",""
"html-keyboard-response","300","379708","0.0-14.0-0.49","607ea5504e74d104da5a108a","650c16f0f2faf8d7a0d14c09","651c1d406531011b4724a5e2","null","null","<p style=""font-size: 60px; font-family: BACS"">TObCODOAK</p>","","","","","","","","",""
"html-keyboard-response","301","380711","0.0-14.0-0.50","607ea5504e74d104da5a108a","650c16f0f2faf8d7a0d14c09","651c1d406531011b4724a5e2","null","null","<p style=""font-size: 60px; font-family: BACS"">YadrJud</p>","","","","","","","","",""
"html-keyboard-response","302","381724","0.0-14.0-0.51","607ea5504e74d104da5a108a","650c16f0f2faf8d7a0d14c09","651c1d406531011b4724a5e2","null","null","<p style=""font-size: 60px; font-family: BACS"">htmhCtcB</p>","","","","","","","","",""
"html-keyboard-response","303","382739","0.0-14.0-0.52","607ea5504e74d104da5a108a","650c16f0f2faf8d7a0d14c09","651c1d406531011b4724a5e2","null","null","<p style=""font-size: 60px; font-family: BACS"">TObCOhRKm</p>","","","","","","","","",""
"html-keyboard-response","304","383751","0.0-14.0-0.53","607ea5504e74d104da5a108a","650c16f0f2faf8d7a0d14c09","651c1d406531011b4724a5e2","null","null","<p style=""font-size: 60px; font-family: BACS"">LuNZNUZ</p>","","","","","","","","",""
"html-keyboard-response","305","384768","0.0-14.0-0.54","607ea5504e74d104da5a108a","650c16f0f2faf8d7a0d14c09","651c1d406531011b4724a5e2","null","null","<p style=""font-size: 60px; font-family: BACS"">JdGmJud</p>","","","","","","","","",""
"html-keyboard-response","306","385772","0.0-14.0-0.55","607ea5504e74d104da5a108a","650c16f0f2faf8d7a0d14c09","651c1d406531011b4724a5e2","null","null","<p style=""font-size: 60px; font-family: BACS"">NaAQdNUZ</p>","","","","","","","","",""
"html-keyboard-response","307","386777","0.0-14.0-0.56","607ea5504e74d104da5a108a","650c16f0f2faf8d7a0d14c09","651c1d406531011b4724a5e2","null","null","<p style=""font-size: 60px; font-family: BACS"">UAcduAZbl</p>","","","","","","","","",""
"html-keyboard-response","308","387782","0.0-14.0-0.57","607ea5504e74d104da5a108a","650c16f0f2faf8d7a0d14c09","651c1d406531011b4724a5e2","null","null","<p style=""font-size: 60px; font-family: BACS"">mLdkZJud</p>","","","","","","","","",""
"html-keyboard-response","309","388786","0.0-14.0-0.58","607ea5504e74d104da5a108a","650c16f0f2faf8d7a0d14c09","651c1d406531011b4724a5e2","null","null","<p style=""font-size: 60px; font-family: BACS"">UJkGbadk</p>","","","","","","","","",""
"html-keyboard-response","310","389795","0.0-14.0-0.59","607ea5504e74d104da5a108a","650c16f0f2faf8d7a0d14c09","651c1d406531011b4724a5e2","null","null","<p style=""font-size: 60px; font-family: BACS"">uQuZcAZbl</p>","","","","","","","","",""
"html-keyboard-response","311","390810","0.0-14.0-0.60","607ea5504e74d104da5a108a","650c16f0f2faf8d7a0d14c09","651c1d406531011b4724a5e2","null","null","<p style=""font-size: 60px; font-family: BACS"">EPMDkcDR</p>","","","","","","","","",""
"html-keyboard-response","312","391823","0.0-14.0-0.61","607ea5504e74d104da5a108a","650c16f0f2faf8d7a0d14c09","651c1d406531011b4724a5e2","null","null","<p style=""font-size: 60px; font-family: BACS"">bNdmGAZbl</p>","","","","","","","","",""
"html-keyboard-response","313","392839","0.0-14.0-0.62","607ea5504e74d104da5a108a","650c16f0f2faf8d7a0d14c09","651c1d406531011b4724a5e2","null","null","<p style=""font-size: 60px; font-family: BACS"">YadrUdvY</p>","","","","","","","","",""
"html-keyboard-response","314","393852","0.0-14.0-0.63","607ea5504e74d104da5a108a","650c16f0f2faf8d7a0d14c09","651c1d406531011b4724a5e2","null","null","<p style=""font-size: 60px; font-family: BACS"">NaAQdAZbl</p>","","","","","","","","",""
"html-keyboard-response","315","394869","0.0-14.0-0.64","607ea5504e74d104da5a108a","650c16f0f2faf8d7a0d14c09","651c1d406531011b4724a5e2","null","null","<p style=""font-size: 60px; font-family: BACS"">UJkGUdvY</p>","","","","","","","","",""
"html-keyboard-response","316","395870","0.0-14.0-0.65","607ea5504e74d104da5a108a","650c16f0f2faf8d7a0d14c09","651c1d406531011b4724a5e2","null","null","<p style=""font-size: 60px; font-family: BACS"">EPERdPTl</p>","","","","","","","","",""
"html-keyboard-response","317","396884","0.0-14.0-0.66","607ea5504e74d104da5a108a","650c16f0f2faf8d7a0d14c09","651c1d406531011b4724a5e2","null","null","<p style=""font-size: 60px; font-family: BACS"">uauOJud</p>","","","","","","","","",""
"html-keyboard-response","318","397897","0.0-14.0-0.67","607ea5504e74d104da5a108a","650c16f0f2faf8d7a0d14c09","651c1d406531011b4724a5e2","null","null","<p style=""font-size: 60px; font-family: BACS"">UJkGNUZ</p>","","","","","","","","",""
"html-keyboard-response","319","398914","0.0-14.0-0.68","607ea5504e74d104da5a108a","650c16f0f2faf8d7a0d14c09","651c1d406531011b4724a5e2","null","null","<p style=""font-size: 60px; font-family: BACS"">Yadrbadk</p>","","","","","","","","",""
"html-keyboard-response","320","399930","0.0-14.0-0.69","607ea5504e74d104da5a108a","650c16f0f2faf8d7a0d14c09","651c1d406531011b4724a5e2","null","null","<p style=""font-size: 60px; font-family: BACS"">dCtMAPTl</p>","","","","","","","","",""
"html-keyboard-response","321","400947","0.0-14.0-0.70","607ea5504e74d104da5a108a","650c16f0f2faf8d7a0d14c09","651c1d406531011b4724a5e2","null","null","<p style=""font-size: 60px; font-family: BACS"">LuNZAZbl</p>","","","","","","","","",""
"html-keyboard-response","322","401962","0.0-14.0-0.71","607ea5504e74d104da5a108a","650c16f0f2faf8d7a0d14c09","651c1d406531011b4724a5e2","null","null","<p style=""font-size: 60px; font-family: BACS"">uauONUZ</p>","","","","","","","","",""
"html-keyboard-response","323","402976","0.0-14.0-0.72","607ea5504e74d104da5a108a","650c16f0f2faf8d7a0d14c09","651c1d406531011b4724a5e2","null","null","<p style=""font-size: 60px; font-family: BACS"">bmdABPTl</p>","","","","","","","","",""
"html-keyboard-response","324","403989","0.0-14.0-0.73","607ea5504e74d104da5a108a","650c16f0f2faf8d7a0d14c09","651c1d406531011b4724a5e2","null","null","<p style=""font-size: 60px; font-family: BACS"">bNdmGNUZ</p>","","","","","","","","",""
"html-keyboard-response","325","405002","0.0-14.0-0.74","607ea5504e74d104da5a108a","650c16f0f2faf8d7a0d14c09","651c1d406531011b4724a5e2","null","null","<p style=""font-size: 60px; font-family: BACS"">BOCRMtcB</p>","","","","","","","","",""
"html-keyboard-response","326","406005","0.0-14.0-0.75","607ea5504e74d104da5a108a","650c16f0f2faf8d7a0d14c09","651c1d406531011b4724a5e2","null","null","<p style=""font-size: 60px; font-family: BACS"">dCtMAcDR</p>","","","","","","","","",""
"html-keyboard-response","327","407007","0.0-14.0-0.76","607ea5504e74d104da5a108a","650c16f0f2faf8d7a0d14c09","651c1d406531011b4724a5e2","null","null","<p style=""font-size: 60px; font-family: BACS"">kKEdMDOAK</p>","","","","","","","","",""
"html-keyboard-response","328","408022","0.0-14.0-0.77","607ea5504e74d104da5a108a","650c16f0f2faf8d7a0d14c09","651c1d406531011b4724a5e2","null","null","<p style=""font-size: 60px; font-family: BACS"">EPERdhRKm</p>","","","","","","","","",""
"html-keyboard-response","329","409038","0.0-14.0-0.78","607ea5504e74d104da5a108a","650c16f0f2faf8d7a0d14c09","651c1d406531011b4724a5e2","null","null","<p style=""font-size: 60px; font-family: BACS"">kRCkOPTl</p>","","","","","","","","",""
"html-keyboard-response","330","410043","0.0-14.0-0.79","607ea5504e74d104da5a108a","650c16f0f2faf8d7a0d14c09","651c1d406531011b4724a5e2","null","null","<p style=""font-size: 60px; font-family: BACS"">dCtMADOAK</p>","","","","","","","","",""
"html-keyboard-response","331","411668","0.0-15.0","607ea5504e74d104da5a108a","650c16f0f2faf8d7a0d14c09","651c1d406531011b4724a5e2","1624"," ","<p>Great, you've seen the fourth block of words. You may now take a short break.</p>
      <p>Press the spacebar when you're ready to continue.</p>","","","","","","","","",""
"html-keyboard-response","332","412682","0.0-16.0-0.0","607ea5504e74d104da5a108a","650c16f0f2faf8d7a0d14c09","651c1d406531011b4724a5e2","null","null","<p style=""font-size: 60px; font-family: BACS"">Yadrbadk</p>","","","","","","","","",""
"html-keyboard-response","333","413687","0.0-16.0-0.1","607ea5504e74d104da5a108a","650c16f0f2faf8d7a0d14c09","651c1d406531011b4724a5e2","null","null","<p style=""font-size: 60px; font-family: BACS"">Yadrbadk</p>","","","","","","","","",""
"html-keyboard-response","334","414690","0.0-16.0-0.2","607ea5504e74d104da5a108a","650c16f0f2faf8d7a0d14c09","651c1d406531011b4724a5e2","null","null","<p style=""font-size: 60px; font-family: BACS"">Yadrbadk</p>","","","","","","","","",""
"html-keyboard-response","335","415695","0.0-16.0-0.3","607ea5504e74d104da5a108a","650c16f0f2faf8d7a0d14c09","651c1d406531011b4724a5e2","null","null","<p style=""font-size: 60px; font-family: BACS"">Yadrbadk</p>","","","","","","","","",""
"html-keyboard-response","336","416697","0.0-16.0-0.4","607ea5504e74d104da5a108a","650c16f0f2faf8d7a0d14c09","651c1d406531011b4724a5e2","null","null","<p style=""font-size: 60px; font-family: BACS"">Yadrbadk</p>","","","","","","","","",""
"html-keyboard-response","337","417702","0.0-16.0-0.5","607ea5504e74d104da5a108a","650c16f0f2faf8d7a0d14c09","651c1d406531011b4724a5e2","null","null","<p style=""font-size: 60px; font-family: BACS"">Yadrbadk</p>","","","","","","","","",""
"html-keyboard-response","338","418715","0.0-16.0-0.6","607ea5504e74d104da5a108a","650c16f0f2faf8d7a0d14c09","651c1d406531011b4724a5e2","null","null","<p style=""font-size: 60px; font-family: BACS"">Yadrbadk</p>","","","","","","","","",""
"html-keyboard-response","339","419717","0.0-16.0-0.7","607ea5504e74d104da5a108a","650c16f0f2faf8d7a0d14c09","651c1d406531011b4724a5e2","null","null","<p style=""font-size: 60px; font-family: BACS"">Yadrbadk</p>","","","","","","","","",""
"html-keyboard-response","340","420722","0.0-16.0-0.8","607ea5504e74d104da5a108a","650c16f0f2faf8d7a0d14c09","651c1d406531011b4724a5e2","null","null","<p style=""font-size: 60px; font-family: BACS"">Yadrbadk</p>","","","","","","","","",""
"html-keyboard-response","341","421738","0.0-16.0-0.9","607ea5504e74d104da5a108a","650c16f0f2faf8d7a0d14c09","651c1d406531011b4724a5e2","null","null","<p style=""font-size: 60px; font-family: BACS"">Yadrbadk</p>","","","","","","","","",""
"html-keyboard-response","342","422752","0.0-16.0-0.10","607ea5504e74d104da5a108a","650c16f0f2faf8d7a0d14c09","651c1d406531011b4724a5e2","null","null","<p style=""font-size: 60px; font-family: BACS"">Yadrbadk</p>","","","","","","","","",""
"html-keyboard-response","343","423756","0.0-16.0-0.11","607ea5504e74d104da5a108a","650c16f0f2faf8d7a0d14c09","651c1d406531011b4724a5e2","null","null","<p style=""font-size: 60px; font-family: BACS"">Yadrbadk</p>","","","","","","","","",""
"html-keyboard-response","344","424759","0.0-16.0-0.12","607ea5504e74d104da5a108a","650c16f0f2faf8d7a0d14c09","651c1d406531011b4724a5e2","null","null","<p style=""font-size: 60px; font-family: BACS"">Yadrbadk</p>","","","","","","","","",""
"html-keyboard-response","345","425765","0.0-16.0-0.13","607ea5504e74d104da5a108a","650c16f0f2faf8d7a0d14c09","651c1d406531011b4724a5e2","null","null","<p style=""font-size: 60px; font-family: BACS"">Yadrbadk</p>","","","","","","","","",""
"html-keyboard-response","346","426770","0.0-16.0-0.14","607ea5504e74d104da5a108a","650c16f0f2faf8d7a0d14c09","651c1d406531011b4724a5e2","null","null","<p style=""font-size: 60px; font-family: BACS"">Yadrbadk</p>","","","","","","","","",""
"html-keyboard-response","347","427787","0.0-16.0-0.15","607ea5504e74d104da5a108a","650c16f0f2faf8d7a0d14c09","651c1d406531011b4724a5e2","null","null","<p style=""font-size: 60px; font-family: BACS"">Yadrbadk</p>","","","","","","","","",""
"html-keyboard-response","348","428790","0.0-16.0-0.16","607ea5504e74d104da5a108a","650c16f0f2faf8d7a0d14c09","651c1d406531011b4724a5e2","null","null","<p style=""font-size: 60px; font-family: BACS"">Yadrbadk</p>","","","","","","","","",""
"html-keyboard-response","349","429793","0.0-16.0-0.17","607ea5504e74d104da5a108a","650c16f0f2faf8d7a0d14c09","651c1d406531011b4724a5e2","null","null","<p style=""font-size: 60px; font-family: BACS"">Yadrbadk</p>","","","","","","","","",""
"html-keyboard-response","350","430798","0.0-16.0-0.18","607ea5504e74d104da5a108a","650c16f0f2faf8d7a0d14c09","651c1d406531011b4724a5e2","null","null","<p style=""font-size: 60px; font-family: BACS"">Yadrbadk</p>","","","","","","","","",""
"html-keyboard-response","351","431813","0.0-16.0-0.19","607ea5504e74d104da5a108a","650c16f0f2faf8d7a0d14c09","651c1d406531011b4724a5e2","null","null","<p style=""font-size: 60px; font-family: BACS"">Yadrbadk</p>","","","","","","","","",""
"html-keyboard-response","352","432820","0.0-16.0-0.20","607ea5504e74d104da5a108a","650c16f0f2faf8d7a0d14c09","651c1d406531011b4724a5e2","null","null","<p style=""font-size: 60px; font-family: BACS"">Yadrbadk</p>","","","","","","","","",""
"html-keyboard-response","353","433834","0.0-16.0-0.21","607ea5504e74d104da5a108a","650c16f0f2faf8d7a0d14c09","651c1d406531011b4724a5e2","null","null","<p style=""font-size: 60px; font-family: BACS"">Yadrbadk</p>","","","","","","","","",""
"html-keyboard-response","354","434847","0.0-16.0-0.22","607ea5504e74d104da5a108a","650c16f0f2faf8d7a0d14c09","651c1d406531011b4724a5e2","null","null","<p style=""font-size: 60px; font-family: BACS"">Yadrbadk</p>","","","","","","","","",""
"html-keyboard-response","355","435857","0.0-16.0-0.23","607ea5504e74d104da5a108a","650c16f0f2faf8d7a0d14c09","651c1d406531011b4724a5e2","null","null","<p style=""font-size: 60px; font-family: BACS"">Yadrbadk</p>","","","","","","","","",""
"html-keyboard-response","356","436862","0.0-16.0-0.24","607ea5504e74d104da5a108a","650c16f0f2faf8d7a0d14c09","651c1d406531011b4724a5e2","null","null","<p style=""font-size: 60px; font-family: BACS"">Yadrbadk</p>","","","","","","","","",""
"html-keyboard-response","357","437875","0.0-16.0-0.25","607ea5504e74d104da5a108a","650c16f0f2faf8d7a0d14c09","651c1d406531011b4724a5e2","null","null","<p style=""font-size: 60px; font-family: BACS"">Yadrbadk</p>","","","","","","","","",""
"html-keyboard-response","358","438891","0.0-16.0-0.26","607ea5504e74d104da5a108a","650c16f0f2faf8d7a0d14c09","651c1d406531011b4724a5e2","null","null","<p style=""font-size: 60px; font-family: BACS"">Yadrbadk</p>","","","","","","","","",""
"html-keyboard-response","359","439904","0.0-16.0-0.27","607ea5504e74d104da5a108a","650c16f0f2faf8d7a0d14c09","651c1d406531011b4724a5e2","null","null","<p style=""font-size: 60px; font-family: BACS"">Yadrbadk</p>","","","","","","","","",""
"html-keyboard-response","360","440920","0.0-16.0-0.28","607ea5504e74d104da5a108a","650c16f0f2faf8d7a0d14c09","651c1d406531011b4724a5e2","null","null","<p style=""font-size: 60px; font-family: BACS"">Yadrbadk</p>","","","","","","","","",""
"html-keyboard-response","361","441930","0.0-16.0-0.29","607ea5504e74d104da5a108a","650c16f0f2faf8d7a0d14c09","651c1d406531011b4724a5e2","null","null","<p style=""font-size: 60px; font-family: BACS"">Yadrbadk</p>","","","","","","","","",""
"html-keyboard-response","362","442946","0.0-16.0-0.30","607ea5504e74d104da5a108a","650c16f0f2faf8d7a0d14c09","651c1d406531011b4724a5e2","null","null","<p style=""font-size: 60px; font-family: BACS"">Yadrbadk</p>","","","","","","","","",""
"html-keyboard-response","363","443948","0.0-16.0-0.31","607ea5504e74d104da5a108a","650c16f0f2faf8d7a0d14c09","651c1d406531011b4724a5e2","null","null","<p style=""font-size: 60px; font-family: BACS"">Yadrbadk</p>","","","","","","","","",""
"html-keyboard-response","364","444952","0.0-16.0-0.32","607ea5504e74d104da5a108a","650c16f0f2faf8d7a0d14c09","651c1d406531011b4724a5e2","null","null","<p style=""font-size: 60px; font-family: BACS"">Yadrbadk</p>","","","","","","","","",""
"html-keyboard-response","365","445964","0.0-16.0-0.33","607ea5504e74d104da5a108a","650c16f0f2faf8d7a0d14c09","651c1d406531011b4724a5e2","null","null","<p style=""font-size: 60px; font-family: BACS"">Yadrbadk</p>","","","","","","","","",""
"html-keyboard-response","366","446967","0.0-16.0-0.34","607ea5504e74d104da5a108a","650c16f0f2faf8d7a0d14c09","651c1d406531011b4724a5e2","null","null","<p style=""font-size: 60px; font-family: BACS"">Yadrbadk</p>","","","","","","","","",""
"html-keyboard-response","367","447975","0.0-16.0-0.35","607ea5504e74d104da5a108a","650c16f0f2faf8d7a0d14c09","651c1d406531011b4724a5e2","null","null","<p style=""font-size: 60px; font-family: BACS"">Yadrbadk</p>","","","","","","","","",""
"html-keyboard-response","368","448980","0.0-16.0-0.36","607ea5504e74d104da5a108a","650c16f0f2faf8d7a0d14c09","651c1d406531011b4724a5e2","null","null","<p style=""font-size: 60px; font-family: BACS"">Yadrbadk</p>","","","","","","","","",""
"html-keyboard-response","369","449995","0.0-16.0-0.37","607ea5504e74d104da5a108a","650c16f0f2faf8d7a0d14c09","651c1d406531011b4724a5e2","null","null","<p style=""font-size: 60px; font-family: BACS"">Yadrbadk</p>","","","","","","","","",""
"html-keyboard-response","370","451000","0.0-16.0-0.38","607ea5504e74d104da5a108a","650c16f0f2faf8d7a0d14c09","651c1d406531011b4724a5e2","null","null","<p style=""font-size: 60px; font-family: BACS"">Yadrbadk</p>","","","","","","","","",""
"html-keyboard-response","371","452012","0.0-16.0-0.39","607ea5504e74d104da5a108a","650c16f0f2faf8d7a0d14c09","651c1d406531011b4724a5e2","null","null","<p style=""font-size: 60px; font-family: BACS"">Yadrbadk</p>","","","","","","","","",""
"html-keyboard-response","372","453023","0.0-16.0-0.40","607ea5504e74d104da5a108a","650c16f0f2faf8d7a0d14c09","651c1d406531011b4724a5e2","null","null","<p style=""font-size: 60px; font-family: BACS"">Yadrbadk</p>","","","","","","","","",""
"html-keyboard-response","373","454026","0.0-16.0-0.41","607ea5504e74d104da5a108a","650c16f0f2faf8d7a0d14c09","651c1d406531011b4724a5e2","null","null","<p style=""font-size: 60px; font-family: BACS"">Yadrbadk</p>","","","","","","","","",""
"html-keyboard-response","374","455040","0.0-16.0-0.42","607ea5504e74d104da5a108a","650c16f0f2faf8d7a0d14c09","651c1d406531011b4724a5e2","null","null","<p style=""font-size: 60px; font-family: BACS"">Yadrbadk</p>","","","","","","","","",""
"html-keyboard-response","375","456054","0.0-16.0-0.43","607ea5504e74d104da5a108a","650c16f0f2faf8d7a0d14c09","651c1d406531011b4724a5e2","null","null","<p style=""font-size: 60px; font-family: BACS"">Yadrbadk</p>","","","","","","","","",""
"html-keyboard-response","376","457070","0.0-16.0-0.44","607ea5504e74d104da5a108a","650c16f0f2faf8d7a0d14c09","651c1d406531011b4724a5e2","null","null","<p style=""font-size: 60px; font-family: BACS"">Yadrbadk</p>","","","","","","","","",""
"html-keyboard-response","377","458078","0.0-16.0-0.45","607ea5504e74d104da5a108a","650c16f0f2faf8d7a0d14c09","651c1d406531011b4724a5e2","null","null","<p style=""font-size: 60px; font-family: BACS"">Yadrbadk</p>","","","","","","","","",""
"html-keyboard-response","378","459095","0.0-16.0-0.46","607ea5504e74d104da5a108a","650c16f0f2faf8d7a0d14c09","651c1d406531011b4724a5e2","null","null","<p style=""font-size: 60px; font-family: BACS"">Yadrbadk</p>","","","","","","","","",""
"html-keyboard-response","379","460097","0.0-16.0-0.47","607ea5504e74d104da5a108a","650c16f0f2faf8d7a0d14c09","651c1d406531011b4724a5e2","null","null","<p style=""font-size: 60px; font-family: BACS"">Yadrbadk</p>","","","","","","","","",""
"html-keyboard-response","380","461112","0.0-16.0-0.48","607ea5504e74d104da5a108a","650c16f0f2faf8d7a0d14c09","651c1d406531011b4724a5e2","null","null","<p style=""font-size: 60px; font-family: BACS"">Yadrbadk</p>","","","","","","","","",""
"html-keyboard-response","381","462130","0.0-16.0-0.49","607ea5504e74d104da5a108a","650c16f0f2faf8d7a0d14c09","651c1d406531011b4724a5e2","null","null","<p style=""font-size: 60px; font-family: BACS"">Yadrbadk</p>","","","","","","","","",""
"html-keyboard-response","382","463145","0.0-16.0-0.50","607ea5504e74d104da5a108a","650c16f0f2faf8d7a0d14c09","651c1d406531011b4724a5e2","null","null","<p style=""font-size: 60px; font-family: BACS"">Yadrbadk</p>","","","","","","","","",""
"html-keyboard-response","383","464148","0.0-16.0-0.51","607ea5504e74d104da5a108a","650c16f0f2faf8d7a0d14c09","651c1d406531011b4724a5e2","null","null","<p style=""font-size: 60px; font-family: BACS"">Yadrbadk</p>","","","","","","","","",""
"html-keyboard-response","384","465151","0.0-16.0-0.52","607ea5504e74d104da5a108a","650c16f0f2faf8d7a0d14c09","651c1d406531011b4724a5e2","null","null","<p style=""font-size: 60px; font-family: BACS"">Yadrbadk</p>","","","","","","","","",""
"html-keyboard-response","385","466155","0.0-16.0-0.53","607ea5504e74d104da5a108a","650c16f0f2faf8d7a0d14c09","651c1d406531011b4724a5e2","null","null","<p style=""font-size: 60px; font-family: BACS"">Yadrbadk</p>","","","","","","","","",""
"html-keyboard-response","386","467158","0.0-16.0-0.54","607ea5504e74d104da5a108a","650c16f0f2faf8d7a0d14c09","651c1d406531011b4724a5e2","null","null","<p style=""font-size: 60px; font-family: BACS"">Yadrbadk</p>","","","","","","","","",""
"html-keyboard-response","387","468173","0.0-16.0-0.55","607ea5504e74d104da5a108a","650c16f0f2faf8d7a0d14c09","651c1d406531011b4724a5e2","null","null","<p style=""font-size: 60px; font-family: BACS"">Yadrbadk</p>","","","","","","","","",""
"html-keyboard-response","388","469177","0.0-16.0-0.56","607ea5504e74d104da5a108a","650c16f0f2faf8d7a0d14c09","651c1d406531011b4724a5e2","null","null","<p style=""font-size: 60px; font-family: BACS"">Yadrbadk</p>","","","","","","","","",""
"html-keyboard-response","389","470187","0.0-16.0-0.57","607ea5504e74d104da5a108a","650c16f0f2faf8d7a0d14c09","651c1d406531011b4724a5e2","null","null","<p style=""font-size: 60px; font-family: BACS"">Yadrbadk</p>","","","","","","","","",""
"html-keyboard-response","390","471201","0.0-16.0-0.58","607ea5504e74d104da5a108a","650c16f0f2faf8d7a0d14c09","651c1d406531011b4724a5e2","null","null","<p style=""font-size: 60px; font-family: BACS"">Yadrbadk</p>","","","","","","","","",""
"html-keyboard-response","391","472203","0.0-16.0-0.59","607ea5504e74d104da5a108a","650c16f0f2faf8d7a0d14c09","651c1d406531011b4724a5e2","null","null","<p style=""font-size: 60px; font-family: BACS"">Yadrbadk</p>","","","","","","","","",""
"html-keyboard-response","392","473214","0.0-16.0-0.60","607ea5504e74d104da5a108a","650c16f0f2faf8d7a0d14c09","651c1d406531011b4724a5e2","null","null","<p style=""font-size: 60px; font-family: BACS"">Yadrbadk</p>","","","","","","","","",""
"html-keyboard-response","393","474219","0.0-16.0-0.61","607ea5504e74d104da5a108a","650c16f0f2faf8d7a0d14c09","651c1d406531011b4724a5e2","null","null","<p style=""font-size: 60px; font-family: BACS"">Yadrbadk</p>","","","","","","","","",""
"html-keyboard-response","394","475228","0.0-16.0-0.62","607ea5504e74d104da5a108a","650c16f0f2faf8d7a0d14c09","651c1d406531011b4724a5e2","null","null","<p style=""font-size: 60px; font-family: BACS"">Yadrbadk</p>","","","","","","","","",""
"html-keyboard-response","395","476230","0.0-16.0-0.63","607ea5504e74d104da5a108a","650c16f0f2faf8d7a0d14c09","651c1d406531011b4724a5e2","null","null","<p style=""font-size: 60px; font-family: BACS"">Yadrbadk</p>","","","","","","","","",""
"html-keyboard-response","396","477233","0.0-16.0-0.64","607ea5504e74d104da5a108a","650c16f0f2faf8d7a0d14c09","651c1d406531011b4724a5e2","null","null","<p style=""font-size: 60px; font-family: BACS"">Yadrbadk</p>","","","","","","","","",""
"html-keyboard-response","397","478236","0.0-16.0-0.65","607ea5504e74d104da5a108a","650c16f0f2faf8d7a0d14c09","651c1d406531011b4724a5e2","null","null","<p style=""font-size: 60px; font-family: BACS"">Yadrbadk</p>","","","","","","","","",""
"html-keyboard-response","398","479240","0.0-16.0-0.66","607ea5504e74d104da5a108a","650c16f0f2faf8d7a0d14c09","651c1d406531011b4724a5e2","null","null","<p style=""font-size: 60px; font-family: BACS"">Yadrbadk</p>","","","","","","","","",""
