"trial_type","trial_index","time_elapsed","internal_node_id","subject_id","study_id","session_id","rt","response","stimulus","success","item","task","correct_response","testing_condition","correct","target","confound","name"
"pavlovia","0","984","0.0-0.0","5ee25b060f0ccf35b31431af","64e77d7b61f440b60e28659d","64ecab5b62184951e3f361b6","","","","","","","","","","","",""
"survey-html-form","1","16126","0.0-1.0","5ee25b060f0ccf35b31431af","64e77d7b61f440b60e28659d","64ecab5b62184951e3f361b6","15140","{""ID"":""5ee25b060f0ccf35b31431af""}","","","","","","","","","",""
"html-keyboard-response","2","64466","0.0-2.0","5ee25b060f0ccf35b31431af","64e77d7b61f440b60e28659d","64ecab5b62184951e3f361b6","48339"," ","<p style=""font-size: 15px;"">Before beginning, we ask that you read the consent information and confirm your agreement to participate in the experiment.</p>
      <p style=""font-size: 15px;""> We ask that you remember that this is a research project and that your participation is entirely voluntary. You can stop your participation at any time, without needing to provide any explanation. The study we're asking you to participate in aims at examining how readers process written words. You will be engaged in a session of apprximately 20 minutes, followed by a brief questionnaire. You will have the opportunity to take a few breaks during the experiment. You will be paid £4 for your participation, corresponding to a rate of £8/hour. While this experiment looks at cognitive faculties, this experiment doesn't constitute clinical proof of eventual pathologies.</p>
      <p style=""font-size: 15px;"">All of the information collected thanks to yours and others' participation will be held in a secure password-protected server, and will not be shared with anyone not authorised to view it. Your personal information will be kept with an arbitrary participant ID. Thanks to this data anonymity process, any researcher analysing the data won't be able to track the information back to a specific participant. Therefore, this process will make identifying you impossibile, even when results from the study will be published in scientific reviews, presented at congresses, or at any other public forum. More generally, the collected data will be treated in accordance with the laws on privacy and conformity to the Legislative Degree n. 196 ""Code regarding the protection of personal data"" of the 30th of June 2003 and to the European Regulation 2016/670 (General Data Protection Regulation - GDPR). The Data Protection Officer is Avv. Valentina Carollo, who can be contacted at the following email addresses: <a href=""mailto:dpo@sissa.it"">dpo@sissa.it</a> or <a href=""mailto:rpd@sissa.it"">rpd@sissa.it</a> - PEC: <a href=""mailto:protocollo@pec.sissa.it"">protocollo@pec.sissa.it</a>.</p>
      <p style=""font-size: 15px;""> Before expressing your consent to participate, we would like to remind you again that in case you need explanations on any aspect of the experimental procedure, the researcher is at your disposition (<a href=""mailto:aliebelt@sissa.it"">aliebelt@sissa.it</a>, <a href=""mailto:davide.crepaldi@sissa.it"">davide.crepaldi@sissa.it</a>).</p>
      <p style=""font-size: 15px;"">If you would like to download the informed consent form, you can do so here: <a href=""BASL-Informed_Consent.pdf"" download>informed consent form</a>.</p>
      <p style=""font-size: 15px;"">We ask that you press the spacebar to proceed to the consent section.</p>","","","","","","","","",""
"survey-html-form","3","76991","0.0-3.0","5ee25b060f0ccf35b31431af","64e77d7b61f440b60e28659d","64ecab5b62184951e3f361b6","12523","{""consent1"":""YES"",""consent2"":""YES"",""consent3"":""YES"",""consent4"":""YES"",""consent5"":""YES"",""consent6"":""YES""}","","","","","","","","","",""
"fullscreen","4","84753","0.0-4.0","5ee25b060f0ccf35b31431af","64e77d7b61f440b60e28659d","64ecab5b62184951e3f361b6","","","","true","","","","","","","",""
"html-keyboard-response","5","108614","0.0-5.0","5ee25b060f0ccf35b31431af","64e77d7b61f440b60e28659d","64ecab5b62184951e3f361b6","23860"," ","<p>Welcome, and thank you very much for your time!</p>
      <p>In this experiment, you'll be a language expert who's been asked to take a look at words that Earth has received in its first communication with aliens. Your task, in this first part of the experiment, is to pay close attention to the words you'll be shown; later, world leaders will ask you questions on what you saw. The words will be shown to you quite quickly; it seems that the aliens were in a hurry :-)</p>
      <p>Press the spacebar to continue.<p>","","","","","","","","",""
"html-keyboard-response","6","118193","0.0-6.0","5ee25b060f0ccf35b31431af","64e77d7b61f440b60e28659d","64ecab5b62184951e3f361b6","9578"," ","<p>Here is an example of the words you'll see:</p>
      <img src='esempio.png' height='400px'>
      <p>When you're ready to begin, press the spacebar.</p></div>","","","","","","","","",""
"html-keyboard-response","7","119213","0.0-7.0-0.0","5ee25b060f0ccf35b31431af","64e77d7b61f440b60e28659d","64ecab5b62184951e3f361b6","null","null","<p style=""font-size: 60px; font-family: BACS"">dkLlLaA</p>","","","","","","","","",""
"html-keyboard-response","8","120227","0.0-7.0-0.1","5ee25b060f0ccf35b31431af","64e77d7b61f440b60e28659d","64ecab5b62184951e3f361b6","null","null","<p style=""font-size: 60px; font-family: BACS"">tRPDYBO</p>","","","","","","","","",""
"html-keyboard-response","9","121243","0.0-7.0-0.2","5ee25b060f0ccf35b31431af","64e77d7b61f440b60e28659d","64ecab5b62184951e3f361b6","null","null","<p style=""font-size: 60px; font-family: BACS"">ldAaOJNk</p>","","","","","","","","",""
"html-keyboard-response","10","122254","0.0-7.0-0.3","5ee25b060f0ccf35b31431af","64e77d7b61f440b60e28659d","64ecab5b62184951e3f361b6","null","null","<p style=""font-size: 60px; font-family: BACS"">tRPDTbk</p>","","","","","","","","",""
"html-keyboard-response","11","123266","0.0-7.0-0.4","5ee25b060f0ccf35b31431af","64e77d7b61f440b60e28659d","64ecab5b62184951e3f361b6","null","null","<p style=""font-size: 60px; font-family: BACS"">cAZuOJNk</p>","","","","","","","","",""
"html-keyboard-response","12","124269","0.0-7.0-0.5","5ee25b060f0ccf35b31431af","64e77d7b61f440b60e28659d","64ecab5b62184951e3f361b6","null","null","<p style=""font-size: 60px; font-family: BACS"">EhRmYBO</p>","","","","","","","","",""
"html-keyboard-response","13","125269","0.0-7.0-0.6","5ee25b060f0ccf35b31431af","64e77d7b61f440b60e28659d","64ecab5b62184951e3f361b6","null","null","<p style=""font-size: 60px; font-family: BACS"">dRbDbkDOm</p>","","","","","","","","",""
"html-keyboard-response","14","126276","0.0-7.0-0.7","5ee25b060f0ccf35b31431af","64e77d7b61f440b60e28659d","64ecab5b62184951e3f361b6","null","null","<p style=""font-size: 60px; font-family: BACS"">kNuaLaA</p>","","","","","","","","",""
"html-keyboard-response","15","127278","0.0-7.0-0.8","5ee25b060f0ccf35b31431af","64e77d7b61f440b60e28659d","64ecab5b62184951e3f361b6","null","null","<p style=""font-size: 60px; font-family: BACS"">BOCRMCdt</p>","","","","","","","","",""
"html-keyboard-response","16","128292","0.0-7.0-0.9","5ee25b060f0ccf35b31431af","64e77d7b61f440b60e28659d","64ecab5b62184951e3f361b6","null","null","<p style=""font-size: 60px; font-family: BACS"">EhRmkDOm</p>","","","","","","","","",""
"html-keyboard-response","17","129303","0.0-7.0-0.10","5ee25b060f0ccf35b31431af","64e77d7b61f440b60e28659d","64ecab5b62184951e3f361b6","null","null","<p style=""font-size: 60px; font-family: BACS"">AbKDEKBO</p>","","","","","","","","",""
"html-keyboard-response","18","130308","0.0-7.0-0.11","5ee25b060f0ccf35b31431af","64e77d7b61f440b60e28659d","64ecab5b62184951e3f361b6","null","null","<p style=""font-size: 60px; font-family: BACS"">aYaNmLJ</p>","","","","","","","","",""
"html-keyboard-response","19","131320","0.0-7.0-0.12","5ee25b060f0ccf35b31431af","64e77d7b61f440b60e28659d","64ecab5b62184951e3f361b6","null","null","<p style=""font-size: 60px; font-family: BACS"">vJabOcN</p>","","","","","","","","",""
"html-keyboard-response","20","132332","0.0-7.0-0.13","5ee25b060f0ccf35b31431af","64e77d7b61f440b60e28659d","64ecab5b62184951e3f361b6","null","null","<p style=""font-size: 60px; font-family: BACS"">ldAakmU</p>","","","","","","","","",""
"html-keyboard-response","21","133334","0.0-7.0-0.14","5ee25b060f0ccf35b31431af","64e77d7b61f440b60e28659d","64ecab5b62184951e3f361b6","null","null","<p style=""font-size: 60px; font-family: BACS"">TdmACdt</p>","","","","","","","","",""
"html-keyboard-response","22","134346","0.0-7.0-0.15","5ee25b060f0ccf35b31431af","64e77d7b61f440b60e28659d","64ecab5b62184951e3f361b6","null","null","<p style=""font-size: 60px; font-family: BACS"">ldAamLJ</p>","","","","","","","","",""
"html-keyboard-response","23","135359","0.0-7.0-0.16","5ee25b060f0ccf35b31431af","64e77d7b61f440b60e28659d","64ecab5b62184951e3f361b6","null","null","<p style=""font-size: 60px; font-family: BACS"">EhRmTbk</p>","","","","","","","","",""
"html-keyboard-response","24","136367","0.0-7.0-0.17","5ee25b060f0ccf35b31431af","64e77d7b61f440b60e28659d","64ecab5b62184951e3f361b6","null","null","<p style=""font-size: 60px; font-family: BACS"">kGamNOJNk</p>","","","","","","","","",""
"html-keyboard-response","25","137370","0.0-7.0-0.18","5ee25b060f0ccf35b31431af","64e77d7b61f440b60e28659d","64ecab5b62184951e3f361b6","null","null","<p style=""font-size: 60px; font-family: BACS"">AbKDYBO</p>","","","","","","","","",""
"html-keyboard-response","26","138371","0.0-7.0-0.19","5ee25b060f0ccf35b31431af","64e77d7b61f440b60e28659d","64ecab5b62184951e3f361b6","null","null","<p style=""font-size: 60px; font-family: BACS"">COTKTbk</p>","","","","","","","","",""
"html-keyboard-response","27","139385","0.0-7.0-0.20","5ee25b060f0ccf35b31431af","64e77d7b61f440b60e28659d","64ecab5b62184951e3f361b6","null","null","<p style=""font-size: 60px; font-family: BACS"">cRElDkDOm</p>","","","","","","","","",""
"html-keyboard-response","28","140388","0.0-7.0-0.21","5ee25b060f0ccf35b31431af","64e77d7b61f440b60e28659d","64ecab5b62184951e3f361b6","null","null","<p style=""font-size: 60px; font-family: BACS"">BOCRMYBO</p>","","","","","","","","",""
"html-keyboard-response","29","141398","0.0-7.0-0.22","5ee25b060f0ccf35b31431af","64e77d7b61f440b60e28659d","64ecab5b62184951e3f361b6","null","null","<p style=""font-size: 60px; font-family: BACS"">vJabOJNk</p>","","","","","","","","",""
"html-keyboard-response","30","142411","0.0-7.0-0.23","5ee25b060f0ccf35b31431af","64e77d7b61f440b60e28659d","64ecab5b62184951e3f361b6","null","null","<p style=""font-size: 60px; font-family: BACS"">kNuamLJ</p>","","","","","","","","",""
"html-keyboard-response","31","143418","0.0-7.0-0.24","5ee25b060f0ccf35b31431af","64e77d7b61f440b60e28659d","64ecab5b62184951e3f361b6","null","null","<p style=""font-size: 60px; font-family: BACS"">aYaNOJNk</p>","","","","","","","","",""
"html-keyboard-response","32","144431","0.0-7.0-0.25","5ee25b060f0ccf35b31431af","64e77d7b61f440b60e28659d","64ecab5b62184951e3f361b6","null","null","<p style=""font-size: 60px; font-family: BACS"">ZkGmYOcN</p>","","","","","","","","",""
"html-keyboard-response","33","145445","0.0-7.0-0.26","5ee25b060f0ccf35b31431af","64e77d7b61f440b60e28659d","64ecab5b62184951e3f361b6","null","null","<p style=""font-size: 60px; font-family: BACS"">BOCRMTbk</p>","","","","","","","","",""
"html-keyboard-response","34","146459","0.0-7.0-0.27","5ee25b060f0ccf35b31431af","64e77d7b61f440b60e28659d","64ecab5b62184951e3f361b6","null","null","<p style=""font-size: 60px; font-family: BACS"">dkLlOcN</p>","","","","","","","","",""
"html-keyboard-response","35","147471","0.0-7.0-0.28","5ee25b060f0ccf35b31431af","64e77d7b61f440b60e28659d","64ecab5b62184951e3f361b6","null","null","<p style=""font-size: 60px; font-family: BACS"">COtBDYBO</p>","","","","","","","","",""
"html-keyboard-response","36","148477","0.0-7.0-0.29","5ee25b060f0ccf35b31431af","64e77d7b61f440b60e28659d","64ecab5b62184951e3f361b6","null","null","<p style=""font-size: 60px; font-family: BACS"">cAZukmU</p>","","","","","","","","",""
"html-keyboard-response","37","149491","0.0-7.0-0.30","5ee25b060f0ccf35b31431af","64e77d7b61f440b60e28659d","64ecab5b62184951e3f361b6","null","null","<p style=""font-size: 60px; font-family: BACS"">YUNkZLaA</p>","","","","","","","","",""
"html-keyboard-response","38","150503","0.0-7.0-0.31","5ee25b060f0ccf35b31431af","64e77d7b61f440b60e28659d","64ecab5b62184951e3f361b6","null","null","<p style=""font-size: 60px; font-family: BACS"">ZkGmYkmU</p>","","","","","","","","",""
"html-keyboard-response","39","151509","0.0-7.0-0.32","5ee25b060f0ccf35b31431af","64e77d7b61f440b60e28659d","64ecab5b62184951e3f361b6","null","null","<p style=""font-size: 60px; font-family: BACS"">YOZNOcN</p>","","","","","","","","",""
"html-keyboard-response","40","152523","0.0-7.0-0.33","5ee25b060f0ccf35b31431af","64e77d7b61f440b60e28659d","64ecab5b62184951e3f361b6","null","null","<p style=""font-size: 60px; font-family: BACS"">TdmAkDOm</p>","","","","","","","","",""
"html-keyboard-response","41","153530","0.0-7.0-0.34","5ee25b060f0ccf35b31431af","64e77d7b61f440b60e28659d","64ecab5b62184951e3f361b6","null","null","<p style=""font-size: 60px; font-family: BACS"">COtBDTbk</p>","","","","","","","","",""
"html-keyboard-response","42","154541","0.0-7.0-0.35","5ee25b060f0ccf35b31431af","64e77d7b61f440b60e28659d","64ecab5b62184951e3f361b6","null","null","<p style=""font-size: 60px; font-family: BACS"">dRbDbEKBO</p>","","","","","","","","",""
"html-keyboard-response","43","155549","0.0-7.0-0.36","5ee25b060f0ccf35b31431af","64e77d7b61f440b60e28659d","64ecab5b62184951e3f361b6","null","null","<p style=""font-size: 60px; font-family: BACS"">tKDmhTbk</p>","","","","","","","","",""
"html-keyboard-response","44","156560","0.0-7.0-0.37","5ee25b060f0ccf35b31431af","64e77d7b61f440b60e28659d","64ecab5b62184951e3f361b6","null","null","<p style=""font-size: 60px; font-family: BACS"">YOZNmLJ</p>","","","","","","","","",""
"html-keyboard-response","45","157570","0.0-7.0-0.38","5ee25b060f0ccf35b31431af","64e77d7b61f440b60e28659d","64ecab5b62184951e3f361b6","null","null","<p style=""font-size: 60px; font-family: BACS"">ZkGmYOJNk</p>","","","","","","","","",""
"html-keyboard-response","46","158585","0.0-7.0-0.39","5ee25b060f0ccf35b31431af","64e77d7b61f440b60e28659d","64ecab5b62184951e3f361b6","null","null","<p style=""font-size: 60px; font-family: BACS"">tKDmhEKBO</p>","","","","","","","","",""
"html-keyboard-response","47","159596","0.0-7.0-0.40","5ee25b060f0ccf35b31431af","64e77d7b61f440b60e28659d","64ecab5b62184951e3f361b6","null","null","<p style=""font-size: 60px; font-family: BACS"">dkLlkmU</p>","","","","","","","","",""
"html-keyboard-response","48","160610","0.0-7.0-0.41","5ee25b060f0ccf35b31431af","64e77d7b61f440b60e28659d","64ecab5b62184951e3f361b6","null","null","<p style=""font-size: 60px; font-family: BACS"">ZkGmYLaA</p>","","","","","","","","",""
"html-keyboard-response","49","161624","0.0-7.0-0.42","5ee25b060f0ccf35b31431af","64e77d7b61f440b60e28659d","64ecab5b62184951e3f361b6","null","null","<p style=""font-size: 60px; font-family: BACS"">cAZuOcN</p>","","","","","","","","",""
"html-keyboard-response","50","162635","0.0-7.0-0.43","5ee25b060f0ccf35b31431af","64e77d7b61f440b60e28659d","64ecab5b62184951e3f361b6","null","null","<p style=""font-size: 60px; font-family: BACS"">YUNkZkmU</p>","","","","","","","","",""
"html-keyboard-response","51","163641","0.0-7.0-0.44","5ee25b060f0ccf35b31431af","64e77d7b61f440b60e28659d","64ecab5b62184951e3f361b6","null","null","<p style=""font-size: 60px; font-family: BACS"">aYaNLaA</p>","","","","","","","","",""
"html-keyboard-response","52","164657","0.0-7.0-0.45","5ee25b060f0ccf35b31431af","64e77d7b61f440b60e28659d","64ecab5b62184951e3f361b6","null","null","<p style=""font-size: 60px; font-family: BACS"">dRbDbYBO</p>","","","","","","","","",""
"html-keyboard-response","53","165670","0.0-7.0-0.46","5ee25b060f0ccf35b31431af","64e77d7b61f440b60e28659d","64ecab5b62184951e3f361b6","null","null","<p style=""font-size: 60px; font-family: BACS"">cRElDCdt</p>","","","","","","","","",""
"html-keyboard-response","54","166681","0.0-7.0-0.47","5ee25b060f0ccf35b31431af","64e77d7b61f440b60e28659d","64ecab5b62184951e3f361b6","null","null","<p style=""font-size: 60px; font-family: BACS"">AbKDkDOm</p>","","","","","","","","",""
"html-keyboard-response","55","167695","0.0-7.0-0.48","5ee25b060f0ccf35b31431af","64e77d7b61f440b60e28659d","64ecab5b62184951e3f361b6","null","null","<p style=""font-size: 60px; font-family: BACS"">YUNkZmLJ</p>","","","","","","","","",""
"html-keyboard-response","56","168709","0.0-7.0-0.49","5ee25b060f0ccf35b31431af","64e77d7b61f440b60e28659d","64ecab5b62184951e3f361b6","null","null","<p style=""font-size: 60px; font-family: BACS"">COtBDkDOm</p>","","","","","","","","",""
"html-keyboard-response","57","169712","0.0-7.0-0.50","5ee25b060f0ccf35b31431af","64e77d7b61f440b60e28659d","64ecab5b62184951e3f361b6","null","null","<p style=""font-size: 60px; font-family: BACS"">ldAaLaA</p>","","","","","","","","",""
"html-keyboard-response","58","170725","0.0-7.0-0.51","5ee25b060f0ccf35b31431af","64e77d7b61f440b60e28659d","64ecab5b62184951e3f361b6","null","null","<p style=""font-size: 60px; font-family: BACS"">TdmAYBO</p>","","","","","","","","",""
"html-keyboard-response","59","171729","0.0-7.0-0.52","5ee25b060f0ccf35b31431af","64e77d7b61f440b60e28659d","64ecab5b62184951e3f361b6","null","null","<p style=""font-size: 60px; font-family: BACS"">EhRmCdt</p>","","","","","","","","",""
"html-keyboard-response","60","172740","0.0-7.0-0.53","5ee25b060f0ccf35b31431af","64e77d7b61f440b60e28659d","64ecab5b62184951e3f361b6","null","null","<p style=""font-size: 60px; font-family: BACS"">kGamNmLJ</p>","","","","","","","","",""
"html-keyboard-response","61","173748","0.0-7.0-0.54","5ee25b060f0ccf35b31431af","64e77d7b61f440b60e28659d","64ecab5b62184951e3f361b6","null","null","<p style=""font-size: 60px; font-family: BACS"">cRElDEKBO</p>","","","","","","","","",""
"html-keyboard-response","62","174760","0.0-7.0-0.55","5ee25b060f0ccf35b31431af","64e77d7b61f440b60e28659d","64ecab5b62184951e3f361b6","null","null","<p style=""font-size: 60px; font-family: BACS"">tKDmhCdt</p>","","","","","","","","",""
"html-keyboard-response","63","175772","0.0-7.0-0.56","5ee25b060f0ccf35b31431af","64e77d7b61f440b60e28659d","64ecab5b62184951e3f361b6","null","null","<p style=""font-size: 60px; font-family: BACS"">kGamNLaA</p>","","","","","","","","",""
"html-keyboard-response","64","176788","0.0-7.0-0.57","5ee25b060f0ccf35b31431af","64e77d7b61f440b60e28659d","64ecab5b62184951e3f361b6","null","null","<p style=""font-size: 60px; font-family: BACS"">tKDmhkDOm</p>","","","","","","","","",""
"html-keyboard-response","65","177799","0.0-7.0-0.58","5ee25b060f0ccf35b31431af","64e77d7b61f440b60e28659d","64ecab5b62184951e3f361b6","null","null","<p style=""font-size: 60px; font-family: BACS"">vJabLaA</p>","","","","","","","","",""
"html-keyboard-response","66","178814","0.0-7.0-0.59","5ee25b060f0ccf35b31431af","64e77d7b61f440b60e28659d","64ecab5b62184951e3f361b6","null","null","<p style=""font-size: 60px; font-family: BACS"">cAZumLJ</p>","","","","","","","","",""
"html-keyboard-response","67","179828","0.0-7.0-0.60","5ee25b060f0ccf35b31431af","64e77d7b61f440b60e28659d","64ecab5b62184951e3f361b6","null","null","<p style=""font-size: 60px; font-family: BACS"">dkLlOJNk</p>","","","","","","","","",""
"html-keyboard-response","68","180830","0.0-7.0-0.61","5ee25b060f0ccf35b31431af","64e77d7b61f440b60e28659d","64ecab5b62184951e3f361b6","null","null","<p style=""font-size: 60px; font-family: BACS"">COTKkDOm</p>","","","","","","","","",""
"html-keyboard-response","69","181835","0.0-7.0-0.62","5ee25b060f0ccf35b31431af","64e77d7b61f440b60e28659d","64ecab5b62184951e3f361b6","null","null","<p style=""font-size: 60px; font-family: BACS"">TdmATbk</p>","","","","","","","","",""
"html-keyboard-response","70","182836","0.0-7.0-0.63","5ee25b060f0ccf35b31431af","64e77d7b61f440b60e28659d","64ecab5b62184951e3f361b6","null","null","<p style=""font-size: 60px; font-family: BACS"">BOCRMEKBO</p>","","","","","","","","",""
"html-keyboard-response","71","183850","0.0-7.0-0.64","5ee25b060f0ccf35b31431af","64e77d7b61f440b60e28659d","64ecab5b62184951e3f361b6","null","null","<p style=""font-size: 60px; font-family: BACS"">kNuaOcN</p>","","","","","","","","",""
"html-keyboard-response","72","184865","0.0-7.0-0.65","5ee25b060f0ccf35b31431af","64e77d7b61f440b60e28659d","64ecab5b62184951e3f361b6","null","null","<p style=""font-size: 60px; font-family: BACS"">dRbDbTbk</p>","","","","","","","","",""
"html-keyboard-response","73","185866","0.0-7.0-0.66","5ee25b060f0ccf35b31431af","64e77d7b61f440b60e28659d","64ecab5b62184951e3f361b6","null","null","<p style=""font-size: 60px; font-family: BACS"">YOZNkmU</p>","","","","","","","","",""
"html-keyboard-response","74","186867","0.0-7.0-0.67","5ee25b060f0ccf35b31431af","64e77d7b61f440b60e28659d","64ecab5b62184951e3f361b6","null","null","<p style=""font-size: 60px; font-family: BACS"">tRPDCdt</p>","","","","","","","","",""
"html-keyboard-response","75","187869","0.0-7.0-0.68","5ee25b060f0ccf35b31431af","64e77d7b61f440b60e28659d","64ecab5b62184951e3f361b6","null","null","<p style=""font-size: 60px; font-family: BACS"">kGamNkmU</p>","","","","","","","","",""
"html-keyboard-response","76","188880","0.0-7.0-0.69","5ee25b060f0ccf35b31431af","64e77d7b61f440b60e28659d","64ecab5b62184951e3f361b6","null","null","<p style=""font-size: 60px; font-family: BACS"">aYaNOcN</p>","","","","","","","","",""
"html-keyboard-response","77","189895","0.0-7.0-0.70","5ee25b060f0ccf35b31431af","64e77d7b61f440b60e28659d","64ecab5b62184951e3f361b6","null","null","<p style=""font-size: 60px; font-family: BACS"">COTKEKBO</p>","","","","","","","","",""
"html-keyboard-response","78","190910","0.0-7.0-0.71","5ee25b060f0ccf35b31431af","64e77d7b61f440b60e28659d","64ecab5b62184951e3f361b6","null","null","<p style=""font-size: 60px; font-family: BACS"">YUNkZOcN</p>","","","","","","","","",""
"html-keyboard-response","79","191923","0.0-7.0-0.72","5ee25b060f0ccf35b31431af","64e77d7b61f440b60e28659d","64ecab5b62184951e3f361b6","null","null","<p style=""font-size: 60px; font-family: BACS"">kNuakmU</p>","","","","","","","","",""
"html-keyboard-response","80","192924","0.0-7.0-0.73","5ee25b060f0ccf35b31431af","64e77d7b61f440b60e28659d","64ecab5b62184951e3f361b6","null","null","<p style=""font-size: 60px; font-family: BACS"">cRElDYBO</p>","","","","","","","","",""
"html-keyboard-response","81","193937","0.0-7.0-0.74","5ee25b060f0ccf35b31431af","64e77d7b61f440b60e28659d","64ecab5b62184951e3f361b6","null","null","<p style=""font-size: 60px; font-family: BACS"">COTKCdt</p>","","","","","","","","",""
"html-keyboard-response","82","194939","0.0-7.0-0.75","5ee25b060f0ccf35b31431af","64e77d7b61f440b60e28659d","64ecab5b62184951e3f361b6","null","null","<p style=""font-size: 60px; font-family: BACS"">vJabmLJ</p>","","","","","","","","",""
"html-keyboard-response","83","195955","0.0-7.0-0.76","5ee25b060f0ccf35b31431af","64e77d7b61f440b60e28659d","64ecab5b62184951e3f361b6","null","null","<p style=""font-size: 60px; font-family: BACS"">AbKDCdt</p>","","","","","","","","",""
"html-keyboard-response","84","196965","0.0-7.0-0.77","5ee25b060f0ccf35b31431af","64e77d7b61f440b60e28659d","64ecab5b62184951e3f361b6","null","null","<p style=""font-size: 60px; font-family: BACS"">tRPDEKBO</p>","","","","","","","","",""
"html-keyboard-response","85","197966","0.0-7.0-0.78","5ee25b060f0ccf35b31431af","64e77d7b61f440b60e28659d","64ecab5b62184951e3f361b6","null","null","<p style=""font-size: 60px; font-family: BACS"">YOZNOJNk</p>","","","","","","","","",""
"html-keyboard-response","86","198974","0.0-7.0-0.79","5ee25b060f0ccf35b31431af","64e77d7b61f440b60e28659d","64ecab5b62184951e3f361b6","null","null","<p style=""font-size: 60px; font-family: BACS"">COtBDEKBO</p>","","","","","","","","",""
"html-keyboard-response","87","204433","0.0-8.0","5ee25b060f0ccf35b31431af","64e77d7b61f440b60e28659d","64ecab5b62184951e3f361b6","5458"," ","<p>Great, you've seen the first block of words. You may now take a short break.</p>
      <p>Press the spacebar when you're ready to continue.</p>","","","","","","","","",""
"html-keyboard-response","88","205435","0.0-9.0-0.0","5ee25b060f0ccf35b31431af","64e77d7b61f440b60e28659d","64ecab5b62184951e3f361b6","null","null","<p style=""font-size: 60px; font-family: BACS"">EhRmTbk</p>","","","","","","","","",""
"html-keyboard-response","89","206447","0.0-9.0-0.1","5ee25b060f0ccf35b31431af","64e77d7b61f440b60e28659d","64ecab5b62184951e3f361b6","null","null","<p style=""font-size: 60px; font-family: BACS"">cRElDkDOm</p>","","","","","","","","",""
"html-keyboard-response","90","207451","0.0-9.0-0.2","5ee25b060f0ccf35b31431af","64e77d7b61f440b60e28659d","64ecab5b62184951e3f361b6","null","null","<p style=""font-size: 60px; font-family: BACS"">aYaNLaA</p>","","","","","","","","",""
"html-keyboard-response","91","208457","0.0-9.0-0.3","5ee25b060f0ccf35b31431af","64e77d7b61f440b60e28659d","64ecab5b62184951e3f361b6","null","null","<p style=""font-size: 60px; font-family: BACS"">tRPDCdt</p>","","","","","","","","",""
"html-keyboard-response","92","209466","0.0-9.0-0.4","5ee25b060f0ccf35b31431af","64e77d7b61f440b60e28659d","64ecab5b62184951e3f361b6","null","null","<p style=""font-size: 60px; font-family: BACS"">vJabmLJ</p>","","","","","","","","",""
"html-keyboard-response","93","210477","0.0-9.0-0.5","5ee25b060f0ccf35b31431af","64e77d7b61f440b60e28659d","64ecab5b62184951e3f361b6","null","null","<p style=""font-size: 60px; font-family: BACS"">kGamNLaA</p>","","","","","","","","",""
"html-keyboard-response","94","211491","0.0-9.0-0.6","5ee25b060f0ccf35b31431af","64e77d7b61f440b60e28659d","64ecab5b62184951e3f361b6","null","null","<p style=""font-size: 60px; font-family: BACS"">cAZuOJNk</p>","","","","","","","","",""
"html-keyboard-response","95","212499","0.0-9.0-0.7","5ee25b060f0ccf35b31431af","64e77d7b61f440b60e28659d","64ecab5b62184951e3f361b6","null","null","<p style=""font-size: 60px; font-family: BACS"">AbKDkDOm</p>","","","","","","","","",""
"html-keyboard-response","96","213508","0.0-9.0-0.8","5ee25b060f0ccf35b31431af","64e77d7b61f440b60e28659d","64ecab5b62184951e3f361b6","null","null","<p style=""font-size: 60px; font-family: BACS"">YOZNmLJ</p>","","","","","","","","",""
"html-keyboard-response","97","214523","0.0-9.0-0.9","5ee25b060f0ccf35b31431af","64e77d7b61f440b60e28659d","64ecab5b62184951e3f361b6","null","null","<p style=""font-size: 60px; font-family: BACS"">COTKCdt</p>","","","","","","","","",""
"html-keyboard-response","98","215538","0.0-9.0-0.10","5ee25b060f0ccf35b31431af","64e77d7b61f440b60e28659d","64ecab5b62184951e3f361b6","null","null","<p style=""font-size: 60px; font-family: BACS"">ZkGmYLaA</p>","","","","","","","","",""
"html-keyboard-response","99","216542","0.0-9.0-0.11","5ee25b060f0ccf35b31431af","64e77d7b61f440b60e28659d","64ecab5b62184951e3f361b6","null","null","<p style=""font-size: 60px; font-family: BACS"">cAZuOcN</p>","","","","","","","","",""
"html-keyboard-response","100","217554","0.0-9.0-0.12","5ee25b060f0ccf35b31431af","64e77d7b61f440b60e28659d","64ecab5b62184951e3f361b6","null","null","<p style=""font-size: 60px; font-family: BACS"">YUNkZmLJ</p>","","","","","","","","",""
"html-keyboard-response","101","218569","0.0-9.0-0.13","5ee25b060f0ccf35b31431af","64e77d7b61f440b60e28659d","64ecab5b62184951e3f361b6","null","null","<p style=""font-size: 60px; font-family: BACS"">COtBDEKBO</p>","","","","","","","","",""
"html-keyboard-response","102","219585","0.0-9.0-0.14","5ee25b060f0ccf35b31431af","64e77d7b61f440b60e28659d","64ecab5b62184951e3f361b6","null","null","<p style=""font-size: 60px; font-family: BACS"">kGamNOJNk</p>","","","","","","","","",""
"html-keyboard-response","103","220601","0.0-9.0-0.15","5ee25b060f0ccf35b31431af","64e77d7b61f440b60e28659d","64ecab5b62184951e3f361b6","null","null","<p style=""font-size: 60px; font-family: BACS"">YOZNkmU</p>","","","","","","","","",""
"html-keyboard-response","104","221616","0.0-9.0-0.16","5ee25b060f0ccf35b31431af","64e77d7b61f440b60e28659d","64ecab5b62184951e3f361b6","null","null","<p style=""font-size: 60px; font-family: BACS"">tKDmhEKBO</p>","","","","","","","","",""
"html-keyboard-response","105","222631","0.0-9.0-0.17","5ee25b060f0ccf35b31431af","64e77d7b61f440b60e28659d","64ecab5b62184951e3f361b6","null","null","<p style=""font-size: 60px; font-family: BACS"">dRbDbTbk</p>","","","","","","","","",""
"html-keyboard-response","106","223645","0.0-9.0-0.18","5ee25b060f0ccf35b31431af","64e77d7b61f440b60e28659d","64ecab5b62184951e3f361b6","null","null","<p style=""font-size: 60px; font-family: BACS"">TdmAkDOm</p>","","","","","","","","",""
"html-keyboard-response","107","224652","0.0-9.0-0.19","5ee25b060f0ccf35b31431af","64e77d7b61f440b60e28659d","64ecab5b62184951e3f361b6","null","null","<p style=""font-size: 60px; font-family: BACS"">AbKDEKBO</p>","","","","","","","","",""
"html-keyboard-response","108","225659","0.0-9.0-0.20","5ee25b060f0ccf35b31431af","64e77d7b61f440b60e28659d","64ecab5b62184951e3f361b6","null","null","<p style=""font-size: 60px; font-family: BACS"">vJabLaA</p>","","","","","","","","",""
"html-keyboard-response","109","226674","0.0-9.0-0.21","5ee25b060f0ccf35b31431af","64e77d7b61f440b60e28659d","64ecab5b62184951e3f361b6","null","null","<p style=""font-size: 60px; font-family: BACS"">COTKTbk</p>","","","","","","","","",""
"html-keyboard-response","110","227679","0.0-9.0-0.22","5ee25b060f0ccf35b31431af","64e77d7b61f440b60e28659d","64ecab5b62184951e3f361b6","null","null","<p style=""font-size: 60px; font-family: BACS"">aYaNmLJ</p>","","","","","","","","",""
"html-keyboard-response","111","228683","0.0-9.0-0.23","5ee25b060f0ccf35b31431af","64e77d7b61f440b60e28659d","64ecab5b62184951e3f361b6","null","null","<p style=""font-size: 60px; font-family: BACS"">cRElDYBO</p>","","","","","","","","",""
"html-keyboard-response","112","229696","0.0-9.0-0.24","5ee25b060f0ccf35b31431af","64e77d7b61f440b60e28659d","64ecab5b62184951e3f361b6","null","null","<p style=""font-size: 60px; font-family: BACS"">kGamNmLJ</p>","","","","","","","","",""
"html-keyboard-response","113","230711","0.0-9.0-0.25","5ee25b060f0ccf35b31431af","64e77d7b61f440b60e28659d","64ecab5b62184951e3f361b6","null","null","<p style=""font-size: 60px; font-family: BACS"">tRPDTbk</p>","","","","","","","","",""
"html-keyboard-response","114","231727","0.0-9.0-0.26","5ee25b060f0ccf35b31431af","64e77d7b61f440b60e28659d","64ecab5b62184951e3f361b6","null","null","<p style=""font-size: 60px; font-family: BACS"">COtBDkDOm</p>","","","","","","","","",""
"html-keyboard-response","115","232739","0.0-9.0-0.27","5ee25b060f0ccf35b31431af","64e77d7b61f440b60e28659d","64ecab5b62184951e3f361b6","null","null","<p style=""font-size: 60px; font-family: BACS"">cAZumLJ</p>","","","","","","","","",""
"html-keyboard-response","116","233753","0.0-9.0-0.28","5ee25b060f0ccf35b31431af","64e77d7b61f440b60e28659d","64ecab5b62184951e3f361b6","null","null","<p style=""font-size: 60px; font-family: BACS"">kNuakmU</p>","","","","","","","","",""
"html-keyboard-response","117","234766","0.0-9.0-0.29","5ee25b060f0ccf35b31431af","64e77d7b61f440b60e28659d","64ecab5b62184951e3f361b6","null","null","<p style=""font-size: 60px; font-family: BACS"">dRbDbkDOm</p>","","","","","","","","",""
"html-keyboard-response","118","235778","0.0-9.0-0.30","5ee25b060f0ccf35b31431af","64e77d7b61f440b60e28659d","64ecab5b62184951e3f361b6","null","null","<p style=""font-size: 60px; font-family: BACS"">AbKDCdt</p>","","","","","","","","",""
"html-keyboard-response","119","236781","0.0-9.0-0.31","5ee25b060f0ccf35b31431af","64e77d7b61f440b60e28659d","64ecab5b62184951e3f361b6","null","null","<p style=""font-size: 60px; font-family: BACS"">ldAaOJNk</p>","","","","","","","","",""
"html-keyboard-response","120","237793","0.0-9.0-0.32","5ee25b060f0ccf35b31431af","64e77d7b61f440b60e28659d","64ecab5b62184951e3f361b6","null","null","<p style=""font-size: 60px; font-family: BACS"">AbKDYBO</p>","","","","","","","","",""
"html-keyboard-response","121","238804","0.0-9.0-0.33","5ee25b060f0ccf35b31431af","64e77d7b61f440b60e28659d","64ecab5b62184951e3f361b6","null","null","<p style=""font-size: 60px; font-family: BACS"">kNuamLJ</p>","","","","","","","","",""
"html-keyboard-response","122","239813","0.0-9.0-0.34","5ee25b060f0ccf35b31431af","64e77d7b61f440b60e28659d","64ecab5b62184951e3f361b6","null","null","<p style=""font-size: 60px; font-family: BACS"">ZkGmYOJNk</p>","","","","","","","","",""
"html-keyboard-response","123","240821","0.0-9.0-0.35","5ee25b060f0ccf35b31431af","64e77d7b61f440b60e28659d","64ecab5b62184951e3f361b6","null","null","<p style=""font-size: 60px; font-family: BACS"">COtBDYBO</p>","","","","","","","","",""
"html-keyboard-response","124","241830","0.0-9.0-0.36","5ee25b060f0ccf35b31431af","64e77d7b61f440b60e28659d","64ecab5b62184951e3f361b6","null","null","<p style=""font-size: 60px; font-family: BACS"">aYaNOcN</p>","","","","","","","","",""
"html-keyboard-response","125","242845","0.0-9.0-0.37","5ee25b060f0ccf35b31431af","64e77d7b61f440b60e28659d","64ecab5b62184951e3f361b6","null","null","<p style=""font-size: 60px; font-family: BACS"">dkLlOJNk</p>","","","","","","","","",""
"html-keyboard-response","126","243847","0.0-9.0-0.38","5ee25b060f0ccf35b31431af","64e77d7b61f440b60e28659d","64ecab5b62184951e3f361b6","null","null","<p style=""font-size: 60px; font-family: BACS"">YUNkZLaA</p>","","","","","","","","",""
"html-keyboard-response","127","244853","0.0-9.0-0.39","5ee25b060f0ccf35b31431af","64e77d7b61f440b60e28659d","64ecab5b62184951e3f361b6","null","null","<p style=""font-size: 60px; font-family: BACS"">TdmAYBO</p>","","","","","","","","",""
"html-keyboard-response","128","245867","0.0-9.0-0.40","5ee25b060f0ccf35b31431af","64e77d7b61f440b60e28659d","64ecab5b62184951e3f361b6","null","null","<p style=""font-size: 60px; font-family: BACS"">ldAaLaA</p>","","","","","","","","",""
"html-keyboard-response","129","246876","0.0-9.0-0.41","5ee25b060f0ccf35b31431af","64e77d7b61f440b60e28659d","64ecab5b62184951e3f361b6","null","null","<p style=""font-size: 60px; font-family: BACS"">dRbDbEKBO</p>","","","","","","","","",""
"html-keyboard-response","130","247891","0.0-9.0-0.42","5ee25b060f0ccf35b31431af","64e77d7b61f440b60e28659d","64ecab5b62184951e3f361b6","null","null","<p style=""font-size: 60px; font-family: BACS"">vJabOcN</p>","","","","","","","","",""
"html-keyboard-response","131","248899","0.0-9.0-0.43","5ee25b060f0ccf35b31431af","64e77d7b61f440b60e28659d","64ecab5b62184951e3f361b6","null","null","<p style=""font-size: 60px; font-family: BACS"">TdmATbk</p>","","","","","","","","",""
"html-keyboard-response","132","249914","0.0-9.0-0.44","5ee25b060f0ccf35b31431af","64e77d7b61f440b60e28659d","64ecab5b62184951e3f361b6","null","null","<p style=""font-size: 60px; font-family: BACS"">ZkGmYOcN</p>","","","","","","","","",""
"html-keyboard-response","133","250926","0.0-9.0-0.45","5ee25b060f0ccf35b31431af","64e77d7b61f440b60e28659d","64ecab5b62184951e3f361b6","null","null","<p style=""font-size: 60px; font-family: BACS"">EhRmYBO</p>","","","","","","","","",""
"html-keyboard-response","134","251940","0.0-9.0-0.46","5ee25b060f0ccf35b31431af","64e77d7b61f440b60e28659d","64ecab5b62184951e3f361b6","null","null","<p style=""font-size: 60px; font-family: BACS"">vJabOJNk</p>","","","","","","","","",""
"html-keyboard-response","135","252949","0.0-9.0-0.47","5ee25b060f0ccf35b31431af","64e77d7b61f440b60e28659d","64ecab5b62184951e3f361b6","null","null","<p style=""font-size: 60px; font-family: BACS"">EhRmkDOm</p>","","","","","","","","",""
"html-keyboard-response","136","253960","0.0-9.0-0.48","5ee25b060f0ccf35b31431af","64e77d7b61f440b60e28659d","64ecab5b62184951e3f361b6","null","null","<p style=""font-size: 60px; font-family: BACS"">dkLlOcN</p>","","","","","","","","",""
"html-keyboard-response","137","254972","0.0-9.0-0.49","5ee25b060f0ccf35b31431af","64e77d7b61f440b60e28659d","64ecab5b62184951e3f361b6","null","null","<p style=""font-size: 60px; font-family: BACS"">tRPDEKBO</p>","","","","","","","","",""
"html-keyboard-response","138","255985","0.0-9.0-0.50","5ee25b060f0ccf35b31431af","64e77d7b61f440b60e28659d","64ecab5b62184951e3f361b6","null","null","<p style=""font-size: 60px; font-family: BACS"">COTKkDOm</p>","","","","","","","","",""
"html-keyboard-response","139","257002","0.0-9.0-0.51","5ee25b060f0ccf35b31431af","64e77d7b61f440b60e28659d","64ecab5b62184951e3f361b6","null","null","<p style=""font-size: 60px; font-family: BACS"">YOZNOcN</p>","","","","","","","","",""
"html-keyboard-response","140","258007","0.0-9.0-0.52","5ee25b060f0ccf35b31431af","64e77d7b61f440b60e28659d","64ecab5b62184951e3f361b6","null","null","<p style=""font-size: 60px; font-family: BACS"">EhRmCdt</p>","","","","","","","","",""
"html-keyboard-response","141","259015","0.0-9.0-0.53","5ee25b060f0ccf35b31431af","64e77d7b61f440b60e28659d","64ecab5b62184951e3f361b6","null","null","<p style=""font-size: 60px; font-family: BACS"">kNuaLaA</p>","","","","","","","","",""
"html-keyboard-response","142","260031","0.0-9.0-0.54","5ee25b060f0ccf35b31431af","64e77d7b61f440b60e28659d","64ecab5b62184951e3f361b6","null","null","<p style=""font-size: 60px; font-family: BACS"">aYaNOJNk</p>","","","","","","","","",""
"html-keyboard-response","143","261047","0.0-9.0-0.55","5ee25b060f0ccf35b31431af","64e77d7b61f440b60e28659d","64ecab5b62184951e3f361b6","null","null","<p style=""font-size: 60px; font-family: BACS"">dkLlkmU</p>","","","","","","","","",""
"html-keyboard-response","144","262059","0.0-9.0-0.56","5ee25b060f0ccf35b31431af","64e77d7b61f440b60e28659d","64ecab5b62184951e3f361b6","null","null","<p style=""font-size: 60px; font-family: BACS"">tRPDYBO</p>","","","","","","","","",""
"html-keyboard-response","145","263070","0.0-9.0-0.57","5ee25b060f0ccf35b31431af","64e77d7b61f440b60e28659d","64ecab5b62184951e3f361b6","null","null","<p style=""font-size: 60px; font-family: BACS"">ldAakmU</p>","","","","","","","","",""
"html-keyboard-response","146","264085","0.0-9.0-0.58","5ee25b060f0ccf35b31431af","64e77d7b61f440b60e28659d","64ecab5b62184951e3f361b6","null","null","<p style=""font-size: 60px; font-family: BACS"">cRElDEKBO</p>","","","","","","","","",""
"html-keyboard-response","147","265088","0.0-9.0-0.59","5ee25b060f0ccf35b31431af","64e77d7b61f440b60e28659d","64ecab5b62184951e3f361b6","null","null","<p style=""font-size: 60px; font-family: BACS"">tKDmhkDOm</p>","","","","","","","","",""
"html-keyboard-response","148","266090","0.0-9.0-0.60","5ee25b060f0ccf35b31431af","64e77d7b61f440b60e28659d","64ecab5b62184951e3f361b6","null","null","<p style=""font-size: 60px; font-family: BACS"">ldAamLJ</p>","","","","","","","","",""
"html-keyboard-response","149","267102","0.0-9.0-0.61","5ee25b060f0ccf35b31431af","64e77d7b61f440b60e28659d","64ecab5b62184951e3f361b6","null","null","<p style=""font-size: 60px; font-family: BACS"">YUNkZkmU</p>","","","","","","","","",""
"html-keyboard-response","150","268117","0.0-9.0-0.62","5ee25b060f0ccf35b31431af","64e77d7b61f440b60e28659d","64ecab5b62184951e3f361b6","null","null","<p style=""font-size: 60px; font-family: BACS"">COTKEKBO</p>","","","","","","","","",""
"html-keyboard-response","151","269120","0.0-9.0-0.63","5ee25b060f0ccf35b31431af","64e77d7b61f440b60e28659d","64ecab5b62184951e3f361b6","null","null","<p style=""font-size: 60px; font-family: BACS"">tKDmhCdt</p>","","","","","","","","",""
"html-keyboard-response","152","270134","0.0-9.0-0.64","5ee25b060f0ccf35b31431af","64e77d7b61f440b60e28659d","64ecab5b62184951e3f361b6","null","null","<p style=""font-size: 60px; font-family: BACS"">ZkGmYkmU</p>","","","","","","","","",""
"html-keyboard-response","153","271148","0.0-9.0-0.65","5ee25b060f0ccf35b31431af","64e77d7b61f440b60e28659d","64ecab5b62184951e3f361b6","null","null","<p style=""font-size: 60px; font-family: BACS"">BOCRMEKBO</p>","","","","","","","","",""
"html-keyboard-response","154","272150","0.0-9.0-0.66","5ee25b060f0ccf35b31431af","64e77d7b61f440b60e28659d","64ecab5b62184951e3f361b6","null","null","<p style=""font-size: 60px; font-family: BACS"">tKDmhTbk</p>","","","","","","","","",""
"html-keyboard-response","155","273160","0.0-9.0-0.67","5ee25b060f0ccf35b31431af","64e77d7b61f440b60e28659d","64ecab5b62184951e3f361b6","null","null","<p style=""font-size: 60px; font-family: BACS"">YOZNOJNk</p>","","","","","","","","",""
"html-keyboard-response","156","274165","0.0-9.0-0.68","5ee25b060f0ccf35b31431af","64e77d7b61f440b60e28659d","64ecab5b62184951e3f361b6","null","null","<p style=""font-size: 60px; font-family: BACS"">COtBDTbk</p>","","","","","","","","",""
"html-keyboard-response","157","275167","0.0-9.0-0.69","5ee25b060f0ccf35b31431af","64e77d7b61f440b60e28659d","64ecab5b62184951e3f361b6","null","null","<p style=""font-size: 60px; font-family: BACS"">TdmACdt</p>","","","","","","","","",""
"html-keyboard-response","158","276182","0.0-9.0-0.70","5ee25b060f0ccf35b31431af","64e77d7b61f440b60e28659d","64ecab5b62184951e3f361b6","null","null","<p style=""font-size: 60px; font-family: BACS"">dkLlLaA</p>","","","","","","","","",""
"html-keyboard-response","159","277197","0.0-9.0-0.71","5ee25b060f0ccf35b31431af","64e77d7b61f440b60e28659d","64ecab5b62184951e3f361b6","null","null","<p style=""font-size: 60px; font-family: BACS"">BOCRMTbk</p>","","","","","","","","",""
"html-keyboard-response","160","278207","0.0-9.0-0.72","5ee25b060f0ccf35b31431af","64e77d7b61f440b60e28659d","64ecab5b62184951e3f361b6","null","null","<p style=""font-size: 60px; font-family: BACS"">cAZukmU</p>","","","","","","","","",""
"html-keyboard-response","161","279213","0.0-9.0-0.73","5ee25b060f0ccf35b31431af","64e77d7b61f440b60e28659d","64ecab5b62184951e3f361b6","null","null","<p style=""font-size: 60px; font-family: BACS"">BOCRMCdt</p>","","","","","","","","",""
"html-keyboard-response","162","280228","0.0-9.0-0.74","5ee25b060f0ccf35b31431af","64e77d7b61f440b60e28659d","64ecab5b62184951e3f361b6","null","null","<p style=""font-size: 60px; font-family: BACS"">YUNkZOcN</p>","","","","","","","","",""
"html-keyboard-response","163","281240","0.0-9.0-0.75","5ee25b060f0ccf35b31431af","64e77d7b61f440b60e28659d","64ecab5b62184951e3f361b6","null","null","<p style=""font-size: 60px; font-family: BACS"">cRElDCdt</p>","","","","","","","","",""
"html-keyboard-response","164","282243","0.0-9.0-0.76","5ee25b060f0ccf35b31431af","64e77d7b61f440b60e28659d","64ecab5b62184951e3f361b6","null","null","<p style=""font-size: 60px; font-family: BACS"">kGamNkmU</p>","","","","","","","","",""
"html-keyboard-response","165","283255","0.0-9.0-0.77","5ee25b060f0ccf35b31431af","64e77d7b61f440b60e28659d","64ecab5b62184951e3f361b6","null","null","<p style=""font-size: 60px; font-family: BACS"">dRbDbYBO</p>","","","","","","","","",""
"html-keyboard-response","166","284270","0.0-9.0-0.78","5ee25b060f0ccf35b31431af","64e77d7b61f440b60e28659d","64ecab5b62184951e3f361b6","null","null","<p style=""font-size: 60px; font-family: BACS"">kNuaOcN</p>","","","","","","","","",""
"html-keyboard-response","167","285278","0.0-9.0-0.79","5ee25b060f0ccf35b31431af","64e77d7b61f440b60e28659d","64ecab5b62184951e3f361b6","null","null","<p style=""font-size: 60px; font-family: BACS"">BOCRMYBO</p>","","","","","","","","",""
"html-keyboard-response","168","345143","0.0-10.0","5ee25b060f0ccf35b31431af","64e77d7b61f440b60e28659d","64ecab5b62184951e3f361b6","59865"," ","<p>Great, you've seen the second block of words. You may now take a short break.</p>
      <p>Press the spacebar when you're ready to continue.</p>","","","","","","","","",""
"html-keyboard-response","169","346151","0.0-11.0-0.0","5ee25b060f0ccf35b31431af","64e77d7b61f440b60e28659d","64ecab5b62184951e3f361b6","null","null","<p style=""font-size: 60px; font-family: BACS"">COtBDTbk</p>","","","","","","","","",""
"html-keyboard-response","170","347153","0.0-11.0-0.1","5ee25b060f0ccf35b31431af","64e77d7b61f440b60e28659d","64ecab5b62184951e3f361b6","null","null","<p style=""font-size: 60px; font-family: BACS"">kNuamLJ</p>","","","","","","","","",""
"html-keyboard-response","171","348167","0.0-11.0-0.2","5ee25b060f0ccf35b31431af","64e77d7b61f440b60e28659d","64ecab5b62184951e3f361b6","null","null","<p style=""font-size: 60px; font-family: BACS"">ldAaLaA</p>","","","","","","","","",""
"html-keyboard-response","172","349177","0.0-11.0-0.3","5ee25b060f0ccf35b31431af","64e77d7b61f440b60e28659d","64ecab5b62184951e3f361b6","null","null","<p style=""font-size: 60px; font-family: BACS"">cAZumLJ</p>","","","","","","","","",""
"html-keyboard-response","173","350180","0.0-11.0-0.4","5ee25b060f0ccf35b31431af","64e77d7b61f440b60e28659d","64ecab5b62184951e3f361b6","null","null","<p style=""font-size: 60px; font-family: BACS"">tKDmhEKBO</p>","","","","","","","","",""
"html-keyboard-response","174","351181","0.0-11.0-0.5","5ee25b060f0ccf35b31431af","64e77d7b61f440b60e28659d","64ecab5b62184951e3f361b6","null","null","<p style=""font-size: 60px; font-family: BACS"">vJabLaA</p>","","","","","","","","",""
"html-keyboard-response","175","352195","0.0-11.0-0.6","5ee25b060f0ccf35b31431af","64e77d7b61f440b60e28659d","64ecab5b62184951e3f361b6","null","null","<p style=""font-size: 60px; font-family: BACS"">dkLlOcN</p>","","","","","","","","",""
"html-keyboard-response","176","353211","0.0-11.0-0.7","5ee25b060f0ccf35b31431af","64e77d7b61f440b60e28659d","64ecab5b62184951e3f361b6","null","null","<p style=""font-size: 60px; font-family: BACS"">kGamNOJNk</p>","","","","","","","","",""
"html-keyboard-response","177","354213","0.0-11.0-0.8","5ee25b060f0ccf35b31431af","64e77d7b61f440b60e28659d","64ecab5b62184951e3f361b6","null","null","<p style=""font-size: 60px; font-family: BACS"">tRPDYBO</p>","","","","","","","","",""
"html-keyboard-response","178","355213","0.0-11.0-0.9","5ee25b060f0ccf35b31431af","64e77d7b61f440b60e28659d","64ecab5b62184951e3f361b6","null","null","<p style=""font-size: 60px; font-family: BACS"">dRbDbkDOm</p>","","","","","","","","",""
"html-keyboard-response","179","356224","0.0-11.0-0.10","5ee25b060f0ccf35b31431af","64e77d7b61f440b60e28659d","64ecab5b62184951e3f361b6","null","null","<p style=""font-size: 60px; font-family: BACS"">kGamNmLJ</p>","","","","","","","","",""
"html-keyboard-response","180","357226","0.0-11.0-0.11","5ee25b060f0ccf35b31431af","64e77d7b61f440b60e28659d","64ecab5b62184951e3f361b6","null","null","<p style=""font-size: 60px; font-family: BACS"">ZkGmYOJNk</p>","","","","","","","","",""
"html-keyboard-response","181","358226","0.0-11.0-0.12","5ee25b060f0ccf35b31431af","64e77d7b61f440b60e28659d","64ecab5b62184951e3f361b6","null","null","<p style=""font-size: 60px; font-family: BACS"">TdmACdt</p>","","","","","","","","",""
"html-keyboard-response","182","359239","0.0-11.0-0.13","5ee25b060f0ccf35b31431af","64e77d7b61f440b60e28659d","64ecab5b62184951e3f361b6","null","null","<p style=""font-size: 60px; font-family: BACS"">dkLlLaA</p>","","","","","","","","",""
"html-keyboard-response","183","360241","0.0-11.0-0.14","5ee25b060f0ccf35b31431af","64e77d7b61f440b60e28659d","64ecab5b62184951e3f361b6","null","null","<p style=""font-size: 60px; font-family: BACS"">cAZukmU</p>","","","","","","","","",""
"html-keyboard-response","184","361244","0.0-11.0-0.15","5ee25b060f0ccf35b31431af","64e77d7b61f440b60e28659d","64ecab5b62184951e3f361b6","null","null","<p style=""font-size: 60px; font-family: BACS"">vJabmLJ</p>","","","","","","","","",""
"html-keyboard-response","185","362259","0.0-11.0-0.16","5ee25b060f0ccf35b31431af","64e77d7b61f440b60e28659d","64ecab5b62184951e3f361b6","null","null","<p style=""font-size: 60px; font-family: BACS"">AbKDEKBO</p>","","","","","","","","",""
"html-keyboard-response","186","363272","0.0-11.0-0.17","5ee25b060f0ccf35b31431af","64e77d7b61f440b60e28659d","64ecab5b62184951e3f361b6","null","null","<p style=""font-size: 60px; font-family: BACS"">kNuaLaA</p>","","","","","","","","",""
"html-keyboard-response","187","364284","0.0-11.0-0.18","5ee25b060f0ccf35b31431af","64e77d7b61f440b60e28659d","64ecab5b62184951e3f361b6","null","null","<p style=""font-size: 60px; font-family: BACS"">ldAamLJ</p>","","","","","","","","",""
"html-keyboard-response","188","365294","0.0-11.0-0.19","5ee25b060f0ccf35b31431af","64e77d7b61f440b60e28659d","64ecab5b62184951e3f361b6","null","null","<p style=""font-size: 60px; font-family: BACS"">COtBDkDOm</p>","","","","","","","","",""
"html-keyboard-response","189","366305","0.0-11.0-0.20","5ee25b060f0ccf35b31431af","64e77d7b61f440b60e28659d","64ecab5b62184951e3f361b6","null","null","<p style=""font-size: 60px; font-family: BACS"">ZkGmYOcN</p>","","","","","","","","",""
"html-keyboard-response","190","367316","0.0-11.0-0.21","5ee25b060f0ccf35b31431af","64e77d7b61f440b60e28659d","64ecab5b62184951e3f361b6","null","null","<p style=""font-size: 60px; font-family: BACS"">tKDmhkDOm</p>","","","","","","","","",""
"html-keyboard-response","191","368318","0.0-11.0-0.22","5ee25b060f0ccf35b31431af","64e77d7b61f440b60e28659d","64ecab5b62184951e3f361b6","null","null","<p style=""font-size: 60px; font-family: BACS"">aYaNmLJ</p>","","","","","","","","",""
"html-keyboard-response","192","369330","0.0-11.0-0.23","5ee25b060f0ccf35b31431af","64e77d7b61f440b60e28659d","64ecab5b62184951e3f361b6","null","null","<p style=""font-size: 60px; font-family: BACS"">tKDmhTbk</p>","","","","","","","","",""
"html-keyboard-response","193","370339","0.0-11.0-0.24","5ee25b060f0ccf35b31431af","64e77d7b61f440b60e28659d","64ecab5b62184951e3f361b6","null","null","<p style=""font-size: 60px; font-family: BACS"">COTKCdt</p>","","","","","","","","",""
"html-keyboard-response","194","371354","0.0-11.0-0.25","5ee25b060f0ccf35b31431af","64e77d7b61f440b60e28659d","64ecab5b62184951e3f361b6","null","null","<p style=""font-size: 60px; font-family: BACS"">tRPDEKBO</p>","","","","","","","","",""
"html-keyboard-response","195","372370","0.0-11.0-0.26","5ee25b060f0ccf35b31431af","64e77d7b61f440b60e28659d","64ecab5b62184951e3f361b6","null","null","<p style=""font-size: 60px; font-family: BACS"">ZkGmYLaA</p>","","","","","","","","",""
"html-keyboard-response","196","373385","0.0-11.0-0.27","5ee25b060f0ccf35b31431af","64e77d7b61f440b60e28659d","64ecab5b62184951e3f361b6","null","null","<p style=""font-size: 60px; font-family: BACS"">COTKkDOm</p>","","","","","","","","",""
"html-keyboard-response","197","374399","0.0-11.0-0.28","5ee25b060f0ccf35b31431af","64e77d7b61f440b60e28659d","64ecab5b62184951e3f361b6","null","null","<p style=""font-size: 60px; font-family: BACS"">EhRmTbk</p>","","","","","","","","",""
"html-keyboard-response","198","375405","0.0-11.0-0.29","5ee25b060f0ccf35b31431af","64e77d7b61f440b60e28659d","64ecab5b62184951e3f361b6","null","null","<p style=""font-size: 60px; font-family: BACS"">aYaNLaA</p>","","","","","","","","",""
"html-keyboard-response","199","376421","0.0-11.0-0.30","5ee25b060f0ccf35b31431af","64e77d7b61f440b60e28659d","64ecab5b62184951e3f361b6","null","null","<p style=""font-size: 60px; font-family: BACS"">dkLlkmU</p>","","","","","","","","",""
"html-keyboard-response","200","377434","0.0-11.0-0.31","5ee25b060f0ccf35b31431af","64e77d7b61f440b60e28659d","64ecab5b62184951e3f361b6","null","null","<p style=""font-size: 60px; font-family: BACS"">vJabOcN</p>","","","","","","","","",""
"html-keyboard-response","201","378447","0.0-11.0-0.32","5ee25b060f0ccf35b31431af","64e77d7b61f440b60e28659d","64ecab5b62184951e3f361b6","null","null","<p style=""font-size: 60px; font-family: BACS"">ldAaOJNk</p>","","","","","","","","",""
"html-keyboard-response","202","379450","0.0-11.0-0.33","5ee25b060f0ccf35b31431af","64e77d7b61f440b60e28659d","64ecab5b62184951e3f361b6","null","null","<p style=""font-size: 60px; font-family: BACS"">dRbDbYBO</p>","","","","","","","","",""
"html-keyboard-response","203","380466","0.0-11.0-0.34","5ee25b060f0ccf35b31431af","64e77d7b61f440b60e28659d","64ecab5b62184951e3f361b6","null","null","<p style=""font-size: 60px; font-family: BACS"">YUNkZOcN</p>","","","","","","","","",""
"html-keyboard-response","204","381477","0.0-11.0-0.35","5ee25b060f0ccf35b31431af","64e77d7b61f440b60e28659d","64ecab5b62184951e3f361b6","null","null","<p style=""font-size: 60px; font-family: BACS"">dRbDbTbk</p>","","","","","","","","",""
"html-keyboard-response","205","382493","0.0-11.0-0.36","5ee25b060f0ccf35b31431af","64e77d7b61f440b60e28659d","64ecab5b62184951e3f361b6","null","null","<p style=""font-size: 60px; font-family: BACS"">dkLlOJNk</p>","","","","","","","","",""
"html-keyboard-response","206","383494","0.0-11.0-0.37","5ee25b060f0ccf35b31431af","64e77d7b61f440b60e28659d","64ecab5b62184951e3f361b6","null","null","<p style=""font-size: 60px; font-family: BACS"">cRElDkDOm</p>","","","","","","","","",""
"html-keyboard-response","207","384507","0.0-11.0-0.38","5ee25b060f0ccf35b31431af","64e77d7b61f440b60e28659d","64ecab5b62184951e3f361b6","null","null","<p style=""font-size: 60px; font-family: BACS"">ZkGmYkmU</p>","","","","","","","","",""
"html-keyboard-response","208","385521","0.0-11.0-0.39","5ee25b060f0ccf35b31431af","64e77d7b61f440b60e28659d","64ecab5b62184951e3f361b6","null","null","<p style=""font-size: 60px; font-family: BACS"">BOCRMCdt</p>","","","","","","","","",""
"html-keyboard-response","209","386530","0.0-11.0-0.40","5ee25b060f0ccf35b31431af","64e77d7b61f440b60e28659d","64ecab5b62184951e3f361b6","null","null","<p style=""font-size: 60px; font-family: BACS"">ldAakmU</p>","","","","","","","","",""
"html-keyboard-response","210","387543","0.0-11.0-0.41","5ee25b060f0ccf35b31431af","64e77d7b61f440b60e28659d","64ecab5b62184951e3f361b6","null","null","<p style=""font-size: 60px; font-family: BACS"">BOCRMYBO</p>","","","","","","","","",""
"html-keyboard-response","211","388555","0.0-11.0-0.42","5ee25b060f0ccf35b31431af","64e77d7b61f440b60e28659d","64ecab5b62184951e3f361b6","null","null","<p style=""font-size: 60px; font-family: BACS"">kNuakmU</p>","","","","","","","","",""
"html-keyboard-response","212","389571","0.0-11.0-0.43","5ee25b060f0ccf35b31431af","64e77d7b61f440b60e28659d","64ecab5b62184951e3f361b6","null","null","<p style=""font-size: 60px; font-family: BACS"">aYaNOJNk</p>","","","","","","","","",""
"html-keyboard-response","213","390586","0.0-11.0-0.44","5ee25b060f0ccf35b31431af","64e77d7b61f440b60e28659d","64ecab5b62184951e3f361b6","null","null","<p style=""font-size: 60px; font-family: BACS"">COTKEKBO</p>","","","","","","","","",""
"html-keyboard-response","214","391596","0.0-11.0-0.45","5ee25b060f0ccf35b31431af","64e77d7b61f440b60e28659d","64ecab5b62184951e3f361b6","null","null","<p style=""font-size: 60px; font-family: BACS"">cAZuOcN</p>","","","","","","","","",""
"html-keyboard-response","215","392597","0.0-11.0-0.46","5ee25b060f0ccf35b31431af","64e77d7b61f440b60e28659d","64ecab5b62184951e3f361b6","null","null","<p style=""font-size: 60px; font-family: BACS"">BOCRMEKBO</p>","","","","","","","","",""
"html-keyboard-response","216","393598","0.0-11.0-0.47","5ee25b060f0ccf35b31431af","64e77d7b61f440b60e28659d","64ecab5b62184951e3f361b6","null","null","<p style=""font-size: 60px; font-family: BACS"">YOZNmLJ</p>","","","","","","","","",""
"html-keyboard-response","217","394599","0.0-11.0-0.48","5ee25b060f0ccf35b31431af","64e77d7b61f440b60e28659d","64ecab5b62184951e3f361b6","null","null","<p style=""font-size: 60px; font-family: BACS"">kNuaOcN</p>","","","","","","","","",""
"html-keyboard-response","218","395604","0.0-11.0-0.49","5ee25b060f0ccf35b31431af","64e77d7b61f440b60e28659d","64ecab5b62184951e3f361b6","null","null","<p style=""font-size: 60px; font-family: BACS"">COtBDEKBO</p>","","","","","","","","",""
"html-keyboard-response","219","396616","0.0-11.0-0.50","5ee25b060f0ccf35b31431af","64e77d7b61f440b60e28659d","64ecab5b62184951e3f361b6","null","null","<p style=""font-size: 60px; font-family: BACS"">TdmATbk</p>","","","","","","","","",""
"html-keyboard-response","220","397625","0.0-11.0-0.51","5ee25b060f0ccf35b31431af","64e77d7b61f440b60e28659d","64ecab5b62184951e3f361b6","null","null","<p style=""font-size: 60px; font-family: BACS"">YOZNOJNk</p>","","","","","","","","",""
"html-keyboard-response","221","398632","0.0-11.0-0.52","5ee25b060f0ccf35b31431af","64e77d7b61f440b60e28659d","64ecab5b62184951e3f361b6","null","null","<p style=""font-size: 60px; font-family: BACS"">YUNkZkmU</p>","","","","","","","","",""
"html-keyboard-response","222","399643","0.0-11.0-0.53","5ee25b060f0ccf35b31431af","64e77d7b61f440b60e28659d","64ecab5b62184951e3f361b6","null","null","<p style=""font-size: 60px; font-family: BACS"">cRElDYBO</p>","","","","","","","","",""
"html-keyboard-response","223","400654","0.0-11.0-0.54","5ee25b060f0ccf35b31431af","64e77d7b61f440b60e28659d","64ecab5b62184951e3f361b6","null","null","<p style=""font-size: 60px; font-family: BACS"">AbKDkDOm</p>","","","","","","","","",""
"html-keyboard-response","224","401666","0.0-11.0-0.55","5ee25b060f0ccf35b31431af","64e77d7b61f440b60e28659d","64ecab5b62184951e3f361b6","null","null","<p style=""font-size: 60px; font-family: BACS"">kGamNkmU</p>","","","","","","","","",""
"html-keyboard-response","225","402676","0.0-11.0-0.56","5ee25b060f0ccf35b31431af","64e77d7b61f440b60e28659d","64ecab5b62184951e3f361b6","null","null","<p style=""font-size: 60px; font-family: BACS"">cRElDEKBO</p>","","","","","","","","",""
"html-keyboard-response","226","403683","0.0-11.0-0.57","5ee25b060f0ccf35b31431af","64e77d7b61f440b60e28659d","64ecab5b62184951e3f361b6","null","null","<p style=""font-size: 60px; font-family: BACS"">tKDmhCdt</p>","","","","","","","","",""
"html-keyboard-response","227","404688","0.0-11.0-0.58","5ee25b060f0ccf35b31431af","64e77d7b61f440b60e28659d","64ecab5b62184951e3f361b6","null","null","<p style=""font-size: 60px; font-family: BACS"">YOZNkmU</p>","","","","","","","","",""
"html-keyboard-response","228","405700","0.0-11.0-0.59","5ee25b060f0ccf35b31431af","64e77d7b61f440b60e28659d","64ecab5b62184951e3f361b6","null","null","<p style=""font-size: 60px; font-family: BACS"">cAZuOJNk</p>","","","","","","","","",""
"html-keyboard-response","229","406713","0.0-11.0-0.60","5ee25b060f0ccf35b31431af","64e77d7b61f440b60e28659d","64ecab5b62184951e3f361b6","null","null","<p style=""font-size: 60px; font-family: BACS"">TdmAYBO</p>","","","","","","","","",""
"html-keyboard-response","230","407728","0.0-11.0-0.61","5ee25b060f0ccf35b31431af","64e77d7b61f440b60e28659d","64ecab5b62184951e3f361b6","null","null","<p style=""font-size: 60px; font-family: BACS"">vJabOJNk</p>","","","","","","","","",""
"html-keyboard-response","231","408742","0.0-11.0-0.62","5ee25b060f0ccf35b31431af","64e77d7b61f440b60e28659d","64ecab5b62184951e3f361b6","null","null","<p style=""font-size: 60px; font-family: BACS"">BOCRMTbk</p>","","","","","","","","",""
"html-keyboard-response","232","409755","0.0-11.0-0.63","5ee25b060f0ccf35b31431af","64e77d7b61f440b60e28659d","64ecab5b62184951e3f361b6","null","null","<p style=""font-size: 60px; font-family: BACS"">AbKDCdt</p>","","","","","","","","",""
"html-keyboard-response","233","410769","0.0-11.0-0.64","5ee25b060f0ccf35b31431af","64e77d7b61f440b60e28659d","64ecab5b62184951e3f361b6","null","null","<p style=""font-size: 60px; font-family: BACS"">kGamNLaA</p>","","","","","","","","",""
"html-keyboard-response","234","411770","0.0-11.0-0.65","5ee25b060f0ccf35b31431af","64e77d7b61f440b60e28659d","64ecab5b62184951e3f361b6","null","null","<p style=""font-size: 60px; font-family: BACS"">dRbDbEKBO</p>","","","","","","","","",""
"html-keyboard-response","235","412784","0.0-11.0-0.66","5ee25b060f0ccf35b31431af","64e77d7b61f440b60e28659d","64ecab5b62184951e3f361b6","null","null","<p style=""font-size: 60px; font-family: BACS"">tRPDCdt</p>","","","","","","","","",""
"html-keyboard-response","236","413800","0.0-11.0-0.67","5ee25b060f0ccf35b31431af","64e77d7b61f440b60e28659d","64ecab5b62184951e3f361b6","null","null","<p style=""font-size: 60px; font-family: BACS"">COtBDYBO</p>","","","","","","","","",""
"html-keyboard-response","237","414801","0.0-11.0-0.68","5ee25b060f0ccf35b31431af","64e77d7b61f440b60e28659d","64ecab5b62184951e3f361b6","null","null","<p style=""font-size: 60px; font-family: BACS"">cRElDCdt</p>","","","","","","","","",""
"html-keyboard-response","238","415805","0.0-11.0-0.69","5ee25b060f0ccf35b31431af","64e77d7b61f440b60e28659d","64ecab5b62184951e3f361b6","null","null","<p style=""font-size: 60px; font-family: BACS"">TdmAkDOm</p>","","","","","","","","",""
"html-keyboard-response","239","416807","0.0-11.0-0.70","5ee25b060f0ccf35b31431af","64e77d7b61f440b60e28659d","64ecab5b62184951e3f361b6","null","null","<p style=""font-size: 60px; font-family: BACS"">tRPDTbk</p>","","","","","","","","",""
"html-keyboard-response","240","417820","0.0-11.0-0.71","5ee25b060f0ccf35b31431af","64e77d7b61f440b60e28659d","64ecab5b62184951e3f361b6","null","null","<p style=""font-size: 60px; font-family: BACS"">EhRmYBO</p>","","","","","","","","",""
"html-keyboard-response","241","418821","0.0-11.0-0.72","5ee25b060f0ccf35b31431af","64e77d7b61f440b60e28659d","64ecab5b62184951e3f361b6","null","null","<p style=""font-size: 60px; font-family: BACS"">YUNkZmLJ</p>","","","","","","","","",""
"html-keyboard-response","242","419835","0.0-11.0-0.73","5ee25b060f0ccf35b31431af","64e77d7b61f440b60e28659d","64ecab5b62184951e3f361b6","null","null","<p style=""font-size: 60px; font-family: BACS"">EhRmkDOm</p>","","","","","","","","",""
"html-keyboard-response","243","420850","0.0-11.0-0.74","5ee25b060f0ccf35b31431af","64e77d7b61f440b60e28659d","64ecab5b62184951e3f361b6","null","null","<p style=""font-size: 60px; font-family: BACS"">AbKDYBO</p>","","","","","","","","",""
"html-keyboard-response","244","421852","0.0-11.0-0.75","5ee25b060f0ccf35b31431af","64e77d7b61f440b60e28659d","64ecab5b62184951e3f361b6","null","null","<p style=""font-size: 60px; font-family: BACS"">EhRmCdt</p>","","","","","","","","",""
"html-keyboard-response","245","422862","0.0-11.0-0.76","5ee25b060f0ccf35b31431af","64e77d7b61f440b60e28659d","64ecab5b62184951e3f361b6","null","null","<p style=""font-size: 60px; font-family: BACS"">YOZNOcN</p>","","","","","","","","",""
"html-keyboard-response","246","423876","0.0-11.0-0.77","5ee25b060f0ccf35b31431af","64e77d7b61f440b60e28659d","64ecab5b62184951e3f361b6","null","null","<p style=""font-size: 60px; font-family: BACS"">YUNkZLaA</p>","","","","","","","","",""
"html-keyboard-response","247","424886","0.0-11.0-0.78","5ee25b060f0ccf35b31431af","64e77d7b61f440b60e28659d","64ecab5b62184951e3f361b6","null","null","<p style=""font-size: 60px; font-family: BACS"">COTKTbk</p>","","","","","","","","",""
"html-keyboard-response","248","425899","0.0-11.0-0.79","5ee25b060f0ccf35b31431af","64e77d7b61f440b60e28659d","64ecab5b62184951e3f361b6","null","null","<p style=""font-size: 60px; font-family: BACS"">aYaNOcN</p>","","","","","","","","",""
"html-keyboard-response","249","510673","0.0-12.0","5ee25b060f0ccf35b31431af","64e77d7b61f440b60e28659d","64ecab5b62184951e3f361b6","84773"," ","<p>Great, you've seen the third block of words. You may now take a short break.</p>
      <p>Press the spacebar when you're ready to continue.</p>","","","","","","","","",""
"html-keyboard-response","250","511674","0.0-13.0-0.0","5ee25b060f0ccf35b31431af","64e77d7b61f440b60e28659d","64ecab5b62184951e3f361b6","null","null","<p style=""font-size: 60px; font-family: BACS"">TdmAYBO</p>","","","","","","","","",""
"html-keyboard-response","251","512682","0.0-13.0-0.1","5ee25b060f0ccf35b31431af","64e77d7b61f440b60e28659d","64ecab5b62184951e3f361b6","null","null","<p style=""font-size: 60px; font-family: BACS"">cAZuOcN</p>","","","","","","","","",""
"html-keyboard-response","252","513697","0.0-13.0-0.2","5ee25b060f0ccf35b31431af","64e77d7b61f440b60e28659d","64ecab5b62184951e3f361b6","null","null","<p style=""font-size: 60px; font-family: BACS"">vJabLaA</p>","","","","","","","","",""
"html-keyboard-response","253","514702","0.0-13.0-0.3","5ee25b060f0ccf35b31431af","64e77d7b61f440b60e28659d","64ecab5b62184951e3f361b6","null","null","<p style=""font-size: 60px; font-family: BACS"">BOCRMCdt</p>","","","","","","","","",""
"html-keyboard-response","254","515718","0.0-13.0-0.4","5ee25b060f0ccf35b31431af","64e77d7b61f440b60e28659d","64ecab5b62184951e3f361b6","null","null","<p style=""font-size: 60px; font-family: BACS"">YUNkZOcN</p>","","","","","","","","",""
"html-keyboard-response","255","516720","0.0-13.0-0.5","5ee25b060f0ccf35b31431af","64e77d7b61f440b60e28659d","64ecab5b62184951e3f361b6","null","null","<p style=""font-size: 60px; font-family: BACS"">ZkGmYOJNk</p>","","","","","","","","",""
"html-keyboard-response","256","517726","0.0-13.0-0.6","5ee25b060f0ccf35b31431af","64e77d7b61f440b60e28659d","64ecab5b62184951e3f361b6","null","null","<p style=""font-size: 60px; font-family: BACS"">dkLlkmU</p>","","","","","","","","",""
"html-keyboard-response","257","518733","0.0-13.0-0.7","5ee25b060f0ccf35b31431af","64e77d7b61f440b60e28659d","64ecab5b62184951e3f361b6","null","null","<p style=""font-size: 60px; font-family: BACS"">cRElDCdt</p>","","","","","","","","",""
"html-keyboard-response","258","519742","0.0-13.0-0.8","5ee25b060f0ccf35b31431af","64e77d7b61f440b60e28659d","64ecab5b62184951e3f361b6","null","null","<p style=""font-size: 60px; font-family: BACS"">YUNkZmLJ</p>","","","","","","","","",""
"html-keyboard-response","259","520753","0.0-13.0-0.9","5ee25b060f0ccf35b31431af","64e77d7b61f440b60e28659d","64ecab5b62184951e3f361b6","null","null","<p style=""font-size: 60px; font-family: BACS"">tKDmhEKBO</p>","","","","","","","","",""
"html-keyboard-response","260","521755","0.0-13.0-0.10","5ee25b060f0ccf35b31431af","64e77d7b61f440b60e28659d","64ecab5b62184951e3f361b6","null","null","<p style=""font-size: 60px; font-family: BACS"">kGamNOJNk</p>","","","","","","","","",""
"html-keyboard-response","261","522756","0.0-13.0-0.11","5ee25b060f0ccf35b31431af","64e77d7b61f440b60e28659d","64ecab5b62184951e3f361b6","null","null","<p style=""font-size: 60px; font-family: BACS"">kNuakmU</p>","","","","","","","","",""
"html-keyboard-response","262","523771","0.0-13.0-0.12","5ee25b060f0ccf35b31431af","64e77d7b61f440b60e28659d","64ecab5b62184951e3f361b6","null","null","<p style=""font-size: 60px; font-family: BACS"">aYaNLaA</p>","","","","","","","","",""
"html-keyboard-response","263","524784","0.0-13.0-0.13","5ee25b060f0ccf35b31431af","64e77d7b61f440b60e28659d","64ecab5b62184951e3f361b6","null","null","<p style=""font-size: 60px; font-family: BACS"">COTKEKBO</p>","","","","","","","","",""
"html-keyboard-response","264","525797","0.0-13.0-0.14","5ee25b060f0ccf35b31431af","64e77d7b61f440b60e28659d","64ecab5b62184951e3f361b6","null","null","<p style=""font-size: 60px; font-family: BACS"">vJabOJNk</p>","","","","","","","","",""
"html-keyboard-response","265","526810","0.0-13.0-0.15","5ee25b060f0ccf35b31431af","64e77d7b61f440b60e28659d","64ecab5b62184951e3f361b6","null","null","<p style=""font-size: 60px; font-family: BACS"">COtBDEKBO</p>","","","","","","","","",""
"html-keyboard-response","266","527825","0.0-13.0-0.16","5ee25b060f0ccf35b31431af","64e77d7b61f440b60e28659d","64ecab5b62184951e3f361b6","null","null","<p style=""font-size: 60px; font-family: BACS"">ldAamLJ</p>","","","","","","","","",""
"html-keyboard-response","267","528840","0.0-13.0-0.17","5ee25b060f0ccf35b31431af","64e77d7b61f440b60e28659d","64ecab5b62184951e3f361b6","null","null","<p style=""font-size: 60px; font-family: BACS"">EhRmTbk</p>","","","","","","","","",""
"html-keyboard-response","268","529843","0.0-13.0-0.18","5ee25b060f0ccf35b31431af","64e77d7b61f440b60e28659d","64ecab5b62184951e3f361b6","null","null","<p style=""font-size: 60px; font-family: BACS"">dRbDbkDOm</p>","","","","","","","","",""
"html-keyboard-response","269","530845","0.0-13.0-0.19","5ee25b060f0ccf35b31431af","64e77d7b61f440b60e28659d","64ecab5b62184951e3f361b6","null","null","<p style=""font-size: 60px; font-family: BACS"">aYaNOcN</p>","","","","","","","","",""
"html-keyboard-response","270","531850","0.0-13.0-0.20","5ee25b060f0ccf35b31431af","64e77d7b61f440b60e28659d","64ecab5b62184951e3f361b6","null","null","<p style=""font-size: 60px; font-family: BACS"">ZkGmYkmU</p>","","","","","","","","",""
"html-keyboard-response","271","532863","0.0-13.0-0.21","5ee25b060f0ccf35b31431af","64e77d7b61f440b60e28659d","64ecab5b62184951e3f361b6","null","null","<p style=""font-size: 60px; font-family: BACS"">dkLlLaA</p>","","","","","","","","",""
"html-keyboard-response","272","533877","0.0-13.0-0.22","5ee25b060f0ccf35b31431af","64e77d7b61f440b60e28659d","64ecab5b62184951e3f361b6","null","null","<p style=""font-size: 60px; font-family: BACS"">dRbDbTbk</p>","","","","","","","","",""
"html-keyboard-response","273","534892","0.0-13.0-0.23","5ee25b060f0ccf35b31431af","64e77d7b61f440b60e28659d","64ecab5b62184951e3f361b6","null","null","<p style=""font-size: 60px; font-family: BACS"">YUNkZkmU</p>","","","","","","","","",""
"html-keyboard-response","274","535898","0.0-13.0-0.24","5ee25b060f0ccf35b31431af","64e77d7b61f440b60e28659d","64ecab5b62184951e3f361b6","null","null","<p style=""font-size: 60px; font-family: BACS"">kGamNmLJ</p>","","","","","","","","",""
"html-keyboard-response","275","536910","0.0-13.0-0.25","5ee25b060f0ccf35b31431af","64e77d7b61f440b60e28659d","64ecab5b62184951e3f361b6","null","null","<p style=""font-size: 60px; font-family: BACS"">ldAaOJNk</p>","","","","","","","","",""
"html-keyboard-response","276","537920","0.0-13.0-0.26","5ee25b060f0ccf35b31431af","64e77d7b61f440b60e28659d","64ecab5b62184951e3f361b6","null","null","<p style=""font-size: 60px; font-family: BACS"">EhRmYBO</p>","","","","","","","","",""
"html-keyboard-response","277","538922","0.0-13.0-0.27","5ee25b060f0ccf35b31431af","64e77d7b61f440b60e28659d","64ecab5b62184951e3f361b6","null","null","<p style=""font-size: 60px; font-family: BACS"">tRPDTbk</p>","","","","","","","","",""
"html-keyboard-response","278","539929","0.0-13.0-0.28","5ee25b060f0ccf35b31431af","64e77d7b61f440b60e28659d","64ecab5b62184951e3f361b6","null","null","<p style=""font-size: 60px; font-family: BACS"">ldAakmU</p>","","","","","","","","",""
"html-keyboard-response","279","540930","0.0-13.0-0.29","5ee25b060f0ccf35b31431af","64e77d7b61f440b60e28659d","64ecab5b62184951e3f361b6","null","null","<p style=""font-size: 60px; font-family: BACS"">kNuamLJ</p>","","","","","","","","",""
"html-keyboard-response","280","541931","0.0-13.0-0.30","5ee25b060f0ccf35b31431af","64e77d7b61f440b60e28659d","64ecab5b62184951e3f361b6","null","null","<p style=""font-size: 60px; font-family: BACS"">COTKCdt</p>","","","","","","","","",""
"html-keyboard-response","281","542933","0.0-13.0-0.31","5ee25b060f0ccf35b31431af","64e77d7b61f440b60e28659d","64ecab5b62184951e3f361b6","null","null","<p style=""font-size: 60px; font-family: BACS"">kGamNLaA</p>","","","","","","","","",""
"html-keyboard-response","282","543940","0.0-13.0-0.32","5ee25b060f0ccf35b31431af","64e77d7b61f440b60e28659d","64ecab5b62184951e3f361b6","null","null","<p style=""font-size: 60px; font-family: BACS"">cRElDEKBO</p>","","","","","","","","",""
"html-keyboard-response","283","544955","0.0-13.0-0.33","5ee25b060f0ccf35b31431af","64e77d7b61f440b60e28659d","64ecab5b62184951e3f361b6","null","null","<p style=""font-size: 60px; font-family: BACS"">YOZNOJNk</p>","","","","","","","","",""
"html-keyboard-response","284","545964","0.0-13.0-0.34","5ee25b060f0ccf35b31431af","64e77d7b61f440b60e28659d","64ecab5b62184951e3f361b6","null","null","<p style=""font-size: 60px; font-family: BACS"">BOCRMYBO</p>","","","","","","","","",""
"html-keyboard-response","285","546980","0.0-13.0-0.35","5ee25b060f0ccf35b31431af","64e77d7b61f440b60e28659d","64ecab5b62184951e3f361b6","null","null","<p style=""font-size: 60px; font-family: BACS"">ldAaLaA</p>","","","","","","","","",""
"html-keyboard-response","286","547992","0.0-13.0-0.36","5ee25b060f0ccf35b31431af","64e77d7b61f440b60e28659d","64ecab5b62184951e3f361b6","null","null","<p style=""font-size: 60px; font-family: BACS"">BOCRMEKBO</p>","","","","","","","","",""
"html-keyboard-response","287","548993","0.0-13.0-0.37","5ee25b060f0ccf35b31431af","64e77d7b61f440b60e28659d","64ecab5b62184951e3f361b6","null","null","<p style=""font-size: 60px; font-family: BACS"">kNuaLaA</p>","","","","","","","","",""
"html-keyboard-response","288","549995","0.0-13.0-0.38","5ee25b060f0ccf35b31431af","64e77d7b61f440b60e28659d","64ecab5b62184951e3f361b6","null","null","<p style=""font-size: 60px; font-family: BACS"">dkLlOJNk</p>","","","","","","","","",""
"html-keyboard-response","289","550997","0.0-13.0-0.39","5ee25b060f0ccf35b31431af","64e77d7b61f440b60e28659d","64ecab5b62184951e3f361b6","null","null","<p style=""font-size: 60px; font-family: BACS"">ZkGmYOcN</p>","","","","","","","","",""
"html-keyboard-response","290","551998","0.0-13.0-0.40","5ee25b060f0ccf35b31431af","64e77d7b61f440b60e28659d","64ecab5b62184951e3f361b6","null","null","<p style=""font-size: 60px; font-family: BACS"">BOCRMTbk</p>","","","","","","","","",""
"html-keyboard-response","291","553012","0.0-13.0-0.41","5ee25b060f0ccf35b31431af","64e77d7b61f440b60e28659d","64ecab5b62184951e3f361b6","null","null","<p style=""font-size: 60px; font-family: BACS"">kNuaOcN</p>","","","","","","","","",""
"html-keyboard-response","292","554025","0.0-13.0-0.42","5ee25b060f0ccf35b31431af","64e77d7b61f440b60e28659d","64ecab5b62184951e3f361b6","null","null","<p style=""font-size: 60px; font-family: BACS"">AbKDkDOm</p>","","","","","","","","",""
"html-keyboard-response","293","555036","0.0-13.0-0.43","5ee25b060f0ccf35b31431af","64e77d7b61f440b60e28659d","64ecab5b62184951e3f361b6","null","null","<p style=""font-size: 60px; font-family: BACS"">cRElDYBO</p>","","","","","","","","",""
"html-keyboard-response","294","556049","0.0-13.0-0.44","5ee25b060f0ccf35b31431af","64e77d7b61f440b60e28659d","64ecab5b62184951e3f361b6","null","null","<p style=""font-size: 60px; font-family: BACS"">TdmATbk</p>","","","","","","","","",""
"html-keyboard-response","295","557061","0.0-13.0-0.45","5ee25b060f0ccf35b31431af","64e77d7b61f440b60e28659d","64ecab5b62184951e3f361b6","null","null","<p style=""font-size: 60px; font-family: BACS"">tRPDYBO</p>","","","","","","","","",""
"html-keyboard-response","296","558073","0.0-13.0-0.46","5ee25b060f0ccf35b31431af","64e77d7b61f440b60e28659d","64ecab5b62184951e3f361b6","null","null","<p style=""font-size: 60px; font-family: BACS"">aYaNmLJ</p>","","","","","","","","",""
"html-keyboard-response","297","559085","0.0-13.0-0.47","5ee25b060f0ccf35b31431af","64e77d7b61f440b60e28659d","64ecab5b62184951e3f361b6","null","null","<p style=""font-size: 60px; font-family: BACS"">COtBDYBO</p>","","","","","","","","",""
"html-keyboard-response","298","560088","0.0-13.0-0.48","5ee25b060f0ccf35b31431af","64e77d7b61f440b60e28659d","64ecab5b62184951e3f361b6","null","null","<p style=""font-size: 60px; font-family: BACS"">TdmACdt</p>","","","","","","","","",""
"html-keyboard-response","299","561102","0.0-13.0-0.49","5ee25b060f0ccf35b31431af","64e77d7b61f440b60e28659d","64ecab5b62184951e3f361b6","null","null","<p style=""font-size: 60px; font-family: BACS"">cAZuOJNk</p>","","","","","","","","",""
"html-keyboard-response","300","562117","0.0-13.0-0.50","5ee25b060f0ccf35b31431af","64e77d7b61f440b60e28659d","64ecab5b62184951e3f361b6","null","null","<p style=""font-size: 60px; font-family: BACS"">YOZNmLJ</p>","","","","","","","","",""
"html-keyboard-response","301","563129","0.0-13.0-0.51","5ee25b060f0ccf35b31431af","64e77d7b61f440b60e28659d","64ecab5b62184951e3f361b6","null","null","<p style=""font-size: 60px; font-family: BACS"">vJabOcN</p>","","","","","","","","",""
"html-keyboard-response","302","564143","0.0-13.0-0.52","5ee25b060f0ccf35b31431af","64e77d7b61f440b60e28659d","64ecab5b62184951e3f361b6","null","null","<p style=""font-size: 60px; font-family: BACS"">cAZumLJ</p>","","","","","","","","",""
"html-keyboard-response","303","565150","0.0-13.0-0.53","5ee25b060f0ccf35b31431af","64e77d7b61f440b60e28659d","64ecab5b62184951e3f361b6","null","null","<p style=""font-size: 60px; font-family: BACS"">COtBDkDOm</p>","","","","","","","","",""
"html-keyboard-response","304","566162","0.0-13.0-0.54","5ee25b060f0ccf35b31431af","64e77d7b61f440b60e28659d","64ecab5b62184951e3f361b6","null","null","<p style=""font-size: 60px; font-family: BACS"">YUNkZLaA</p>","","","","","","","","",""
"html-keyboard-response","305","567173","0.0-13.0-0.55","5ee25b060f0ccf35b31431af","64e77d7b61f440b60e28659d","64ecab5b62184951e3f361b6","null","null","<p style=""font-size: 60px; font-family: BACS"">dRbDbEKBO</p>","","","","","","","","",""
"html-keyboard-response","306","568188","0.0-13.0-0.56","5ee25b060f0ccf35b31431af","64e77d7b61f440b60e28659d","64ecab5b62184951e3f361b6","null","null","<p style=""font-size: 60px; font-family: BACS"">COTKTbk</p>","","","","","","","","",""
"html-keyboard-response","307","569197","0.0-13.0-0.57","5ee25b060f0ccf35b31431af","64e77d7b61f440b60e28659d","64ecab5b62184951e3f361b6","null","null","<p style=""font-size: 60px; font-family: BACS"">tRPDEKBO</p>","","","","","","","","",""
"html-keyboard-response","308","570198","0.0-13.0-0.58","5ee25b060f0ccf35b31431af","64e77d7b61f440b60e28659d","64ecab5b62184951e3f361b6","null","null","<p style=""font-size: 60px; font-family: BACS"">vJabmLJ</p>","","","","","","","","",""
"html-keyboard-response","309","571199","0.0-13.0-0.59","5ee25b060f0ccf35b31431af","64e77d7b61f440b60e28659d","64ecab5b62184951e3f361b6","null","null","<p style=""font-size: 60px; font-family: BACS"">ZkGmYLaA</p>","","","","","","","","",""
"html-keyboard-response","310","572204","0.0-13.0-0.60","5ee25b060f0ccf35b31431af","64e77d7b61f440b60e28659d","64ecab5b62184951e3f361b6","null","null","<p style=""font-size: 60px; font-family: BACS"">EhRmkDOm</p>","","","","","","","","",""
"html-keyboard-response","311","573214","0.0-13.0-0.61","5ee25b060f0ccf35b31431af","64e77d7b61f440b60e28659d","64ecab5b62184951e3f361b6","null","null","<p style=""font-size: 60px; font-family: BACS"">dkLlOcN</p>","","","","","","","","",""
"html-keyboard-response","312","574227","0.0-13.0-0.62","5ee25b060f0ccf35b31431af","64e77d7b61f440b60e28659d","64ecab5b62184951e3f361b6","null","null","<p style=""font-size: 60px; font-family: BACS"">AbKDCdt</p>","","","","","","","","",""
"html-keyboard-response","313","575228","0.0-13.0-0.63","5ee25b060f0ccf35b31431af","64e77d7b61f440b60e28659d","64ecab5b62184951e3f361b6","null","null","<p style=""font-size: 60px; font-family: BACS"">aYaNOJNk</p>","","","","","","","","",""
"html-keyboard-response","314","576244","0.0-13.0-0.64","5ee25b060f0ccf35b31431af","64e77d7b61f440b60e28659d","64ecab5b62184951e3f361b6","null","null","<p style=""font-size: 60px; font-family: BACS"">COTKkDOm</p>","","","","","","","","",""
"html-keyboard-response","315","577258","0.0-13.0-0.65","5ee25b060f0ccf35b31431af","64e77d7b61f440b60e28659d","64ecab5b62184951e3f361b6","null","null","<p style=""font-size: 60px; font-family: BACS"">tRPDCdt</p>","","","","","","","","",""
"html-keyboard-response","316","578269","0.0-13.0-0.66","5ee25b060f0ccf35b31431af","64e77d7b61f440b60e28659d","64ecab5b62184951e3f361b6","null","null","<p style=""font-size: 60px; font-family: BACS"">tKDmhTbk</p>","","","","","","","","",""
"html-keyboard-response","317","579287","0.0-13.0-0.67","5ee25b060f0ccf35b31431af","64e77d7b61f440b60e28659d","64ecab5b62184951e3f361b6","null","null","<p style=""font-size: 60px; font-family: BACS"">cAZukmU</p>","","","","","","","","",""
"html-keyboard-response","318","580290","0.0-13.0-0.68","5ee25b060f0ccf35b31431af","64e77d7b61f440b60e28659d","64ecab5b62184951e3f361b6","null","null","<p style=""font-size: 60px; font-family: BACS"">COtBDTbk</p>","","","","","","","","",""
"html-keyboard-response","319","581292","0.0-13.0-0.69","5ee25b060f0ccf35b31431af","64e77d7b61f440b60e28659d","64ecab5b62184951e3f361b6","null","null","<p style=""font-size: 60px; font-family: BACS"">dRbDbYBO</p>","","","","","","","","",""
"html-keyboard-response","320","582294","0.0-13.0-0.70","5ee25b060f0ccf35b31431af","64e77d7b61f440b60e28659d","64ecab5b62184951e3f361b6","null","null","<p style=""font-size: 60px; font-family: BACS"">cRElDkDOm</p>","","","","","","","","",""
"html-keyboard-response","321","583306","0.0-13.0-0.71","5ee25b060f0ccf35b31431af","64e77d7b61f440b60e28659d","64ecab5b62184951e3f361b6","null","null","<p style=""font-size: 60px; font-family: BACS"">AbKDEKBO</p>","","","","","","","","",""
"html-keyboard-response","322","584307","0.0-13.0-0.72","5ee25b060f0ccf35b31431af","64e77d7b61f440b60e28659d","64ecab5b62184951e3f361b6","null","null","<p style=""font-size: 60px; font-family: BACS"">YOZNOcN</p>","","","","","","","","",""
"html-keyboard-response","323","585309","0.0-13.0-0.73","5ee25b060f0ccf35b31431af","64e77d7b61f440b60e28659d","64ecab5b62184951e3f361b6","null","null","<p style=""font-size: 60px; font-family: BACS"">tKDmhkDOm</p>","","","","","","","","",""
"html-keyboard-response","324","586318","0.0-13.0-0.74","5ee25b060f0ccf35b31431af","64e77d7b61f440b60e28659d","64ecab5b62184951e3f361b6","null","null","<p style=""font-size: 60px; font-family: BACS"">AbKDYBO</p>","","","","","","","","",""
"html-keyboard-response","325","587321","0.0-13.0-0.75","5ee25b060f0ccf35b31431af","64e77d7b61f440b60e28659d","64ecab5b62184951e3f361b6","null","null","<p style=""font-size: 60px; font-family: BACS"">kGamNkmU</p>","","","","","","","","",""
"html-keyboard-response","326","588325","0.0-13.0-0.76","5ee25b060f0ccf35b31431af","64e77d7b61f440b60e28659d","64ecab5b62184951e3f361b6","null","null","<p style=""font-size: 60px; font-family: BACS"">EhRmCdt</p>","","","","","","","","",""
"html-keyboard-response","327","589341","0.0-13.0-0.77","5ee25b060f0ccf35b31431af","64e77d7b61f440b60e28659d","64ecab5b62184951e3f361b6","null","null","<p style=""font-size: 60px; font-family: BACS"">YOZNkmU</p>","","","","","","","","",""
"html-keyboard-response","328","590350","0.0-13.0-0.78","5ee25b060f0ccf35b31431af","64e77d7b61f440b60e28659d","64ecab5b62184951e3f361b6","null","null","<p style=""font-size: 60px; font-family: BACS"">TdmAkDOm</p>","","","","","","","","",""
"html-keyboard-response","329","591358","0.0-13.0-0.79","5ee25b060f0ccf35b31431af","64e77d7b61f440b60e28659d","64ecab5b62184951e3f361b6","null","null","<p style=""font-size: 60px; font-family: BACS"">tKDmhCdt</p>","","","","","","","","",""
"html-keyboard-response","330","634103","0.0-14.0","5ee25b060f0ccf35b31431af","64e77d7b61f440b60e28659d","64ecab5b62184951e3f361b6","42744"," ","<p>Great, you've seen the fourth block of words. You may now take a short break.</p>
      <p>Press the spacebar when you're ready to continue.</p>","","","","","","","","",""
"html-keyboard-response","331","635117","0.0-15.0-0.0","5ee25b060f0ccf35b31431af","64e77d7b61f440b60e28659d","64ecab5b62184951e3f361b6","null","null","<p style=""font-size: 60px; font-family: BACS"">COtBDEKBO</p>","","","","","","","","",""
"html-keyboard-response","332","636124","0.0-15.0-0.1","5ee25b060f0ccf35b31431af","64e77d7b61f440b60e28659d","64ecab5b62184951e3f361b6","null","null","<p style=""font-size: 60px; font-family: BACS"">COtBDEKBO</p>","","","","","","","","",""
"html-keyboard-response","333","637139","0.0-15.0-0.2","5ee25b060f0ccf35b31431af","64e77d7b61f440b60e28659d","64ecab5b62184951e3f361b6","null","null","<p style=""font-size: 60px; font-family: BACS"">COtBDEKBO</p>","","","","","","","","",""
"html-keyboard-response","334","638153","0.0-15.0-0.3","5ee25b060f0ccf35b31431af","64e77d7b61f440b60e28659d","64ecab5b62184951e3f361b6","null","null","<p style=""font-size: 60px; font-family: BACS"">COtBDEKBO</p>","","","","","","","","",""
"html-keyboard-response","335","639166","0.0-15.0-0.4","5ee25b060f0ccf35b31431af","64e77d7b61f440b60e28659d","64ecab5b62184951e3f361b6","null","null","<p style=""font-size: 60px; font-family: BACS"">COtBDEKBO</p>","","","","","","","","",""
"html-keyboard-response","336","640180","0.0-15.0-0.5","5ee25b060f0ccf35b31431af","64e77d7b61f440b60e28659d","64ecab5b62184951e3f361b6","null","null","<p style=""font-size: 60px; font-family: BACS"">COtBDEKBO</p>","","","","","","","","",""
"html-keyboard-response","337","641194","0.0-15.0-0.6","5ee25b060f0ccf35b31431af","64e77d7b61f440b60e28659d","64ecab5b62184951e3f361b6","null","null","<p style=""font-size: 60px; font-family: BACS"">COtBDEKBO</p>","","","","","","","","",""
"html-keyboard-response","338","642196","0.0-15.0-0.7","5ee25b060f0ccf35b31431af","64e77d7b61f440b60e28659d","64ecab5b62184951e3f361b6","null","null","<p style=""font-size: 60px; font-family: BACS"">COtBDEKBO</p>","","","","","","","","",""
"html-keyboard-response","339","643198","0.0-15.0-0.8","5ee25b060f0ccf35b31431af","64e77d7b61f440b60e28659d","64ecab5b62184951e3f361b6","null","null","<p style=""font-size: 60px; font-family: BACS"">COtBDEKBO</p>","","","","","","","","",""
"html-keyboard-response","340","644214","0.0-15.0-0.9","5ee25b060f0ccf35b31431af","64e77d7b61f440b60e28659d","64ecab5b62184951e3f361b6","null","null","<p style=""font-size: 60px; font-family: BACS"">COtBDEKBO</p>","","","","","","","","",""
"html-keyboard-response","341","645224","0.0-15.0-0.10","5ee25b060f0ccf35b31431af","64e77d7b61f440b60e28659d","64ecab5b62184951e3f361b6","null","null","<p style=""font-size: 60px; font-family: BACS"">COtBDEKBO</p>","","","","","","","","",""
"html-keyboard-response","342","646236","0.0-15.0-0.11","5ee25b060f0ccf35b31431af","64e77d7b61f440b60e28659d","64ecab5b62184951e3f361b6","null","null","<p style=""font-size: 60px; font-family: BACS"">COtBDEKBO</p>","","","","","","","","",""
"html-keyboard-response","343","647243","0.0-15.0-0.12","5ee25b060f0ccf35b31431af","64e77d7b61f440b60e28659d","64ecab5b62184951e3f361b6","null","null","<p style=""font-size: 60px; font-family: BACS"">COtBDEKBO</p>","","","","","","","","",""
"html-keyboard-response","344","648245","0.0-15.0-0.13","5ee25b060f0ccf35b31431af","64e77d7b61f440b60e28659d","64ecab5b62184951e3f361b6","null","null","<p style=""font-size: 60px; font-family: BACS"">COtBDEKBO</p>","","","","","","","","",""
"html-keyboard-response","345","649256","0.0-15.0-0.14","5ee25b060f0ccf35b31431af","64e77d7b61f440b60e28659d","64ecab5b62184951e3f361b6","null","null","<p style=""font-size: 60px; font-family: BACS"">COtBDEKBO</p>","","","","","","","","",""
"html-keyboard-response","346","650265","0.0-15.0-0.15","5ee25b060f0ccf35b31431af","64e77d7b61f440b60e28659d","64ecab5b62184951e3f361b6","null","null","<p style=""font-size: 60px; font-family: BACS"">COtBDEKBO</p>","","","","","","","","",""
"html-keyboard-response","347","651277","0.0-15.0-0.16","5ee25b060f0ccf35b31431af","64e77d7b61f440b60e28659d","64ecab5b62184951e3f361b6","null","null","<p style=""font-size: 60px; font-family: BACS"">COtBDEKBO</p>","","","","","","","","",""
"html-keyboard-response","348","652289","0.0-15.0-0.17","5ee25b060f0ccf35b31431af","64e77d7b61f440b60e28659d","64ecab5b62184951e3f361b6","null","null","<p style=""font-size: 60px; font-family: BACS"">COtBDEKBO</p>","","","","","","","","",""
"html-keyboard-response","349","653291","0.0-15.0-0.18","5ee25b060f0ccf35b31431af","64e77d7b61f440b60e28659d","64ecab5b62184951e3f361b6","null","null","<p style=""font-size: 60px; font-family: BACS"">COtBDEKBO</p>","","","","","","","","",""
"html-keyboard-response","350","654298","0.0-15.0-0.19","5ee25b060f0ccf35b31431af","64e77d7b61f440b60e28659d","64ecab5b62184951e3f361b6","null","null","<p style=""font-size: 60px; font-family: BACS"">COtBDEKBO</p>","","","","","","","","",""
"html-keyboard-response","351","655312","0.0-15.0-0.20","5ee25b060f0ccf35b31431af","64e77d7b61f440b60e28659d","64ecab5b62184951e3f361b6","null","null","<p style=""font-size: 60px; font-family: BACS"">COtBDEKBO</p>","","","","","","","","",""
"html-keyboard-response","352","656323","0.0-15.0-0.21","5ee25b060f0ccf35b31431af","64e77d7b61f440b60e28659d","64ecab5b62184951e3f361b6","null","null","<p style=""font-size: 60px; font-family: BACS"">COtBDEKBO</p>","","","","","","","","",""
"html-keyboard-response","353","657337","0.0-15.0-0.22","5ee25b060f0ccf35b31431af","64e77d7b61f440b60e28659d","64ecab5b62184951e3f361b6","null","null","<p style=""font-size: 60px; font-family: BACS"">COtBDEKBO</p>","","","","","","","","",""
"html-keyboard-response","354","658350","0.0-15.0-0.23","5ee25b060f0ccf35b31431af","64e77d7b61f440b60e28659d","64ecab5b62184951e3f361b6","null","null","<p style=""font-size: 60px; font-family: BACS"">COtBDEKBO</p>","","","","","","","","",""
"html-keyboard-response","355","659365","0.0-15.0-0.24","5ee25b060f0ccf35b31431af","64e77d7b61f440b60e28659d","64ecab5b62184951e3f361b6","null","null","<p style=""font-size: 60px; font-family: BACS"">COtBDEKBO</p>","","","","","","","","",""
"html-keyboard-response","356","660370","0.0-15.0-0.25","5ee25b060f0ccf35b31431af","64e77d7b61f440b60e28659d","64ecab5b62184951e3f361b6","null","null","<p style=""font-size: 60px; font-family: BACS"">COtBDEKBO</p>","","","","","","","","",""
"html-keyboard-response","357","661384","0.0-15.0-0.26","5ee25b060f0ccf35b31431af","64e77d7b61f440b60e28659d","64ecab5b62184951e3f361b6","null","null","<p style=""font-size: 60px; font-family: BACS"">COtBDEKBO</p>","","","","","","","","",""
"html-keyboard-response","358","662386","0.0-15.0-0.27","5ee25b060f0ccf35b31431af","64e77d7b61f440b60e28659d","64ecab5b62184951e3f361b6","null","null","<p style=""font-size: 60px; font-family: BACS"">COtBDEKBO</p>","","","","","","","","",""
"html-keyboard-response","359","663397","0.0-15.0-0.28","5ee25b060f0ccf35b31431af","64e77d7b61f440b60e28659d","64ecab5b62184951e3f361b6","null","null","<p style=""font-size: 60px; font-family: BACS"">COtBDEKBO</p>","","","","","","","","",""
"html-keyboard-response","360","664400","0.0-15.0-0.29","5ee25b060f0ccf35b31431af","64e77d7b61f440b60e28659d","64ecab5b62184951e3f361b6","null","null","<p style=""font-size: 60px; font-family: BACS"">COtBDEKBO</p>","","","","","","","","",""
"html-keyboard-response","361","665402","0.0-15.0-0.30","5ee25b060f0ccf35b31431af","64e77d7b61f440b60e28659d","64ecab5b62184951e3f361b6","null","null","<p style=""font-size: 60px; font-family: BACS"">COtBDEKBO</p>","","","","","","","","",""
"html-keyboard-response","362","666413","0.0-15.0-0.31","5ee25b060f0ccf35b31431af","64e77d7b61f440b60e28659d","64ecab5b62184951e3f361b6","null","null","<p style=""font-size: 60px; font-family: BACS"">COtBDEKBO</p>","","","","","","","","",""
"html-keyboard-response","363","667431","0.0-15.0-0.32","5ee25b060f0ccf35b31431af","64e77d7b61f440b60e28659d","64ecab5b62184951e3f361b6","null","null","<p style=""font-size: 60px; font-family: BACS"">COtBDEKBO</p>","","","","","","","","",""
"html-keyboard-response","364","668440","0.0-15.0-0.33","5ee25b060f0ccf35b31431af","64e77d7b61f440b60e28659d","64ecab5b62184951e3f361b6","null","null","<p style=""font-size: 60px; font-family: BACS"">COtBDEKBO</p>","","","","","","","","",""
"html-keyboard-response","365","669447","0.0-15.0-0.34","5ee25b060f0ccf35b31431af","64e77d7b61f440b60e28659d","64ecab5b62184951e3f361b6","null","null","<p style=""font-size: 60px; font-family: BACS"">COtBDEKBO</p>","","","","","","","","",""
"html-keyboard-response","366","670457","0.0-15.0-0.35","5ee25b060f0ccf35b31431af","64e77d7b61f440b60e28659d","64ecab5b62184951e3f361b6","null","null","<p style=""font-size: 60px; font-family: BACS"">COtBDEKBO</p>","","","","","","","","",""
"html-keyboard-response","367","671458","0.0-15.0-0.36","5ee25b060f0ccf35b31431af","64e77d7b61f440b60e28659d","64ecab5b62184951e3f361b6","null","null","<p style=""font-size: 60px; font-family: BACS"">COtBDEKBO</p>","","","","","","","","",""
"html-keyboard-response","368","672459","0.0-15.0-0.37","5ee25b060f0ccf35b31431af","64e77d7b61f440b60e28659d","64ecab5b62184951e3f361b6","null","null","<p style=""font-size: 60px; font-family: BACS"">COtBDEKBO</p>","","","","","","","","",""
"html-keyboard-response","369","673460","0.0-15.0-0.38","5ee25b060f0ccf35b31431af","64e77d7b61f440b60e28659d","64ecab5b62184951e3f361b6","null","null","<p style=""font-size: 60px; font-family: BACS"">COtBDEKBO</p>","","","","","","","","",""
"html-keyboard-response","370","674472","0.0-15.0-0.39","5ee25b060f0ccf35b31431af","64e77d7b61f440b60e28659d","64ecab5b62184951e3f361b6","null","null","<p style=""font-size: 60px; font-family: BACS"">COtBDEKBO</p>","","","","","","","","",""
"html-keyboard-response","371","675474","0.0-15.0-0.40","5ee25b060f0ccf35b31431af","64e77d7b61f440b60e28659d","64ecab5b62184951e3f361b6","null","null","<p style=""font-size: 60px; font-family: BACS"">COtBDEKBO</p>","","","","","","","","",""
"html-keyboard-response","372","676485","0.0-15.0-0.41","5ee25b060f0ccf35b31431af","64e77d7b61f440b60e28659d","64ecab5b62184951e3f361b6","null","null","<p style=""font-size: 60px; font-family: BACS"">COtBDEKBO</p>","","","","","","","","",""
"html-keyboard-response","373","677495","0.0-15.0-0.42","5ee25b060f0ccf35b31431af","64e77d7b61f440b60e28659d","64ecab5b62184951e3f361b6","null","null","<p style=""font-size: 60px; font-family: BACS"">COtBDEKBO</p>","","","","","","","","",""
"html-keyboard-response","374","678511","0.0-15.0-0.43","5ee25b060f0ccf35b31431af","64e77d7b61f440b60e28659d","64ecab5b62184951e3f361b6","null","null","<p style=""font-size: 60px; font-family: BACS"">COtBDEKBO</p>","","","","","","","","",""
"html-keyboard-response","375","679523","0.0-15.0-0.44","5ee25b060f0ccf35b31431af","64e77d7b61f440b60e28659d","64ecab5b62184951e3f361b6","null","null","<p style=""font-size: 60px; font-family: BACS"">COtBDEKBO</p>","","","","","","","","",""
"html-keyboard-response","376","680530","0.0-15.0-0.45","5ee25b060f0ccf35b31431af","64e77d7b61f440b60e28659d","64ecab5b62184951e3f361b6","null","null","<p style=""font-size: 60px; font-family: BACS"">COtBDEKBO</p>","","","","","","","","",""
"html-keyboard-response","377","681531","0.0-15.0-0.46","5ee25b060f0ccf35b31431af","64e77d7b61f440b60e28659d","64ecab5b62184951e3f361b6","null","null","<p style=""font-size: 60px; font-family: BACS"">COtBDEKBO</p>","","","","","","","","",""
"html-keyboard-response","378","682540","0.0-15.0-0.47","5ee25b060f0ccf35b31431af","64e77d7b61f440b60e28659d","64ecab5b62184951e3f361b6","null","null","<p style=""font-size: 60px; font-family: BACS"">COtBDEKBO</p>","","","","","","","","",""
"html-keyboard-response","379","683556","0.0-15.0-0.48","5ee25b060f0ccf35b31431af","64e77d7b61f440b60e28659d","64ecab5b62184951e3f361b6","null","null","<p style=""font-size: 60px; font-family: BACS"">COtBDEKBO</p>","","","","","","","","",""
"html-keyboard-response","380","684569","0.0-15.0-0.49","5ee25b060f0ccf35b31431af","64e77d7b61f440b60e28659d","64ecab5b62184951e3f361b6","null","null","<p style=""font-size: 60px; font-family: BACS"">COtBDEKBO</p>","","","","","","","","",""
"html-keyboard-response","381","685571","0.0-15.0-0.50","5ee25b060f0ccf35b31431af","64e77d7b61f440b60e28659d","64ecab5b62184951e3f361b6","null","null","<p style=""font-size: 60px; font-family: BACS"">COtBDEKBO</p>","","","","","","","","",""
"html-keyboard-response","382","686585","0.0-15.0-0.51","5ee25b060f0ccf35b31431af","64e77d7b61f440b60e28659d","64ecab5b62184951e3f361b6","null","null","<p style=""font-size: 60px; font-family: BACS"">COtBDEKBO</p>","","","","","","","","",""
"html-keyboard-response","383","687601","0.0-15.0-0.52","5ee25b060f0ccf35b31431af","64e77d7b61f440b60e28659d","64ecab5b62184951e3f361b6","null","null","<p style=""font-size: 60px; font-family: BACS"">COtBDEKBO</p>","","","","","","","","",""
"html-keyboard-response","384","688605","0.0-15.0-0.53","5ee25b060f0ccf35b31431af","64e77d7b61f440b60e28659d","64ecab5b62184951e3f361b6","null","null","<p style=""font-size: 60px; font-family: BACS"">COtBDEKBO</p>","","","","","","","","",""
"html-keyboard-response","385","689620","0.0-15.0-0.54","5ee25b060f0ccf35b31431af","64e77d7b61f440b60e28659d","64ecab5b62184951e3f361b6","null","null","<p style=""font-size: 60px; font-family: BACS"">COtBDEKBO</p>","","","","","","","","",""
"html-keyboard-response","386","690630","0.0-15.0-0.55","5ee25b060f0ccf35b31431af","64e77d7b61f440b60e28659d","64ecab5b62184951e3f361b6","null","null","<p style=""font-size: 60px; font-family: BACS"">COtBDEKBO</p>","","","","","","","","",""
"html-keyboard-response","387","691631","0.0-15.0-0.56","5ee25b060f0ccf35b31431af","64e77d7b61f440b60e28659d","64ecab5b62184951e3f361b6","null","null","<p style=""font-size: 60px; font-family: BACS"">COtBDEKBO</p>","","","","","","","","",""
"html-keyboard-response","388","692639","0.0-15.0-0.57","5ee25b060f0ccf35b31431af","64e77d7b61f440b60e28659d","64ecab5b62184951e3f361b6","null","null","<p style=""font-size: 60px; font-family: BACS"">COtBDEKBO</p>","","","","","","","","",""
"html-keyboard-response","389","693651","0.0-15.0-0.58","5ee25b060f0ccf35b31431af","64e77d7b61f440b60e28659d","64ecab5b62184951e3f361b6","null","null","<p style=""font-size: 60px; font-family: BACS"">COtBDEKBO</p>","","","","","","","","",""
"html-keyboard-response","390","694653","0.0-15.0-0.59","5ee25b060f0ccf35b31431af","64e77d7b61f440b60e28659d","64ecab5b62184951e3f361b6","null","null","<p style=""font-size: 60px; font-family: BACS"">COtBDEKBO</p>","","","","","","","","",""
"html-keyboard-response","391","695663","0.0-15.0-0.60","5ee25b060f0ccf35b31431af","64e77d7b61f440b60e28659d","64ecab5b62184951e3f361b6","null","null","<p style=""font-size: 60px; font-family: BACS"">COtBDEKBO</p>","","","","","","","","",""
"html-keyboard-response","392","696678","0.0-15.0-0.61","5ee25b060f0ccf35b31431af","64e77d7b61f440b60e28659d","64ecab5b62184951e3f361b6","null","null","<p style=""font-size: 60px; font-family: BACS"">COtBDEKBO</p>","","","","","","","","",""
"html-keyboard-response","393","697693","0.0-15.0-0.62","5ee25b060f0ccf35b31431af","64e77d7b61f440b60e28659d","64ecab5b62184951e3f361b6","null","null","<p style=""font-size: 60px; font-family: BACS"">COtBDEKBO</p>","","","","","","","","",""
"html-keyboard-response","394","698700","0.0-15.0-0.63","5ee25b060f0ccf35b31431af","64e77d7b61f440b60e28659d","64ecab5b62184951e3f361b6","null","null","<p style=""font-size: 60px; font-family: BACS"">COtBDEKBO</p>","","","","","","","","",""
"html-keyboard-response","395","699712","0.0-15.0-0.64","5ee25b060f0ccf35b31431af","64e77d7b61f440b60e28659d","64ecab5b62184951e3f361b6","null","null","<p style=""font-size: 60px; font-family: BACS"">COtBDEKBO</p>","","","","","","","","",""
"html-keyboard-response","396","700725","0.0-15.0-0.65","5ee25b060f0ccf35b31431af","64e77d7b61f440b60e28659d","64ecab5b62184951e3f361b6","null","null","<p style=""font-size: 60px; font-family: BACS"">COtBDEKBO</p>","","","","","","","","",""
"html-keyboard-response","397","701727","0.0-15.0-0.66","5ee25b060f0ccf35b31431af","64e77d7b61f440b60e28659d","64ecab5b62184951e3f361b6","null","null","<p style=""font-size: 60px; font-family: BACS"">COtBDEKBO</p>","","","","","","","","",""
"html-keyboard-response","398","702728","0.0-15.0-0.67","5ee25b060f0ccf35b31431af","64e77d7b61f440b60e28659d","64ecab5b62184951e3f361b6","null","null","<p style=""font-size: 60px; font-family: BACS"">COtBDEKBO</p>","","","","","","","","",""
