"trial_type","trial_index","time_elapsed","internal_node_id","subject_id","study_id","session_id","rt","response","stimulus","success","item","task","correct_response","correct","target","confound","name"
"pavlovia","0","3275","0.0-0.0","5f3161410f87706425490ae1","64afc2c9a8732ea92db0087d","64afd47fa15e60d4b82814cc","","","","","","","","","","",""
"survey-html-form","1","35727","0.0-1.0","5f3161410f87706425490ae1","64afc2c9a8732ea92db0087d","64afd47fa15e60d4b82814cc","32435","{""ID"":""5f3161410f87706425490ae1""}","","","","","","","","",""
"html-keyboard-response","2","70438","0.0-2.0","5f3161410f87706425490ae1","64afc2c9a8732ea92db0087d","64afd47fa15e60d4b82814cc","36240"," ","<p style=""font-size: 15px;"">Prima di cominciare, le chiediamo di leggere il modulo di consenso informato e confermare la sua volontà di partecipare all'esperimento.</p>
      <p style=""font-size: 15px;""> La preghiamo di ricordare che questo è un progetto di ricerca e che la sua partecipazione è completamente volontaria. Lei si potra' ritirare in qualunque momento, senza necessariamente dover dare alcuna spiegazione. Lo studio al quale Le si chiede di partecipare ha lo scopo di esaminare come i lettori elaborano le parole scritte. La somministrazione delle prove è individuale. Lei sarà impegnato in una sessione di lavoro della durata media di 10 minuti, e un questionario di 10 minuti. L’ordine delle prove ed il loro svolgimento sono stabiliti in modo tale da evitare un eventuale affaticamento. Tutte le prove saranno precedute da un breve addestramento in modo tale che abbia la possibilità di familiarizzare con il compito. Sono previste alcune pause nel corso dello svolgimento dell’esperimento. Una ricompensa di £4 (£8 per ora) Le verrà consegnata al termine della sessione di testing. Nonostante il testing preveda delle prove cognitive, il presente esperimento non costituisce una prova clinica che permetta la diagnosi di eventuali patologie.</p>
      <p style=""font-size: 15px;"">Tutti i dati raccolti grazie alla partecipazione Sua e di altre persone volontarie saranno custoditi in server sicuri e protetti da password, e non sarà consentito ad alcuna persona non autorizzata di accedervi. Le Sue informazioni personali saranno conservate separatamente dai risultati della presente ricerca, cui saranno associati soltanto attraverso un ID arbitrario. Grazie a questo processo di anonimizzazione dei dati, a nessun ricercatore sarà possibile analizzare i risultati sapendo da quale specifico partecipante essi provengono. Inoltre, questa procedura renderà impossibile la Sua identificazione anche nel momento in cui i risultati della ricerca fossero pubblicati su riviste scientifiche, o presentati a congressi o in qualsiasi altro pubblico consesso. Più in generale, i dati raccolti saranno trattati in accordo con le leggi sulla privacy e in conformità al Decreto Legislativo 30 giugno 2003 n. 196 “Codice in materia di protezione dei dati personali” e al Regolamento Europeo 2016/679 (General Data Protection Regulation - GDPR). Il Responsabile della protezione dei dati (RPD) è l’Avv. Valentina Carollo che può essere contattato ai seguenti indirizzi email: <a href=""mailto:dpo@sissa.it"">dpo@sissa.it</a> oppure <a href=""mailto:rpd@sissa.it"">rpd@sissa.it</a> - PEC: <a href=""mailto:protocollo@pec.sissa.it"">protocollo@pec.sissa.it</a>.</p>
      <p style=""font-size: 15px;""> Prima di esprimere il suo consenso alla partecipazione, Le ricordiamo ancora che in caso Lei abbia bisogno di delucidazioni su qualunque aspetto della procedura sperimentale, il ricercatore è a Sua completa disposizione (<a href=""mailto:aliebelt@sissa.it"">aliebelt@sissa.it</a>, <a href=""mailto:davide.crepaldi@sissa.it"">davide.crepaldi@sissa.it</a>).</p>
      <p style=""font-size: 15px;"">Se vuole scaricare il modulo di consenso informato, clicca qui: <a href=""BASL_modulo_consenso.pdf"" download>modulo di consenso</a>.</p>
      <p style=""font-size: 15px;""> Le chiediamo di premere la barra per continuare al consenso.</p>","","","","","","","",""
"survey-html-form","3","427033","0.0-3.0","5f3161410f87706425490ae1","64afc2c9a8732ea92db0087d","64afd47fa15e60d4b82814cc","356592","{""consent1"":""YES"",""consent2"":""YES"",""consent3"":""YES"",""consent4"":""YES"",""consent5"":""YES"",""consent6"":""YES""}","","","","","","","","",""
"fullscreen","4","698736","0.0-4.0","5f3161410f87706425490ae1","64afc2c9a8732ea92db0087d","64afd47fa15e60d4b82814cc","","","","true","","","","","","",""
"html-keyboard-response","5","716802","0.0-5.0","5f3161410f87706425490ae1","64afc2c9a8732ea92db0087d","64afd47fa15e60d4b82814cc","18064"," ","<p>Benvenuta/o, e grazie mille del tuo tempo!</p>
      <p>In questo esperimento sarai un esperto/un'esperta di linguaggio cui è stato chiesto di dare un'occhiata ad alcuni messaggi che la Terra ha ricevuto dallo spazio. Il tuo compito, in questa prima parte dell'esperimento, sarà di fare molta attenzione alle parole che ti verranno mostrate; più tardi, i leader del mondo ti chiederanno qualche informazione su quello che hai visto. Le parole si susseguiranno abbastanza velocemente; sembra che questi alieni abbiano una certa fretta :-) </p>
      <p>Per favore, chiama lo sperimentatore se ha qualche domanda.</p><p>Premi la barra per continuare.</p>","","","","","","","",""
"html-keyboard-response","6","723450","0.0-6.0","5f3161410f87706425490ae1","64afc2c9a8732ea92db0087d","64afd47fa15e60d4b82814cc","6647"," ","<p>Ecco un esempio delle parole che vedrai:</p>
      <img src='esempio.png' height='400px'>
      <p>Quando sei pronti per iniziare, premi la barra.</p></div>","","","","","","","",""
"html-keyboard-response","7","724455","0.0-7.0-0.0","5f3161410f87706425490ae1","64afc2c9a8732ea92db0087d","64afd47fa15e60d4b82814cc","null","null","<p style=""font-size: 60px; font-family: BACS"">rvOvUmvG</p>","","","","","","","",""
"html-keyboard-response","8","725469","0.0-7.0-0.1","5f3161410f87706425490ae1","64afc2c9a8732ea92db0087d","64afd47fa15e60d4b82814cc","null","null","<p style=""font-size: 60px; font-family: BACS"">hbmAmAM</p>","","","","","","","",""
"html-keyboard-response","9","726474","0.0-7.0-0.2","5f3161410f87706425490ae1","64afc2c9a8732ea92db0087d","64afd47fa15e60d4b82814cc","null","null","<p style=""font-size: 60px; font-family: BACS"">NbmQUbLd</p>","","","","","","","",""
"html-keyboard-response","10","727491","0.0-7.0-0.3","5f3161410f87706425490ae1","64afc2c9a8732ea92db0087d","64afd47fa15e60d4b82814cc","null","null","<p style=""font-size: 60px; font-family: BACS"">DhCPdRA</p>","","","","","","","",""
"html-keyboard-response","11","728493","0.0-7.0-0.4","5f3161410f87706425490ae1","64afc2c9a8732ea92db0087d","64afd47fa15e60d4b82814cc","null","null","<p style=""font-size: 60px; font-family: BACS"">rvOvUOQAr</p>","","","","","","","",""
"html-keyboard-response","12","729510","0.0-7.0-0.5","5f3161410f87706425490ae1","64afc2c9a8732ea92db0087d","64afd47fa15e60d4b82814cc","null","null","<p style=""font-size: 60px; font-family: BACS"">DhCPOdOP</p>","","","","","","","",""
"html-keyboard-response","13","730512","0.0-7.0-0.6","5f3161410f87706425490ae1","64afc2c9a8732ea92db0087d","64afd47fa15e60d4b82814cc","null","null","<p style=""font-size: 60px; font-family: BACS"">vblrbLd</p>","","","","","","","",""
"html-keyboard-response","14","731520","0.0-7.0-0.7","5f3161410f87706425490ae1","64afc2c9a8732ea92db0087d","64afd47fa15e60d4b82814cc","null","null","<p style=""font-size: 60px; font-family: BACS"">uQuZckJdr</p>","","","","","","","",""
"html-keyboard-response","15","732522","0.0-7.0-0.8","5f3161410f87706425490ae1","64afc2c9a8732ea92db0087d","64afd47fa15e60d4b82814cc","null","null","<p style=""font-size: 60px; font-family: BACS"">GAcYmvG</p>","","","","","","","",""
"html-keyboard-response","16","733523","0.0-7.0-0.9","5f3161410f87706425490ae1","64afc2c9a8732ea92db0087d","64afd47fa15e60d4b82814cc","null","null","<p style=""font-size: 60px; font-family: BACS"">vblrkJdr</p>","","","","","","","",""
"html-keyboard-response","17","734524","0.0-7.0-0.10","5f3161410f87706425490ae1","64afc2c9a8732ea92db0087d","64afd47fa15e60d4b82814cc","null","null","<p style=""font-size: 60px; font-family: BACS"">aONdbLd</p>","","","","","","","",""
"html-keyboard-response","18","735539","0.0-7.0-0.11","5f3161410f87706425490ae1","64afc2c9a8732ea92db0087d","64afd47fa15e60d4b82814cc","null","null","<p style=""font-size: 60px; font-family: BACS"">GAcYOQAr</p>","","","","","","","",""
"html-keyboard-response","19","736540","0.0-7.0-0.12","5f3161410f87706425490ae1","64afc2c9a8732ea92db0087d","64afd47fa15e60d4b82814cc","null","null","<p style=""font-size: 60px; font-family: BACS"">NbmQUmkc</p>","","","","","","","",""
"html-keyboard-response","20","737543","0.0-7.0-0.13","5f3161410f87706425490ae1","64afc2c9a8732ea92db0087d","64afd47fa15e60d4b82814cc","null","null","<p style=""font-size: 60px; font-family: BACS"">KTDTBkDOm</p>","","","","","","","",""
"html-keyboard-response","21","738553","0.0-7.0-0.14","5f3161410f87706425490ae1","64afc2c9a8732ea92db0087d","64afd47fa15e60d4b82814cc","null","null","<p style=""font-size: 60px; font-family: BACS"">DcPTcbAMO</p>","","","","","","","",""
"html-keyboard-response","22","739558","0.0-7.0-0.15","5f3161410f87706425490ae1","64afc2c9a8732ea92db0087d","64afd47fa15e60d4b82814cc","null","null","<p style=""font-size: 60px; font-family: BACS"">NvYJmvG</p>","","","","","","","",""
"html-keyboard-response","23","740566","0.0-7.0-0.16","5f3161410f87706425490ae1","64afc2c9a8732ea92db0087d","64afd47fa15e60d4b82814cc","null","null","<p style=""font-size: 60px; font-family: BACS"">rvOvUmkc</p>","","","","","","","",""
"html-keyboard-response","24","741577","0.0-7.0-0.17","5f3161410f87706425490ae1","64afc2c9a8732ea92db0087d","64afd47fa15e60d4b82814cc","null","null","<p style=""font-size: 60px; font-family: BACS"">DcPTcOdOP</p>","","","","","","","",""
"html-keyboard-response","25","742579","0.0-7.0-0.18","5f3161410f87706425490ae1","64afc2c9a8732ea92db0087d","64afd47fa15e60d4b82814cc","null","null","<p style=""font-size: 60px; font-family: BACS"">krUQmvG</p>","","","","","","","",""
"html-keyboard-response","26","743581","0.0-7.0-0.19","5f3161410f87706425490ae1","64afc2c9a8732ea92db0087d","64afd47fa15e60d4b82814cc","null","null","<p style=""font-size: 60px; font-family: BACS"">uQuZcOQAr</p>","","","","","","","",""
"html-keyboard-response","27","744594","0.0-7.0-0.20","5f3161410f87706425490ae1","64afc2c9a8732ea92db0087d","64afd47fa15e60d4b82814cc","null","null","<p style=""font-size: 60px; font-family: BACS"">kcCRtbAMO</p>","","","","","","","",""
"html-keyboard-response","28","745596","0.0-7.0-0.21","5f3161410f87706425490ae1","64afc2c9a8732ea92db0087d","64afd47fa15e60d4b82814cc","null","null","<p style=""font-size: 60px; font-family: BACS"">krUQkJdr</p>","","","","","","","",""
"html-keyboard-response","29","746605","0.0-7.0-0.22","5f3161410f87706425490ae1","64afc2c9a8732ea92db0087d","64afd47fa15e60d4b82814cc","null","null","<p style=""font-size: 60px; font-family: BACS"">kLvdNbLd</p>","","","","","","","",""
"html-keyboard-response","30","747606","0.0-7.0-0.23","5f3161410f87706425490ae1","64afc2c9a8732ea92db0087d","64afd47fa15e60d4b82814cc","null","null","<p style=""font-size: 60px; font-family: BACS"">hbmAOdOP</p>","","","","","","","",""
"html-keyboard-response","31","748618","0.0-7.0-0.24","5f3161410f87706425490ae1","64afc2c9a8732ea92db0087d","64afd47fa15e60d4b82814cc","null","null","<p style=""font-size: 60px; font-family: BACS"">aONdOQAr</p>","","","","","","","",""
"html-keyboard-response","32","749628","0.0-7.0-0.25","5f3161410f87706425490ae1","64afc2c9a8732ea92db0087d","64afd47fa15e60d4b82814cc","null","null","<p style=""font-size: 60px; font-family: BACS"">KBKBEbAMO</p>","","","","","","","",""
"html-keyboard-response","33","750630","0.0-7.0-0.26","5f3161410f87706425490ae1","64afc2c9a8732ea92db0087d","64afd47fa15e60d4b82814cc","null","null","<p style=""font-size: 60px; font-family: BACS"">krUQmkc</p>","","","","","","","",""
"html-keyboard-response","34","751642","0.0-7.0-0.27","5f3161410f87706425490ae1","64afc2c9a8732ea92db0087d","64afd47fa15e60d4b82814cc","null","null","<p style=""font-size: 60px; font-family: BACS"">NvYJkJdr</p>","","","","","","","",""
"html-keyboard-response","35","752643","0.0-7.0-0.28","5f3161410f87706425490ae1","64afc2c9a8732ea92db0087d","64afd47fa15e60d4b82814cc","null","null","<p style=""font-size: 60px; font-family: BACS"">MDKPdRA</p>","","","","","","","",""
"html-keyboard-response","36","753657","0.0-7.0-0.29","5f3161410f87706425490ae1","64afc2c9a8732ea92db0087d","64afd47fa15e60d4b82814cc","null","null","<p style=""font-size: 60px; font-family: BACS"">NvYJmkc</p>","","","","","","","",""
"html-keyboard-response","37","754659","0.0-7.0-0.30","5f3161410f87706425490ae1","64afc2c9a8732ea92db0087d","64afd47fa15e60d4b82814cc","null","null","<p style=""font-size: 60px; font-family: BACS"">MDKPkDOm</p>","","","","","","","",""
"html-keyboard-response","38","755671","0.0-7.0-0.31","5f3161410f87706425490ae1","64afc2c9a8732ea92db0087d","64afd47fa15e60d4b82814cc","null","null","<p style=""font-size: 60px; font-family: BACS"">vmuLlmvG</p>","","","","","","","",""
"html-keyboard-response","39","756688","0.0-7.0-0.32","5f3161410f87706425490ae1","64afc2c9a8732ea92db0087d","64afd47fa15e60d4b82814cc","null","null","<p style=""font-size: 60px; font-family: BACS"">NbmQUOQAr</p>","","","","","","","",""
"html-keyboard-response","40","757689","0.0-7.0-0.33","5f3161410f87706425490ae1","64afc2c9a8732ea92db0087d","64afd47fa15e60d4b82814cc","null","null","<p style=""font-size: 60px; font-family: BACS"">MDKPbAMO</p>","","","","","","","",""
"html-keyboard-response","41","758705","0.0-7.0-0.34","5f3161410f87706425490ae1","64afc2c9a8732ea92db0087d","64afd47fa15e60d4b82814cc","null","null","<p style=""font-size: 60px; font-family: BACS"">DcPTckDOm</p>","","","","","","","",""
"html-keyboard-response","42","759706","0.0-7.0-0.35","5f3161410f87706425490ae1","64afc2c9a8732ea92db0087d","64afd47fa15e60d4b82814cc","null","null","<p style=""font-size: 60px; font-family: BACS"">DBlhdRA</p>","","","","","","","",""
"html-keyboard-response","43","760708","0.0-7.0-0.36","5f3161410f87706425490ae1","64afc2c9a8732ea92db0087d","64afd47fa15e60d4b82814cc","null","null","<p style=""font-size: 60px; font-family: BACS"">KTDTBmAM</p>","","","","","","","",""
"html-keyboard-response","44","761709","0.0-7.0-0.37","5f3161410f87706425490ae1","64afc2c9a8732ea92db0087d","64afd47fa15e60d4b82814cc","null","null","<p style=""font-size: 60px; font-family: BACS"">KBKBEkDOm</p>","","","","","","","",""
"html-keyboard-response","45","762711","0.0-7.0-0.38","5f3161410f87706425490ae1","64afc2c9a8732ea92db0087d","64afd47fa15e60d4b82814cc","null","null","<p style=""font-size: 60px; font-family: BACS"">vmuLlbLd</p>","","","","","","","",""
"html-keyboard-response","46","763723","0.0-7.0-0.39","5f3161410f87706425490ae1","64afc2c9a8732ea92db0087d","64afd47fa15e60d4b82814cc","null","null","<p style=""font-size: 60px; font-family: BACS"">KABAdRA</p>","","","","","","","",""
"html-keyboard-response","47","764732","0.0-7.0-0.40","5f3161410f87706425490ae1","64afc2c9a8732ea92db0087d","64afd47fa15e60d4b82814cc","null","null","<p style=""font-size: 60px; font-family: BACS"">kLvdNOQAr</p>","","","","","","","",""
"html-keyboard-response","48","765742","0.0-7.0-0.41","5f3161410f87706425490ae1","64afc2c9a8732ea92db0087d","64afd47fa15e60d4b82814cc","null","null","<p style=""font-size: 60px; font-family: BACS"">kcCRtdRA</p>","","","","","","","",""
"html-keyboard-response","49","766751","0.0-7.0-0.42","5f3161410f87706425490ae1","64afc2c9a8732ea92db0087d","64afd47fa15e60d4b82814cc","null","null","<p style=""font-size: 60px; font-family: BACS"">AYkEhOdOP</p>","","","","","","","",""
"html-keyboard-response","50","767758","0.0-7.0-0.43","5f3161410f87706425490ae1","64afc2c9a8732ea92db0087d","64afd47fa15e60d4b82814cc","null","null","<p style=""font-size: 60px; font-family: BACS"">KABAmAM</p>","","","","","","","",""
"html-keyboard-response","51","768759","0.0-7.0-0.44","5f3161410f87706425490ae1","64afc2c9a8732ea92db0087d","64afd47fa15e60d4b82814cc","null","null","<p style=""font-size: 60px; font-family: BACS"">DBlhOdOP</p>","","","","","","","",""
"html-keyboard-response","52","769768","0.0-7.0-0.45","5f3161410f87706425490ae1","64afc2c9a8732ea92db0087d","64afd47fa15e60d4b82814cc","null","null","<p style=""font-size: 60px; font-family: BACS"">GAcYmkc</p>","","","","","","","",""
"html-keyboard-response","53","770772","0.0-7.0-0.46","5f3161410f87706425490ae1","64afc2c9a8732ea92db0087d","64afd47fa15e60d4b82814cc","null","null","<p style=""font-size: 60px; font-family: BACS"">NvYJbLd</p>","","","","","","","",""
"html-keyboard-response","54","771780","0.0-7.0-0.47","5f3161410f87706425490ae1","64afc2c9a8732ea92db0087d","64afd47fa15e60d4b82814cc","null","null","<p style=""font-size: 60px; font-family: BACS"">KABAkDOm</p>","","","","","","","",""
"html-keyboard-response","55","772782","0.0-7.0-0.48","5f3161410f87706425490ae1","64afc2c9a8732ea92db0087d","64afd47fa15e60d4b82814cc","null","null","<p style=""font-size: 60px; font-family: BACS"">vblrmvG</p>","","","","","","","",""
"html-keyboard-response","56","773794","0.0-7.0-0.49","5f3161410f87706425490ae1","64afc2c9a8732ea92db0087d","64afd47fa15e60d4b82814cc","null","null","<p style=""font-size: 60px; font-family: BACS"">vmuLlkJdr</p>","","","","","","","",""
"html-keyboard-response","57","774801","0.0-7.0-0.50","5f3161410f87706425490ae1","64afc2c9a8732ea92db0087d","64afd47fa15e60d4b82814cc","null","null","<p style=""font-size: 60px; font-family: BACS"">DcPTcmAM</p>","","","","","","","",""
"html-keyboard-response","58","775811","0.0-7.0-0.51","5f3161410f87706425490ae1","64afc2c9a8732ea92db0087d","64afd47fa15e60d4b82814cc","null","null","<p style=""font-size: 60px; font-family: BACS"">vblrmkc</p>","","","","","","","",""
"html-keyboard-response","59","776813","0.0-7.0-0.52","5f3161410f87706425490ae1","64afc2c9a8732ea92db0087d","64afd47fa15e60d4b82814cc","null","null","<p style=""font-size: 60px; font-family: BACS"">DBlhkDOm</p>","","","","","","","",""
"html-keyboard-response","60","777829","0.0-7.0-0.53","5f3161410f87706425490ae1","64afc2c9a8732ea92db0087d","64afd47fa15e60d4b82814cc","null","null","<p style=""font-size: 60px; font-family: BACS"">aONdmvG</p>","","","","","","","",""
"html-keyboard-response","61","778831","0.0-7.0-0.54","5f3161410f87706425490ae1","64afc2c9a8732ea92db0087d","64afd47fa15e60d4b82814cc","null","null","<p style=""font-size: 60px; font-family: BACS"">DBlhmAM</p>","","","","","","","",""
"html-keyboard-response","62","779834","0.0-7.0-0.55","5f3161410f87706425490ae1","64afc2c9a8732ea92db0087d","64afd47fa15e60d4b82814cc","null","null","<p style=""font-size: 60px; font-family: BACS"">AYkEhbAMO</p>","","","","","","","",""
"html-keyboard-response","63","780841","0.0-7.0-0.56","5f3161410f87706425490ae1","64afc2c9a8732ea92db0087d","64afd47fa15e60d4b82814cc","null","null","<p style=""font-size: 60px; font-family: BACS"">DhCPkDOm</p>","","","","","","","",""
"html-keyboard-response","64","781851","0.0-7.0-0.57","5f3161410f87706425490ae1","64afc2c9a8732ea92db0087d","64afd47fa15e60d4b82814cc","null","null","<p style=""font-size: 60px; font-family: BACS"">KBKBEmAM</p>","","","","","","","",""
"html-keyboard-response","65","782859","0.0-7.0-0.58","5f3161410f87706425490ae1","64afc2c9a8732ea92db0087d","64afd47fa15e60d4b82814cc","null","null","<p style=""font-size: 60px; font-family: BACS"">krUQOQAr</p>","","","","","","","",""
"html-keyboard-response","66","783868","0.0-7.0-0.59","5f3161410f87706425490ae1","64afc2c9a8732ea92db0087d","64afd47fa15e60d4b82814cc","null","null","<p style=""font-size: 60px; font-family: BACS"">rvOvUbLd</p>","","","","","","","",""
"html-keyboard-response","67","784879","0.0-7.0-0.60","5f3161410f87706425490ae1","64afc2c9a8732ea92db0087d","64afd47fa15e60d4b82814cc","null","null","<p style=""font-size: 60px; font-family: BACS"">kLvdNkJdr</p>","","","","","","","",""
"html-keyboard-response","68","785887","0.0-7.0-0.61","5f3161410f87706425490ae1","64afc2c9a8732ea92db0087d","64afd47fa15e60d4b82814cc","null","null","<p style=""font-size: 60px; font-family: BACS"">vmuLlOQAr</p>","","","","","","","",""
"html-keyboard-response","69","786895","0.0-7.0-0.62","5f3161410f87706425490ae1","64afc2c9a8732ea92db0087d","64afd47fa15e60d4b82814cc","null","null","<p style=""font-size: 60px; font-family: BACS"">AYkEhkDOm</p>","","","","","","","",""
"html-keyboard-response","70","787901","0.0-7.0-0.63","5f3161410f87706425490ae1","64afc2c9a8732ea92db0087d","64afd47fa15e60d4b82814cc","null","null","<p style=""font-size: 60px; font-family: BACS"">kcCRtOdOP</p>","","","","","","","",""
"html-keyboard-response","71","788905","0.0-7.0-0.64","5f3161410f87706425490ae1","64afc2c9a8732ea92db0087d","64afd47fa15e60d4b82814cc","null","null","<p style=""font-size: 60px; font-family: BACS"">MDKPmAM</p>","","","","","","","",""
"html-keyboard-response","72","789913","0.0-7.0-0.65","5f3161410f87706425490ae1","64afc2c9a8732ea92db0087d","64afd47fa15e60d4b82814cc","null","null","<p style=""font-size: 60px; font-family: BACS"">GAcYkJdr</p>","","","","","","","",""
"html-keyboard-response","73","790917","0.0-7.0-0.66","5f3161410f87706425490ae1","64afc2c9a8732ea92db0087d","64afd47fa15e60d4b82814cc","null","null","<p style=""font-size: 60px; font-family: BACS"">KTDTBOdOP</p>","","","","","","","",""
"html-keyboard-response","74","791919","0.0-7.0-0.67","5f3161410f87706425490ae1","64afc2c9a8732ea92db0087d","64afd47fa15e60d4b82814cc","null","null","<p style=""font-size: 60px; font-family: BACS"">hbmAdRA</p>","","","","","","","",""
"html-keyboard-response","75","792934","0.0-7.0-0.68","5f3161410f87706425490ae1","64afc2c9a8732ea92db0087d","64afd47fa15e60d4b82814cc","null","null","<p style=""font-size: 60px; font-family: BACS"">aONdmkc</p>","","","","","","","",""
"html-keyboard-response","76","793941","0.0-7.0-0.69","5f3161410f87706425490ae1","64afc2c9a8732ea92db0087d","64afd47fa15e60d4b82814cc","null","null","<p style=""font-size: 60px; font-family: BACS"">kLvdNmvG</p>","","","","","","","",""
"html-keyboard-response","77","794949","0.0-7.0-0.70","5f3161410f87706425490ae1","64afc2c9a8732ea92db0087d","64afd47fa15e60d4b82814cc","null","null","<p style=""font-size: 60px; font-family: BACS"">hbmAbAMO</p>","","","","","","","",""
"html-keyboard-response","78","795951","0.0-7.0-0.71","5f3161410f87706425490ae1","64afc2c9a8732ea92db0087d","64afd47fa15e60d4b82814cc","null","null","<p style=""font-size: 60px; font-family: BACS"">uQuZcbLd</p>","","","","","","","",""
"html-keyboard-response","79","796963","0.0-7.0-0.72","5f3161410f87706425490ae1","64afc2c9a8732ea92db0087d","64afd47fa15e60d4b82814cc","null","null","<p style=""font-size: 60px; font-family: BACS"">DhCPbAMO</p>","","","","","","","",""
"html-keyboard-response","80","797965","0.0-7.0-0.73","5f3161410f87706425490ae1","64afc2c9a8732ea92db0087d","64afd47fa15e60d4b82814cc","null","null","<p style=""font-size: 60px; font-family: BACS"">AYkEhdRA</p>","","","","","","","",""
"html-keyboard-response","81","798974","0.0-7.0-0.74","5f3161410f87706425490ae1","64afc2c9a8732ea92db0087d","64afd47fa15e60d4b82814cc","null","null","<p style=""font-size: 60px; font-family: BACS"">uQuZcmkc</p>","","","","","","","",""
"html-keyboard-response","82","799982","0.0-7.0-0.75","5f3161410f87706425490ae1","64afc2c9a8732ea92db0087d","64afd47fa15e60d4b82814cc","null","null","<p style=""font-size: 60px; font-family: BACS"">KBKBEdRA</p>","","","","","","","",""
"html-keyboard-response","83","800983","0.0-7.0-0.76","5f3161410f87706425490ae1","64afc2c9a8732ea92db0087d","64afd47fa15e60d4b82814cc","null","null","<p style=""font-size: 60px; font-family: BACS"">kcCRtmAM</p>","","","","","","","",""
"html-keyboard-response","84","801988","0.0-7.0-0.77","5f3161410f87706425490ae1","64afc2c9a8732ea92db0087d","64afd47fa15e60d4b82814cc","null","null","<p style=""font-size: 60px; font-family: BACS"">KTDTBbAMO</p>","","","","","","","",""
"html-keyboard-response","85","802992","0.0-7.0-0.78","5f3161410f87706425490ae1","64afc2c9a8732ea92db0087d","64afd47fa15e60d4b82814cc","null","null","<p style=""font-size: 60px; font-family: BACS"">KABAOdOP</p>","","","","","","","",""
"html-keyboard-response","86","804002","0.0-7.0-0.79","5f3161410f87706425490ae1","64afc2c9a8732ea92db0087d","64afd47fa15e60d4b82814cc","null","null","<p style=""font-size: 60px; font-family: BACS"">NbmQUkJdr</p>","","","","","","","",""
"html-keyboard-response","87","1419052","0.0-8.0","5f3161410f87706425490ae1","64afc2c9a8732ea92db0087d","64afd47fa15e60d4b82814cc","615049"," ","<p>Ottimo, hai visto il primo blocco di parole. Ora puoi prenderti una piccola pausa.</p>
      <p>Premi la barra quando sei pronta/o per riprendere.</p>","","","","","","","",""
"html-keyboard-response","88","1420062","0.0-9.0-0.0","5f3161410f87706425490ae1","64afc2c9a8732ea92db0087d","64afd47fa15e60d4b82814cc","null","null","<p style=""font-size: 60px; font-family: BACS"">DBlhOdOP</p>","","","","","","","",""
"html-keyboard-response","89","1421064","0.0-9.0-0.1","5f3161410f87706425490ae1","64afc2c9a8732ea92db0087d","64afd47fa15e60d4b82814cc","null","null","<p style=""font-size: 60px; font-family: BACS"">AYkEhbAMO</p>","","","","","","","",""
"html-keyboard-response","90","1422065","0.0-9.0-0.2","5f3161410f87706425490ae1","64afc2c9a8732ea92db0087d","64afd47fa15e60d4b82814cc","null","null","<p style=""font-size: 60px; font-family: BACS"">krUQmkc</p>","","","","","","","",""
"html-keyboard-response","91","1423075","0.0-9.0-0.3","5f3161410f87706425490ae1","64afc2c9a8732ea92db0087d","64afd47fa15e60d4b82814cc","null","null","<p style=""font-size: 60px; font-family: BACS"">aONdOQAr</p>","","","","","","","",""
"html-keyboard-response","92","1424076","0.0-9.0-0.4","5f3161410f87706425490ae1","64afc2c9a8732ea92db0087d","64afd47fa15e60d4b82814cc","null","null","<p style=""font-size: 60px; font-family: BACS"">uQuZckJdr</p>","","","","","","","",""
"html-keyboard-response","93","1425093","0.0-9.0-0.5","5f3161410f87706425490ae1","64afc2c9a8732ea92db0087d","64afd47fa15e60d4b82814cc","null","null","<p style=""font-size: 60px; font-family: BACS"">rvOvUmvG</p>","","","","","","","",""
"html-keyboard-response","94","1426100","0.0-9.0-0.6","5f3161410f87706425490ae1","64afc2c9a8732ea92db0087d","64afd47fa15e60d4b82814cc","null","null","<p style=""font-size: 60px; font-family: BACS"">KTDTBOdOP</p>","","","","","","","",""
"html-keyboard-response","95","1427102","0.0-9.0-0.7","5f3161410f87706425490ae1","64afc2c9a8732ea92db0087d","64afd47fa15e60d4b82814cc","null","null","<p style=""font-size: 60px; font-family: BACS"">AYkEhkDOm</p>","","","","","","","",""
"html-keyboard-response","96","1428103","0.0-9.0-0.8","5f3161410f87706425490ae1","64afc2c9a8732ea92db0087d","64afd47fa15e60d4b82814cc","null","null","<p style=""font-size: 60px; font-family: BACS"">GAcYmvG</p>","","","","","","","",""
"html-keyboard-response","97","1429105","0.0-9.0-0.9","5f3161410f87706425490ae1","64afc2c9a8732ea92db0087d","64afd47fa15e60d4b82814cc","null","null","<p style=""font-size: 60px; font-family: BACS"">rvOvUbLd</p>","","","","","","","",""
"html-keyboard-response","98","1430111","0.0-9.0-0.10","5f3161410f87706425490ae1","64afc2c9a8732ea92db0087d","64afd47fa15e60d4b82814cc","null","null","<p style=""font-size: 60px; font-family: BACS"">NvYJmkc</p>","","","","","","","",""
"html-keyboard-response","99","1431113","0.0-9.0-0.11","5f3161410f87706425490ae1","64afc2c9a8732ea92db0087d","64afd47fa15e60d4b82814cc","null","null","<p style=""font-size: 60px; font-family: BACS"">KABAkDOm</p>","","","","","","","",""
"html-keyboard-response","100","1432125","0.0-9.0-0.12","5f3161410f87706425490ae1","64afc2c9a8732ea92db0087d","64afd47fa15e60d4b82814cc","null","null","<p style=""font-size: 60px; font-family: BACS"">rvOvUOQAr</p>","","","","","","","",""
"html-keyboard-response","101","1433135","0.0-9.0-0.13","5f3161410f87706425490ae1","64afc2c9a8732ea92db0087d","64afd47fa15e60d4b82814cc","null","null","<p style=""font-size: 60px; font-family: BACS"">kcCRtmAM</p>","","","","","","","",""
"html-keyboard-response","102","1434143","0.0-9.0-0.14","5f3161410f87706425490ae1","64afc2c9a8732ea92db0087d","64afd47fa15e60d4b82814cc","null","null","<p style=""font-size: 60px; font-family: BACS"">krUQkJdr</p>","","","","","","","",""
"html-keyboard-response","103","1435144","0.0-9.0-0.15","5f3161410f87706425490ae1","64afc2c9a8732ea92db0087d","64afd47fa15e60d4b82814cc","null","null","<p style=""font-size: 60px; font-family: BACS"">DBlhmAM</p>","","","","","","","",""
"html-keyboard-response","104","1436156","0.0-9.0-0.16","5f3161410f87706425490ae1","64afc2c9a8732ea92db0087d","64afd47fa15e60d4b82814cc","null","null","<p style=""font-size: 60px; font-family: BACS"">KBKBEdRA</p>","","","","","","","",""
"html-keyboard-response","105","1437171","0.0-9.0-0.17","5f3161410f87706425490ae1","64afc2c9a8732ea92db0087d","64afd47fa15e60d4b82814cc","null","null","<p style=""font-size: 60px; font-family: BACS"">kLvdNkJdr</p>","","","","","","","",""
"html-keyboard-response","106","1438180","0.0-9.0-0.18","5f3161410f87706425490ae1","64afc2c9a8732ea92db0087d","64afd47fa15e60d4b82814cc","null","null","<p style=""font-size: 60px; font-family: BACS"">KABAOdOP</p>","","","","","","","",""
"html-keyboard-response","107","1439188","0.0-9.0-0.19","5f3161410f87706425490ae1","64afc2c9a8732ea92db0087d","64afd47fa15e60d4b82814cc","null","null","<p style=""font-size: 60px; font-family: BACS"">kLvdNbLd</p>","","","","","","","",""
"html-keyboard-response","108","1440197","0.0-9.0-0.20","5f3161410f87706425490ae1","64afc2c9a8732ea92db0087d","64afd47fa15e60d4b82814cc","null","null","<p style=""font-size: 60px; font-family: BACS"">KTDTBkDOm</p>","","","","","","","",""
"html-keyboard-response","109","1441199","0.0-9.0-0.21","5f3161410f87706425490ae1","64afc2c9a8732ea92db0087d","64afd47fa15e60d4b82814cc","null","null","<p style=""font-size: 60px; font-family: BACS"">NvYJmvG</p>","","","","","","","",""
"html-keyboard-response","110","1442210","0.0-9.0-0.22","5f3161410f87706425490ae1","64afc2c9a8732ea92db0087d","64afd47fa15e60d4b82814cc","null","null","<p style=""font-size: 60px; font-family: BACS"">hbmAbAMO</p>","","","","","","","",""
"html-keyboard-response","111","1443211","0.0-9.0-0.23","5f3161410f87706425490ae1","64afc2c9a8732ea92db0087d","64afd47fa15e60d4b82814cc","null","null","<p style=""font-size: 60px; font-family: BACS"">KTDTBmAM</p>","","","","","","","",""
"html-keyboard-response","112","1444222","0.0-9.0-0.24","5f3161410f87706425490ae1","64afc2c9a8732ea92db0087d","64afd47fa15e60d4b82814cc","null","null","<p style=""font-size: 60px; font-family: BACS"">kcCRtbAMO</p>","","","","","","","",""
"html-keyboard-response","113","1445223","0.0-9.0-0.25","5f3161410f87706425490ae1","64afc2c9a8732ea92db0087d","64afd47fa15e60d4b82814cc","null","null","<p style=""font-size: 60px; font-family: BACS"">DcPTcOdOP</p>","","","","","","","",""
"html-keyboard-response","114","1446224","0.0-9.0-0.26","5f3161410f87706425490ae1","64afc2c9a8732ea92db0087d","64afd47fa15e60d4b82814cc","null","null","<p style=""font-size: 60px; font-family: BACS"">DBlhdRA</p>","","","","","","","",""
"html-keyboard-response","115","1447226","0.0-9.0-0.27","5f3161410f87706425490ae1","64afc2c9a8732ea92db0087d","64afd47fa15e60d4b82814cc","null","null","<p style=""font-size: 60px; font-family: BACS"">MDKPmAM</p>","","","","","","","",""
"html-keyboard-response","116","1448231","0.0-9.0-0.28","5f3161410f87706425490ae1","64afc2c9a8732ea92db0087d","64afd47fa15e60d4b82814cc","null","null","<p style=""font-size: 60px; font-family: BACS"">rvOvUmkc</p>","","","","","","","",""
"html-keyboard-response","117","1449242","0.0-9.0-0.29","5f3161410f87706425490ae1","64afc2c9a8732ea92db0087d","64afd47fa15e60d4b82814cc","null","null","<p style=""font-size: 60px; font-family: BACS"">vblrmvG</p>","","","","","","","",""
"html-keyboard-response","118","1450249","0.0-9.0-0.30","5f3161410f87706425490ae1","64afc2c9a8732ea92db0087d","64afd47fa15e60d4b82814cc","null","null","<p style=""font-size: 60px; font-family: BACS"">KBKBEbAMO</p>","","","","","","","",""
"html-keyboard-response","119","1451259","0.0-9.0-0.31","5f3161410f87706425490ae1","64afc2c9a8732ea92db0087d","64afd47fa15e60d4b82814cc","null","null","<p style=""font-size: 60px; font-family: BACS"">MDKPdRA</p>","","","","","","","",""
"html-keyboard-response","120","1452260","0.0-9.0-0.32","5f3161410f87706425490ae1","64afc2c9a8732ea92db0087d","64afd47fa15e60d4b82814cc","null","null","<p style=""font-size: 60px; font-family: BACS"">vblrmkc</p>","","","","","","","",""
"html-keyboard-response","121","1453276","0.0-9.0-0.33","5f3161410f87706425490ae1","64afc2c9a8732ea92db0087d","64afd47fa15e60d4b82814cc","null","null","<p style=""font-size: 60px; font-family: BACS"">DcPTcmAM</p>","","","","","","","",""
"html-keyboard-response","122","1454292","0.0-9.0-0.34","5f3161410f87706425490ae1","64afc2c9a8732ea92db0087d","64afd47fa15e60d4b82814cc","null","null","<p style=""font-size: 60px; font-family: BACS"">kLvdNOQAr</p>","","","","","","","",""
"html-keyboard-response","123","1455294","0.0-9.0-0.35","5f3161410f87706425490ae1","64afc2c9a8732ea92db0087d","64afd47fa15e60d4b82814cc","null","null","<p style=""font-size: 60px; font-family: BACS"">vmuLlkJdr</p>","","","","","","","",""
"html-keyboard-response","124","1456308","0.0-9.0-0.36","5f3161410f87706425490ae1","64afc2c9a8732ea92db0087d","64afd47fa15e60d4b82814cc","null","null","<p style=""font-size: 60px; font-family: BACS"">hbmAOdOP</p>","","","","","","","",""
"html-keyboard-response","125","1457310","0.0-9.0-0.37","5f3161410f87706425490ae1","64afc2c9a8732ea92db0087d","64afd47fa15e60d4b82814cc","null","null","<p style=""font-size: 60px; font-family: BACS"">AYkEhdRA</p>","","","","","","","",""
"html-keyboard-response","126","1458311","0.0-9.0-0.38","5f3161410f87706425490ae1","64afc2c9a8732ea92db0087d","64afd47fa15e60d4b82814cc","null","null","<p style=""font-size: 60px; font-family: BACS"">NbmQUkJdr</p>","","","","","","","",""
"html-keyboard-response","127","1459313","0.0-9.0-0.39","5f3161410f87706425490ae1","64afc2c9a8732ea92db0087d","64afd47fa15e60d4b82814cc","null","null","<p style=""font-size: 60px; font-family: BACS"">uQuZcOQAr</p>","","","","","","","",""
"html-keyboard-response","128","1460314","0.0-9.0-0.40","5f3161410f87706425490ae1","64afc2c9a8732ea92db0087d","64afd47fa15e60d4b82814cc","null","null","<p style=""font-size: 60px; font-family: BACS"">DhCPOdOP</p>","","","","","","","",""
"html-keyboard-response","129","1461329","0.0-9.0-0.41","5f3161410f87706425490ae1","64afc2c9a8732ea92db0087d","64afd47fa15e60d4b82814cc","null","null","<p style=""font-size: 60px; font-family: BACS"">krUQOQAr</p>","","","","","","","",""
"html-keyboard-response","130","1462339","0.0-9.0-0.42","5f3161410f87706425490ae1","64afc2c9a8732ea92db0087d","64afd47fa15e60d4b82814cc","null","null","<p style=""font-size: 60px; font-family: BACS"">vmuLlbLd</p>","","","","","","","",""
"html-keyboard-response","131","1463348","0.0-9.0-0.43","5f3161410f87706425490ae1","64afc2c9a8732ea92db0087d","64afd47fa15e60d4b82814cc","null","null","<p style=""font-size: 60px; font-family: BACS"">GAcYmkc</p>","","","","","","","",""
"html-keyboard-response","132","1464354","0.0-9.0-0.44","5f3161410f87706425490ae1","64afc2c9a8732ea92db0087d","64afd47fa15e60d4b82814cc","null","null","<p style=""font-size: 60px; font-family: BACS"">KBKBEmAM</p>","","","","","","","",""
"html-keyboard-response","133","1465356","0.0-9.0-0.45","5f3161410f87706425490ae1","64afc2c9a8732ea92db0087d","64afd47fa15e60d4b82814cc","null","null","<p style=""font-size: 60px; font-family: BACS"">vmuLlOQAr</p>","","","","","","","",""
"html-keyboard-response","134","1466357","0.0-9.0-0.46","5f3161410f87706425490ae1","64afc2c9a8732ea92db0087d","64afd47fa15e60d4b82814cc","null","null","<p style=""font-size: 60px; font-family: BACS"">MDKPkDOm</p>","","","","","","","",""
"html-keyboard-response","135","1467362","0.0-9.0-0.47","5f3161410f87706425490ae1","64afc2c9a8732ea92db0087d","64afd47fa15e60d4b82814cc","null","null","<p style=""font-size: 60px; font-family: BACS"">vmuLlmvG</p>","","","","","","","",""
"html-keyboard-response","136","1468374","0.0-9.0-0.48","5f3161410f87706425490ae1","64afc2c9a8732ea92db0087d","64afd47fa15e60d4b82814cc","null","null","<p style=""font-size: 60px; font-family: BACS"">NvYJbLd</p>","","","","","","","",""
"html-keyboard-response","137","1469380","0.0-9.0-0.49","5f3161410f87706425490ae1","64afc2c9a8732ea92db0087d","64afd47fa15e60d4b82814cc","null","null","<p style=""font-size: 60px; font-family: BACS"">GAcYOQAr</p>","","","","","","","",""
"html-keyboard-response","138","1470387","0.0-9.0-0.50","5f3161410f87706425490ae1","64afc2c9a8732ea92db0087d","64afd47fa15e60d4b82814cc","null","null","<p style=""font-size: 60px; font-family: BACS"">NvYJkJdr</p>","","","","","","","",""
"html-keyboard-response","139","1471395","0.0-9.0-0.51","5f3161410f87706425490ae1","64afc2c9a8732ea92db0087d","64afd47fa15e60d4b82814cc","null","null","<p style=""font-size: 60px; font-family: BACS"">hbmAdRA</p>","","","","","","","",""
"html-keyboard-response","140","1472401","0.0-9.0-0.52","5f3161410f87706425490ae1","64afc2c9a8732ea92db0087d","64afd47fa15e60d4b82814cc","null","null","<p style=""font-size: 60px; font-family: BACS"">NbmQUOQAr</p>","","","","","","","",""
"html-keyboard-response","141","1473414","0.0-9.0-0.53","5f3161410f87706425490ae1","64afc2c9a8732ea92db0087d","64afd47fa15e60d4b82814cc","null","null","<p style=""font-size: 60px; font-family: BACS"">DcPTcbAMO</p>","","","","","","","",""
"html-keyboard-response","142","1474420","0.0-9.0-0.54","5f3161410f87706425490ae1","64afc2c9a8732ea92db0087d","64afd47fa15e60d4b82814cc","null","null","<p style=""font-size: 60px; font-family: BACS"">NbmQUmkc</p>","","","","","","","",""
"html-keyboard-response","143","1475427","0.0-9.0-0.55","5f3161410f87706425490ae1","64afc2c9a8732ea92db0087d","64afd47fa15e60d4b82814cc","null","null","<p style=""font-size: 60px; font-family: BACS"">DhCPbAMO</p>","","","","","","","",""
"html-keyboard-response","144","1476428","0.0-9.0-0.56","5f3161410f87706425490ae1","64afc2c9a8732ea92db0087d","64afd47fa15e60d4b82814cc","null","null","<p style=""font-size: 60px; font-family: BACS"">kcCRtOdOP</p>","","","","","","","",""
"html-keyboard-response","145","1477430","0.0-9.0-0.57","5f3161410f87706425490ae1","64afc2c9a8732ea92db0087d","64afd47fa15e60d4b82814cc","null","null","<p style=""font-size: 60px; font-family: BACS"">KBKBEkDOm</p>","","","","","","","",""
"html-keyboard-response","146","1478432","0.0-9.0-0.58","5f3161410f87706425490ae1","64afc2c9a8732ea92db0087d","64afd47fa15e60d4b82814cc","null","null","<p style=""font-size: 60px; font-family: BACS"">AYkEhOdOP</p>","","","","","","","",""
"html-keyboard-response","147","1479445","0.0-9.0-0.59","5f3161410f87706425490ae1","64afc2c9a8732ea92db0087d","64afd47fa15e60d4b82814cc","null","null","<p style=""font-size: 60px; font-family: BACS"">vblrbLd</p>","","","","","","","",""
"html-keyboard-response","148","1480462","0.0-9.0-0.60","5f3161410f87706425490ae1","64afc2c9a8732ea92db0087d","64afd47fa15e60d4b82814cc","null","null","<p style=""font-size: 60px; font-family: BACS"">krUQmvG</p>","","","","","","","",""
"html-keyboard-response","149","1481463","0.0-9.0-0.61","5f3161410f87706425490ae1","64afc2c9a8732ea92db0087d","64afd47fa15e60d4b82814cc","null","null","<p style=""font-size: 60px; font-family: BACS"">vblrkJdr</p>","","","","","","","",""
"html-keyboard-response","150","1482480","0.0-9.0-0.62","5f3161410f87706425490ae1","64afc2c9a8732ea92db0087d","64afd47fa15e60d4b82814cc","null","null","<p style=""font-size: 60px; font-family: BACS"">DBlhkDOm</p>","","","","","","","",""
"html-keyboard-response","151","1483488","0.0-9.0-0.63","5f3161410f87706425490ae1","64afc2c9a8732ea92db0087d","64afd47fa15e60d4b82814cc","null","null","<p style=""font-size: 60px; font-family: BACS"">kLvdNmvG</p>","","","","","","","",""
"html-keyboard-response","152","1484496","0.0-9.0-0.64","5f3161410f87706425490ae1","64afc2c9a8732ea92db0087d","64afd47fa15e60d4b82814cc","null","null","<p style=""font-size: 60px; font-family: BACS"">KTDTBbAMO</p>","","","","","","","",""
"html-keyboard-response","153","1485505","0.0-9.0-0.65","5f3161410f87706425490ae1","64afc2c9a8732ea92db0087d","64afd47fa15e60d4b82814cc","null","null","<p style=""font-size: 60px; font-family: BACS"">hbmAmAM</p>","","","","","","","",""
"html-keyboard-response","154","1486513","0.0-9.0-0.66","5f3161410f87706425490ae1","64afc2c9a8732ea92db0087d","64afd47fa15e60d4b82814cc","null","null","<p style=""font-size: 60px; font-family: BACS"">DcPTckDOm</p>","","","","","","","",""
"html-keyboard-response","155","1487519","0.0-9.0-0.67","5f3161410f87706425490ae1","64afc2c9a8732ea92db0087d","64afd47fa15e60d4b82814cc","null","null","<p style=""font-size: 60px; font-family: BACS"">aONdmkc</p>","","","","","","","",""
"html-keyboard-response","156","1488531","0.0-9.0-0.68","5f3161410f87706425490ae1","64afc2c9a8732ea92db0087d","64afd47fa15e60d4b82814cc","null","null","<p style=""font-size: 60px; font-family: BACS"">uQuZcbLd</p>","","","","","","","",""
"html-keyboard-response","157","1489533","0.0-9.0-0.69","5f3161410f87706425490ae1","64afc2c9a8732ea92db0087d","64afd47fa15e60d4b82814cc","null","null","<p style=""font-size: 60px; font-family: BACS"">DhCPdRA</p>","","","","","","","",""
"html-keyboard-response","158","1490548","0.0-9.0-0.70","5f3161410f87706425490ae1","64afc2c9a8732ea92db0087d","64afd47fa15e60d4b82814cc","null","null","<p style=""font-size: 60px; font-family: BACS"">MDKPbAMO</p>","","","","","","","",""
"html-keyboard-response","159","1491549","0.0-9.0-0.71","5f3161410f87706425490ae1","64afc2c9a8732ea92db0087d","64afd47fa15e60d4b82814cc","null","null","<p style=""font-size: 60px; font-family: BACS"">NbmQUbLd</p>","","","","","","","",""
"html-keyboard-response","160","1492551","0.0-9.0-0.72","5f3161410f87706425490ae1","64afc2c9a8732ea92db0087d","64afd47fa15e60d4b82814cc","null","null","<p style=""font-size: 60px; font-family: BACS"">kcCRtdRA</p>","","","","","","","",""
"html-keyboard-response","161","1493554","0.0-9.0-0.73","5f3161410f87706425490ae1","64afc2c9a8732ea92db0087d","64afd47fa15e60d4b82814cc","null","null","<p style=""font-size: 60px; font-family: BACS"">aONdmvG</p>","","","","","","","",""
"html-keyboard-response","162","1494562","0.0-9.0-0.74","5f3161410f87706425490ae1","64afc2c9a8732ea92db0087d","64afd47fa15e60d4b82814cc","null","null","<p style=""font-size: 60px; font-family: BACS"">GAcYkJdr</p>","","","","","","","",""
"html-keyboard-response","163","1495564","0.0-9.0-0.75","5f3161410f87706425490ae1","64afc2c9a8732ea92db0087d","64afd47fa15e60d4b82814cc","null","null","<p style=""font-size: 60px; font-family: BACS"">KABAmAM</p>","","","","","","","",""
"html-keyboard-response","164","1496566","0.0-9.0-0.76","5f3161410f87706425490ae1","64afc2c9a8732ea92db0087d","64afd47fa15e60d4b82814cc","null","null","<p style=""font-size: 60px; font-family: BACS"">aONdbLd</p>","","","","","","","",""
"html-keyboard-response","165","1497576","0.0-9.0-0.77","5f3161410f87706425490ae1","64afc2c9a8732ea92db0087d","64afd47fa15e60d4b82814cc","null","null","<p style=""font-size: 60px; font-family: BACS"">DhCPkDOm</p>","","","","","","","",""
"html-keyboard-response","166","1498583","0.0-9.0-0.78","5f3161410f87706425490ae1","64afc2c9a8732ea92db0087d","64afd47fa15e60d4b82814cc","null","null","<p style=""font-size: 60px; font-family: BACS"">KABAdRA</p>","","","","","","","",""
"html-keyboard-response","167","1499585","0.0-9.0-0.79","5f3161410f87706425490ae1","64afc2c9a8732ea92db0087d","64afd47fa15e60d4b82814cc","null","null","<p style=""font-size: 60px; font-family: BACS"">uQuZcmkc</p>","","","","","","","",""
"html-keyboard-response","168","1501857","0.0-10.0","5f3161410f87706425490ae1","64afc2c9a8732ea92db0087d","64afd47fa15e60d4b82814cc","2271"," ","<p>Ottimo, hai visto il secondo blocco di parole. Ora puoi prenderti una piccola pausa.</p>
      <p>Premi la barra quando sei pronta/o per riprendere.</p>","","","","","","","",""
"html-keyboard-response","169","1502866","0.0-11.0-0.0","5f3161410f87706425490ae1","64afc2c9a8732ea92db0087d","64afd47fa15e60d4b82814cc","null","null","<p style=""font-size: 60px; font-family: BACS"">MDKPmAM</p>","","","","","","","",""
"html-keyboard-response","170","1503868","0.0-11.0-0.1","5f3161410f87706425490ae1","64afc2c9a8732ea92db0087d","64afd47fa15e60d4b82814cc","null","null","<p style=""font-size: 60px; font-family: BACS"">krUQkJdr</p>","","","","","","","",""
"html-keyboard-response","171","1504869","0.0-11.0-0.2","5f3161410f87706425490ae1","64afc2c9a8732ea92db0087d","64afd47fa15e60d4b82814cc","null","null","<p style=""font-size: 60px; font-family: BACS"">hbmAOdOP</p>","","","","","","","",""
"html-keyboard-response","172","1505871","0.0-11.0-0.3","5f3161410f87706425490ae1","64afc2c9a8732ea92db0087d","64afd47fa15e60d4b82814cc","null","null","<p style=""font-size: 60px; font-family: BACS"">DBlhmAM</p>","","","","","","","",""
"html-keyboard-response","173","1506883","0.0-11.0-0.4","5f3161410f87706425490ae1","64afc2c9a8732ea92db0087d","64afd47fa15e60d4b82814cc","null","null","<p style=""font-size: 60px; font-family: BACS"">uQuZcmkc</p>","","","","","","","",""
"html-keyboard-response","174","1507884","0.0-11.0-0.5","5f3161410f87706425490ae1","64afc2c9a8732ea92db0087d","64afd47fa15e60d4b82814cc","null","null","<p style=""font-size: 60px; font-family: BACS"">KABAOdOP</p>","","","","","","","",""
"html-keyboard-response","175","1508886","0.0-11.0-0.6","5f3161410f87706425490ae1","64afc2c9a8732ea92db0087d","64afd47fa15e60d4b82814cc","null","null","<p style=""font-size: 60px; font-family: BACS"">DcPTcmAM</p>","","","","","","","",""
"html-keyboard-response","176","1509888","0.0-11.0-0.7","5f3161410f87706425490ae1","64afc2c9a8732ea92db0087d","64afd47fa15e60d4b82814cc","null","null","<p style=""font-size: 60px; font-family: BACS"">hbmAdRA</p>","","","","","","","",""
"html-keyboard-response","177","1510889","0.0-11.0-0.8","5f3161410f87706425490ae1","64afc2c9a8732ea92db0087d","64afd47fa15e60d4b82814cc","null","null","<p style=""font-size: 60px; font-family: BACS"">AYkEhkDOm</p>","","","","","","","",""
"html-keyboard-response","178","1511906","0.0-11.0-0.9","5f3161410f87706425490ae1","64afc2c9a8732ea92db0087d","64afd47fa15e60d4b82814cc","null","null","<p style=""font-size: 60px; font-family: BACS"">KABAdRA</p>","","","","","","","",""
"html-keyboard-response","179","1512914","0.0-11.0-0.10","5f3161410f87706425490ae1","64afc2c9a8732ea92db0087d","64afd47fa15e60d4b82814cc","null","null","<p style=""font-size: 60px; font-family: BACS"">GAcYmvG</p>","","","","","","","",""
"html-keyboard-response","180","1513916","0.0-11.0-0.11","5f3161410f87706425490ae1","64afc2c9a8732ea92db0087d","64afd47fa15e60d4b82814cc","null","null","<p style=""font-size: 60px; font-family: BACS"">vmuLlOQAr</p>","","","","","","","",""
"html-keyboard-response","181","1514930","0.0-11.0-0.12","5f3161410f87706425490ae1","64afc2c9a8732ea92db0087d","64afd47fa15e60d4b82814cc","null","null","<p style=""font-size: 60px; font-family: BACS"">NbmQUbLd</p>","","","","","","","",""
"html-keyboard-response","182","1515936","0.0-11.0-0.13","5f3161410f87706425490ae1","64afc2c9a8732ea92db0087d","64afd47fa15e60d4b82814cc","null","null","<p style=""font-size: 60px; font-family: BACS"">DcPTckDOm</p>","","","","","","","",""
"html-keyboard-response","183","1516944","0.0-11.0-0.14","5f3161410f87706425490ae1","64afc2c9a8732ea92db0087d","64afd47fa15e60d4b82814cc","null","null","<p style=""font-size: 60px; font-family: BACS"">DBlhOdOP</p>","","","","","","","",""
"html-keyboard-response","184","1517951","0.0-11.0-0.15","5f3161410f87706425490ae1","64afc2c9a8732ea92db0087d","64afd47fa15e60d4b82814cc","null","null","<p style=""font-size: 60px; font-family: BACS"">krUQOQAr</p>","","","","","","","",""
"html-keyboard-response","185","1518952","0.0-11.0-0.16","5f3161410f87706425490ae1","64afc2c9a8732ea92db0087d","64afd47fa15e60d4b82814cc","null","null","<p style=""font-size: 60px; font-family: BACS"">kcCRtdRA</p>","","","","","","","",""
"html-keyboard-response","186","1519962","0.0-11.0-0.17","5f3161410f87706425490ae1","64afc2c9a8732ea92db0087d","64afd47fa15e60d4b82814cc","null","null","<p style=""font-size: 60px; font-family: BACS"">KABAmAM</p>","","","","","","","",""
"html-keyboard-response","187","1520964","0.0-11.0-0.18","5f3161410f87706425490ae1","64afc2c9a8732ea92db0087d","64afd47fa15e60d4b82814cc","null","null","<p style=""font-size: 60px; font-family: BACS"">vblrkJdr</p>","","","","","","","",""
"html-keyboard-response","188","1521966","0.0-11.0-0.19","5f3161410f87706425490ae1","64afc2c9a8732ea92db0087d","64afd47fa15e60d4b82814cc","null","null","<p style=""font-size: 60px; font-family: BACS"">rvOvUmkc</p>","","","","","","","",""
"html-keyboard-response","189","1522968","0.0-11.0-0.20","5f3161410f87706425490ae1","64afc2c9a8732ea92db0087d","64afd47fa15e60d4b82814cc","null","null","<p style=""font-size: 60px; font-family: BACS"">DhCPkDOm</p>","","","","","","","",""
"html-keyboard-response","190","1523969","0.0-11.0-0.21","5f3161410f87706425490ae1","64afc2c9a8732ea92db0087d","64afd47fa15e60d4b82814cc","null","null","<p style=""font-size: 60px; font-family: BACS"">vblrmkc</p>","","","","","","","",""
"html-keyboard-response","191","1524971","0.0-11.0-0.22","5f3161410f87706425490ae1","64afc2c9a8732ea92db0087d","64afd47fa15e60d4b82814cc","null","null","<p style=""font-size: 60px; font-family: BACS"">MDKPbAMO</p>","","","","","","","",""
"html-keyboard-response","192","1525973","0.0-11.0-0.23","5f3161410f87706425490ae1","64afc2c9a8732ea92db0087d","64afd47fa15e60d4b82814cc","null","null","<p style=""font-size: 60px; font-family: BACS"">uQuZckJdr</p>","","","","","","","",""
"html-keyboard-response","193","1526974","0.0-11.0-0.24","5f3161410f87706425490ae1","64afc2c9a8732ea92db0087d","64afd47fa15e60d4b82814cc","null","null","<p style=""font-size: 60px; font-family: BACS"">rvOvUmvG</p>","","","","","","","",""
"html-keyboard-response","194","1527976","0.0-11.0-0.25","5f3161410f87706425490ae1","64afc2c9a8732ea92db0087d","64afd47fa15e60d4b82814cc","null","null","<p style=""font-size: 60px; font-family: BACS"">AYkEhOdOP</p>","","","","","","","",""
"html-keyboard-response","195","1528991","0.0-11.0-0.26","5f3161410f87706425490ae1","64afc2c9a8732ea92db0087d","64afd47fa15e60d4b82814cc","null","null","<p style=""font-size: 60px; font-family: BACS"">kLvdNbLd</p>","","","","","","","",""
"html-keyboard-response","196","1529992","0.0-11.0-0.27","5f3161410f87706425490ae1","64afc2c9a8732ea92db0087d","64afd47fa15e60d4b82814cc","null","null","<p style=""font-size: 60px; font-family: BACS"">GAcYmkc</p>","","","","","","","",""
"html-keyboard-response","197","1531006","0.0-11.0-0.28","5f3161410f87706425490ae1","64afc2c9a8732ea92db0087d","64afd47fa15e60d4b82814cc","null","null","<p style=""font-size: 60px; font-family: BACS"">vblrmvG</p>","","","","","","","",""
"html-keyboard-response","198","1532015","0.0-11.0-0.29","5f3161410f87706425490ae1","64afc2c9a8732ea92db0087d","64afd47fa15e60d4b82814cc","null","null","<p style=""font-size: 60px; font-family: BACS"">aONdOQAr</p>","","","","","","","",""
"html-keyboard-response","199","1533017","0.0-11.0-0.30","5f3161410f87706425490ae1","64afc2c9a8732ea92db0087d","64afd47fa15e60d4b82814cc","null","null","<p style=""font-size: 60px; font-family: BACS"">NvYJmvG</p>","","","","","","","",""
"html-keyboard-response","200","1534018","0.0-11.0-0.31","5f3161410f87706425490ae1","64afc2c9a8732ea92db0087d","64afd47fa15e60d4b82814cc","null","null","<p style=""font-size: 60px; font-family: BACS"">uQuZcOQAr</p>","","","","","","","",""
"html-keyboard-response","201","1535021","0.0-11.0-0.32","5f3161410f87706425490ae1","64afc2c9a8732ea92db0087d","64afd47fa15e60d4b82814cc","null","null","<p style=""font-size: 60px; font-family: BACS"">vmuLlbLd</p>","","","","","","","",""
"html-keyboard-response","202","1536022","0.0-11.0-0.33","5f3161410f87706425490ae1","64afc2c9a8732ea92db0087d","64afd47fa15e60d4b82814cc","null","null","<p style=""font-size: 60px; font-family: BACS"">MDKPkDOm</p>","","","","","","","",""
"html-keyboard-response","203","1537024","0.0-11.0-0.34","5f3161410f87706425490ae1","64afc2c9a8732ea92db0087d","64afd47fa15e60d4b82814cc","null","null","<p style=""font-size: 60px; font-family: BACS"">kLvdNkJdr</p>","","","","","","","",""
"html-keyboard-response","204","1538035","0.0-11.0-0.35","5f3161410f87706425490ae1","64afc2c9a8732ea92db0087d","64afd47fa15e60d4b82814cc","null","null","<p style=""font-size: 60px; font-family: BACS"">vblrbLd</p>","","","","","","","",""
"html-keyboard-response","205","1539047","0.0-11.0-0.36","5f3161410f87706425490ae1","64afc2c9a8732ea92db0087d","64afd47fa15e60d4b82814cc","null","null","<p style=""font-size: 60px; font-family: BACS"">KTDTBbAMO</p>","","","","","","","",""
"html-keyboard-response","206","1540049","0.0-11.0-0.37","5f3161410f87706425490ae1","64afc2c9a8732ea92db0087d","64afd47fa15e60d4b82814cc","null","null","<p style=""font-size: 60px; font-family: BACS"">KBKBEkDOm</p>","","","","","","","",""
"html-keyboard-response","207","1541053","0.0-11.0-0.38","5f3161410f87706425490ae1","64afc2c9a8732ea92db0087d","64afd47fa15e60d4b82814cc","null","null","<p style=""font-size: 60px; font-family: BACS"">kcCRtbAMO</p>","","","","","","","",""
"html-keyboard-response","208","1542060","0.0-11.0-0.39","5f3161410f87706425490ae1","64afc2c9a8732ea92db0087d","64afd47fa15e60d4b82814cc","null","null","<p style=""font-size: 60px; font-family: BACS"">KABAkDOm</p>","","","","","","","",""
"html-keyboard-response","209","1543062","0.0-11.0-0.40","5f3161410f87706425490ae1","64afc2c9a8732ea92db0087d","64afd47fa15e60d4b82814cc","null","null","<p style=""font-size: 60px; font-family: BACS"">kLvdNmvG</p>","","","","","","","",""
"html-keyboard-response","210","1544064","0.0-11.0-0.41","5f3161410f87706425490ae1","64afc2c9a8732ea92db0087d","64afd47fa15e60d4b82814cc","null","null","<p style=""font-size: 60px; font-family: BACS"">rvOvUOQAr</p>","","","","","","","",""
"html-keyboard-response","211","1545066","0.0-11.0-0.42","5f3161410f87706425490ae1","64afc2c9a8732ea92db0087d","64afd47fa15e60d4b82814cc","null","null","<p style=""font-size: 60px; font-family: BACS"">DcPTcbAMO</p>","","","","","","","",""
"html-keyboard-response","212","1546067","0.0-11.0-0.43","5f3161410f87706425490ae1","64afc2c9a8732ea92db0087d","64afd47fa15e60d4b82814cc","null","null","<p style=""font-size: 60px; font-family: BACS"">kLvdNOQAr</p>","","","","","","","",""
"html-keyboard-response","213","1547070","0.0-11.0-0.44","5f3161410f87706425490ae1","64afc2c9a8732ea92db0087d","64afd47fa15e60d4b82814cc","null","null","<p style=""font-size: 60px; font-family: BACS"">AYkEhbAMO</p>","","","","","","","",""
"html-keyboard-response","214","1548079","0.0-11.0-0.45","5f3161410f87706425490ae1","64afc2c9a8732ea92db0087d","64afd47fa15e60d4b82814cc","null","null","<p style=""font-size: 60px; font-family: BACS"">GAcYOQAr</p>","","","","","","","",""
"html-keyboard-response","215","1549080","0.0-11.0-0.46","5f3161410f87706425490ae1","64afc2c9a8732ea92db0087d","64afd47fa15e60d4b82814cc","null","null","<p style=""font-size: 60px; font-family: BACS"">NvYJbLd</p>","","","","","","","",""
"html-keyboard-response","216","1550081","0.0-11.0-0.47","5f3161410f87706425490ae1","64afc2c9a8732ea92db0087d","64afd47fa15e60d4b82814cc","null","null","<p style=""font-size: 60px; font-family: BACS"">NbmQUkJdr</p>","","","","","","","",""
"html-keyboard-response","217","1551091","0.0-11.0-0.48","5f3161410f87706425490ae1","64afc2c9a8732ea92db0087d","64afd47fa15e60d4b82814cc","null","null","<p style=""font-size: 60px; font-family: BACS"">DBlhdRA</p>","","","","","","","",""
"html-keyboard-response","218","1552096","0.0-11.0-0.49","5f3161410f87706425490ae1","64afc2c9a8732ea92db0087d","64afd47fa15e60d4b82814cc","null","null","<p style=""font-size: 60px; font-family: BACS"">aONdmkc</p>","","","","","","","",""
"html-keyboard-response","219","1553098","0.0-11.0-0.50","5f3161410f87706425490ae1","64afc2c9a8732ea92db0087d","64afd47fa15e60d4b82814cc","null","null","<p style=""font-size: 60px; font-family: BACS"">krUQmvG</p>","","","","","","","",""
"html-keyboard-response","220","1554112","0.0-11.0-0.51","5f3161410f87706425490ae1","64afc2c9a8732ea92db0087d","64afd47fa15e60d4b82814cc","null","null","<p style=""font-size: 60px; font-family: BACS"">KBKBEmAM</p>","","","","","","","",""
"html-keyboard-response","221","1555121","0.0-11.0-0.52","5f3161410f87706425490ae1","64afc2c9a8732ea92db0087d","64afd47fa15e60d4b82814cc","null","null","<p style=""font-size: 60px; font-family: BACS"">DcPTcOdOP</p>","","","","","","","",""
"html-keyboard-response","222","1556129","0.0-11.0-0.53","5f3161410f87706425490ae1","64afc2c9a8732ea92db0087d","64afd47fa15e60d4b82814cc","null","null","<p style=""font-size: 60px; font-family: BACS"">KTDTBkDOm</p>","","","","","","","",""
"html-keyboard-response","223","1557145","0.0-11.0-0.54","5f3161410f87706425490ae1","64afc2c9a8732ea92db0087d","64afd47fa15e60d4b82814cc","null","null","<p style=""font-size: 60px; font-family: BACS"">NbmQUOQAr</p>","","","","","","","",""
"html-keyboard-response","224","1558149","0.0-11.0-0.55","5f3161410f87706425490ae1","64afc2c9a8732ea92db0087d","64afd47fa15e60d4b82814cc","null","null","<p style=""font-size: 60px; font-family: BACS"">vmuLlkJdr</p>","","","","","","","",""
"html-keyboard-response","225","1559158","0.0-11.0-0.56","5f3161410f87706425490ae1","64afc2c9a8732ea92db0087d","64afd47fa15e60d4b82814cc","null","null","<p style=""font-size: 60px; font-family: BACS"">MDKPdRA</p>","","","","","","","",""
"html-keyboard-response","226","1560159","0.0-11.0-0.57","5f3161410f87706425490ae1","64afc2c9a8732ea92db0087d","64afd47fa15e60d4b82814cc","null","null","<p style=""font-size: 60px; font-family: BACS"">DBlhkDOm</p>","","","","","","","",""
"html-keyboard-response","227","1561161","0.0-11.0-0.58","5f3161410f87706425490ae1","64afc2c9a8732ea92db0087d","64afd47fa15e60d4b82814cc","null","null","<p style=""font-size: 60px; font-family: BACS"">vmuLlmvG</p>","","","","","","","",""
"html-keyboard-response","228","1562163","0.0-11.0-0.59","5f3161410f87706425490ae1","64afc2c9a8732ea92db0087d","64afd47fa15e60d4b82814cc","null","null","<p style=""font-size: 60px; font-family: BACS"">DhCPdRA</p>","","","","","","","",""
"html-keyboard-response","229","1563165","0.0-11.0-0.60","5f3161410f87706425490ae1","64afc2c9a8732ea92db0087d","64afd47fa15e60d4b82814cc","null","null","<p style=""font-size: 60px; font-family: BACS"">GAcYkJdr</p>","","","","","","","",""
"html-keyboard-response","230","1564174","0.0-11.0-0.61","5f3161410f87706425490ae1","64afc2c9a8732ea92db0087d","64afd47fa15e60d4b82814cc","null","null","<p style=""font-size: 60px; font-family: BACS"">NbmQUmkc</p>","","","","","","","",""
"html-keyboard-response","231","1565182","0.0-11.0-0.62","5f3161410f87706425490ae1","64afc2c9a8732ea92db0087d","64afd47fa15e60d4b82814cc","null","null","<p style=""font-size: 60px; font-family: BACS"">aONdmvG</p>","","","","","","","",""
"html-keyboard-response","232","1566183","0.0-11.0-0.63","5f3161410f87706425490ae1","64afc2c9a8732ea92db0087d","64afd47fa15e60d4b82814cc","null","null","<p style=""font-size: 60px; font-family: BACS"">uQuZcbLd</p>","","","","","","","",""
"html-keyboard-response","233","1567196","0.0-11.0-0.64","5f3161410f87706425490ae1","64afc2c9a8732ea92db0087d","64afd47fa15e60d4b82814cc","null","null","<p style=""font-size: 60px; font-family: BACS"">AYkEhdRA</p>","","","","","","","",""
"html-keyboard-response","234","1568198","0.0-11.0-0.65","5f3161410f87706425490ae1","64afc2c9a8732ea92db0087d","64afd47fa15e60d4b82814cc","null","null","<p style=""font-size: 60px; font-family: BACS"">krUQmkc</p>","","","","","","","",""
"html-keyboard-response","235","1569198","0.0-11.0-0.66","5f3161410f87706425490ae1","64afc2c9a8732ea92db0087d","64afd47fa15e60d4b82814cc","null","null","<p style=""font-size: 60px; font-family: BACS"">KBKBEdRA</p>","","","","","","","",""
"html-keyboard-response","236","1570207","0.0-11.0-0.67","5f3161410f87706425490ae1","64afc2c9a8732ea92db0087d","64afd47fa15e60d4b82814cc","null","null","<p style=""font-size: 60px; font-family: BACS"">DhCPOdOP</p>","","","","","","","",""
"html-keyboard-response","237","1571215","0.0-11.0-0.68","5f3161410f87706425490ae1","64afc2c9a8732ea92db0087d","64afd47fa15e60d4b82814cc","null","null","<p style=""font-size: 60px; font-family: BACS"">aONdbLd</p>","","","","","","","",""
"html-keyboard-response","238","1572217","0.0-11.0-0.69","5f3161410f87706425490ae1","64afc2c9a8732ea92db0087d","64afd47fa15e60d4b82814cc","null","null","<p style=""font-size: 60px; font-family: BACS"">hbmAbAMO</p>","","","","","","","",""
"html-keyboard-response","239","1573226","0.0-11.0-0.70","5f3161410f87706425490ae1","64afc2c9a8732ea92db0087d","64afd47fa15e60d4b82814cc","null","null","<p style=""font-size: 60px; font-family: BACS"">kcCRtOdOP</p>","","","","","","","",""
"html-keyboard-response","240","1574236","0.0-11.0-0.71","5f3161410f87706425490ae1","64afc2c9a8732ea92db0087d","64afd47fa15e60d4b82814cc","null","null","<p style=""font-size: 60px; font-family: BACS"">DhCPbAMO</p>","","","","","","","",""
"html-keyboard-response","241","1575240","0.0-11.0-0.72","5f3161410f87706425490ae1","64afc2c9a8732ea92db0087d","64afd47fa15e60d4b82814cc","null","null","<p style=""font-size: 60px; font-family: BACS"">hbmAmAM</p>","","","","","","","",""
"html-keyboard-response","242","1576249","0.0-11.0-0.73","5f3161410f87706425490ae1","64afc2c9a8732ea92db0087d","64afd47fa15e60d4b82814cc","null","null","<p style=""font-size: 60px; font-family: BACS"">NvYJkJdr</p>","","","","","","","",""
"html-keyboard-response","243","1577259","0.0-11.0-0.74","5f3161410f87706425490ae1","64afc2c9a8732ea92db0087d","64afd47fa15e60d4b82814cc","null","null","<p style=""font-size: 60px; font-family: BACS"">rvOvUbLd</p>","","","","","","","",""
"html-keyboard-response","244","1578261","0.0-11.0-0.75","5f3161410f87706425490ae1","64afc2c9a8732ea92db0087d","64afd47fa15e60d4b82814cc","null","null","<p style=""font-size: 60px; font-family: BACS"">KBKBEbAMO</p>","","","","","","","",""
"html-keyboard-response","245","1579276","0.0-11.0-0.76","5f3161410f87706425490ae1","64afc2c9a8732ea92db0087d","64afd47fa15e60d4b82814cc","null","null","<p style=""font-size: 60px; font-family: BACS"">KTDTBOdOP</p>","","","","","","","",""
"html-keyboard-response","246","1580278","0.0-11.0-0.77","5f3161410f87706425490ae1","64afc2c9a8732ea92db0087d","64afd47fa15e60d4b82814cc","null","null","<p style=""font-size: 60px; font-family: BACS"">kcCRtmAM</p>","","","","","","","",""
"html-keyboard-response","247","1581290","0.0-11.0-0.78","5f3161410f87706425490ae1","64afc2c9a8732ea92db0087d","64afd47fa15e60d4b82814cc","null","null","<p style=""font-size: 60px; font-family: BACS"">NvYJmkc</p>","","","","","","","",""
"html-keyboard-response","248","1582291","0.0-11.0-0.79","5f3161410f87706425490ae1","64afc2c9a8732ea92db0087d","64afd47fa15e60d4b82814cc","null","null","<p style=""font-size: 60px; font-family: BACS"">KTDTBmAM</p>","","","","","","","",""
"html-keyboard-response","249","1726686","0.0-12.0","5f3161410f87706425490ae1","64afc2c9a8732ea92db0087d","64afd47fa15e60d4b82814cc","144395"," ","<p>Ottimo, hai visto il terzo blocco di parole. Ora puoi prenderti una piccola pausa.</p>
      <p>Premi la barra quando sei pronta/o per riprendere.</p>","","","","","","","",""
"html-keyboard-response","250","1727698","0.0-13.0-0.0","5f3161410f87706425490ae1","64afc2c9a8732ea92db0087d","64afd47fa15e60d4b82814cc","null","null","<p style=""font-size: 60px; font-family: BACS"">uQuZcmkc</p>","","","","","","","",""
"html-keyboard-response","251","1728699","0.0-13.0-0.1","5f3161410f87706425490ae1","64afc2c9a8732ea92db0087d","64afd47fa15e60d4b82814cc","null","null","<p style=""font-size: 60px; font-family: BACS"">kLvdNkJdr</p>","","","","","","","",""
"html-keyboard-response","252","1729706","0.0-13.0-0.2","5f3161410f87706425490ae1","64afc2c9a8732ea92db0087d","64afd47fa15e60d4b82814cc","null","null","<p style=""font-size: 60px; font-family: BACS"">uQuZcOQAr</p>","","","","","","","",""
"html-keyboard-response","253","1730708","0.0-13.0-0.3","5f3161410f87706425490ae1","64afc2c9a8732ea92db0087d","64afd47fa15e60d4b82814cc","null","null","<p style=""font-size: 60px; font-family: BACS"">DBlhmAM</p>","","","","","","","",""
"html-keyboard-response","254","1731723","0.0-13.0-0.4","5f3161410f87706425490ae1","64afc2c9a8732ea92db0087d","64afd47fa15e60d4b82814cc","null","null","<p style=""font-size: 60px; font-family: BACS"">DcPTckDOm</p>","","","","","","","",""
"html-keyboard-response","255","1732725","0.0-13.0-0.5","5f3161410f87706425490ae1","64afc2c9a8732ea92db0087d","64afd47fa15e60d4b82814cc","null","null","<p style=""font-size: 60px; font-family: BACS"">rvOvUmkc</p>","","","","","","","",""
"html-keyboard-response","256","1733726","0.0-13.0-0.6","5f3161410f87706425490ae1","64afc2c9a8732ea92db0087d","64afd47fa15e60d4b82814cc","null","null","<p style=""font-size: 60px; font-family: BACS"">MDKPdRA</p>","","","","","","","",""
"html-keyboard-response","257","1734741","0.0-13.0-0.7","5f3161410f87706425490ae1","64afc2c9a8732ea92db0087d","64afd47fa15e60d4b82814cc","null","null","<p style=""font-size: 60px; font-family: BACS"">vmuLlbLd</p>","","","","","","","",""
"html-keyboard-response","258","1735742","0.0-13.0-0.8","5f3161410f87706425490ae1","64afc2c9a8732ea92db0087d","64afd47fa15e60d4b82814cc","null","null","<p style=""font-size: 60px; font-family: BACS"">vblrmkc</p>","","","","","","","",""
"html-keyboard-response","259","1736744","0.0-13.0-0.9","5f3161410f87706425490ae1","64afc2c9a8732ea92db0087d","64afd47fa15e60d4b82814cc","null","null","<p style=""font-size: 60px; font-family: BACS"">NbmQUkJdr</p>","","","","","","","",""
"html-keyboard-response","260","1737746","0.0-13.0-0.10","5f3161410f87706425490ae1","64afc2c9a8732ea92db0087d","64afd47fa15e60d4b82814cc","null","null","<p style=""font-size: 60px; font-family: BACS"">DcPTcmAM</p>","","","","","","","",""
"html-keyboard-response","261","1738747","0.0-13.0-0.11","5f3161410f87706425490ae1","64afc2c9a8732ea92db0087d","64afd47fa15e60d4b82814cc","null","null","<p style=""font-size: 60px; font-family: BACS"">KTDTBkDOm</p>","","","","","","","",""
"html-keyboard-response","262","1739757","0.0-13.0-0.12","5f3161410f87706425490ae1","64afc2c9a8732ea92db0087d","64afd47fa15e60d4b82814cc","null","null","<p style=""font-size: 60px; font-family: BACS"">DhCPdRA</p>","","","","","","","",""
"html-keyboard-response","263","1740759","0.0-13.0-0.13","5f3161410f87706425490ae1","64afc2c9a8732ea92db0087d","64afd47fa15e60d4b82814cc","null","null","<p style=""font-size: 60px; font-family: BACS"">KTDTBOdOP</p>","","","","","","","",""
"html-keyboard-response","264","1741760","0.0-13.0-0.14","5f3161410f87706425490ae1","64afc2c9a8732ea92db0087d","64afd47fa15e60d4b82814cc","null","null","<p style=""font-size: 60px; font-family: BACS"">hbmAdRA</p>","","","","","","","",""
"html-keyboard-response","265","1742764","0.0-13.0-0.15","5f3161410f87706425490ae1","64afc2c9a8732ea92db0087d","64afd47fa15e60d4b82814cc","null","null","<p style=""font-size: 60px; font-family: BACS"">KBKBEmAM</p>","","","","","","","",""
"html-keyboard-response","266","1743774","0.0-13.0-0.16","5f3161410f87706425490ae1","64afc2c9a8732ea92db0087d","64afd47fa15e60d4b82814cc","null","null","<p style=""font-size: 60px; font-family: BACS"">NbmQUOQAr</p>","","","","","","","",""
"html-keyboard-response","267","1744775","0.0-13.0-0.17","5f3161410f87706425490ae1","64afc2c9a8732ea92db0087d","64afd47fa15e60d4b82814cc","null","null","<p style=""font-size: 60px; font-family: BACS"">rvOvUbLd</p>","","","","","","","",""
"html-keyboard-response","268","1745788","0.0-13.0-0.18","5f3161410f87706425490ae1","64afc2c9a8732ea92db0087d","64afd47fa15e60d4b82814cc","null","null","<p style=""font-size: 60px; font-family: BACS"">kLvdNmvG</p>","","","","","","","",""
"html-keyboard-response","269","1746789","0.0-13.0-0.19","5f3161410f87706425490ae1","64afc2c9a8732ea92db0087d","64afd47fa15e60d4b82814cc","null","null","<p style=""font-size: 60px; font-family: BACS"">kcCRtOdOP</p>","","","","","","","",""
"html-keyboard-response","270","1747799","0.0-13.0-0.20","5f3161410f87706425490ae1","64afc2c9a8732ea92db0087d","64afd47fa15e60d4b82814cc","null","null","<p style=""font-size: 60px; font-family: BACS"">uQuZcbLd</p>","","","","","","","",""
"html-keyboard-response","271","1748807","0.0-13.0-0.21","5f3161410f87706425490ae1","64afc2c9a8732ea92db0087d","64afd47fa15e60d4b82814cc","null","null","<p style=""font-size: 60px; font-family: BACS"">KABAkDOm</p>","","","","","","","",""
"html-keyboard-response","272","1749813","0.0-13.0-0.22","5f3161410f87706425490ae1","64afc2c9a8732ea92db0087d","64afd47fa15e60d4b82814cc","null","null","<p style=""font-size: 60px; font-family: BACS"">AYkEhdRA</p>","","","","","","","",""
"html-keyboard-response","273","1750821","0.0-13.0-0.23","5f3161410f87706425490ae1","64afc2c9a8732ea92db0087d","64afd47fa15e60d4b82814cc","null","null","<p style=""font-size: 60px; font-family: BACS"">krUQmkc</p>","","","","","","","",""
"html-keyboard-response","274","1751823","0.0-13.0-0.24","5f3161410f87706425490ae1","64afc2c9a8732ea92db0087d","64afd47fa15e60d4b82814cc","null","null","<p style=""font-size: 60px; font-family: BACS"">aONdbLd</p>","","","","","","","",""
"html-keyboard-response","275","1752831","0.0-13.0-0.25","5f3161410f87706425490ae1","64afc2c9a8732ea92db0087d","64afd47fa15e60d4b82814cc","null","null","<p style=""font-size: 60px; font-family: BACS"">DhCPbAMO</p>","","","","","","","",""
"html-keyboard-response","276","1753832","0.0-13.0-0.26","5f3161410f87706425490ae1","64afc2c9a8732ea92db0087d","64afd47fa15e60d4b82814cc","null","null","<p style=""font-size: 60px; font-family: BACS"">KABAdRA</p>","","","","","","","",""
"html-keyboard-response","277","1754843","0.0-13.0-0.27","5f3161410f87706425490ae1","64afc2c9a8732ea92db0087d","64afd47fa15e60d4b82814cc","null","null","<p style=""font-size: 60px; font-family: BACS"">GAcYOQAr</p>","","","","","","","",""
"html-keyboard-response","278","1755851","0.0-13.0-0.28","5f3161410f87706425490ae1","64afc2c9a8732ea92db0087d","64afd47fa15e60d4b82814cc","null","null","<p style=""font-size: 60px; font-family: BACS"">NbmQUbLd</p>","","","","","","","",""
"html-keyboard-response","279","1756853","0.0-13.0-0.29","5f3161410f87706425490ae1","64afc2c9a8732ea92db0087d","64afd47fa15e60d4b82814cc","null","null","<p style=""font-size: 60px; font-family: BACS"">GAcYmkc</p>","","","","","","","",""
"html-keyboard-response","280","1757854","0.0-13.0-0.30","5f3161410f87706425490ae1","64afc2c9a8732ea92db0087d","64afd47fa15e60d4b82814cc","null","null","<p style=""font-size: 60px; font-family: BACS"">DcPTcOdOP</p>","","","","","","","",""
"html-keyboard-response","281","1758869","0.0-13.0-0.31","5f3161410f87706425490ae1","64afc2c9a8732ea92db0087d","64afd47fa15e60d4b82814cc","null","null","<p style=""font-size: 60px; font-family: BACS"">rvOvUmvG</p>","","","","","","","",""
"html-keyboard-response","282","1759879","0.0-13.0-0.32","5f3161410f87706425490ae1","64afc2c9a8732ea92db0087d","64afd47fa15e60d4b82814cc","null","null","<p style=""font-size: 60px; font-family: BACS"">DcPTcbAMO</p>","","","","","","","",""
"html-keyboard-response","283","1760885","0.0-13.0-0.33","5f3161410f87706425490ae1","64afc2c9a8732ea92db0087d","64afd47fa15e60d4b82814cc","null","null","<p style=""font-size: 60px; font-family: BACS"">DhCPkDOm</p>","","","","","","","",""
"html-keyboard-response","284","1761888","0.0-13.0-0.34","5f3161410f87706425490ae1","64afc2c9a8732ea92db0087d","64afd47fa15e60d4b82814cc","null","null","<p style=""font-size: 60px; font-family: BACS"">vmuLlkJdr</p>","","","","","","","",""
"html-keyboard-response","285","1762890","0.0-13.0-0.35","5f3161410f87706425490ae1","64afc2c9a8732ea92db0087d","64afd47fa15e60d4b82814cc","null","null","<p style=""font-size: 60px; font-family: BACS"">vblrmvG</p>","","","","","","","",""
"html-keyboard-response","286","1763892","0.0-13.0-0.36","5f3161410f87706425490ae1","64afc2c9a8732ea92db0087d","64afd47fa15e60d4b82814cc","null","null","<p style=""font-size: 60px; font-family: BACS"">KBKBEbAMO</p>","","","","","","","",""
"html-keyboard-response","287","1764898","0.0-13.0-0.37","5f3161410f87706425490ae1","64afc2c9a8732ea92db0087d","64afd47fa15e60d4b82814cc","null","null","<p style=""font-size: 60px; font-family: BACS"">DBlhOdOP</p>","","","","","","","",""
"html-keyboard-response","288","1765899","0.0-13.0-0.38","5f3161410f87706425490ae1","64afc2c9a8732ea92db0087d","64afd47fa15e60d4b82814cc","null","null","<p style=""font-size: 60px; font-family: BACS"">aONdmkc</p>","","","","","","","",""
"html-keyboard-response","289","1766901","0.0-13.0-0.39","5f3161410f87706425490ae1","64afc2c9a8732ea92db0087d","64afd47fa15e60d4b82814cc","null","null","<p style=""font-size: 60px; font-family: BACS"">AYkEhbAMO</p>","","","","","","","",""
"html-keyboard-response","290","1767915","0.0-13.0-0.40","5f3161410f87706425490ae1","64afc2c9a8732ea92db0087d","64afd47fa15e60d4b82814cc","null","null","<p style=""font-size: 60px; font-family: BACS"">MDKPkDOm</p>","","","","","","","",""
"html-keyboard-response","291","1768917","0.0-13.0-0.41","5f3161410f87706425490ae1","64afc2c9a8732ea92db0087d","64afd47fa15e60d4b82814cc","null","null","<p style=""font-size: 60px; font-family: BACS"">NvYJkJdr</p>","","","","","","","",""
"html-keyboard-response","292","1769918","0.0-13.0-0.42","5f3161410f87706425490ae1","64afc2c9a8732ea92db0087d","64afd47fa15e60d4b82814cc","null","null","<p style=""font-size: 60px; font-family: BACS"">NbmQUmkc</p>","","","","","","","",""
"html-keyboard-response","293","1770921","0.0-13.0-0.43","5f3161410f87706425490ae1","64afc2c9a8732ea92db0087d","64afd47fa15e60d4b82814cc","null","null","<p style=""font-size: 60px; font-family: BACS"">KABAOdOP</p>","","","","","","","",""
"html-keyboard-response","294","1771922","0.0-13.0-0.44","5f3161410f87706425490ae1","64afc2c9a8732ea92db0087d","64afd47fa15e60d4b82814cc","null","null","<p style=""font-size: 60px; font-family: BACS"">KTDTBmAM</p>","","","","","","","",""
"html-keyboard-response","295","1772939","0.0-13.0-0.45","5f3161410f87706425490ae1","64afc2c9a8732ea92db0087d","64afd47fa15e60d4b82814cc","null","null","<p style=""font-size: 60px; font-family: BACS"">NvYJbLd</p>","","","","","","","",""
"html-keyboard-response","296","1773945","0.0-13.0-0.46","5f3161410f87706425490ae1","64afc2c9a8732ea92db0087d","64afd47fa15e60d4b82814cc","null","null","<p style=""font-size: 60px; font-family: BACS"">DhCPOdOP</p>","","","","","","","",""
"html-keyboard-response","297","1774946","0.0-13.0-0.47","5f3161410f87706425490ae1","64afc2c9a8732ea92db0087d","64afd47fa15e60d4b82814cc","null","null","<p style=""font-size: 60px; font-family: BACS"">uQuZckJdr</p>","","","","","","","",""
"html-keyboard-response","298","1775957","0.0-13.0-0.48","5f3161410f87706425490ae1","64afc2c9a8732ea92db0087d","64afd47fa15e60d4b82814cc","null","null","<p style=""font-size: 60px; font-family: BACS"">NvYJmkc</p>","","","","","","","",""
"html-keyboard-response","299","1776967","0.0-13.0-0.49","5f3161410f87706425490ae1","64afc2c9a8732ea92db0087d","64afd47fa15e60d4b82814cc","null","null","<p style=""font-size: 60px; font-family: BACS"">hbmAOdOP</p>","","","","","","","",""
"html-keyboard-response","300","1777969","0.0-13.0-0.50","5f3161410f87706425490ae1","64afc2c9a8732ea92db0087d","64afd47fa15e60d4b82814cc","null","null","<p style=""font-size: 60px; font-family: BACS"">krUQOQAr</p>","","","","","","","",""
"html-keyboard-response","301","1778982","0.0-13.0-0.51","5f3161410f87706425490ae1","64afc2c9a8732ea92db0087d","64afd47fa15e60d4b82814cc","null","null","<p style=""font-size: 60px; font-family: BACS"">GAcYkJdr</p>","","","","","","","",""
"html-keyboard-response","302","1779992","0.0-13.0-0.52","5f3161410f87706425490ae1","64afc2c9a8732ea92db0087d","64afd47fa15e60d4b82814cc","null","null","<p style=""font-size: 60px; font-family: BACS"">krUQmvG</p>","","","","","","","",""
"html-keyboard-response","303","1780994","0.0-13.0-0.53","5f3161410f87706425490ae1","64afc2c9a8732ea92db0087d","64afd47fa15e60d4b82814cc","null","null","<p style=""font-size: 60px; font-family: BACS"">hbmAbAMO</p>","","","","","","","",""
"html-keyboard-response","304","1782010","0.0-13.0-0.54","5f3161410f87706425490ae1","64afc2c9a8732ea92db0087d","64afd47fa15e60d4b82814cc","null","null","<p style=""font-size: 60px; font-family: BACS"">kcCRtdRA</p>","","","","","","","",""
"html-keyboard-response","305","1783017","0.0-13.0-0.55","5f3161410f87706425490ae1","64afc2c9a8732ea92db0087d","64afd47fa15e60d4b82814cc","null","null","<p style=""font-size: 60px; font-family: BACS"">KBKBEkDOm</p>","","","","","","","",""
"html-keyboard-response","306","1784027","0.0-13.0-0.56","5f3161410f87706425490ae1","64afc2c9a8732ea92db0087d","64afd47fa15e60d4b82814cc","null","null","<p style=""font-size: 60px; font-family: BACS"">KABAmAM</p>","","","","","","","",""
"html-keyboard-response","307","1785034","0.0-13.0-0.57","5f3161410f87706425490ae1","64afc2c9a8732ea92db0087d","64afd47fa15e60d4b82814cc","null","null","<p style=""font-size: 60px; font-family: BACS"">vmuLlmvG</p>","","","","","","","",""
"html-keyboard-response","308","1786035","0.0-13.0-0.58","5f3161410f87706425490ae1","64afc2c9a8732ea92db0087d","64afd47fa15e60d4b82814cc","null","null","<p style=""font-size: 60px; font-family: BACS"">krUQkJdr</p>","","","","","","","",""
"html-keyboard-response","309","1787050","0.0-13.0-0.59","5f3161410f87706425490ae1","64afc2c9a8732ea92db0087d","64afd47fa15e60d4b82814cc","null","null","<p style=""font-size: 60px; font-family: BACS"">MDKPmAM</p>","","","","","","","",""
"html-keyboard-response","310","1788051","0.0-13.0-0.60","5f3161410f87706425490ae1","64afc2c9a8732ea92db0087d","64afd47fa15e60d4b82814cc","null","null","<p style=""font-size: 60px; font-family: BACS"">DBlhdRA</p>","","","","","","","",""
"html-keyboard-response","311","1789052","0.0-13.0-0.61","5f3161410f87706425490ae1","64afc2c9a8732ea92db0087d","64afd47fa15e60d4b82814cc","null","null","<p style=""font-size: 60px; font-family: BACS"">kcCRtmAM</p>","","","","","","","",""
"html-keyboard-response","312","1790067","0.0-13.0-0.62","5f3161410f87706425490ae1","64afc2c9a8732ea92db0087d","64afd47fa15e60d4b82814cc","null","null","<p style=""font-size: 60px; font-family: BACS"">KTDTBbAMO</p>","","","","","","","",""
"html-keyboard-response","313","1791078","0.0-13.0-0.63","5f3161410f87706425490ae1","64afc2c9a8732ea92db0087d","64afd47fa15e60d4b82814cc","null","null","<p style=""font-size: 60px; font-family: BACS"">vmuLlOQAr</p>","","","","","","","",""
"html-keyboard-response","314","1792084","0.0-13.0-0.64","5f3161410f87706425490ae1","64afc2c9a8732ea92db0087d","64afd47fa15e60d4b82814cc","null","null","<p style=""font-size: 60px; font-family: BACS"">vblrbLd</p>","","","","","","","",""
"html-keyboard-response","315","1793091","0.0-13.0-0.65","5f3161410f87706425490ae1","64afc2c9a8732ea92db0087d","64afd47fa15e60d4b82814cc","null","null","<p style=""font-size: 60px; font-family: BACS"">rvOvUOQAr</p>","","","","","","","",""
"html-keyboard-response","316","1794100","0.0-13.0-0.66","5f3161410f87706425490ae1","64afc2c9a8732ea92db0087d","64afd47fa15e60d4b82814cc","null","null","<p style=""font-size: 60px; font-family: BACS"">AYkEhOdOP</p>","","","","","","","",""
"html-keyboard-response","317","1795109","0.0-13.0-0.67","5f3161410f87706425490ae1","64afc2c9a8732ea92db0087d","64afd47fa15e60d4b82814cc","null","null","<p style=""font-size: 60px; font-family: BACS"">aONdOQAr</p>","","","","","","","",""
"html-keyboard-response","318","1796115","0.0-13.0-0.68","5f3161410f87706425490ae1","64afc2c9a8732ea92db0087d","64afd47fa15e60d4b82814cc","null","null","<p style=""font-size: 60px; font-family: BACS"">vblrkJdr</p>","","","","","","","",""
"html-keyboard-response","319","1797118","0.0-13.0-0.69","5f3161410f87706425490ae1","64afc2c9a8732ea92db0087d","64afd47fa15e60d4b82814cc","null","null","<p style=""font-size: 60px; font-family: BACS"">GAcYmvG</p>","","","","","","","",""
"html-keyboard-response","320","1798120","0.0-13.0-0.70","5f3161410f87706425490ae1","64afc2c9a8732ea92db0087d","64afd47fa15e60d4b82814cc","null","null","<p style=""font-size: 60px; font-family: BACS"">kLvdNbLd</p>","","","","","","","",""
"html-keyboard-response","321","1799121","0.0-13.0-0.71","5f3161410f87706425490ae1","64afc2c9a8732ea92db0087d","64afd47fa15e60d4b82814cc","null","null","<p style=""font-size: 60px; font-family: BACS"">KBKBEdRA</p>","","","","","","","",""
"html-keyboard-response","322","1800131","0.0-13.0-0.72","5f3161410f87706425490ae1","64afc2c9a8732ea92db0087d","64afd47fa15e60d4b82814cc","null","null","<p style=""font-size: 60px; font-family: BACS"">MDKPbAMO</p>","","","","","","","",""
"html-keyboard-response","323","1801136","0.0-13.0-0.73","5f3161410f87706425490ae1","64afc2c9a8732ea92db0087d","64afd47fa15e60d4b82814cc","null","null","<p style=""font-size: 60px; font-family: BACS"">AYkEhkDOm</p>","","","","","","","",""
"html-keyboard-response","324","1802139","0.0-13.0-0.74","5f3161410f87706425490ae1","64afc2c9a8732ea92db0087d","64afd47fa15e60d4b82814cc","null","null","<p style=""font-size: 60px; font-family: BACS"">kcCRtbAMO</p>","","","","","","","",""
"html-keyboard-response","325","1803141","0.0-13.0-0.75","5f3161410f87706425490ae1","64afc2c9a8732ea92db0087d","64afd47fa15e60d4b82814cc","null","null","<p style=""font-size: 60px; font-family: BACS"">NvYJmvG</p>","","","","","","","",""
"html-keyboard-response","326","1804148","0.0-13.0-0.76","5f3161410f87706425490ae1","64afc2c9a8732ea92db0087d","64afd47fa15e60d4b82814cc","null","null","<p style=""font-size: 60px; font-family: BACS"">DBlhkDOm</p>","","","","","","","",""
"html-keyboard-response","327","1805158","0.0-13.0-0.77","5f3161410f87706425490ae1","64afc2c9a8732ea92db0087d","64afd47fa15e60d4b82814cc","null","null","<p style=""font-size: 60px; font-family: BACS"">hbmAmAM</p>","","","","","","","",""
"html-keyboard-response","328","1806160","0.0-13.0-0.78","5f3161410f87706425490ae1","64afc2c9a8732ea92db0087d","64afd47fa15e60d4b82814cc","null","null","<p style=""font-size: 60px; font-family: BACS"">aONdmvG</p>","","","","","","","",""
"html-keyboard-response","329","1807176","0.0-13.0-0.79","5f3161410f87706425490ae1","64afc2c9a8732ea92db0087d","64afd47fa15e60d4b82814cc","null","null","<p style=""font-size: 60px; font-family: BACS"">kLvdNOQAr</p>","","","","","","","",""
"html-keyboard-response","330","1934342","0.0-14.0","5f3161410f87706425490ae1","64afc2c9a8732ea92db0087d","64afd47fa15e60d4b82814cc","127165"," ","<p>Ottimo! Hai visto tutte le parole che abbiamo ricevuto dallo spazio.</p>
      <p>Premi la barra quando sei pronta/o per continuare.</p>","","","","","","","",""
"html-keyboard-response","331","1972863","0.0-15.0","5f3161410f87706425490ae1","64afc2c9a8732ea92db0087d","64afd47fa15e60d4b82814cc","38519"," ","<p>In questa seconda parte, vedrai delle nuove parole che abbiamo ricevuto dallo stesso gruppo di alieni, e altre che invece provengono da un'altra comunicazione, con un altro gruppo di alieni. Purtroppo le due comunicazioni non arrivano a noi separatamente, per cui le parole sono mescolate tra loro. Il tuo compito sarà quello di individuare le parole che provengono dal gruppo che hai studiato nella prima parte dell'esperimento.</p>
      <p>Questo compito non è per nulla facile; le due comunicazioni infatti usano gli stessi caratteri. Il tuo meeting con i leader mondiali inizia tra poco, per cui non avrai molto tempo per prendere la tua decisione; dovrai essere veloce. Cerca di fare del tuo meglio usando la tua intuizione; non hai tempo di stare a pensare a lungo su ogni singola parola.</p>
      <p>Premi <strong>k</strong> quando pensi che la parola che stai vedendo sia degli stessi alieni che hai studiato prima, e <strong>d</strong> quando invece pensi che la parola che stai vedendo venga dall'altra comunicazione, con il nuovo gruppo di alieni.</p><p>Premi la barra quando sei pronta/o per iniziare.</p>","","","","","","","",""
"html-keyboard-response","332","1979529","0.0-16.0-0.0","5f3161410f87706425490ae1","64afc2c9a8732ea92db0087d","64afd47fa15e60d4b82814cc","6664","k","<p style=""font-size: 30px;"">La parola viene del gruppo di alieni che hai studiato prima?</p><br><p style=""font-size: 60px; font-family: BACS"">kcCRtmvG<p style=""font-size: 15px"">Premi <strong>k</strong> per sì, <strong>d</strong> per no.</p>","","kcCRtmvG","testing","d","false","","",""
"html-keyboard-response","333","1984348","0.0-16.0-1.0-0.0","5f3161410f87706425490ae1","64afc2c9a8732ea92db0087d","64afd47fa15e60d4b82814cc","4813"," ","<p style=""font-size: 30px; color: red"">Attenzione! Sei stato troppo lento con questa parola.</p>
      <p style=""font-size: 30px; color: red"">Cerca di essere più veloce.</p><p></p><p>Premi la barra per continuare.</p>","","","","","","","",""
"html-keyboard-response","334","1987091","0.0-16.0-0.1","5f3161410f87706425490ae1","64afc2c9a8732ea92db0087d","64afd47fa15e60d4b82814cc","2741","d","<p style=""font-size: 30px;"">La parola viene del gruppo di alieni che hai studiato prima?</p><br><p style=""font-size: 60px; font-family: BACS"">uQuZckDOm<p style=""font-size: 15px"">Premi <strong>k</strong> per sì, <strong>d</strong> per no.</p>","","uQuZckDOm","testing","d","true","","",""
"html-keyboard-response","335","1988425","0.0-16.0-1.1-0.1","5f3161410f87706425490ae1","64afc2c9a8732ea92db0087d","64afd47fa15e60d4b82814cc","1334"," ","<p style=""font-size: 30px; color: red"">Attenzione! Sei stato troppo lento con questa parola.</p>
      <p style=""font-size: 30px; color: red"">Cerca di essere più veloce.</p><p></p><p>Premi la barra per continuare.</p>","","","","","","","",""
"html-keyboard-response","336","1989793","0.0-16.0-0.2","5f3161410f87706425490ae1","64afc2c9a8732ea92db0087d","64afd47fa15e60d4b82814cc","1367","k","<p style=""font-size: 30px;"">La parola viene del gruppo di alieni che hai studiato prima?</p><br><p style=""font-size: 60px; font-family: BACS"">DcPTcdRA<p style=""font-size: 15px"">Premi <strong>k</strong> per sì, <strong>d</strong> per no.</p>","","DcPTcdRA","testing","k","true","","",""
"html-keyboard-response","337","1991250","0.0-16.0-0.3","5f3161410f87706425490ae1","64afc2c9a8732ea92db0087d","64afd47fa15e60d4b82814cc","1455","k","<p style=""font-size: 30px"">&emsp;</p><br><p style=""font-size: 60px; font-family: BACS"">NbmQUkDOm<p style=""font-size: 15px"">Premi <strong>k</strong> per sì, <strong>d</strong> per no.</p>","","NbmQUkDOm","testing","d","false","","",""
"html-keyboard-response","338","1992649","0.0-16.0-0.4","5f3161410f87706425490ae1","64afc2c9a8732ea92db0087d","64afd47fa15e60d4b82814cc","1397","k","<p style=""font-size: 30px"">&emsp;</p><br><p style=""font-size: 60px; font-family: BACS"">KTDTBbLd<p style=""font-size: 15px"">Premi <strong>k</strong> per sì, <strong>d</strong> per no.</p>","","KTDTBbLd","testing","d","false","","",""
"html-keyboard-response","339","1994346","0.0-16.0-0.5","5f3161410f87706425490ae1","64afc2c9a8732ea92db0087d","64afd47fa15e60d4b82814cc","1696","k","<p style=""font-size: 30px"">&emsp;</p><br><p style=""font-size: 60px; font-family: BACS"">AYkEhmAM<p style=""font-size: 15px"">Premi <strong>k</strong> per sì, <strong>d</strong> per no.</p>","","AYkEhmAM","testing","k","true","","",""
"html-keyboard-response","340","1995791","0.0-16.0-0.6","5f3161410f87706425490ae1","64afc2c9a8732ea92db0087d","64afd47fa15e60d4b82814cc","1444","d","<p style=""font-size: 30px"">&emsp;</p><br><p style=""font-size: 60px; font-family: BACS"">uQuZcmvG<p style=""font-size: 15px"">Premi <strong>k</strong> per sì, <strong>d</strong> per no.</p>","","uQuZcmvG","testing","k","false","","",""
"html-keyboard-response","341","1997304","0.0-16.0-0.7","5f3161410f87706425490ae1","64afc2c9a8732ea92db0087d","64afd47fa15e60d4b82814cc","1511","k","<p style=""font-size: 30px"">&emsp;</p><br><p style=""font-size: 60px; font-family: BACS"">DBlhOQAr<p style=""font-size: 15px"">Premi <strong>k</strong> per sì, <strong>d</strong> per no.</p>","","DBlhOQAr","testing","d","false","","",""
"html-keyboard-response","342","1999303","0.0-16.0-0.8","5f3161410f87706425490ae1","64afc2c9a8732ea92db0087d","64afd47fa15e60d4b82814cc","1998","k","<p style=""font-size: 30px"">&emsp;</p><br><p style=""font-size: 60px; font-family: BACS"">DhCPmkc<p style=""font-size: 15px"">Premi <strong>k</strong> per sì, <strong>d</strong> per no.</p>","","DhCPmkc","testing","d","false","","",""
"html-keyboard-response","343","2000801","0.0-16.0-0.9","5f3161410f87706425490ae1","64afc2c9a8732ea92db0087d","64afd47fa15e60d4b82814cc","1496","d","<p style=""font-size: 30px"">&emsp;</p><br><p style=""font-size: 60px; font-family: BACS"">KBKBEOdOP<p style=""font-size: 15px"">Premi <strong>k</strong> per sì, <strong>d</strong> per no.</p>","","KBKBEOdOP","testing","k","false","","",""
"html-keyboard-response","344","2001888","0.0-16.0-0.10","5f3161410f87706425490ae1","64afc2c9a8732ea92db0087d","64afd47fa15e60d4b82814cc","1085","d","<p style=""font-size: 30px"">&emsp;</p><br><p style=""font-size: 60px; font-family: BACS"">DBlhbAMO<p style=""font-size: 15px"">Premi <strong>k</strong> per sì, <strong>d</strong> per no.</p>","","DBlhbAMO","testing","k","false","","",""
"html-keyboard-response","345","2003100","0.0-16.0-0.11","5f3161410f87706425490ae1","64afc2c9a8732ea92db0087d","64afd47fa15e60d4b82814cc","1211","k","<p style=""font-size: 30px"">&emsp;</p><br><p style=""font-size: 60px; font-family: BACS"">krUQdRA<p style=""font-size: 15px"">Premi <strong>k</strong> per sì, <strong>d</strong> per no.</p>","","krUQdRA","testing","d","false","","",""
"html-keyboard-response","346","2004309","0.0-16.0-0.12","5f3161410f87706425490ae1","64afc2c9a8732ea92db0087d","64afd47fa15e60d4b82814cc","1208","k","<p style=""font-size: 30px"">&emsp;</p><br><p style=""font-size: 60px; font-family: BACS"">kcCRtkDOm<p style=""font-size: 15px"">Premi <strong>k</strong> per sì, <strong>d</strong> per no.</p>","","kcCRtkDOm","testing","k","true","","",""
"html-keyboard-response","347","2004679","0.0-16.0-0.13","5f3161410f87706425490ae1","64afc2c9a8732ea92db0087d","64afd47fa15e60d4b82814cc","368","d","<p style=""font-size: 30px"">&emsp;</p><br><p style=""font-size: 60px; font-family: BACS"">aONdkJdr<p style=""font-size: 15px"">Premi <strong>k</strong> per sì, <strong>d</strong> per no.</p>","","aONdkJdr","testing","k","false","","",""
"html-keyboard-response","348","2005559","0.0-16.0-0.14","5f3161410f87706425490ae1","64afc2c9a8732ea92db0087d","64afd47fa15e60d4b82814cc","879","k","<p style=""font-size: 30px"">&emsp;</p><br><p style=""font-size: 60px; font-family: BACS"">vmuLlmkc<p style=""font-size: 15px"">Premi <strong>k</strong> per sì, <strong>d</strong> per no.</p>","","vmuLlmkc","testing","k","true","","",""
"html-keyboard-response","349","2006430","0.0-16.0-0.15","5f3161410f87706425490ae1","64afc2c9a8732ea92db0087d","64afd47fa15e60d4b82814cc","870","k","<p style=""font-size: 30px"">&emsp;</p><br><p style=""font-size: 60px; font-family: BACS"">DcPTcbLd<p style=""font-size: 15px"">Premi <strong>k</strong> per sì, <strong>d</strong> per no.</p>","","DcPTcbLd","testing","d","false","","",""
"html-keyboard-response","350","2007286","0.0-16.0-0.16","5f3161410f87706425490ae1","64afc2c9a8732ea92db0087d","64afd47fa15e60d4b82814cc","854","k","<p style=""font-size: 30px"">&emsp;</p><br><p style=""font-size: 60px; font-family: BACS"">NvYJbAMO<p style=""font-size: 15px"">Premi <strong>k</strong> per sì, <strong>d</strong> per no.</p>","","NvYJbAMO","testing","d","false","","",""
"html-keyboard-response","351","2008916","0.0-16.0-0.17","5f3161410f87706425490ae1","64afc2c9a8732ea92db0087d","64afd47fa15e60d4b82814cc","1628","k","<p style=""font-size: 30px"">&emsp;</p><br><p style=""font-size: 60px; font-family: BACS"">hbmAkDOm<p style=""font-size: 15px"">Premi <strong>k</strong> per sì, <strong>d</strong> per no.</p>","","hbmAkDOm","testing","k","true","","",""
"html-keyboard-response","352","2010174","0.0-16.0-0.18","5f3161410f87706425490ae1","64afc2c9a8732ea92db0087d","64afd47fa15e60d4b82814cc","1257","d","<p style=""font-size: 30px"">&emsp;</p><br><p style=""font-size: 60px; font-family: BACS"">MDKPOdOP<p style=""font-size: 15px"">Premi <strong>k</strong> per sì, <strong>d</strong> per no.</p>","","MDKPOdOP","testing","k","false","","",""
"html-keyboard-response","353","2011258","0.0-16.0-0.19","5f3161410f87706425490ae1","64afc2c9a8732ea92db0087d","64afd47fa15e60d4b82814cc","1083","d","<p style=""font-size: 30px"">&emsp;</p><br><p style=""font-size: 60px; font-family: BACS"">vmuLlmAM<p style=""font-size: 15px"">Premi <strong>k</strong> per sì, <strong>d</strong> per no.</p>","","vmuLlmAM","testing","d","true","","",""
"html-keyboard-response","354","2012244","0.0-16.0-0.20","5f3161410f87706425490ae1","64afc2c9a8732ea92db0087d","64afd47fa15e60d4b82814cc","985","k","<p style=""font-size: 30px"">&emsp;</p><br><p style=""font-size: 60px; font-family: BACS"">GAcYbLd<p style=""font-size: 15px"">Premi <strong>k</strong> per sì, <strong>d</strong> per no.</p>","","GAcYbLd","testing","k","true","","",""
"html-keyboard-response","355","2013465","0.0-16.0-0.21","5f3161410f87706425490ae1","64afc2c9a8732ea92db0087d","64afd47fa15e60d4b82814cc","1219","k","<p style=""font-size: 30px"">&emsp;</p><br><p style=""font-size: 60px; font-family: BACS"">KBKBEkJdr<p style=""font-size: 15px"">Premi <strong>k</strong> per sì, <strong>d</strong> per no.</p>","","KBKBEkJdr","testing","d","false","","",""
"html-keyboard-response","356","2014654","0.0-16.0-0.22","5f3161410f87706425490ae1","64afc2c9a8732ea92db0087d","64afd47fa15e60d4b82814cc","1188","d","<p style=""font-size: 30px"">&emsp;</p><br><p style=""font-size: 60px; font-family: BACS"">NvYJOQAr<p style=""font-size: 15px"">Premi <strong>k</strong> per sì, <strong>d</strong> per no.</p>","","NvYJOQAr","testing","k","false","","",""
"html-keyboard-response","357","2015341","0.0-16.0-0.23","5f3161410f87706425490ae1","64afc2c9a8732ea92db0087d","64afd47fa15e60d4b82814cc","686","k","<p style=""font-size: 30px"">&emsp;</p><br><p style=""font-size: 60px; font-family: BACS"">vblrbAMO<p style=""font-size: 15px"">Premi <strong>k</strong> per sì, <strong>d</strong> per no.</p>","","vblrbAMO","testing","d","false","","",""
"html-keyboard-response","358","2017959","0.0-16.0-0.24","5f3161410f87706425490ae1","64afc2c9a8732ea92db0087d","64afd47fa15e60d4b82814cc","2616","k","<p style=""font-size: 30px"">&emsp;</p><br><p style=""font-size: 60px; font-family: BACS"">rvOvUkJdr<p style=""font-size: 15px"">Premi <strong>k</strong> per sì, <strong>d</strong> per no.</p>","","rvOvUkJdr","testing","k","true","","",""
"html-keyboard-response","359","2020015","0.0-16.0-1.24-0.24","5f3161410f87706425490ae1","64afc2c9a8732ea92db0087d","64afd47fa15e60d4b82814cc","2055"," ","<p style=""font-size: 30px; color: red"">Attenzione! Sei stato troppo lento con questa parola.</p>
      <p style=""font-size: 30px; color: red"">Cerca di essere più veloce.</p><p></p><p>Premi la barra per continuare.</p>","","","","","","","",""
"html-keyboard-response","360","2020888","0.0-16.0-0.25","5f3161410f87706425490ae1","64afc2c9a8732ea92db0087d","64afd47fa15e60d4b82814cc","872","k","<p style=""font-size: 30px"">&emsp;</p><br><p style=""font-size: 60px; font-family: BACS"">DhCPmAM<p style=""font-size: 15px"">Premi <strong>k</strong> per sì, <strong>d</strong> per no.</p>","","DhCPmAM","testing","k","true","","",""
"html-keyboard-response","361","2021917","0.0-16.0-0.26","5f3161410f87706425490ae1","64afc2c9a8732ea92db0087d","64afd47fa15e60d4b82814cc","1028","k","<p style=""font-size: 30px"">&emsp;</p><br><p style=""font-size: 60px; font-family: BACS"">KTDTBdRA<p style=""font-size: 15px"">Premi <strong>k</strong> per sì, <strong>d</strong> per no.</p>","","KTDTBdRA","testing","k","true","","",""
"html-keyboard-response","362","2022306","0.0-16.0-0.27","5f3161410f87706425490ae1","64afc2c9a8732ea92db0087d","64afd47fa15e60d4b82814cc","387","k","<p style=""font-size: 30px"">&emsp;</p><br><p style=""font-size: 60px; font-family: BACS"">AYkEhmkc<p style=""font-size: 15px"">Premi <strong>k</strong> per sì, <strong>d</strong> per no.</p>","","AYkEhmkc","testing","d","false","","",""
"html-keyboard-response","363","2023284","0.0-16.0-0.28","5f3161410f87706425490ae1","64afc2c9a8732ea92db0087d","64afd47fa15e60d4b82814cc","976","d","<p style=""font-size: 30px"">&emsp;</p><br><p style=""font-size: 60px; font-family: BACS"">KABAOQAr<p style=""font-size: 15px"">Premi <strong>k</strong> per sì, <strong>d</strong> per no.</p>","","KABAOQAr","testing","d","true","","",""
"html-keyboard-response","364","2024355","0.0-16.0-0.29","5f3161410f87706425490ae1","64afc2c9a8732ea92db0087d","64afd47fa15e60d4b82814cc","1070","k","<p style=""font-size: 30px"">&emsp;</p><br><p style=""font-size: 60px; font-family: BACS"">NbmQUmvG<p style=""font-size: 15px"">Premi <strong>k</strong> per sì, <strong>d</strong> per no.</p>","","NbmQUmvG","testing","k","true","","",""
"html-keyboard-response","365","2024700","0.0-16.0-0.30","5f3161410f87706425490ae1","64afc2c9a8732ea92db0087d","64afd47fa15e60d4b82814cc","344","d","<p style=""font-size: 30px"">&emsp;</p><br><p style=""font-size: 60px; font-family: BACS"">vblrOQAr<p style=""font-size: 15px"">Premi <strong>k</strong> per sì, <strong>d</strong> per no.</p>","","vblrOQAr","testing","k","false","","",""
"html-keyboard-response","366","2025234","0.0-16.0-0.31","5f3161410f87706425490ae1","64afc2c9a8732ea92db0087d","64afd47fa15e60d4b82814cc","533","k","<p style=""font-size: 30px"">&emsp;</p><br><p style=""font-size: 60px; font-family: BACS"">hbmAmvG<p style=""font-size: 15px"">Premi <strong>k</strong> per sì, <strong>d</strong> per no.</p>","","hbmAmvG","testing","d","false","","",""
"html-keyboard-response","367","2026185","0.0-16.0-0.32","5f3161410f87706425490ae1","64afc2c9a8732ea92db0087d","64afd47fa15e60d4b82814cc","950","k","<p style=""font-size: 30px"">&emsp;</p><br><p style=""font-size: 60px; font-family: BACS"">MDKPkJdr<p style=""font-size: 15px"">Premi <strong>k</strong> per sì, <strong>d</strong> per no.</p>","","MDKPkJdr","testing","d","false","","",""
"html-keyboard-response","368","2027204","0.0-16.0-0.33","5f3161410f87706425490ae1","64afc2c9a8732ea92db0087d","64afd47fa15e60d4b82814cc","1018","d","<p style=""font-size: 30px"">&emsp;</p><br><p style=""font-size: 60px; font-family: BACS"">GAcYdRA<p style=""font-size: 15px"">Premi <strong>k</strong> per sì, <strong>d</strong> per no.</p>","","GAcYdRA","testing","d","true","","",""
"html-keyboard-response","369","2027406","0.0-16.0-0.34","5f3161410f87706425490ae1","64afc2c9a8732ea92db0087d","64afd47fa15e60d4b82814cc","201","d","<p style=""font-size: 30px"">&emsp;</p><br><p style=""font-size: 60px; font-family: BACS"">KABAbAMO<p style=""font-size: 15px"">Premi <strong>k</strong> per sì, <strong>d</strong> per no.</p>","","KABAbAMO","testing","k","false","","",""
