"trial_type","trial_index","time_elapsed","internal_node_id","subject_id","study_id","session_id","rt","response","stimulus","success","item","task","correct_response","testing_condition","correct","target","confound","name","view_history"
"pavlovia","0","3827","0.0-0.0","612b5ed8c3b1fcb978aad0a8","64e77d7b61f440b60e28659d","64ec95396b91ae2823b3135e","","","","","","","","","","","","",""
"survey-html-form","1","13020","0.0-1.0","612b5ed8c3b1fcb978aad0a8","64e77d7b61f440b60e28659d","64ec95396b91ae2823b3135e","9192","{""ID"":""612b5ed8c3b1fcb978aad0a8""}","","","","","","","","","","",""
"html-keyboard-response","2","37423","0.0-2.0","612b5ed8c3b1fcb978aad0a8","64e77d7b61f440b60e28659d","64ec95396b91ae2823b3135e","24402"," ","<p style=""font-size: 15px;"">Before beginning, we ask that you read the consent information and confirm your agreement to participate in the experiment.</p>
      <p style=""font-size: 15px;""> We ask that you remember that this is a research project and that your participation is entirely voluntary. You can stop your participation at any time, without needing to provide any explanation. The study we're asking you to participate in aims at examining how readers process written words. You will be engaged in a session of apprximately 20 minutes, followed by a brief questionnaire. You will have the opportunity to take a few breaks during the experiment. You will be paid £4 for your participation, corresponding to a rate of £8/hour. While this experiment looks at cognitive faculties, this experiment doesn't constitute clinical proof of eventual pathologies.</p>
      <p style=""font-size: 15px;"">All of the information collected thanks to yours and others' participation will be held in a secure password-protected server, and will not be shared with anyone not authorised to view it. Your personal information will be kept with an arbitrary participant ID. Thanks to this data anonymity process, any researcher analysing the data won't be able to track the information back to a specific participant. Therefore, this process will make identifying you impossibile, even when results from the study will be published in scientific reviews, presented at congresses, or at any other public forum. More generally, the collected data will be treated in accordance with the laws on privacy and conformity to the Legislative Degree n. 196 ""Code regarding the protection of personal data"" of the 30th of June 2003 and to the European Regulation 2016/670 (General Data Protection Regulation - GDPR). The Data Protection Officer is Avv. Valentina Carollo, who can be contacted at the following email addresses: <a href=""mailto:dpo@sissa.it"">dpo@sissa.it</a> or <a href=""mailto:rpd@sissa.it"">rpd@sissa.it</a> - PEC: <a href=""mailto:protocollo@pec.sissa.it"">protocollo@pec.sissa.it</a>.</p>
      <p style=""font-size: 15px;""> Before expressing your consent to participate, we would like to remind you again that in case you need explanations on any aspect of the experimental procedure, the researcher is at your disposition (<a href=""mailto:aliebelt@sissa.it"">aliebelt@sissa.it</a>, <a href=""mailto:davide.crepaldi@sissa.it"">davide.crepaldi@sissa.it</a>).</p>
      <p style=""font-size: 15px;"">If you would like to download the informed consent form, you can do so here: <a href=""BASL-Informed_Consent.pdf"" download>informed consent form</a>.</p>
      <p style=""font-size: 15px;"">We ask that you press the spacebar to proceed to the consent section.</p>","","","","","","","","","",""
"survey-html-form","3","50356","0.0-3.0","612b5ed8c3b1fcb978aad0a8","64e77d7b61f440b60e28659d","64ec95396b91ae2823b3135e","12932","{""consent1"":""YES"",""consent2"":""YES"",""consent3"":""YES"",""consent4"":""YES"",""consent5"":""YES"",""consent6"":""YES""}","","","","","","","","","","",""
"fullscreen","4","60814","0.0-4.0","612b5ed8c3b1fcb978aad0a8","64e77d7b61f440b60e28659d","64ec95396b91ae2823b3135e","","","","true","","","","","","","","",""
"html-keyboard-response","5","143963","0.0-5.0","612b5ed8c3b1fcb978aad0a8","64e77d7b61f440b60e28659d","64ec95396b91ae2823b3135e","83148"," ","<p>Welcome, and thank you very much for your time!</p>
      <p>In this experiment, you'll be a language expert who's been asked to take a look at words that Earth has received in its first communication with aliens. Your task, in this first part of the experiment, is to pay close attention to the words you'll be shown; later, world leaders will ask you questions on what you saw. The words will be shown to you quite quickly; it seems that the aliens were in a hurry :-)</p>
      <p>Press the spacebar to continue.<p>","","","","","","","","","",""
"html-keyboard-response","6","150688","0.0-6.0","612b5ed8c3b1fcb978aad0a8","64e77d7b61f440b60e28659d","64ec95396b91ae2823b3135e","6724"," ","<p>Here is an example of the words you'll see:</p>
      <img src='esempio.png' height='400px'>
      <p>When you're ready to begin, press the spacebar.</p></div>","","","","","","","","","",""
"html-keyboard-response","7","151691","0.0-7.0-0.0","612b5ed8c3b1fcb978aad0a8","64e77d7b61f440b60e28659d","64ec95396b91ae2823b3135e","null","null","<p style=""font-size: 60px; font-family: BACS"">TDKhDOk</p>","","","","","","","","","",""
"html-keyboard-response","8","152695","0.0-7.0-0.1","612b5ed8c3b1fcb978aad0a8","64e77d7b61f440b60e28659d","64ec95396b91ae2823b3135e","null","null","<p style=""font-size: 60px; font-family: BACS"">dCtMABCAd</p>","","","","","","","","","",""
"html-keyboard-response","9","153696","0.0-7.0-0.2","612b5ed8c3b1fcb978aad0a8","64e77d7b61f440b60e28659d","64ec95396b91ae2823b3135e","null","null","<p style=""font-size: 60px; font-family: BACS"">hbmAtAY</p>","","","","","","","","","",""
"html-keyboard-response","10","154706","0.0-7.0-0.3","612b5ed8c3b1fcb978aad0a8","64e77d7b61f440b60e28659d","64ec95396b91ae2823b3135e","null","null","<p style=""font-size: 60px; font-family: BACS"">TDKhdEPD</p>","","","","","","","","","",""
"html-keyboard-response","11","155715","0.0-7.0-0.4","612b5ed8c3b1fcb978aad0a8","64e77d7b61f440b60e28659d","64ec95396b91ae2823b3135e","null","null","<p style=""font-size: 60px; font-family: BACS"">chEDOBCAd</p>","","","","","","","","","",""
"html-keyboard-response","12","156721","0.0-7.0-0.5","612b5ed8c3b1fcb978aad0a8","64e77d7b61f440b60e28659d","64ec95396b91ae2823b3135e","null","null","<p style=""font-size: 60px; font-family: BACS"">UaYLYbN</p>","","","","","","","","","",""
"html-keyboard-response","13","157723","0.0-7.0-0.6","612b5ed8c3b1fcb978aad0a8","64e77d7b61f440b60e28659d","64ec95396b91ae2823b3135e","null","null","<p style=""font-size: 60px; font-family: BACS"">UAcduYaum</p>","","","","","","","","","",""
"html-keyboard-response","14","158725","0.0-7.0-0.7","612b5ed8c3b1fcb978aad0a8","64e77d7b61f440b60e28659d","64ec95396b91ae2823b3135e","null","null","<p style=""font-size: 60px; font-family: BACS"">YQbcYkZ</p>","","","","","","","","","",""
"html-keyboard-response","15","159726","0.0-7.0-0.8","612b5ed8c3b1fcb978aad0a8","64e77d7b61f440b60e28659d","64ec95396b91ae2823b3135e","null","null","<p style=""font-size: 60px; font-family: BACS"">chEDOtAY</p>","","","","","","","","","",""
"html-keyboard-response","16","160735","0.0-7.0-0.9","612b5ed8c3b1fcb978aad0a8","64e77d7b61f440b60e28659d","64ec95396b91ae2823b3135e","null","null","<p style=""font-size: 60px; font-family: BACS"">aUZAYbN</p>","","","","","","","","","",""
"html-keyboard-response","17","161736","0.0-7.0-0.10","612b5ed8c3b1fcb978aad0a8","64e77d7b61f440b60e28659d","64ec95396b91ae2823b3135e","null","null","<p style=""font-size: 60px; font-family: BACS"">EMbDPdEPD</p>","","","","","","","","","",""
"html-keyboard-response","18","162738","0.0-7.0-0.11","612b5ed8c3b1fcb978aad0a8","64e77d7b61f440b60e28659d","64ec95396b91ae2823b3135e","null","null","<p style=""font-size: 60px; font-family: BACS"">YQbcGUa</p>","","","","","","","","","",""
"html-keyboard-response","19","163740","0.0-7.0-0.12","612b5ed8c3b1fcb978aad0a8","64e77d7b61f440b60e28659d","64ec95396b91ae2823b3135e","null","null","<p style=""font-size: 60px; font-family: BACS"">mdkKdEPD</p>","","","","","","","","","",""
"html-keyboard-response","20","164748","0.0-7.0-0.13","612b5ed8c3b1fcb978aad0a8","64e77d7b61f440b60e28659d","64ec95396b91ae2823b3135e","null","null","<p style=""font-size: 60px; font-family: BACS"">JvaAYkZ</p>","","","","","","","","","",""
"html-keyboard-response","21","165749","0.0-7.0-0.14","612b5ed8c3b1fcb978aad0a8","64e77d7b61f440b60e28659d","64ec95396b91ae2823b3135e","null","null","<p style=""font-size: 60px; font-family: BACS"">hbmABCAd</p>","","","","","","","","","",""
"html-keyboard-response","22","166759","0.0-7.0-0.15","612b5ed8c3b1fcb978aad0a8","64e77d7b61f440b60e28659d","64ec95396b91ae2823b3135e","null","null","<p style=""font-size: 60px; font-family: BACS"">dMYBPDOk</p>","","","","","","","","","",""
"html-keyboard-response","23","167761","0.0-7.0-0.16","612b5ed8c3b1fcb978aad0a8","64e77d7b61f440b60e28659d","64ec95396b91ae2823b3135e","null","null","<p style=""font-size: 60px; font-family: BACS"">ckLALravu</p>","","","","","","","","","",""
"html-keyboard-response","24","168776","0.0-7.0-0.17","612b5ed8c3b1fcb978aad0a8","64e77d7b61f440b60e28659d","64ec95396b91ae2823b3135e","null","null","<p style=""font-size: 60px; font-family: BACS"">mdkKDOk</p>","","","","","","","","","",""
"html-keyboard-response","25","169779","0.0-7.0-0.18","612b5ed8c3b1fcb978aad0a8","64e77d7b61f440b60e28659d","64ec95396b91ae2823b3135e","null","null","<p style=""font-size: 60px; font-family: BACS"">GumLlGUa</p>","","","","","","","","","",""
"html-keyboard-response","26","170780","0.0-7.0-0.19","612b5ed8c3b1fcb978aad0a8","64e77d7b61f440b60e28659d","64ec95396b91ae2823b3135e","null","null","<p style=""font-size: 60px; font-family: BACS"">JvaAYbN</p>","","","","","","","","","",""
"html-keyboard-response","27","171795","0.0-7.0-0.20","612b5ed8c3b1fcb978aad0a8","64e77d7b61f440b60e28659d","64ec95396b91ae2823b3135e","null","null","<p style=""font-size: 60px; font-family: BACS"">PcBTtAY</p>","","","","","","","","","",""
"html-keyboard-response","28","172808","0.0-7.0-0.21","612b5ed8c3b1fcb978aad0a8","64e77d7b61f440b60e28659d","64ec95396b91ae2823b3135e","null","null","<p style=""font-size: 60px; font-family: BACS"">mdkKBCAd</p>","","","","","","","","","",""
"html-keyboard-response","29","173820","0.0-7.0-0.22","612b5ed8c3b1fcb978aad0a8","64e77d7b61f440b60e28659d","64ec95396b91ae2823b3135e","null","null","<p style=""font-size: 60px; font-family: BACS"">GumLlYkZ</p>","","","","","","","","","",""
"html-keyboard-response","30","174825","0.0-7.0-0.23","612b5ed8c3b1fcb978aad0a8","64e77d7b61f440b60e28659d","64ec95396b91ae2823b3135e","null","null","<p style=""font-size: 60px; font-family: BACS"">ckLALGUa</p>","","","","","","","","","",""
"html-keyboard-response","31","175826","0.0-7.0-0.24","612b5ed8c3b1fcb978aad0a8","64e77d7b61f440b60e28659d","64ec95396b91ae2823b3135e","null","null","<p style=""font-size: 60px; font-family: BACS"">EMbDPDOk</p>","","","","","","","","","",""
"html-keyboard-response","32","176827","0.0-7.0-0.25","612b5ed8c3b1fcb978aad0a8","64e77d7b61f440b60e28659d","64ec95396b91ae2823b3135e","null","null","<p style=""font-size: 60px; font-family: BACS"">chEDOdEPD</p>","","","","","","","","","",""
"html-keyboard-response","33","177838","0.0-7.0-0.26","612b5ed8c3b1fcb978aad0a8","64e77d7b61f440b60e28659d","64ec95396b91ae2823b3135e","null","null","<p style=""font-size: 60px; font-family: BACS"">LOLkUYkZ</p>","","","","","","","","","",""
"html-keyboard-response","34","178850","0.0-7.0-0.27","612b5ed8c3b1fcb978aad0a8","64e77d7b61f440b60e28659d","64ec95396b91ae2823b3135e","null","null","<p style=""font-size: 60px; font-family: BACS"">hbmAmtKP</p>","","","","","","","","","",""
"html-keyboard-response","35","179855","0.0-7.0-0.28","612b5ed8c3b1fcb978aad0a8","64e77d7b61f440b60e28659d","64ec95396b91ae2823b3135e","null","null","<p style=""font-size: 60px; font-family: BACS"">Nulkravu</p>","","","","","","","","","",""
"html-keyboard-response","36","180857","0.0-7.0-0.29","612b5ed8c3b1fcb978aad0a8","64e77d7b61f440b60e28659d","64ec95396b91ae2823b3135e","null","null","<p style=""font-size: 60px; font-family: BACS"">GumLlYbN</p>","","","","","","","","","",""
"html-keyboard-response","37","181862","0.0-7.0-0.30","612b5ed8c3b1fcb978aad0a8","64e77d7b61f440b60e28659d","64ec95396b91ae2823b3135e","null","null","<p style=""font-size: 60px; font-family: BACS"">OEPkdEPD</p>","","","","","","","","","",""
"html-keyboard-response","38","182864","0.0-7.0-0.31","612b5ed8c3b1fcb978aad0a8","64e77d7b61f440b60e28659d","64ec95396b91ae2823b3135e","null","null","<p style=""font-size: 60px; font-family: BACS"">kDRKcmtKP</p>","","","","","","","","","",""
"html-keyboard-response","39","183869","0.0-7.0-0.32","612b5ed8c3b1fcb978aad0a8","64e77d7b61f440b60e28659d","64ec95396b91ae2823b3135e","null","null","<p style=""font-size: 60px; font-family: BACS"">YQbcYaum</p>","","","","","","","","","",""
"html-keyboard-response","40","184874","0.0-7.0-0.33","612b5ed8c3b1fcb978aad0a8","64e77d7b61f440b60e28659d","64ec95396b91ae2823b3135e","null","null","<p style=""font-size: 60px; font-family: BACS"">PcBTmtKP</p>","","","","","","","","","",""
"html-keyboard-response","41","185876","0.0-7.0-0.34","612b5ed8c3b1fcb978aad0a8","64e77d7b61f440b60e28659d","64ec95396b91ae2823b3135e","null","null","<p style=""font-size: 60px; font-family: BACS"">TDKhBCAd</p>","","","","","","","","","",""
"html-keyboard-response","42","186877","0.0-7.0-0.35","612b5ed8c3b1fcb978aad0a8","64e77d7b61f440b60e28659d","64ec95396b91ae2823b3135e","null","null","<p style=""font-size: 60px; font-family: BACS"">YQbcravu</p>","","","","","","","","","",""
"html-keyboard-response","43","187882","0.0-7.0-0.36","612b5ed8c3b1fcb978aad0a8","64e77d7b61f440b60e28659d","64ec95396b91ae2823b3135e","null","null","<p style=""font-size: 60px; font-family: BACS"">ckLALYaum</p>","","","","","","","","","",""
"html-keyboard-response","44","188883","0.0-7.0-0.37","612b5ed8c3b1fcb978aad0a8","64e77d7b61f440b60e28659d","64ec95396b91ae2823b3135e","null","null","<p style=""font-size: 60px; font-family: BACS"">dCtMAtAY</p>","","","","","","","","","",""
"html-keyboard-response","45","189900","0.0-7.0-0.38","612b5ed8c3b1fcb978aad0a8","64e77d7b61f440b60e28659d","64ec95396b91ae2823b3135e","null","null","<p style=""font-size: 60px; font-family: BACS"">mdkKmtKP</p>","","","","","","","","","",""
"html-keyboard-response","46","190906","0.0-7.0-0.39","612b5ed8c3b1fcb978aad0a8","64e77d7b61f440b60e28659d","64ec95396b91ae2823b3135e","null","null","<p style=""font-size: 60px; font-family: BACS"">JvaAravu</p>","","","","","","","","","",""
"html-keyboard-response","47","191907","0.0-7.0-0.40","612b5ed8c3b1fcb978aad0a8","64e77d7b61f440b60e28659d","64ec95396b91ae2823b3135e","null","null","<p style=""font-size: 60px; font-family: BACS"">EMbDPtAY</p>","","","","","","","","","",""
"html-keyboard-response","48","192908","0.0-7.0-0.41","612b5ed8c3b1fcb978aad0a8","64e77d7b61f440b60e28659d","64ec95396b91ae2823b3135e","null","null","<p style=""font-size: 60px; font-family: BACS"">OEPkmtKP</p>","","","","","","","","","",""
"html-keyboard-response","49","193919","0.0-7.0-0.42","612b5ed8c3b1fcb978aad0a8","64e77d7b61f440b60e28659d","64ec95396b91ae2823b3135e","null","null","<p style=""font-size: 60px; font-family: BACS"">LOLkUravu</p>","","","","","","","","","",""
"html-keyboard-response","50","194923","0.0-7.0-0.43","612b5ed8c3b1fcb978aad0a8","64e77d7b61f440b60e28659d","64ec95396b91ae2823b3135e","null","null","<p style=""font-size: 60px; font-family: BACS"">aUZAYaum</p>","","","","","","","","","",""
"html-keyboard-response","51","195925","0.0-7.0-0.44","612b5ed8c3b1fcb978aad0a8","64e77d7b61f440b60e28659d","64ec95396b91ae2823b3135e","null","null","<p style=""font-size: 60px; font-family: BACS"">dCtMAdEPD</p>","","","","","","","","","",""
"html-keyboard-response","52","196926","0.0-7.0-0.45","612b5ed8c3b1fcb978aad0a8","64e77d7b61f440b60e28659d","64ec95396b91ae2823b3135e","null","null","<p style=""font-size: 60px; font-family: BACS"">LOLkUYbN</p>","","","","","","","","","",""
"html-keyboard-response","53","197937","0.0-7.0-0.46","612b5ed8c3b1fcb978aad0a8","64e77d7b61f440b60e28659d","64ec95396b91ae2823b3135e","null","null","<p style=""font-size: 60px; font-family: BACS"">PcBTDOk</p>","","","","","","","","","",""
"html-keyboard-response","54","198938","0.0-7.0-0.47","612b5ed8c3b1fcb978aad0a8","64e77d7b61f440b60e28659d","64ec95396b91ae2823b3135e","null","null","<p style=""font-size: 60px; font-family: BACS"">OEPktAY</p>","","","","","","","","","",""
"html-keyboard-response","55","199948","0.0-7.0-0.48","612b5ed8c3b1fcb978aad0a8","64e77d7b61f440b60e28659d","64ec95396b91ae2823b3135e","null","null","<p style=""font-size: 60px; font-family: BACS"">dMYBPmtKP</p>","","","","","","","","","",""
"html-keyboard-response","56","200949","0.0-7.0-0.49","612b5ed8c3b1fcb978aad0a8","64e77d7b61f440b60e28659d","64ec95396b91ae2823b3135e","null","null","<p style=""font-size: 60px; font-family: BACS"">NulkYbN</p>","","","","","","","","","",""
"html-keyboard-response","57","201950","0.0-7.0-0.50","612b5ed8c3b1fcb978aad0a8","64e77d7b61f440b60e28659d","64ec95396b91ae2823b3135e","null","null","<p style=""font-size: 60px; font-family: BACS"">chEDODOk</p>","","","","","","","","","",""
"html-keyboard-response","58","202951","0.0-7.0-0.51","612b5ed8c3b1fcb978aad0a8","64e77d7b61f440b60e28659d","64ec95396b91ae2823b3135e","null","null","<p style=""font-size: 60px; font-family: BACS"">NulkYaum</p>","","","","","","","","","",""
"html-keyboard-response","59","203967","0.0-7.0-0.52","612b5ed8c3b1fcb978aad0a8","64e77d7b61f440b60e28659d","64ec95396b91ae2823b3135e","null","null","<p style=""font-size: 60px; font-family: BACS"">dCtMAmtKP</p>","","","","","","","","","",""
"html-keyboard-response","60","204980","0.0-7.0-0.53","612b5ed8c3b1fcb978aad0a8","64e77d7b61f440b60e28659d","64ec95396b91ae2823b3135e","null","null","<p style=""font-size: 60px; font-family: BACS"">aUZAravu</p>","","","","","","","","","",""
"html-keyboard-response","61","205986","0.0-7.0-0.54","612b5ed8c3b1fcb978aad0a8","64e77d7b61f440b60e28659d","64ec95396b91ae2823b3135e","null","null","<p style=""font-size: 60px; font-family: BACS"">UaYLGUa</p>","","","","","","","","","",""
"html-keyboard-response","62","206988","0.0-7.0-0.55","612b5ed8c3b1fcb978aad0a8","64e77d7b61f440b60e28659d","64ec95396b91ae2823b3135e","null","null","<p style=""font-size: 60px; font-family: BACS"">dMYBPtAY</p>","","","","","","","","","",""
"html-keyboard-response","63","207996","0.0-7.0-0.56","612b5ed8c3b1fcb978aad0a8","64e77d7b61f440b60e28659d","64ec95396b91ae2823b3135e","null","null","<p style=""font-size: 60px; font-family: BACS"">UAcduGUa</p>","","","","","","","","","",""
"html-keyboard-response","64","208997","0.0-7.0-0.57","612b5ed8c3b1fcb978aad0a8","64e77d7b61f440b60e28659d","64ec95396b91ae2823b3135e","null","null","<p style=""font-size: 60px; font-family: BACS"">LOLkUYaum</p>","","","","","","","","","",""
"html-keyboard-response","65","209999","0.0-7.0-0.58","612b5ed8c3b1fcb978aad0a8","64e77d7b61f440b60e28659d","64ec95396b91ae2823b3135e","null","null","<p style=""font-size: 60px; font-family: BACS"">hbmADOk</p>","","","","","","","","","",""
"html-keyboard-response","66","210999","0.0-7.0-0.59","612b5ed8c3b1fcb978aad0a8","64e77d7b61f440b60e28659d","64ec95396b91ae2823b3135e","null","null","<p style=""font-size: 60px; font-family: BACS"">dMYBPBCAd</p>","","","","","","","","","",""
"html-keyboard-response","67","212001","0.0-7.0-0.60","612b5ed8c3b1fcb978aad0a8","64e77d7b61f440b60e28659d","64ec95396b91ae2823b3135e","null","null","<p style=""font-size: 60px; font-family: BACS"">TDKhtAY</p>","","","","","","","","","",""
"html-keyboard-response","68","213011","0.0-7.0-0.61","612b5ed8c3b1fcb978aad0a8","64e77d7b61f440b60e28659d","64ec95396b91ae2823b3135e","null","null","<p style=""font-size: 60px; font-family: BACS"">UmNJYbN</p>","","","","","","","","","",""
"html-keyboard-response","69","214016","0.0-7.0-0.62","612b5ed8c3b1fcb978aad0a8","64e77d7b61f440b60e28659d","64ec95396b91ae2823b3135e","null","null","<p style=""font-size: 60px; font-family: BACS"">ckLALYkZ</p>","","","","","","","","","",""
"html-keyboard-response","70","215016","0.0-7.0-0.63","612b5ed8c3b1fcb978aad0a8","64e77d7b61f440b60e28659d","64ec95396b91ae2823b3135e","null","null","<p style=""font-size: 60px; font-family: BACS"">EMbDPmtKP</p>","","","","","","","","","",""
"html-keyboard-response","71","216029","0.0-7.0-0.64","612b5ed8c3b1fcb978aad0a8","64e77d7b61f440b60e28659d","64ec95396b91ae2823b3135e","null","null","<p style=""font-size: 60px; font-family: BACS"">OEPkBCAd</p>","","","","","","","","","",""
"html-keyboard-response","72","217035","0.0-7.0-0.65","612b5ed8c3b1fcb978aad0a8","64e77d7b61f440b60e28659d","64ec95396b91ae2823b3135e","null","null","<p style=""font-size: 60px; font-family: BACS"">PcBTdEPD</p>","","","","","","","","","",""
"html-keyboard-response","73","218039","0.0-7.0-0.66","612b5ed8c3b1fcb978aad0a8","64e77d7b61f440b60e28659d","64ec95396b91ae2823b3135e","null","null","<p style=""font-size: 60px; font-family: BACS"">UAcduYkZ</p>","","","","","","","","","",""
"html-keyboard-response","74","219041","0.0-7.0-0.67","612b5ed8c3b1fcb978aad0a8","64e77d7b61f440b60e28659d","64ec95396b91ae2823b3135e","null","null","<p style=""font-size: 60px; font-family: BACS"">kDRKcDOk</p>","","","","","","","","","",""
"html-keyboard-response","75","220043","0.0-7.0-0.68","612b5ed8c3b1fcb978aad0a8","64e77d7b61f440b60e28659d","64ec95396b91ae2823b3135e","null","null","<p style=""font-size: 60px; font-family: BACS"">UaYLravu</p>","","","","","","","","","",""
"html-keyboard-response","76","221050","0.0-7.0-0.69","612b5ed8c3b1fcb978aad0a8","64e77d7b61f440b60e28659d","64ec95396b91ae2823b3135e","null","null","<p style=""font-size: 60px; font-family: BACS"">UmNJYaum</p>","","","","","","","","","",""
"html-keyboard-response","77","222052","0.0-7.0-0.70","612b5ed8c3b1fcb978aad0a8","64e77d7b61f440b60e28659d","64ec95396b91ae2823b3135e","null","null","<p style=""font-size: 60px; font-family: BACS"">UaYLYkZ</p>","","","","","","","","","",""
"html-keyboard-response","78","223056","0.0-7.0-0.71","612b5ed8c3b1fcb978aad0a8","64e77d7b61f440b60e28659d","64ec95396b91ae2823b3135e","null","null","<p style=""font-size: 60px; font-family: BACS"">UmNJGUa</p>","","","","","","","","","",""
"html-keyboard-response","79","224063","0.0-7.0-0.72","612b5ed8c3b1fcb978aad0a8","64e77d7b61f440b60e28659d","64ec95396b91ae2823b3135e","null","null","<p style=""font-size: 60px; font-family: BACS"">GumLlravu</p>","","","","","","","","","",""
"html-keyboard-response","80","225080","0.0-7.0-0.73","612b5ed8c3b1fcb978aad0a8","64e77d7b61f440b60e28659d","64ec95396b91ae2823b3135e","null","null","<p style=""font-size: 60px; font-family: BACS"">kDRKcBCAd</p>","","","","","","","","","",""
"html-keyboard-response","81","226087","0.0-7.0-0.74","612b5ed8c3b1fcb978aad0a8","64e77d7b61f440b60e28659d","64ec95396b91ae2823b3135e","null","null","<p style=""font-size: 60px; font-family: BACS"">aUZAGUa</p>","","","","","","","","","",""
"html-keyboard-response","82","227096","0.0-7.0-0.75","612b5ed8c3b1fcb978aad0a8","64e77d7b61f440b60e28659d","64ec95396b91ae2823b3135e","null","null","<p style=""font-size: 60px; font-family: BACS"">UmNJYkZ</p>","","","","","","","","","",""
"html-keyboard-response","83","228102","0.0-7.0-0.76","612b5ed8c3b1fcb978aad0a8","64e77d7b61f440b60e28659d","64ec95396b91ae2823b3135e","null","null","<p style=""font-size: 60px; font-family: BACS"">NulkGUa</p>","","","","","","","","","",""
"html-keyboard-response","84","229105","0.0-7.0-0.77","612b5ed8c3b1fcb978aad0a8","64e77d7b61f440b60e28659d","64ec95396b91ae2823b3135e","null","null","<p style=""font-size: 60px; font-family: BACS"">JvaAYaum</p>","","","","","","","","","",""
"html-keyboard-response","85","230110","0.0-7.0-0.78","612b5ed8c3b1fcb978aad0a8","64e77d7b61f440b60e28659d","64ec95396b91ae2823b3135e","null","null","<p style=""font-size: 60px; font-family: BACS"">UAcduYbN</p>","","","","","","","","","",""
"html-keyboard-response","86","231118","0.0-7.0-0.79","612b5ed8c3b1fcb978aad0a8","64e77d7b61f440b60e28659d","64ec95396b91ae2823b3135e","null","null","<p style=""font-size: 60px; font-family: BACS"">kDRKcdEPD</p>","","","","","","","","","",""
"html-keyboard-response","87","238388","0.0-8.0","612b5ed8c3b1fcb978aad0a8","64e77d7b61f440b60e28659d","64ec95396b91ae2823b3135e","7269"," ","<p>Great, you've seen the first block of words. You may now take a short break.</p>
      <p>Press the spacebar when you're ready to continue.</p>","","","","","","","","","",""
"html-keyboard-response","88","239389","0.0-9.0-0.0","612b5ed8c3b1fcb978aad0a8","64e77d7b61f440b60e28659d","64ec95396b91ae2823b3135e","null","null","<p style=""font-size: 60px; font-family: BACS"">kDRKcmtKP</p>","","","","","","","","","",""
"html-keyboard-response","89","240390","0.0-9.0-0.1","612b5ed8c3b1fcb978aad0a8","64e77d7b61f440b60e28659d","64ec95396b91ae2823b3135e","null","null","<p style=""font-size: 60px; font-family: BACS"">aUZAYbN</p>","","","","","","","","","",""
"html-keyboard-response","90","241390","0.0-9.0-0.2","612b5ed8c3b1fcb978aad0a8","64e77d7b61f440b60e28659d","64ec95396b91ae2823b3135e","null","null","<p style=""font-size: 60px; font-family: BACS"">YQbcGUa</p>","","","","","","","","","",""
"html-keyboard-response","91","242396","0.0-9.0-0.3","612b5ed8c3b1fcb978aad0a8","64e77d7b61f440b60e28659d","64ec95396b91ae2823b3135e","null","null","<p style=""font-size: 60px; font-family: BACS"">JvaAYaum</p>","","","","","","","","","",""
"html-keyboard-response","92","243398","0.0-9.0-0.4","612b5ed8c3b1fcb978aad0a8","64e77d7b61f440b60e28659d","64ec95396b91ae2823b3135e","null","null","<p style=""font-size: 60px; font-family: BACS"">PcBTDOk</p>","","","","","","","","","",""
"html-keyboard-response","93","244398","0.0-9.0-0.5","612b5ed8c3b1fcb978aad0a8","64e77d7b61f440b60e28659d","64ec95396b91ae2823b3135e","null","null","<p style=""font-size: 60px; font-family: BACS"">dCtMAdEPD</p>","","","","","","","","","",""
"html-keyboard-response","94","245400","0.0-9.0-0.6","612b5ed8c3b1fcb978aad0a8","64e77d7b61f440b60e28659d","64ec95396b91ae2823b3135e","null","null","<p style=""font-size: 60px; font-family: BACS"">GumLlYkZ</p>","","","","","","","","","",""
"html-keyboard-response","95","246401","0.0-9.0-0.7","612b5ed8c3b1fcb978aad0a8","64e77d7b61f440b60e28659d","64ec95396b91ae2823b3135e","null","null","<p style=""font-size: 60px; font-family: BACS"">NulkYaum</p>","","","","","","","","","",""
"html-keyboard-response","96","247404","0.0-9.0-0.8","612b5ed8c3b1fcb978aad0a8","64e77d7b61f440b60e28659d","64ec95396b91ae2823b3135e","null","null","<p style=""font-size: 60px; font-family: BACS"">UAcduYbN</p>","","","","","","","","","",""
"html-keyboard-response","97","248406","0.0-9.0-0.9","612b5ed8c3b1fcb978aad0a8","64e77d7b61f440b60e28659d","64ec95396b91ae2823b3135e","null","null","<p style=""font-size: 60px; font-family: BACS"">dCtMABCAd</p>","","","","","","","","","",""
"html-keyboard-response","98","249408","0.0-9.0-0.10","612b5ed8c3b1fcb978aad0a8","64e77d7b61f440b60e28659d","64ec95396b91ae2823b3135e","null","null","<p style=""font-size: 60px; font-family: BACS"">JvaAYbN</p>","","","","","","","","","",""
"html-keyboard-response","99","250409","0.0-9.0-0.11","612b5ed8c3b1fcb978aad0a8","64e77d7b61f440b60e28659d","64ec95396b91ae2823b3135e","null","null","<p style=""font-size: 60px; font-family: BACS"">dCtMAmtKP</p>","","","","","","","","","",""
"html-keyboard-response","100","251416","0.0-9.0-0.12","612b5ed8c3b1fcb978aad0a8","64e77d7b61f440b60e28659d","64ec95396b91ae2823b3135e","null","null","<p style=""font-size: 60px; font-family: BACS"">YQbcYkZ</p>","","","","","","","","","",""
"html-keyboard-response","101","252464","0.0-9.0-0.13","612b5ed8c3b1fcb978aad0a8","64e77d7b61f440b60e28659d","64ec95396b91ae2823b3135e","null","null","<p style=""font-size: 60px; font-family: BACS"">mdkKmtKP</p>","","","","","","","","","",""
"html-keyboard-response","102","253466","0.0-9.0-0.14","612b5ed8c3b1fcb978aad0a8","64e77d7b61f440b60e28659d","64ec95396b91ae2823b3135e","null","null","<p style=""font-size: 60px; font-family: BACS"">UaYLGUa</p>","","","","","","","","","",""
"html-keyboard-response","103","254466","0.0-9.0-0.15","612b5ed8c3b1fcb978aad0a8","64e77d7b61f440b60e28659d","64ec95396b91ae2823b3135e","null","null","<p style=""font-size: 60px; font-family: BACS"">GumLlravu</p>","","","","","","","","","",""
"html-keyboard-response","104","255476","0.0-9.0-0.16","612b5ed8c3b1fcb978aad0a8","64e77d7b61f440b60e28659d","64ec95396b91ae2823b3135e","null","null","<p style=""font-size: 60px; font-family: BACS"">EMbDPdEPD</p>","","","","","","","","","",""
"html-keyboard-response","105","256485","0.0-9.0-0.17","612b5ed8c3b1fcb978aad0a8","64e77d7b61f440b60e28659d","64ec95396b91ae2823b3135e","null","null","<p style=""font-size: 60px; font-family: BACS"">PcBTtAY</p>","","","","","","","","","",""
"html-keyboard-response","106","257486","0.0-9.0-0.18","612b5ed8c3b1fcb978aad0a8","64e77d7b61f440b60e28659d","64ec95396b91ae2823b3135e","null","null","<p style=""font-size: 60px; font-family: BACS"">OEPkmtKP</p>","","","","","","","","","",""
"html-keyboard-response","107","258487","0.0-9.0-0.19","612b5ed8c3b1fcb978aad0a8","64e77d7b61f440b60e28659d","64ec95396b91ae2823b3135e","null","null","<p style=""font-size: 60px; font-family: BACS"">chEDOdEPD</p>","","","","","","","","","",""
"html-keyboard-response","108","259498","0.0-9.0-0.20","612b5ed8c3b1fcb978aad0a8","64e77d7b61f440b60e28659d","64ec95396b91ae2823b3135e","null","null","<p style=""font-size: 60px; font-family: BACS"">LOLkUravu</p>","","","","","","","","","",""
"html-keyboard-response","109","260499","0.0-9.0-0.21","612b5ed8c3b1fcb978aad0a8","64e77d7b61f440b60e28659d","64ec95396b91ae2823b3135e","null","null","<p style=""font-size: 60px; font-family: BACS"">mdkKBCAd</p>","","","","","","","","","",""
"html-keyboard-response","110","261500","0.0-9.0-0.22","612b5ed8c3b1fcb978aad0a8","64e77d7b61f440b60e28659d","64ec95396b91ae2823b3135e","null","null","<p style=""font-size: 60px; font-family: BACS"">UaYLYkZ</p>","","","","","","","","","",""
"html-keyboard-response","111","262502","0.0-9.0-0.23","612b5ed8c3b1fcb978aad0a8","64e77d7b61f440b60e28659d","64ec95396b91ae2823b3135e","null","null","<p style=""font-size: 60px; font-family: BACS"">chEDODOk</p>","","","","","","","","","",""
"html-keyboard-response","112","263503","0.0-9.0-0.24","612b5ed8c3b1fcb978aad0a8","64e77d7b61f440b60e28659d","64ec95396b91ae2823b3135e","null","null","<p style=""font-size: 60px; font-family: BACS"">JvaAravu</p>","","","","","","","","","",""
"html-keyboard-response","113","264505","0.0-9.0-0.25","612b5ed8c3b1fcb978aad0a8","64e77d7b61f440b60e28659d","64ec95396b91ae2823b3135e","null","null","<p style=""font-size: 60px; font-family: BACS"">OEPkBCAd</p>","","","","","","","","","",""
"html-keyboard-response","114","265506","0.0-9.0-0.26","612b5ed8c3b1fcb978aad0a8","64e77d7b61f440b60e28659d","64ec95396b91ae2823b3135e","null","null","<p style=""font-size: 60px; font-family: BACS"">chEDOtAY</p>","","","","","","","","","",""
"html-keyboard-response","115","266508","0.0-9.0-0.27","612b5ed8c3b1fcb978aad0a8","64e77d7b61f440b60e28659d","64ec95396b91ae2823b3135e","null","null","<p style=""font-size: 60px; font-family: BACS"">hbmADOk</p>","","","","","","","","","",""
"html-keyboard-response","116","267509","0.0-9.0-0.28","612b5ed8c3b1fcb978aad0a8","64e77d7b61f440b60e28659d","64ec95396b91ae2823b3135e","null","null","<p style=""font-size: 60px; font-family: BACS"">ckLALGUa</p>","","","","","","","","","",""
"html-keyboard-response","117","268524","0.0-9.0-0.29","612b5ed8c3b1fcb978aad0a8","64e77d7b61f440b60e28659d","64ec95396b91ae2823b3135e","null","null","<p style=""font-size: 60px; font-family: BACS"">LOLkUYkZ</p>","","","","","","","","","",""
"html-keyboard-response","118","269525","0.0-9.0-0.30","612b5ed8c3b1fcb978aad0a8","64e77d7b61f440b60e28659d","64ec95396b91ae2823b3135e","null","null","<p style=""font-size: 60px; font-family: BACS"">EMbDPmtKP</p>","","","","","","","","","",""
"html-keyboard-response","119","270527","0.0-9.0-0.31","612b5ed8c3b1fcb978aad0a8","64e77d7b61f440b60e28659d","64ec95396b91ae2823b3135e","null","null","<p style=""font-size: 60px; font-family: BACS"">aUZAGUa</p>","","","","","","","","","",""
"html-keyboard-response","120","271528","0.0-9.0-0.32","612b5ed8c3b1fcb978aad0a8","64e77d7b61f440b60e28659d","64ec95396b91ae2823b3135e","null","null","<p style=""font-size: 60px; font-family: BACS"">kDRKcdEPD</p>","","","","","","","","","",""
"html-keyboard-response","121","272535","0.0-9.0-0.33","612b5ed8c3b1fcb978aad0a8","64e77d7b61f440b60e28659d","64ec95396b91ae2823b3135e","null","null","<p style=""font-size: 60px; font-family: BACS"">EMbDPtAY</p>","","","","","","","","","",""
"html-keyboard-response","122","273537","0.0-9.0-0.34","612b5ed8c3b1fcb978aad0a8","64e77d7b61f440b60e28659d","64ec95396b91ae2823b3135e","null","null","<p style=""font-size: 60px; font-family: BACS"">TDKhBCAd</p>","","","","","","","","","",""
"html-keyboard-response","123","274538","0.0-9.0-0.35","612b5ed8c3b1fcb978aad0a8","64e77d7b61f440b60e28659d","64ec95396b91ae2823b3135e","null","null","<p style=""font-size: 60px; font-family: BACS"">NulkGUa</p>","","","","","","","","","",""
"html-keyboard-response","124","275539","0.0-9.0-0.36","612b5ed8c3b1fcb978aad0a8","64e77d7b61f440b60e28659d","64ec95396b91ae2823b3135e","null","null","<p style=""font-size: 60px; font-family: BACS"">LOLkUYaum</p>","","","","","","","","","",""
"html-keyboard-response","125","276551","0.0-9.0-0.37","612b5ed8c3b1fcb978aad0a8","64e77d7b61f440b60e28659d","64ec95396b91ae2823b3135e","null","null","<p style=""font-size: 60px; font-family: BACS"">UAcduGUa</p>","","","","","","","","","",""
"html-keyboard-response","126","277553","0.0-9.0-0.38","612b5ed8c3b1fcb978aad0a8","64e77d7b61f440b60e28659d","64ec95396b91ae2823b3135e","null","null","<p style=""font-size: 60px; font-family: BACS"">hbmAmtKP</p>","","","","","","","","","",""
"html-keyboard-response","127","278557","0.0-9.0-0.39","612b5ed8c3b1fcb978aad0a8","64e77d7b61f440b60e28659d","64ec95396b91ae2823b3135e","null","null","<p style=""font-size: 60px; font-family: BACS"">YQbcYaum</p>","","","","","","","","","",""
"html-keyboard-response","128","279559","0.0-9.0-0.40","612b5ed8c3b1fcb978aad0a8","64e77d7b61f440b60e28659d","64ec95396b91ae2823b3135e","null","null","<p style=""font-size: 60px; font-family: BACS"">hbmABCAd</p>","","","","","","","","","",""
"html-keyboard-response","129","280560","0.0-9.0-0.41","612b5ed8c3b1fcb978aad0a8","64e77d7b61f440b60e28659d","64ec95396b91ae2823b3135e","null","null","<p style=""font-size: 60px; font-family: BACS"">aUZAYaum</p>","","","","","","","","","",""
"html-keyboard-response","130","281576","0.0-9.0-0.42","612b5ed8c3b1fcb978aad0a8","64e77d7b61f440b60e28659d","64ec95396b91ae2823b3135e","null","null","<p style=""font-size: 60px; font-family: BACS"">Nulkravu</p>","","","","","","","","","",""
"html-keyboard-response","131","282578","0.0-9.0-0.43","612b5ed8c3b1fcb978aad0a8","64e77d7b61f440b60e28659d","64ec95396b91ae2823b3135e","null","null","<p style=""font-size: 60px; font-family: BACS"">UmNJYkZ</p>","","","","","","","","","",""
"html-keyboard-response","132","283579","0.0-9.0-0.44","612b5ed8c3b1fcb978aad0a8","64e77d7b61f440b60e28659d","64ec95396b91ae2823b3135e","null","null","<p style=""font-size: 60px; font-family: BACS"">dMYBPmtKP</p>","","","","","","","","","",""
"html-keyboard-response","133","284594","0.0-9.0-0.45","612b5ed8c3b1fcb978aad0a8","64e77d7b61f440b60e28659d","64ec95396b91ae2823b3135e","null","null","<p style=""font-size: 60px; font-family: BACS"">hbmAtAY</p>","","","","","","","","","",""
"html-keyboard-response","134","285595","0.0-9.0-0.46","612b5ed8c3b1fcb978aad0a8","64e77d7b61f440b60e28659d","64ec95396b91ae2823b3135e","null","null","<p style=""font-size: 60px; font-family: BACS"">mdkKdEPD</p>","","","","","","","","","",""
"html-keyboard-response","135","286597","0.0-9.0-0.47","612b5ed8c3b1fcb978aad0a8","64e77d7b61f440b60e28659d","64ec95396b91ae2823b3135e","null","null","<p style=""font-size: 60px; font-family: BACS"">UaYLravu</p>","","","","","","","","","",""
"html-keyboard-response","136","287604","0.0-9.0-0.48","612b5ed8c3b1fcb978aad0a8","64e77d7b61f440b60e28659d","64ec95396b91ae2823b3135e","null","null","<p style=""font-size: 60px; font-family: BACS"">UmNJYaum</p>","","","","","","","","","",""
"html-keyboard-response","137","288605","0.0-9.0-0.49","612b5ed8c3b1fcb978aad0a8","64e77d7b61f440b60e28659d","64ec95396b91ae2823b3135e","null","null","<p style=""font-size: 60px; font-family: BACS"">dMYBPBCAd</p>","","","","","","","","","",""
"html-keyboard-response","138","289606","0.0-9.0-0.50","612b5ed8c3b1fcb978aad0a8","64e77d7b61f440b60e28659d","64ec95396b91ae2823b3135e","null","null","<p style=""font-size: 60px; font-family: BACS"">aUZAravu</p>","","","","","","","","","",""
"html-keyboard-response","139","290608","0.0-9.0-0.51","612b5ed8c3b1fcb978aad0a8","64e77d7b61f440b60e28659d","64ec95396b91ae2823b3135e","null","null","<p style=""font-size: 60px; font-family: BACS"">PcBTmtKP</p>","","","","","","","","","",""
"html-keyboard-response","140","291608","0.0-9.0-0.52","612b5ed8c3b1fcb978aad0a8","64e77d7b61f440b60e28659d","64ec95396b91ae2823b3135e","null","null","<p style=""font-size: 60px; font-family: BACS"">UAcduYaum</p>","","","","","","","","","",""
"html-keyboard-response","141","292613","0.0-9.0-0.53","612b5ed8c3b1fcb978aad0a8","64e77d7b61f440b60e28659d","64ec95396b91ae2823b3135e","null","null","<p style=""font-size: 60px; font-family: BACS"">OEPkdEPD</p>","","","","","","","","","",""
"html-keyboard-response","142","293624","0.0-9.0-0.54","612b5ed8c3b1fcb978aad0a8","64e77d7b61f440b60e28659d","64ec95396b91ae2823b3135e","null","null","<p style=""font-size: 60px; font-family: BACS"">ckLALYaum</p>","","","","","","","","","",""
"html-keyboard-response","143","294637","0.0-9.0-0.55","612b5ed8c3b1fcb978aad0a8","64e77d7b61f440b60e28659d","64ec95396b91ae2823b3135e","null","null","<p style=""font-size: 60px; font-family: BACS"">dMYBPtAY</p>","","","","","","","","","",""
"html-keyboard-response","144","295640","0.0-9.0-0.56","612b5ed8c3b1fcb978aad0a8","64e77d7b61f440b60e28659d","64ec95396b91ae2823b3135e","null","null","<p style=""font-size: 60px; font-family: BACS"">kDRKcBCAd</p>","","","","","","","","","",""
"html-keyboard-response","145","296642","0.0-9.0-0.57","612b5ed8c3b1fcb978aad0a8","64e77d7b61f440b60e28659d","64ec95396b91ae2823b3135e","null","null","<p style=""font-size: 60px; font-family: BACS"">UmNJYbN</p>","","","","","","","","","",""
"html-keyboard-response","146","297643","0.0-9.0-0.58","612b5ed8c3b1fcb978aad0a8","64e77d7b61f440b60e28659d","64ec95396b91ae2823b3135e","null","null","<p style=""font-size: 60px; font-family: BACS"">ckLALYkZ</p>","","","","","","","","","",""
"html-keyboard-response","147","298644","0.0-9.0-0.59","612b5ed8c3b1fcb978aad0a8","64e77d7b61f440b60e28659d","64ec95396b91ae2823b3135e","null","null","<p style=""font-size: 60px; font-family: BACS"">TDKhDOk</p>","","","","","","","","","",""
"html-keyboard-response","148","299645","0.0-9.0-0.60","612b5ed8c3b1fcb978aad0a8","64e77d7b61f440b60e28659d","64ec95396b91ae2823b3135e","null","null","<p style=""font-size: 60px; font-family: BACS"">UaYLYbN</p>","","","","","","","","","",""
"html-keyboard-response","149","300646","0.0-9.0-0.61","612b5ed8c3b1fcb978aad0a8","64e77d7b61f440b60e28659d","64ec95396b91ae2823b3135e","null","null","<p style=""font-size: 60px; font-family: BACS"">ckLALravu</p>","","","","","","","","","",""
"html-keyboard-response","150","301661","0.0-9.0-0.62","612b5ed8c3b1fcb978aad0a8","64e77d7b61f440b60e28659d","64ec95396b91ae2823b3135e","null","null","<p style=""font-size: 60px; font-family: BACS"">GumLlYbN</p>","","","","","","","","","",""
"html-keyboard-response","151","302666","0.0-9.0-0.63","612b5ed8c3b1fcb978aad0a8","64e77d7b61f440b60e28659d","64ec95396b91ae2823b3135e","null","null","<p style=""font-size: 60px; font-family: BACS"">JvaAYkZ</p>","","","","","","","","","",""
"html-keyboard-response","152","303667","0.0-9.0-0.64","612b5ed8c3b1fcb978aad0a8","64e77d7b61f440b60e28659d","64ec95396b91ae2823b3135e","null","null","<p style=""font-size: 60px; font-family: BACS"">chEDOBCAd</p>","","","","","","","","","",""
"html-keyboard-response","153","304678","0.0-9.0-0.65","612b5ed8c3b1fcb978aad0a8","64e77d7b61f440b60e28659d","64ec95396b91ae2823b3135e","null","null","<p style=""font-size: 60px; font-family: BACS"">EMbDPDOk</p>","","","","","","","","","",""
"html-keyboard-response","154","305679","0.0-9.0-0.66","612b5ed8c3b1fcb978aad0a8","64e77d7b61f440b60e28659d","64ec95396b91ae2823b3135e","null","null","<p style=""font-size: 60px; font-family: BACS"">YQbcravu</p>","","","","","","","","","",""
"html-keyboard-response","155","306690","0.0-9.0-0.67","612b5ed8c3b1fcb978aad0a8","64e77d7b61f440b60e28659d","64ec95396b91ae2823b3135e","null","null","<p style=""font-size: 60px; font-family: BACS"">TDKhtAY</p>","","","","","","","","","",""
"html-keyboard-response","156","307691","0.0-9.0-0.68","612b5ed8c3b1fcb978aad0a8","64e77d7b61f440b60e28659d","64ec95396b91ae2823b3135e","null","null","<p style=""font-size: 60px; font-family: BACS"">GumLlGUa</p>","","","","","","","","","",""
"html-keyboard-response","157","308693","0.0-9.0-0.69","612b5ed8c3b1fcb978aad0a8","64e77d7b61f440b60e28659d","64ec95396b91ae2823b3135e","null","null","<p style=""font-size: 60px; font-family: BACS"">UAcduYkZ</p>","","","","","","","","","",""
"html-keyboard-response","158","309694","0.0-9.0-0.70","612b5ed8c3b1fcb978aad0a8","64e77d7b61f440b60e28659d","64ec95396b91ae2823b3135e","null","null","<p style=""font-size: 60px; font-family: BACS"">dMYBPDOk</p>","","","","","","","","","",""
"html-keyboard-response","159","310698","0.0-9.0-0.71","612b5ed8c3b1fcb978aad0a8","64e77d7b61f440b60e28659d","64ec95396b91ae2823b3135e","null","null","<p style=""font-size: 60px; font-family: BACS"">NulkYbN</p>","","","","","","","","","",""
"html-keyboard-response","160","311699","0.0-9.0-0.72","612b5ed8c3b1fcb978aad0a8","64e77d7b61f440b60e28659d","64ec95396b91ae2823b3135e","null","null","<p style=""font-size: 60px; font-family: BACS"">kDRKcDOk</p>","","","","","","","","","",""
"html-keyboard-response","161","312701","0.0-9.0-0.73","612b5ed8c3b1fcb978aad0a8","64e77d7b61f440b60e28659d","64ec95396b91ae2823b3135e","null","null","<p style=""font-size: 60px; font-family: BACS"">dCtMAtAY</p>","","","","","","","","","",""
"html-keyboard-response","162","313703","0.0-9.0-0.74","612b5ed8c3b1fcb978aad0a8","64e77d7b61f440b60e28659d","64ec95396b91ae2823b3135e","null","null","<p style=""font-size: 60px; font-family: BACS"">TDKhdEPD</p>","","","","","","","","","",""
"html-keyboard-response","163","314703","0.0-9.0-0.75","612b5ed8c3b1fcb978aad0a8","64e77d7b61f440b60e28659d","64ec95396b91ae2823b3135e","null","null","<p style=""font-size: 60px; font-family: BACS"">LOLkUYbN</p>","","","","","","","","","",""
"html-keyboard-response","164","315715","0.0-9.0-0.76","612b5ed8c3b1fcb978aad0a8","64e77d7b61f440b60e28659d","64ec95396b91ae2823b3135e","null","null","<p style=""font-size: 60px; font-family: BACS"">UmNJGUa</p>","","","","","","","","","",""
"html-keyboard-response","165","316716","0.0-9.0-0.77","612b5ed8c3b1fcb978aad0a8","64e77d7b61f440b60e28659d","64ec95396b91ae2823b3135e","null","null","<p style=""font-size: 60px; font-family: BACS"">OEPktAY</p>","","","","","","","","","",""
"html-keyboard-response","166","317721","0.0-9.0-0.78","612b5ed8c3b1fcb978aad0a8","64e77d7b61f440b60e28659d","64ec95396b91ae2823b3135e","null","null","<p style=""font-size: 60px; font-family: BACS"">PcBTdEPD</p>","","","","","","","","","",""
"html-keyboard-response","167","318722","0.0-9.0-0.79","612b5ed8c3b1fcb978aad0a8","64e77d7b61f440b60e28659d","64ec95396b91ae2823b3135e","null","null","<p style=""font-size: 60px; font-family: BACS"">mdkKDOk</p>","","","","","","","","","",""
"html-keyboard-response","168","322649","0.0-10.0","612b5ed8c3b1fcb978aad0a8","64e77d7b61f440b60e28659d","64ec95396b91ae2823b3135e","3926"," ","<p>Great, you've seen the second block of words. You may now take a short break.</p>
      <p>Press the spacebar when you're ready to continue.</p>","","","","","","","","","",""
"html-keyboard-response","169","323651","0.0-11.0-0.0","612b5ed8c3b1fcb978aad0a8","64e77d7b61f440b60e28659d","64ec95396b91ae2823b3135e","null","null","<p style=""font-size: 60px; font-family: BACS"">EMbDPtAY</p>","","","","","","","","","",""
"html-keyboard-response","170","324652","0.0-11.0-0.1","612b5ed8c3b1fcb978aad0a8","64e77d7b61f440b60e28659d","64ec95396b91ae2823b3135e","null","null","<p style=""font-size: 60px; font-family: BACS"">dMYBPDOk</p>","","","","","","","","","",""
"html-keyboard-response","171","325654","0.0-11.0-0.2","612b5ed8c3b1fcb978aad0a8","64e77d7b61f440b60e28659d","64ec95396b91ae2823b3135e","null","null","<p style=""font-size: 60px; font-family: BACS"">JvaAYbN</p>","","","","","","","","","",""
"html-keyboard-response","172","326657","0.0-11.0-0.3","612b5ed8c3b1fcb978aad0a8","64e77d7b61f440b60e28659d","64ec95396b91ae2823b3135e","null","null","<p style=""font-size: 60px; font-family: BACS"">LOLkUYkZ</p>","","","","","","","","","",""
"html-keyboard-response","173","327658","0.0-11.0-0.4","612b5ed8c3b1fcb978aad0a8","64e77d7b61f440b60e28659d","64ec95396b91ae2823b3135e","null","null","<p style=""font-size: 60px; font-family: BACS"">hbmAtAY</p>","","","","","","","","","",""
"html-keyboard-response","174","328659","0.0-11.0-0.5","612b5ed8c3b1fcb978aad0a8","64e77d7b61f440b60e28659d","64ec95396b91ae2823b3135e","null","null","<p style=""font-size: 60px; font-family: BACS"">GumLlGUa</p>","","","","","","","","","",""
"html-keyboard-response","175","329673","0.0-11.0-0.6","612b5ed8c3b1fcb978aad0a8","64e77d7b61f440b60e28659d","64ec95396b91ae2823b3135e","null","null","<p style=""font-size: 60px; font-family: BACS"">LOLkUYbN</p>","","","","","","","","","",""
"html-keyboard-response","176","330674","0.0-11.0-0.7","612b5ed8c3b1fcb978aad0a8","64e77d7b61f440b60e28659d","64ec95396b91ae2823b3135e","null","null","<p style=""font-size: 60px; font-family: BACS"">NulkGUa</p>","","","","","","","","","",""
"html-keyboard-response","177","331675","0.0-11.0-0.8","612b5ed8c3b1fcb978aad0a8","64e77d7b61f440b60e28659d","64ec95396b91ae2823b3135e","null","null","<p style=""font-size: 60px; font-family: BACS"">mdkKmtKP</p>","","","","","","","","","",""
"html-keyboard-response","178","332677","0.0-11.0-0.9","612b5ed8c3b1fcb978aad0a8","64e77d7b61f440b60e28659d","64ec95396b91ae2823b3135e","null","null","<p style=""font-size: 60px; font-family: BACS"">aUZAYbN</p>","","","","","","","","","",""
"html-keyboard-response","179","333678","0.0-11.0-0.10","612b5ed8c3b1fcb978aad0a8","64e77d7b61f440b60e28659d","64ec95396b91ae2823b3135e","null","null","<p style=""font-size: 60px; font-family: BACS"">TDKhBCAd</p>","","","","","","","","","",""
"html-keyboard-response","180","334679","0.0-11.0-0.11","612b5ed8c3b1fcb978aad0a8","64e77d7b61f440b60e28659d","64ec95396b91ae2823b3135e","null","null","<p style=""font-size: 60px; font-family: BACS"">dCtMAmtKP</p>","","","","","","","","","",""
"html-keyboard-response","181","335695","0.0-11.0-0.12","612b5ed8c3b1fcb978aad0a8","64e77d7b61f440b60e28659d","64ec95396b91ae2823b3135e","null","null","<p style=""font-size: 60px; font-family: BACS"">JvaAYaum</p>","","","","","","","","","",""
"html-keyboard-response","182","336696","0.0-11.0-0.13","612b5ed8c3b1fcb978aad0a8","64e77d7b61f440b60e28659d","64ec95396b91ae2823b3135e","null","null","<p style=""font-size: 60px; font-family: BACS"">UmNJYkZ</p>","","","","","","","","","",""
"html-keyboard-response","183","337697","0.0-11.0-0.14","612b5ed8c3b1fcb978aad0a8","64e77d7b61f440b60e28659d","64ec95396b91ae2823b3135e","null","null","<p style=""font-size: 60px; font-family: BACS"">NulkYaum</p>","","","","","","","","","",""
"html-keyboard-response","184","338713","0.0-11.0-0.15","612b5ed8c3b1fcb978aad0a8","64e77d7b61f440b60e28659d","64ec95396b91ae2823b3135e","null","null","<p style=""font-size: 60px; font-family: BACS"">GumLlYkZ</p>","","","","","","","","","",""
"html-keyboard-response","185","339714","0.0-11.0-0.16","612b5ed8c3b1fcb978aad0a8","64e77d7b61f440b60e28659d","64ec95396b91ae2823b3135e","null","null","<p style=""font-size: 60px; font-family: BACS"">TDKhdEPD</p>","","","","","","","","","",""
"html-keyboard-response","186","340715","0.0-11.0-0.17","612b5ed8c3b1fcb978aad0a8","64e77d7b61f440b60e28659d","64ec95396b91ae2823b3135e","null","null","<p style=""font-size: 60px; font-family: BACS"">dMYBPmtKP</p>","","","","","","","","","",""
"html-keyboard-response","187","341716","0.0-11.0-0.18","612b5ed8c3b1fcb978aad0a8","64e77d7b61f440b60e28659d","64ec95396b91ae2823b3135e","null","null","<p style=""font-size: 60px; font-family: BACS"">UmNJGUa</p>","","","","","","","","","",""
"html-keyboard-response","188","342717","0.0-11.0-0.19","612b5ed8c3b1fcb978aad0a8","64e77d7b61f440b60e28659d","64ec95396b91ae2823b3135e","null","null","<p style=""font-size: 60px; font-family: BACS"">kDRKcmtKP</p>","","","","","","","","","",""
"html-keyboard-response","189","343719","0.0-11.0-0.20","612b5ed8c3b1fcb978aad0a8","64e77d7b61f440b60e28659d","64ec95396b91ae2823b3135e","null","null","<p style=""font-size: 60px; font-family: BACS"">LOLkUravu</p>","","","","","","","","","",""
"html-keyboard-response","190","344721","0.0-11.0-0.21","612b5ed8c3b1fcb978aad0a8","64e77d7b61f440b60e28659d","64ec95396b91ae2823b3135e","null","null","<p style=""font-size: 60px; font-family: BACS"">chEDOtAY</p>","","","","","","","","","",""
"html-keyboard-response","191","345722","0.0-11.0-0.22","612b5ed8c3b1fcb978aad0a8","64e77d7b61f440b60e28659d","64ec95396b91ae2823b3135e","null","null","<p style=""font-size: 60px; font-family: BACS"">UAcduGUa</p>","","","","","","","","","",""
"html-keyboard-response","192","346723","0.0-11.0-0.23","612b5ed8c3b1fcb978aad0a8","64e77d7b61f440b60e28659d","64ec95396b91ae2823b3135e","null","null","<p style=""font-size: 60px; font-family: BACS"">EMbDPDOk</p>","","","","","","","","","",""
"html-keyboard-response","193","347725","0.0-11.0-0.24","612b5ed8c3b1fcb978aad0a8","64e77d7b61f440b60e28659d","64ec95396b91ae2823b3135e","null","null","<p style=""font-size: 60px; font-family: BACS"">PcBTtAY</p>","","","","","","","","","",""
"html-keyboard-response","194","348736","0.0-11.0-0.25","612b5ed8c3b1fcb978aad0a8","64e77d7b61f440b60e28659d","64ec95396b91ae2823b3135e","null","null","<p style=""font-size: 60px; font-family: BACS"">chEDOdEPD</p>","","","","","","","","","",""
"html-keyboard-response","195","349737","0.0-11.0-0.26","612b5ed8c3b1fcb978aad0a8","64e77d7b61f440b60e28659d","64ec95396b91ae2823b3135e","null","null","<p style=""font-size: 60px; font-family: BACS"">hbmABCAd</p>","","","","","","","","","",""
"html-keyboard-response","196","350738","0.0-11.0-0.27","612b5ed8c3b1fcb978aad0a8","64e77d7b61f440b60e28659d","64ec95396b91ae2823b3135e","null","null","<p style=""font-size: 60px; font-family: BACS"">aUZAravu</p>","","","","","","","","","",""
"html-keyboard-response","197","351751","0.0-11.0-0.28","612b5ed8c3b1fcb978aad0a8","64e77d7b61f440b60e28659d","64ec95396b91ae2823b3135e","null","null","<p style=""font-size: 60px; font-family: BACS"">ckLALYaum</p>","","","","","","","","","",""
"html-keyboard-response","198","352758","0.0-11.0-0.29","612b5ed8c3b1fcb978aad0a8","64e77d7b61f440b60e28659d","64ec95396b91ae2823b3135e","null","null","<p style=""font-size: 60px; font-family: BACS"">JvaAravu</p>","","","","","","","","","",""
"html-keyboard-response","199","353760","0.0-11.0-0.30","612b5ed8c3b1fcb978aad0a8","64e77d7b61f440b60e28659d","64ec95396b91ae2823b3135e","null","null","<p style=""font-size: 60px; font-family: BACS"">UaYLYkZ</p>","","","","","","","","","",""
"html-keyboard-response","200","354776","0.0-11.0-0.31","612b5ed8c3b1fcb978aad0a8","64e77d7b61f440b60e28659d","64ec95396b91ae2823b3135e","null","null","<p style=""font-size: 60px; font-family: BACS"">TDKhtAY</p>","","","","","","","","","",""
"html-keyboard-response","201","355785","0.0-11.0-0.32","612b5ed8c3b1fcb978aad0a8","64e77d7b61f440b60e28659d","64ec95396b91ae2823b3135e","null","null","<p style=""font-size: 60px; font-family: BACS"">ckLALGUa</p>","","","","","","","","","",""
"html-keyboard-response","202","356786","0.0-11.0-0.33","612b5ed8c3b1fcb978aad0a8","64e77d7b61f440b60e28659d","64ec95396b91ae2823b3135e","null","null","<p style=""font-size: 60px; font-family: BACS"">aUZAYaum</p>","","","","","","","","","",""
"html-keyboard-response","203","357788","0.0-11.0-0.34","612b5ed8c3b1fcb978aad0a8","64e77d7b61f440b60e28659d","64ec95396b91ae2823b3135e","null","null","<p style=""font-size: 60px; font-family: BACS"">PcBTmtKP</p>","","","","","","","","","",""
"html-keyboard-response","204","358789","0.0-11.0-0.35","612b5ed8c3b1fcb978aad0a8","64e77d7b61f440b60e28659d","64ec95396b91ae2823b3135e","null","null","<p style=""font-size: 60px; font-family: BACS"">JvaAYkZ</p>","","","","","","","","","",""
"html-keyboard-response","205","359791","0.0-11.0-0.36","612b5ed8c3b1fcb978aad0a8","64e77d7b61f440b60e28659d","64ec95396b91ae2823b3135e","null","null","<p style=""font-size: 60px; font-family: BACS"">LOLkUYaum</p>","","","","","","","","","",""
"html-keyboard-response","206","360792","0.0-11.0-0.37","612b5ed8c3b1fcb978aad0a8","64e77d7b61f440b60e28659d","64ec95396b91ae2823b3135e","null","null","<p style=""font-size: 60px; font-family: BACS"">dMYBPBCAd</p>","","","","","","","","","",""
"html-keyboard-response","207","361793","0.0-11.0-0.38","612b5ed8c3b1fcb978aad0a8","64e77d7b61f440b60e28659d","64ec95396b91ae2823b3135e","null","null","<p style=""font-size: 60px; font-family: BACS"">chEDODOk</p>","","","","","","","","","",""
"html-keyboard-response","208","362799","0.0-11.0-0.39","612b5ed8c3b1fcb978aad0a8","64e77d7b61f440b60e28659d","64ec95396b91ae2823b3135e","null","null","<p style=""font-size: 60px; font-family: BACS"">OEPkmtKP</p>","","","","","","","","","",""
"html-keyboard-response","209","363811","0.0-11.0-0.40","612b5ed8c3b1fcb978aad0a8","64e77d7b61f440b60e28659d","64ec95396b91ae2823b3135e","null","null","<p style=""font-size: 60px; font-family: BACS"">aUZAGUa</p>","","","","","","","","","",""
"html-keyboard-response","210","364813","0.0-11.0-0.41","612b5ed8c3b1fcb978aad0a8","64e77d7b61f440b60e28659d","64ec95396b91ae2823b3135e","null","null","<p style=""font-size: 60px; font-family: BACS"">mdkKdEPD</p>","","","","","","","","","",""
"html-keyboard-response","211","365814","0.0-11.0-0.42","612b5ed8c3b1fcb978aad0a8","64e77d7b61f440b60e28659d","64ec95396b91ae2823b3135e","null","null","<p style=""font-size: 60px; font-family: BACS"">UAcduYkZ</p>","","","","","","","","","",""
"html-keyboard-response","212","366815","0.0-11.0-0.43","612b5ed8c3b1fcb978aad0a8","64e77d7b61f440b60e28659d","64ec95396b91ae2823b3135e","null","null","<p style=""font-size: 60px; font-family: BACS"">chEDOBCAd</p>","","","","","","","","","",""
"html-keyboard-response","213","367825","0.0-11.0-0.44","612b5ed8c3b1fcb978aad0a8","64e77d7b61f440b60e28659d","64ec95396b91ae2823b3135e","null","null","<p style=""font-size: 60px; font-family: BACS"">hbmADOk</p>","","","","","","","","","",""
"html-keyboard-response","214","368843","0.0-11.0-0.45","612b5ed8c3b1fcb978aad0a8","64e77d7b61f440b60e28659d","64ec95396b91ae2823b3135e","null","null","<p style=""font-size: 60px; font-family: BACS"">UaYLGUa</p>","","","","","","","","","",""
"html-keyboard-response","215","369859","0.0-11.0-0.46","612b5ed8c3b1fcb978aad0a8","64e77d7b61f440b60e28659d","64ec95396b91ae2823b3135e","null","null","<p style=""font-size: 60px; font-family: BACS"">YQbcYaum</p>","","","","","","","","","",""
"html-keyboard-response","216","370860","0.0-11.0-0.47","612b5ed8c3b1fcb978aad0a8","64e77d7b61f440b60e28659d","64ec95396b91ae2823b3135e","null","null","<p style=""font-size: 60px; font-family: BACS"">ckLALravu</p>","","","","","","","","","",""
"html-keyboard-response","217","371860","0.0-11.0-0.48","612b5ed8c3b1fcb978aad0a8","64e77d7b61f440b60e28659d","64ec95396b91ae2823b3135e","null","null","<p style=""font-size: 60px; font-family: BACS"">UaYLYbN</p>","","","","","","","","","",""
"html-keyboard-response","218","372875","0.0-11.0-0.49","612b5ed8c3b1fcb978aad0a8","64e77d7b61f440b60e28659d","64ec95396b91ae2823b3135e","null","null","<p style=""font-size: 60px; font-family: BACS"">dCtMAdEPD</p>","","","","","","","","","",""
"html-keyboard-response","219","373877","0.0-11.0-0.50","612b5ed8c3b1fcb978aad0a8","64e77d7b61f440b60e28659d","64ec95396b91ae2823b3135e","null","null","<p style=""font-size: 60px; font-family: BACS"">GumLlravu</p>","","","","","","","","","",""
"html-keyboard-response","220","374878","0.0-11.0-0.51","612b5ed8c3b1fcb978aad0a8","64e77d7b61f440b60e28659d","64ec95396b91ae2823b3135e","null","null","<p style=""font-size: 60px; font-family: BACS"">TDKhDOk</p>","","","","","","","","","",""
"html-keyboard-response","221","375880","0.0-11.0-0.52","612b5ed8c3b1fcb978aad0a8","64e77d7b61f440b60e28659d","64ec95396b91ae2823b3135e","null","null","<p style=""font-size: 60px; font-family: BACS"">Nulkravu</p>","","","","","","","","","",""
"html-keyboard-response","222","376880","0.0-11.0-0.53","612b5ed8c3b1fcb978aad0a8","64e77d7b61f440b60e28659d","64ec95396b91ae2823b3135e","null","null","<p style=""font-size: 60px; font-family: BACS"">UmNJYaum</p>","","","","","","","","","",""
"html-keyboard-response","223","377896","0.0-11.0-0.54","612b5ed8c3b1fcb978aad0a8","64e77d7b61f440b60e28659d","64ec95396b91ae2823b3135e","null","null","<p style=""font-size: 60px; font-family: BACS"">PcBTDOk</p>","","","","","","","","","",""
"html-keyboard-response","224","378900","0.0-11.0-0.55","612b5ed8c3b1fcb978aad0a8","64e77d7b61f440b60e28659d","64ec95396b91ae2823b3135e","null","null","<p style=""font-size: 60px; font-family: BACS"">dMYBPtAY</p>","","","","","","","","","",""
"html-keyboard-response","225","379901","0.0-11.0-0.56","612b5ed8c3b1fcb978aad0a8","64e77d7b61f440b60e28659d","64ec95396b91ae2823b3135e","null","null","<p style=""font-size: 60px; font-family: BACS"">UAcduYaum</p>","","","","","","","","","",""
"html-keyboard-response","226","380902","0.0-11.0-0.57","612b5ed8c3b1fcb978aad0a8","64e77d7b61f440b60e28659d","64ec95396b91ae2823b3135e","null","null","<p style=""font-size: 60px; font-family: BACS"">kDRKcDOk</p>","","","","","","","","","",""
"html-keyboard-response","227","381903","0.0-11.0-0.58","612b5ed8c3b1fcb978aad0a8","64e77d7b61f440b60e28659d","64ec95396b91ae2823b3135e","null","null","<p style=""font-size: 60px; font-family: BACS"">UaYLravu</p>","","","","","","","","","",""
"html-keyboard-response","228","382909","0.0-11.0-0.59","612b5ed8c3b1fcb978aad0a8","64e77d7b61f440b60e28659d","64ec95396b91ae2823b3135e","null","null","<p style=""font-size: 60px; font-family: BACS"">OEPktAY</p>","","","","","","","","","",""
"html-keyboard-response","229","383918","0.0-11.0-0.60","612b5ed8c3b1fcb978aad0a8","64e77d7b61f440b60e28659d","64ec95396b91ae2823b3135e","null","null","<p style=""font-size: 60px; font-family: BACS"">EMbDPmtKP</p>","","","","","","","","","",""
"html-keyboard-response","230","384919","0.0-11.0-0.61","612b5ed8c3b1fcb978aad0a8","64e77d7b61f440b60e28659d","64ec95396b91ae2823b3135e","null","null","<p style=""font-size: 60px; font-family: BACS"">YQbcGUa</p>","","","","","","","","","",""
"html-keyboard-response","231","385925","0.0-11.0-0.62","612b5ed8c3b1fcb978aad0a8","64e77d7b61f440b60e28659d","64ec95396b91ae2823b3135e","null","null","<p style=""font-size: 60px; font-family: BACS"">mdkKDOk</p>","","","","","","","","","",""
"html-keyboard-response","232","386926","0.0-11.0-0.63","612b5ed8c3b1fcb978aad0a8","64e77d7b61f440b60e28659d","64ec95396b91ae2823b3135e","null","null","<p style=""font-size: 60px; font-family: BACS"">hbmAmtKP</p>","","","","","","","","","",""
"html-keyboard-response","233","387927","0.0-11.0-0.64","612b5ed8c3b1fcb978aad0a8","64e77d7b61f440b60e28659d","64ec95396b91ae2823b3135e","null","null","<p style=""font-size: 60px; font-family: BACS"">dCtMABCAd</p>","","","","","","","","","",""
"html-keyboard-response","234","388929","0.0-11.0-0.65","612b5ed8c3b1fcb978aad0a8","64e77d7b61f440b60e28659d","64ec95396b91ae2823b3135e","null","null","<p style=""font-size: 60px; font-family: BACS"">NulkYbN</p>","","","","","","","","","",""
"html-keyboard-response","235","389931","0.0-11.0-0.66","612b5ed8c3b1fcb978aad0a8","64e77d7b61f440b60e28659d","64ec95396b91ae2823b3135e","null","null","<p style=""font-size: 60px; font-family: BACS"">EMbDPdEPD</p>","","","","","","","","","",""
"html-keyboard-response","236","390933","0.0-11.0-0.67","612b5ed8c3b1fcb978aad0a8","64e77d7b61f440b60e28659d","64ec95396b91ae2823b3135e","null","null","<p style=""font-size: 60px; font-family: BACS"">kDRKcBCAd</p>","","","","","","","","","",""
"html-keyboard-response","237","391935","0.0-11.0-0.68","612b5ed8c3b1fcb978aad0a8","64e77d7b61f440b60e28659d","64ec95396b91ae2823b3135e","null","null","<p style=""font-size: 60px; font-family: BACS"">GumLlYbN</p>","","","","","","","","","",""
"html-keyboard-response","238","392937","0.0-11.0-0.69","612b5ed8c3b1fcb978aad0a8","64e77d7b61f440b60e28659d","64ec95396b91ae2823b3135e","null","null","<p style=""font-size: 60px; font-family: BACS"">kDRKcdEPD</p>","","","","","","","","","",""
"html-keyboard-response","239","393938","0.0-11.0-0.70","612b5ed8c3b1fcb978aad0a8","64e77d7b61f440b60e28659d","64ec95396b91ae2823b3135e","null","null","<p style=""font-size: 60px; font-family: BACS"">YQbcravu</p>","","","","","","","","","",""
"html-keyboard-response","240","394939","0.0-11.0-0.71","612b5ed8c3b1fcb978aad0a8","64e77d7b61f440b60e28659d","64ec95396b91ae2823b3135e","null","null","<p style=""font-size: 60px; font-family: BACS"">ckLALYkZ</p>","","","","","","","","","",""
"html-keyboard-response","241","395951","0.0-11.0-0.72","612b5ed8c3b1fcb978aad0a8","64e77d7b61f440b60e28659d","64ec95396b91ae2823b3135e","null","null","<p style=""font-size: 60px; font-family: BACS"">OEPkdEPD</p>","","","","","","","","","",""
"html-keyboard-response","242","396952","0.0-11.0-0.73","612b5ed8c3b1fcb978aad0a8","64e77d7b61f440b60e28659d","64ec95396b91ae2823b3135e","null","null","<p style=""font-size: 60px; font-family: BACS"">UmNJYbN</p>","","","","","","","","","",""
"html-keyboard-response","243","397954","0.0-11.0-0.74","612b5ed8c3b1fcb978aad0a8","64e77d7b61f440b60e28659d","64ec95396b91ae2823b3135e","null","null","<p style=""font-size: 60px; font-family: BACS"">OEPkBCAd</p>","","","","","","","","","",""
"html-keyboard-response","244","398956","0.0-11.0-0.75","612b5ed8c3b1fcb978aad0a8","64e77d7b61f440b60e28659d","64ec95396b91ae2823b3135e","null","null","<p style=""font-size: 60px; font-family: BACS"">UAcduYbN</p>","","","","","","","","","",""
"html-keyboard-response","245","399957","0.0-11.0-0.76","612b5ed8c3b1fcb978aad0a8","64e77d7b61f440b60e28659d","64ec95396b91ae2823b3135e","null","null","<p style=""font-size: 60px; font-family: BACS"">PcBTdEPD</p>","","","","","","","","","",""
"html-keyboard-response","246","400957","0.0-11.0-0.77","612b5ed8c3b1fcb978aad0a8","64e77d7b61f440b60e28659d","64ec95396b91ae2823b3135e","null","null","<p style=""font-size: 60px; font-family: BACS"">mdkKBCAd</p>","","","","","","","","","",""
"html-keyboard-response","247","401958","0.0-11.0-0.78","612b5ed8c3b1fcb978aad0a8","64e77d7b61f440b60e28659d","64ec95396b91ae2823b3135e","null","null","<p style=""font-size: 60px; font-family: BACS"">dCtMAtAY</p>","","","","","","","","","",""
"html-keyboard-response","248","402960","0.0-11.0-0.79","612b5ed8c3b1fcb978aad0a8","64e77d7b61f440b60e28659d","64ec95396b91ae2823b3135e","null","null","<p style=""font-size: 60px; font-family: BACS"">YQbcYkZ</p>","","","","","","","","","",""
"html-keyboard-response","249","414631","0.0-12.0","612b5ed8c3b1fcb978aad0a8","64e77d7b61f440b60e28659d","64ec95396b91ae2823b3135e","11671"," ","<p>Great, you've seen the third block of words. You may now take a short break.</p>
      <p>Press the spacebar when you're ready to continue.</p>","","","","","","","","","",""
"html-keyboard-response","250","415632","0.0-13.0-0.0","612b5ed8c3b1fcb978aad0a8","64e77d7b61f440b60e28659d","64ec95396b91ae2823b3135e","null","null","<p style=""font-size: 60px; font-family: BACS"">OEPkmtKP</p>","","","","","","","","","",""
"html-keyboard-response","251","416633","0.0-13.0-0.1","612b5ed8c3b1fcb978aad0a8","64e77d7b61f440b60e28659d","64ec95396b91ae2823b3135e","null","null","<p style=""font-size: 60px; font-family: BACS"">dCtMAdEPD</p>","","","","","","","","","",""
"html-keyboard-response","252","417642","0.0-13.0-0.2","612b5ed8c3b1fcb978aad0a8","64e77d7b61f440b60e28659d","64ec95396b91ae2823b3135e","null","null","<p style=""font-size: 60px; font-family: BACS"">PcBTmtKP</p>","","","","","","","","","",""
"html-keyboard-response","253","418646","0.0-13.0-0.3","612b5ed8c3b1fcb978aad0a8","64e77d7b61f440b60e28659d","64ec95396b91ae2823b3135e","null","null","<p style=""font-size: 60px; font-family: BACS"">YQbcravu</p>","","","","","","","","","",""
"html-keyboard-response","254","419653","0.0-13.0-0.4","612b5ed8c3b1fcb978aad0a8","64e77d7b61f440b60e28659d","64ec95396b91ae2823b3135e","null","null","<p style=""font-size: 60px; font-family: BACS"">mdkKBCAd</p>","","","","","","","","","",""
"html-keyboard-response","255","420655","0.0-13.0-0.5","612b5ed8c3b1fcb978aad0a8","64e77d7b61f440b60e28659d","64ec95396b91ae2823b3135e","null","null","<p style=""font-size: 60px; font-family: BACS"">LOLkUYaum</p>","","","","","","","","","",""
"html-keyboard-response","256","421657","0.0-13.0-0.6","612b5ed8c3b1fcb978aad0a8","64e77d7b61f440b60e28659d","64ec95396b91ae2823b3135e","null","null","<p style=""font-size: 60px; font-family: BACS"">kDRKcDOk</p>","","","","","","","","","",""
"html-keyboard-response","257","422659","0.0-13.0-0.7","612b5ed8c3b1fcb978aad0a8","64e77d7b61f440b60e28659d","64ec95396b91ae2823b3135e","null","null","<p style=""font-size: 60px; font-family: BACS"">LOLkUravu</p>","","","","","","","","","",""
"html-keyboard-response","258","423669","0.0-13.0-0.8","612b5ed8c3b1fcb978aad0a8","64e77d7b61f440b60e28659d","64ec95396b91ae2823b3135e","null","null","<p style=""font-size: 60px; font-family: BACS"">EMbDPtAY</p>","","","","","","","","","",""
"html-keyboard-response","259","424677","0.0-13.0-0.9","612b5ed8c3b1fcb978aad0a8","64e77d7b61f440b60e28659d","64ec95396b91ae2823b3135e","null","null","<p style=""font-size: 60px; font-family: BACS"">chEDODOk</p>","","","","","","","","","",""
"html-keyboard-response","260","425678","0.0-13.0-0.10","612b5ed8c3b1fcb978aad0a8","64e77d7b61f440b60e28659d","64ec95396b91ae2823b3135e","null","null","<p style=""font-size: 60px; font-family: BACS"">kDRKcBCAd</p>","","","","","","","","","",""
"html-keyboard-response","261","426680","0.0-13.0-0.11","612b5ed8c3b1fcb978aad0a8","64e77d7b61f440b60e28659d","64ec95396b91ae2823b3135e","null","null","<p style=""font-size: 60px; font-family: BACS"">GumLlGUa</p>","","","","","","","","","",""
"html-keyboard-response","262","427681","0.0-13.0-0.12","612b5ed8c3b1fcb978aad0a8","64e77d7b61f440b60e28659d","64ec95396b91ae2823b3135e","null","null","<p style=""font-size: 60px; font-family: BACS"">dMYBPmtKP</p>","","","","","","","","","",""
"html-keyboard-response","263","428682","0.0-13.0-0.13","612b5ed8c3b1fcb978aad0a8","64e77d7b61f440b60e28659d","64ec95396b91ae2823b3135e","null","null","<p style=""font-size: 60px; font-family: BACS"">chEDOBCAd</p>","","","","","","","","","",""
"html-keyboard-response","264","429684","0.0-13.0-0.14","612b5ed8c3b1fcb978aad0a8","64e77d7b61f440b60e28659d","64ec95396b91ae2823b3135e","null","null","<p style=""font-size: 60px; font-family: BACS"">UAcduYbN</p>","","","","","","","","","",""
"html-keyboard-response","265","430692","0.0-13.0-0.15","612b5ed8c3b1fcb978aad0a8","64e77d7b61f440b60e28659d","64ec95396b91ae2823b3135e","null","null","<p style=""font-size: 60px; font-family: BACS"">ckLALYkZ</p>","","","","","","","","","",""
"html-keyboard-response","266","431693","0.0-13.0-0.16","612b5ed8c3b1fcb978aad0a8","64e77d7b61f440b60e28659d","64ec95396b91ae2823b3135e","null","null","<p style=""font-size: 60px; font-family: BACS"">dCtMAmtKP</p>","","","","","","","","","",""
"html-keyboard-response","267","432695","0.0-13.0-0.17","612b5ed8c3b1fcb978aad0a8","64e77d7b61f440b60e28659d","64ec95396b91ae2823b3135e","null","null","<p style=""font-size: 60px; font-family: BACS"">LOLkUYbN</p>","","","","","","","","","",""
"html-keyboard-response","268","433696","0.0-13.0-0.18","612b5ed8c3b1fcb978aad0a8","64e77d7b61f440b60e28659d","64ec95396b91ae2823b3135e","null","null","<p style=""font-size: 60px; font-family: BACS"">GumLlravu</p>","","","","","","","","","",""
"html-keyboard-response","269","434697","0.0-13.0-0.19","612b5ed8c3b1fcb978aad0a8","64e77d7b61f440b60e28659d","64ec95396b91ae2823b3135e","null","null","<p style=""font-size: 60px; font-family: BACS"">UmNJGUa</p>","","","","","","","","","",""
"html-keyboard-response","270","435698","0.0-13.0-0.20","612b5ed8c3b1fcb978aad0a8","64e77d7b61f440b60e28659d","64ec95396b91ae2823b3135e","null","null","<p style=""font-size: 60px; font-family: BACS"">kDRKcdEPD</p>","","","","","","","","","",""
"html-keyboard-response","271","436699","0.0-13.0-0.21","612b5ed8c3b1fcb978aad0a8","64e77d7b61f440b60e28659d","64ec95396b91ae2823b3135e","null","null","<p style=""font-size: 60px; font-family: BACS"">UAcduYkZ</p>","","","","","","","","","",""
"html-keyboard-response","272","437709","0.0-13.0-0.22","612b5ed8c3b1fcb978aad0a8","64e77d7b61f440b60e28659d","64ec95396b91ae2823b3135e","null","null","<p style=""font-size: 60px; font-family: BACS"">mdkKmtKP</p>","","","","","","","","","",""
"html-keyboard-response","273","438711","0.0-13.0-0.23","612b5ed8c3b1fcb978aad0a8","64e77d7b61f440b60e28659d","64ec95396b91ae2823b3135e","null","null","<p style=""font-size: 60px; font-family: BACS"">UaYLYbN</p>","","","","","","","","","",""
"html-keyboard-response","274","439713","0.0-13.0-0.24","612b5ed8c3b1fcb978aad0a8","64e77d7b61f440b60e28659d","64ec95396b91ae2823b3135e","null","null","<p style=""font-size: 60px; font-family: BACS"">JvaAYaum</p>","","","","","","","","","",""
"html-keyboard-response","275","440714","0.0-13.0-0.25","612b5ed8c3b1fcb978aad0a8","64e77d7b61f440b60e28659d","64ec95396b91ae2823b3135e","null","null","<p style=""font-size: 60px; font-family: BACS"">OEPkdEPD</p>","","","","","","","","","",""
"html-keyboard-response","276","441715","0.0-13.0-0.26","612b5ed8c3b1fcb978aad0a8","64e77d7b61f440b60e28659d","64ec95396b91ae2823b3135e","null","null","<p style=""font-size: 60px; font-family: BACS"">hbmAmtKP</p>","","","","","","","","","",""
"html-keyboard-response","277","442715","0.0-13.0-0.27","612b5ed8c3b1fcb978aad0a8","64e77d7b61f440b60e28659d","64ec95396b91ae2823b3135e","null","null","<p style=""font-size: 60px; font-family: BACS"">UmNJYaum</p>","","","","","","","","","",""
"html-keyboard-response","278","443727","0.0-13.0-0.28","612b5ed8c3b1fcb978aad0a8","64e77d7b61f440b60e28659d","64ec95396b91ae2823b3135e","null","null","<p style=""font-size: 60px; font-family: BACS"">dCtMAtAY</p>","","","","","","","","","",""
"html-keyboard-response","279","444729","0.0-13.0-0.29","612b5ed8c3b1fcb978aad0a8","64e77d7b61f440b60e28659d","64ec95396b91ae2823b3135e","null","null","<p style=""font-size: 60px; font-family: BACS"">UaYLGUa</p>","","","","","","","","","",""
"html-keyboard-response","280","445731","0.0-13.0-0.30","612b5ed8c3b1fcb978aad0a8","64e77d7b61f440b60e28659d","64ec95396b91ae2823b3135e","null","null","<p style=""font-size: 60px; font-family: BACS"">TDKhBCAd</p>","","","","","","","","","",""
"html-keyboard-response","281","446733","0.0-13.0-0.31","612b5ed8c3b1fcb978aad0a8","64e77d7b61f440b60e28659d","64ec95396b91ae2823b3135e","null","null","<p style=""font-size: 60px; font-family: BACS"">EMbDPmtKP</p>","","","","","","","","","",""
"html-keyboard-response","282","447734","0.0-13.0-0.32","612b5ed8c3b1fcb978aad0a8","64e77d7b61f440b60e28659d","64ec95396b91ae2823b3135e","null","null","<p style=""font-size: 60px; font-family: BACS"">YQbcYaum</p>","","","","","","","","","",""
"html-keyboard-response","283","448736","0.0-13.0-0.33","612b5ed8c3b1fcb978aad0a8","64e77d7b61f440b60e28659d","64ec95396b91ae2823b3135e","null","null","<p style=""font-size: 60px; font-family: BACS"">chEDOdEPD</p>","","","","","","","","","",""
"html-keyboard-response","284","449737","0.0-13.0-0.34","612b5ed8c3b1fcb978aad0a8","64e77d7b61f440b60e28659d","64ec95396b91ae2823b3135e","null","null","<p style=""font-size: 60px; font-family: BACS"">PcBTDOk</p>","","","","","","","","","",""
"html-keyboard-response","285","450743","0.0-13.0-0.35","612b5ed8c3b1fcb978aad0a8","64e77d7b61f440b60e28659d","64ec95396b91ae2823b3135e","null","null","<p style=""font-size: 60px; font-family: BACS"">aUZAravu</p>","","","","","","","","","",""
"html-keyboard-response","286","451755","0.0-13.0-0.36","612b5ed8c3b1fcb978aad0a8","64e77d7b61f440b60e28659d","64ec95396b91ae2823b3135e","null","null","<p style=""font-size: 60px; font-family: BACS"">TDKhtAY</p>","","","","","","","","","",""
"html-keyboard-response","287","452768","0.0-13.0-0.37","612b5ed8c3b1fcb978aad0a8","64e77d7b61f440b60e28659d","64ec95396b91ae2823b3135e","null","null","<p style=""font-size: 60px; font-family: BACS"">aUZAYaum</p>","","","","","","","","","",""
"html-keyboard-response","288","453779","0.0-13.0-0.38","612b5ed8c3b1fcb978aad0a8","64e77d7b61f440b60e28659d","64ec95396b91ae2823b3135e","null","null","<p style=""font-size: 60px; font-family: BACS"">YQbcGUa</p>","","","","","","","","","",""
"html-keyboard-response","289","454786","0.0-13.0-0.39","612b5ed8c3b1fcb978aad0a8","64e77d7b61f440b60e28659d","64ec95396b91ae2823b3135e","null","null","<p style=""font-size: 60px; font-family: BACS"">EMbDPDOk</p>","","","","","","","","","",""
"html-keyboard-response","290","455788","0.0-13.0-0.40","612b5ed8c3b1fcb978aad0a8","64e77d7b61f440b60e28659d","64ec95396b91ae2823b3135e","null","null","<p style=""font-size: 60px; font-family: BACS"">UAcduGUa</p>","","","","","","","","","",""
"html-keyboard-response","291","456789","0.0-13.0-0.41","612b5ed8c3b1fcb978aad0a8","64e77d7b61f440b60e28659d","64ec95396b91ae2823b3135e","null","null","<p style=""font-size: 60px; font-family: BACS"">mdkKDOk</p>","","","","","","","","","",""
"html-keyboard-response","292","457792","0.0-13.0-0.42","612b5ed8c3b1fcb978aad0a8","64e77d7b61f440b60e28659d","64ec95396b91ae2823b3135e","null","null","<p style=""font-size: 60px; font-family: BACS"">UaYLravu</p>","","","","","","","","","",""
"html-keyboard-response","293","458796","0.0-13.0-0.43","612b5ed8c3b1fcb978aad0a8","64e77d7b61f440b60e28659d","64ec95396b91ae2823b3135e","null","null","<p style=""font-size: 60px; font-family: BACS"">mdkKdEPD</p>","","","","","","","","","",""
"html-keyboard-response","294","459796","0.0-13.0-0.44","612b5ed8c3b1fcb978aad0a8","64e77d7b61f440b60e28659d","64ec95396b91ae2823b3135e","null","null","<p style=""font-size: 60px; font-family: BACS"">dMYBPtAY</p>","","","","","","","","","",""
"html-keyboard-response","295","460798","0.0-13.0-0.45","612b5ed8c3b1fcb978aad0a8","64e77d7b61f440b60e28659d","64ec95396b91ae2823b3135e","null","null","<p style=""font-size: 60px; font-family: BACS"">TDKhDOk</p>","","","","","","","","","",""
"html-keyboard-response","296","461799","0.0-13.0-0.46","612b5ed8c3b1fcb978aad0a8","64e77d7b61f440b60e28659d","64ec95396b91ae2823b3135e","null","null","<p style=""font-size: 60px; font-family: BACS"">ckLALYaum</p>","","","","","","","","","",""
"html-keyboard-response","297","462800","0.0-13.0-0.47","612b5ed8c3b1fcb978aad0a8","64e77d7b61f440b60e28659d","64ec95396b91ae2823b3135e","null","null","<p style=""font-size: 60px; font-family: BACS"">PcBTtAY</p>","","","","","","","","","",""
"html-keyboard-response","298","463801","0.0-13.0-0.48","612b5ed8c3b1fcb978aad0a8","64e77d7b61f440b60e28659d","64ec95396b91ae2823b3135e","null","null","<p style=""font-size: 60px; font-family: BACS"">kDRKcmtKP</p>","","","","","","","","","",""
"html-keyboard-response","299","464803","0.0-13.0-0.49","612b5ed8c3b1fcb978aad0a8","64e77d7b61f440b60e28659d","64ec95396b91ae2823b3135e","null","null","<p style=""font-size: 60px; font-family: BACS"">JvaAYbN</p>","","","","","","","","","",""
"html-keyboard-response","300","465804","0.0-13.0-0.50","612b5ed8c3b1fcb978aad0a8","64e77d7b61f440b60e28659d","64ec95396b91ae2823b3135e","null","null","<p style=""font-size: 60px; font-family: BACS"">aUZAGUa</p>","","","","","","","","","",""
"html-keyboard-response","301","466804","0.0-13.0-0.51","612b5ed8c3b1fcb978aad0a8","64e77d7b61f440b60e28659d","64ec95396b91ae2823b3135e","null","null","<p style=""font-size: 60px; font-family: BACS"">ckLALravu</p>","","","","","","","","","",""
"html-keyboard-response","302","467814","0.0-13.0-0.52","612b5ed8c3b1fcb978aad0a8","64e77d7b61f440b60e28659d","64ec95396b91ae2823b3135e","null","null","<p style=""font-size: 60px; font-family: BACS"">dMYBPBCAd</p>","","","","","","","","","",""
"html-keyboard-response","303","468816","0.0-13.0-0.53","612b5ed8c3b1fcb978aad0a8","64e77d7b61f440b60e28659d","64ec95396b91ae2823b3135e","null","null","<p style=""font-size: 60px; font-family: BACS"">GumLlYbN</p>","","","","","","","","","",""
"html-keyboard-response","304","469817","0.0-13.0-0.54","612b5ed8c3b1fcb978aad0a8","64e77d7b61f440b60e28659d","64ec95396b91ae2823b3135e","null","null","<p style=""font-size: 60px; font-family: BACS"">OEPkBCAd</p>","","","","","","","","","",""
"html-keyboard-response","305","470822","0.0-13.0-0.55","612b5ed8c3b1fcb978aad0a8","64e77d7b61f440b60e28659d","64ec95396b91ae2823b3135e","null","null","<p style=""font-size: 60px; font-family: BACS"">UmNJYkZ</p>","","","","","","","","","",""
"html-keyboard-response","306","471824","0.0-13.0-0.56","612b5ed8c3b1fcb978aad0a8","64e77d7b61f440b60e28659d","64ec95396b91ae2823b3135e","null","null","<p style=""font-size: 60px; font-family: BACS"">OEPktAY</p>","","","","","","","","","",""
"html-keyboard-response","307","472829","0.0-13.0-0.57","612b5ed8c3b1fcb978aad0a8","64e77d7b61f440b60e28659d","64ec95396b91ae2823b3135e","null","null","<p style=""font-size: 60px; font-family: BACS"">NulkYaum</p>","","","","","","","","","",""
"html-keyboard-response","308","473835","0.0-13.0-0.58","612b5ed8c3b1fcb978aad0a8","64e77d7b61f440b60e28659d","64ec95396b91ae2823b3135e","null","null","<p style=""font-size: 60px; font-family: BACS"">hbmADOk</p>","","","","","","","","","",""
"html-keyboard-response","309","474843","0.0-13.0-0.59","612b5ed8c3b1fcb978aad0a8","64e77d7b61f440b60e28659d","64ec95396b91ae2823b3135e","null","null","<p style=""font-size: 60px; font-family: BACS"">UaYLYkZ</p>","","","","","","","","","",""
"html-keyboard-response","310","475844","0.0-13.0-0.60","612b5ed8c3b1fcb978aad0a8","64e77d7b61f440b60e28659d","64ec95396b91ae2823b3135e","null","null","<p style=""font-size: 60px; font-family: BACS"">dCtMABCAd</p>","","","","","","","","","",""
"html-keyboard-response","311","476846","0.0-13.0-0.61","612b5ed8c3b1fcb978aad0a8","64e77d7b61f440b60e28659d","64ec95396b91ae2823b3135e","null","null","<p style=""font-size: 60px; font-family: BACS"">UmNJYbN</p>","","","","","","","","","",""
"html-keyboard-response","312","477847","0.0-13.0-0.62","612b5ed8c3b1fcb978aad0a8","64e77d7b61f440b60e28659d","64ec95396b91ae2823b3135e","null","null","<p style=""font-size: 60px; font-family: BACS"">ckLALGUa</p>","","","","","","","","","",""
"html-keyboard-response","313","478854","0.0-13.0-0.63","612b5ed8c3b1fcb978aad0a8","64e77d7b61f440b60e28659d","64ec95396b91ae2823b3135e","null","null","<p style=""font-size: 60px; font-family: BACS"">JvaAravu</p>","","","","","","","","","",""
"html-keyboard-response","314","479855","0.0-13.0-0.64","612b5ed8c3b1fcb978aad0a8","64e77d7b61f440b60e28659d","64ec95396b91ae2823b3135e","null","null","<p style=""font-size: 60px; font-family: BACS"">LOLkUYkZ</p>","","","","","","","","","",""
"html-keyboard-response","315","480856","0.0-13.0-0.65","612b5ed8c3b1fcb978aad0a8","64e77d7b61f440b60e28659d","64ec95396b91ae2823b3135e","null","null","<p style=""font-size: 60px; font-family: BACS"">chEDOtAY</p>","","","","","","","","","",""
"html-keyboard-response","316","481869","0.0-13.0-0.66","612b5ed8c3b1fcb978aad0a8","64e77d7b61f440b60e28659d","64ec95396b91ae2823b3135e","null","null","<p style=""font-size: 60px; font-family: BACS"">aUZAYbN</p>","","","","","","","","","",""
"html-keyboard-response","317","482871","0.0-13.0-0.67","612b5ed8c3b1fcb978aad0a8","64e77d7b61f440b60e28659d","64ec95396b91ae2823b3135e","null","null","<p style=""font-size: 60px; font-family: BACS"">EMbDPdEPD</p>","","","","","","","","","",""
"html-keyboard-response","318","483875","0.0-13.0-0.68","612b5ed8c3b1fcb978aad0a8","64e77d7b61f440b60e28659d","64ec95396b91ae2823b3135e","null","null","<p style=""font-size: 60px; font-family: BACS"">UAcduYaum</p>","","","","","","","","","",""
"html-keyboard-response","319","484878","0.0-13.0-0.69","612b5ed8c3b1fcb978aad0a8","64e77d7b61f440b60e28659d","64ec95396b91ae2823b3135e","null","null","<p style=""font-size: 60px; font-family: BACS"">dMYBPDOk</p>","","","","","","","","","",""
"html-keyboard-response","320","485880","0.0-13.0-0.70","612b5ed8c3b1fcb978aad0a8","64e77d7b61f440b60e28659d","64ec95396b91ae2823b3135e","null","null","<p style=""font-size: 60px; font-family: BACS"">JvaAYkZ</p>","","","","","","","","","",""
"html-keyboard-response","321","486889","0.0-13.0-0.71","612b5ed8c3b1fcb978aad0a8","64e77d7b61f440b60e28659d","64ec95396b91ae2823b3135e","null","null","<p style=""font-size: 60px; font-family: BACS"">TDKhdEPD</p>","","","","","","","","","",""
"html-keyboard-response","322","487890","0.0-13.0-0.72","612b5ed8c3b1fcb978aad0a8","64e77d7b61f440b60e28659d","64ec95396b91ae2823b3135e","null","null","<p style=""font-size: 60px; font-family: BACS"">NulkGUa</p>","","","","","","","","","",""
"html-keyboard-response","323","488901","0.0-13.0-0.73","612b5ed8c3b1fcb978aad0a8","64e77d7b61f440b60e28659d","64ec95396b91ae2823b3135e","null","null","<p style=""font-size: 60px; font-family: BACS"">hbmAtAY</p>","","","","","","","","","",""
"html-keyboard-response","324","489902","0.0-13.0-0.74","612b5ed8c3b1fcb978aad0a8","64e77d7b61f440b60e28659d","64ec95396b91ae2823b3135e","null","null","<p style=""font-size: 60px; font-family: BACS"">PcBTdEPD</p>","","","","","","","","","",""
"html-keyboard-response","325","490903","0.0-13.0-0.75","612b5ed8c3b1fcb978aad0a8","64e77d7b61f440b60e28659d","64ec95396b91ae2823b3135e","null","null","<p style=""font-size: 60px; font-family: BACS"">NulkYbN</p>","","","","","","","","","",""
"html-keyboard-response","326","491904","0.0-13.0-0.76","612b5ed8c3b1fcb978aad0a8","64e77d7b61f440b60e28659d","64ec95396b91ae2823b3135e","null","null","<p style=""font-size: 60px; font-family: BACS"">YQbcYkZ</p>","","","","","","","","","",""
"html-keyboard-response","327","492915","0.0-13.0-0.77","612b5ed8c3b1fcb978aad0a8","64e77d7b61f440b60e28659d","64ec95396b91ae2823b3135e","null","null","<p style=""font-size: 60px; font-family: BACS"">Nulkravu</p>","","","","","","","","","",""
"html-keyboard-response","328","493916","0.0-13.0-0.78","612b5ed8c3b1fcb978aad0a8","64e77d7b61f440b60e28659d","64ec95396b91ae2823b3135e","null","null","<p style=""font-size: 60px; font-family: BACS"">GumLlYkZ</p>","","","","","","","","","",""
"html-keyboard-response","329","494917","0.0-13.0-0.79","612b5ed8c3b1fcb978aad0a8","64e77d7b61f440b60e28659d","64ec95396b91ae2823b3135e","null","null","<p style=""font-size: 60px; font-family: BACS"">hbmABCAd</p>","","","","","","","","","",""
"html-keyboard-response","330","498873","0.0-14.0","612b5ed8c3b1fcb978aad0a8","64e77d7b61f440b60e28659d","64ec95396b91ae2823b3135e","3955"," ","<p>Great, you've seen the fourth block of words. You may now take a short break.</p>
      <p>Press the spacebar when you're ready to continue.</p>","","","","","","","","","",""
"html-keyboard-response","331","499874","0.0-15.0-0.0","612b5ed8c3b1fcb978aad0a8","64e77d7b61f440b60e28659d","64ec95396b91ae2823b3135e","null","null","<p style=""font-size: 60px; font-family: BACS"">kDRKcdEPD</p>","","","","","","","","","",""
"html-keyboard-response","332","500875","0.0-15.0-0.1","612b5ed8c3b1fcb978aad0a8","64e77d7b61f440b60e28659d","64ec95396b91ae2823b3135e","null","null","<p style=""font-size: 60px; font-family: BACS"">kDRKcdEPD</p>","","","","","","","","","",""
"html-keyboard-response","333","501889","0.0-15.0-0.2","612b5ed8c3b1fcb978aad0a8","64e77d7b61f440b60e28659d","64ec95396b91ae2823b3135e","null","null","<p style=""font-size: 60px; font-family: BACS"">kDRKcdEPD</p>","","","","","","","","","",""
"html-keyboard-response","334","502890","0.0-15.0-0.3","612b5ed8c3b1fcb978aad0a8","64e77d7b61f440b60e28659d","64ec95396b91ae2823b3135e","null","null","<p style=""font-size: 60px; font-family: BACS"">kDRKcdEPD</p>","","","","","","","","","",""
"html-keyboard-response","335","503902","0.0-15.0-0.4","612b5ed8c3b1fcb978aad0a8","64e77d7b61f440b60e28659d","64ec95396b91ae2823b3135e","null","null","<p style=""font-size: 60px; font-family: BACS"">kDRKcdEPD</p>","","","","","","","","","",""
"html-keyboard-response","336","504903","0.0-15.0-0.5","612b5ed8c3b1fcb978aad0a8","64e77d7b61f440b60e28659d","64ec95396b91ae2823b3135e","null","null","<p style=""font-size: 60px; font-family: BACS"">kDRKcdEPD</p>","","","","","","","","","",""
"html-keyboard-response","337","505904","0.0-15.0-0.6","612b5ed8c3b1fcb978aad0a8","64e77d7b61f440b60e28659d","64ec95396b91ae2823b3135e","null","null","<p style=""font-size: 60px; font-family: BACS"">kDRKcdEPD</p>","","","","","","","","","",""
"html-keyboard-response","338","506905","0.0-15.0-0.7","612b5ed8c3b1fcb978aad0a8","64e77d7b61f440b60e28659d","64ec95396b91ae2823b3135e","null","null","<p style=""font-size: 60px; font-family: BACS"">kDRKcdEPD</p>","","","","","","","","","",""
"html-keyboard-response","339","507905","0.0-15.0-0.8","612b5ed8c3b1fcb978aad0a8","64e77d7b61f440b60e28659d","64ec95396b91ae2823b3135e","null","null","<p style=""font-size: 60px; font-family: BACS"">kDRKcdEPD</p>","","","","","","","","","",""
"html-keyboard-response","340","508913","0.0-15.0-0.9","612b5ed8c3b1fcb978aad0a8","64e77d7b61f440b60e28659d","64ec95396b91ae2823b3135e","null","null","<p style=""font-size: 60px; font-family: BACS"">kDRKcdEPD</p>","","","","","","","","","",""
"html-keyboard-response","341","509914","0.0-15.0-0.10","612b5ed8c3b1fcb978aad0a8","64e77d7b61f440b60e28659d","64ec95396b91ae2823b3135e","null","null","<p style=""font-size: 60px; font-family: BACS"">kDRKcdEPD</p>","","","","","","","","","",""
"html-keyboard-response","342","510926","0.0-15.0-0.11","612b5ed8c3b1fcb978aad0a8","64e77d7b61f440b60e28659d","64ec95396b91ae2823b3135e","null","null","<p style=""font-size: 60px; font-family: BACS"">kDRKcdEPD</p>","","","","","","","","","",""
"html-keyboard-response","343","511928","0.0-15.0-0.12","612b5ed8c3b1fcb978aad0a8","64e77d7b61f440b60e28659d","64ec95396b91ae2823b3135e","null","null","<p style=""font-size: 60px; font-family: BACS"">kDRKcdEPD</p>","","","","","","","","","",""
"html-keyboard-response","344","512930","0.0-15.0-0.13","612b5ed8c3b1fcb978aad0a8","64e77d7b61f440b60e28659d","64ec95396b91ae2823b3135e","null","null","<p style=""font-size: 60px; font-family: BACS"">kDRKcdEPD</p>","","","","","","","","","",""
"html-keyboard-response","345","513938","0.0-15.0-0.14","612b5ed8c3b1fcb978aad0a8","64e77d7b61f440b60e28659d","64ec95396b91ae2823b3135e","null","null","<p style=""font-size: 60px; font-family: BACS"">kDRKcdEPD</p>","","","","","","","","","",""
"html-keyboard-response","346","514940","0.0-15.0-0.15","612b5ed8c3b1fcb978aad0a8","64e77d7b61f440b60e28659d","64ec95396b91ae2823b3135e","null","null","<p style=""font-size: 60px; font-family: BACS"">kDRKcdEPD</p>","","","","","","","","","",""
"html-keyboard-response","347","515945","0.0-15.0-0.16","612b5ed8c3b1fcb978aad0a8","64e77d7b61f440b60e28659d","64ec95396b91ae2823b3135e","null","null","<p style=""font-size: 60px; font-family: BACS"">kDRKcdEPD</p>","","","","","","","","","",""
"html-keyboard-response","348","516946","0.0-15.0-0.17","612b5ed8c3b1fcb978aad0a8","64e77d7b61f440b60e28659d","64ec95396b91ae2823b3135e","null","null","<p style=""font-size: 60px; font-family: BACS"">kDRKcdEPD</p>","","","","","","","","","",""
"html-keyboard-response","349","517948","0.0-15.0-0.18","612b5ed8c3b1fcb978aad0a8","64e77d7b61f440b60e28659d","64ec95396b91ae2823b3135e","null","null","<p style=""font-size: 60px; font-family: BACS"">kDRKcdEPD</p>","","","","","","","","","",""
"html-keyboard-response","350","518949","0.0-15.0-0.19","612b5ed8c3b1fcb978aad0a8","64e77d7b61f440b60e28659d","64ec95396b91ae2823b3135e","null","null","<p style=""font-size: 60px; font-family: BACS"">kDRKcdEPD</p>","","","","","","","","","",""
"html-keyboard-response","351","519951","0.0-15.0-0.20","612b5ed8c3b1fcb978aad0a8","64e77d7b61f440b60e28659d","64ec95396b91ae2823b3135e","null","null","<p style=""font-size: 60px; font-family: BACS"">kDRKcdEPD</p>","","","","","","","","","",""
"html-keyboard-response","352","520952","0.0-15.0-0.21","612b5ed8c3b1fcb978aad0a8","64e77d7b61f440b60e28659d","64ec95396b91ae2823b3135e","null","null","<p style=""font-size: 60px; font-family: BACS"">kDRKcdEPD</p>","","","","","","","","","",""
"html-keyboard-response","353","521965","0.0-15.0-0.22","612b5ed8c3b1fcb978aad0a8","64e77d7b61f440b60e28659d","64ec95396b91ae2823b3135e","null","null","<p style=""font-size: 60px; font-family: BACS"">kDRKcdEPD</p>","","","","","","","","","",""
"html-keyboard-response","354","522967","0.0-15.0-0.23","612b5ed8c3b1fcb978aad0a8","64e77d7b61f440b60e28659d","64ec95396b91ae2823b3135e","null","null","<p style=""font-size: 60px; font-family: BACS"">kDRKcdEPD</p>","","","","","","","","","",""
"html-keyboard-response","355","523968","0.0-15.0-0.24","612b5ed8c3b1fcb978aad0a8","64e77d7b61f440b60e28659d","64ec95396b91ae2823b3135e","null","null","<p style=""font-size: 60px; font-family: BACS"">kDRKcdEPD</p>","","","","","","","","","",""
"html-keyboard-response","356","524969","0.0-15.0-0.25","612b5ed8c3b1fcb978aad0a8","64e77d7b61f440b60e28659d","64ec95396b91ae2823b3135e","null","null","<p style=""font-size: 60px; font-family: BACS"">kDRKcdEPD</p>","","","","","","","","","",""
"html-keyboard-response","357","525970","0.0-15.0-0.26","612b5ed8c3b1fcb978aad0a8","64e77d7b61f440b60e28659d","64ec95396b91ae2823b3135e","null","null","<p style=""font-size: 60px; font-family: BACS"">kDRKcdEPD</p>","","","","","","","","","",""
"html-keyboard-response","358","526971","0.0-15.0-0.27","612b5ed8c3b1fcb978aad0a8","64e77d7b61f440b60e28659d","64ec95396b91ae2823b3135e","null","null","<p style=""font-size: 60px; font-family: BACS"">kDRKcdEPD</p>","","","","","","","","","",""
"html-keyboard-response","359","527972","0.0-15.0-0.28","612b5ed8c3b1fcb978aad0a8","64e77d7b61f440b60e28659d","64ec95396b91ae2823b3135e","null","null","<p style=""font-size: 60px; font-family: BACS"">kDRKcdEPD</p>","","","","","","","","","",""
"html-keyboard-response","360","528973","0.0-15.0-0.29","612b5ed8c3b1fcb978aad0a8","64e77d7b61f440b60e28659d","64ec95396b91ae2823b3135e","null","null","<p style=""font-size: 60px; font-family: BACS"">kDRKcdEPD</p>","","","","","","","","","",""
"html-keyboard-response","361","529974","0.0-15.0-0.30","612b5ed8c3b1fcb978aad0a8","64e77d7b61f440b60e28659d","64ec95396b91ae2823b3135e","null","null","<p style=""font-size: 60px; font-family: BACS"">kDRKcdEPD</p>","","","","","","","","","",""
"html-keyboard-response","362","530986","0.0-15.0-0.31","612b5ed8c3b1fcb978aad0a8","64e77d7b61f440b60e28659d","64ec95396b91ae2823b3135e","null","null","<p style=""font-size: 60px; font-family: BACS"">kDRKcdEPD</p>","","","","","","","","","",""
"html-keyboard-response","363","531989","0.0-15.0-0.32","612b5ed8c3b1fcb978aad0a8","64e77d7b61f440b60e28659d","64ec95396b91ae2823b3135e","null","null","<p style=""font-size: 60px; font-family: BACS"">kDRKcdEPD</p>","","","","","","","","","",""
"html-keyboard-response","364","532991","0.0-15.0-0.33","612b5ed8c3b1fcb978aad0a8","64e77d7b61f440b60e28659d","64ec95396b91ae2823b3135e","null","null","<p style=""font-size: 60px; font-family: BACS"">kDRKcdEPD</p>","","","","","","","","","",""
"html-keyboard-response","365","533992","0.0-15.0-0.34","612b5ed8c3b1fcb978aad0a8","64e77d7b61f440b60e28659d","64ec95396b91ae2823b3135e","null","null","<p style=""font-size: 60px; font-family: BACS"">kDRKcdEPD</p>","","","","","","","","","",""
"html-keyboard-response","366","535004","0.0-15.0-0.35","612b5ed8c3b1fcb978aad0a8","64e77d7b61f440b60e28659d","64ec95396b91ae2823b3135e","null","null","<p style=""font-size: 60px; font-family: BACS"">kDRKcdEPD</p>","","","","","","","","","",""
"html-keyboard-response","367","536019","0.0-15.0-0.36","612b5ed8c3b1fcb978aad0a8","64e77d7b61f440b60e28659d","64ec95396b91ae2823b3135e","null","null","<p style=""font-size: 60px; font-family: BACS"">kDRKcdEPD</p>","","","","","","","","","",""
"html-keyboard-response","368","537019","0.0-15.0-0.37","612b5ed8c3b1fcb978aad0a8","64e77d7b61f440b60e28659d","64ec95396b91ae2823b3135e","null","null","<p style=""font-size: 60px; font-family: BACS"">kDRKcdEPD</p>","","","","","","","","","",""
"html-keyboard-response","369","538025","0.0-15.0-0.38","612b5ed8c3b1fcb978aad0a8","64e77d7b61f440b60e28659d","64ec95396b91ae2823b3135e","null","null","<p style=""font-size: 60px; font-family: BACS"">kDRKcdEPD</p>","","","","","","","","","",""
"html-keyboard-response","370","539027","0.0-15.0-0.39","612b5ed8c3b1fcb978aad0a8","64e77d7b61f440b60e28659d","64ec95396b91ae2823b3135e","null","null","<p style=""font-size: 60px; font-family: BACS"">kDRKcdEPD</p>","","","","","","","","","",""
"html-keyboard-response","371","540028","0.0-15.0-0.40","612b5ed8c3b1fcb978aad0a8","64e77d7b61f440b60e28659d","64ec95396b91ae2823b3135e","null","null","<p style=""font-size: 60px; font-family: BACS"">kDRKcdEPD</p>","","","","","","","","","",""
"html-keyboard-response","372","541029","0.0-15.0-0.41","612b5ed8c3b1fcb978aad0a8","64e77d7b61f440b60e28659d","64ec95396b91ae2823b3135e","null","null","<p style=""font-size: 60px; font-family: BACS"">kDRKcdEPD</p>","","","","","","","","","",""
"html-keyboard-response","373","542030","0.0-15.0-0.42","612b5ed8c3b1fcb978aad0a8","64e77d7b61f440b60e28659d","64ec95396b91ae2823b3135e","null","null","<p style=""font-size: 60px; font-family: BACS"">kDRKcdEPD</p>","","","","","","","","","",""
"html-keyboard-response","374","543031","0.0-15.0-0.43","612b5ed8c3b1fcb978aad0a8","64e77d7b61f440b60e28659d","64ec95396b91ae2823b3135e","null","null","<p style=""font-size: 60px; font-family: BACS"">kDRKcdEPD</p>","","","","","","","","","",""
"html-keyboard-response","375","544041","0.0-15.0-0.44","612b5ed8c3b1fcb978aad0a8","64e77d7b61f440b60e28659d","64ec95396b91ae2823b3135e","null","null","<p style=""font-size: 60px; font-family: BACS"">kDRKcdEPD</p>","","","","","","","","","",""
"html-keyboard-response","376","545042","0.0-15.0-0.45","612b5ed8c3b1fcb978aad0a8","64e77d7b61f440b60e28659d","64ec95396b91ae2823b3135e","null","null","<p style=""font-size: 60px; font-family: BACS"">kDRKcdEPD</p>","","","","","","","","","",""
"html-keyboard-response","377","546043","0.0-15.0-0.46","612b5ed8c3b1fcb978aad0a8","64e77d7b61f440b60e28659d","64ec95396b91ae2823b3135e","null","null","<p style=""font-size: 60px; font-family: BACS"">kDRKcdEPD</p>","","","","","","","","","",""
"html-keyboard-response","378","547057","0.0-15.0-0.47","612b5ed8c3b1fcb978aad0a8","64e77d7b61f440b60e28659d","64ec95396b91ae2823b3135e","null","null","<p style=""font-size: 60px; font-family: BACS"">kDRKcdEPD</p>","","","","","","","","","",""
"html-keyboard-response","379","548057","0.0-15.0-0.48","612b5ed8c3b1fcb978aad0a8","64e77d7b61f440b60e28659d","64ec95396b91ae2823b3135e","null","null","<p style=""font-size: 60px; font-family: BACS"">kDRKcdEPD</p>","","","","","","","","","",""
"html-keyboard-response","380","549058","0.0-15.0-0.49","612b5ed8c3b1fcb978aad0a8","64e77d7b61f440b60e28659d","64ec95396b91ae2823b3135e","null","null","<p style=""font-size: 60px; font-family: BACS"">kDRKcdEPD</p>","","","","","","","","","",""
"html-keyboard-response","381","550060","0.0-15.0-0.50","612b5ed8c3b1fcb978aad0a8","64e77d7b61f440b60e28659d","64ec95396b91ae2823b3135e","null","null","<p style=""font-size: 60px; font-family: BACS"">kDRKcdEPD</p>","","","","","","","","","",""
"html-keyboard-response","382","551065","0.0-15.0-0.51","612b5ed8c3b1fcb978aad0a8","64e77d7b61f440b60e28659d","64ec95396b91ae2823b3135e","null","null","<p style=""font-size: 60px; font-family: BACS"">kDRKcdEPD</p>","","","","","","","","","",""
"html-keyboard-response","383","552066","0.0-15.0-0.52","612b5ed8c3b1fcb978aad0a8","64e77d7b61f440b60e28659d","64ec95396b91ae2823b3135e","null","null","<p style=""font-size: 60px; font-family: BACS"">kDRKcdEPD</p>","","","","","","","","","",""
"html-keyboard-response","384","553068","0.0-15.0-0.53","612b5ed8c3b1fcb978aad0a8","64e77d7b61f440b60e28659d","64ec95396b91ae2823b3135e","null","null","<p style=""font-size: 60px; font-family: BACS"">kDRKcdEPD</p>","","","","","","","","","",""
"html-keyboard-response","385","554081","0.0-15.0-0.54","612b5ed8c3b1fcb978aad0a8","64e77d7b61f440b60e28659d","64ec95396b91ae2823b3135e","null","null","<p style=""font-size: 60px; font-family: BACS"">kDRKcdEPD</p>","","","","","","","","","",""
"html-keyboard-response","386","555082","0.0-15.0-0.55","612b5ed8c3b1fcb978aad0a8","64e77d7b61f440b60e28659d","64ec95396b91ae2823b3135e","null","null","<p style=""font-size: 60px; font-family: BACS"">kDRKcdEPD</p>","","","","","","","","","",""
"html-keyboard-response","387","556084","0.0-15.0-0.56","612b5ed8c3b1fcb978aad0a8","64e77d7b61f440b60e28659d","64ec95396b91ae2823b3135e","null","null","<p style=""font-size: 60px; font-family: BACS"">kDRKcdEPD</p>","","","","","","","","","",""
"html-keyboard-response","388","557086","0.0-15.0-0.57","612b5ed8c3b1fcb978aad0a8","64e77d7b61f440b60e28659d","64ec95396b91ae2823b3135e","null","null","<p style=""font-size: 60px; font-family: BACS"">kDRKcdEPD</p>","","","","","","","","","",""
"html-keyboard-response","389","558087","0.0-15.0-0.58","612b5ed8c3b1fcb978aad0a8","64e77d7b61f440b60e28659d","64ec95396b91ae2823b3135e","null","null","<p style=""font-size: 60px; font-family: BACS"">kDRKcdEPD</p>","","","","","","","","","",""
"html-keyboard-response","390","559088","0.0-15.0-0.59","612b5ed8c3b1fcb978aad0a8","64e77d7b61f440b60e28659d","64ec95396b91ae2823b3135e","null","null","<p style=""font-size: 60px; font-family: BACS"">kDRKcdEPD</p>","","","","","","","","","",""
"html-keyboard-response","391","560093","0.0-15.0-0.60","612b5ed8c3b1fcb978aad0a8","64e77d7b61f440b60e28659d","64ec95396b91ae2823b3135e","null","null","<p style=""font-size: 60px; font-family: BACS"">kDRKcdEPD</p>","","","","","","","","","",""
"html-keyboard-response","392","561103","0.0-15.0-0.61","612b5ed8c3b1fcb978aad0a8","64e77d7b61f440b60e28659d","64ec95396b91ae2823b3135e","null","null","<p style=""font-size: 60px; font-family: BACS"">kDRKcdEPD</p>","","","","","","","","","",""
"html-keyboard-response","393","562104","0.0-15.0-0.62","612b5ed8c3b1fcb978aad0a8","64e77d7b61f440b60e28659d","64ec95396b91ae2823b3135e","null","null","<p style=""font-size: 60px; font-family: BACS"">kDRKcdEPD</p>","","","","","","","","","",""
