"trial_type","trial_index","time_elapsed","internal_node_id","subject_id","study_id","session_id","rt","response","stimulus","success","item","task","correct_response","testing_condition","correct","target","confound","name"
"pavlovia","0","928","0.0-0.0","5fd2416e5061f30735e202e9","650c16f0f2faf8d7a0d14c09","651c1cd7c73b6eea8fa971fd","","","","","","","","","","","",""
"survey-html-form","1","7163","0.0-1.0","5fd2416e5061f30735e202e9","650c16f0f2faf8d7a0d14c09","651c1cd7c73b6eea8fa971fd","6233","{""ID"":""5fd2416e5061f30735e202e9""}","","","","","","","","","",""
"html-keyboard-response","2","10988","0.0-2.0","5fd2416e5061f30735e202e9","650c16f0f2faf8d7a0d14c09","651c1cd7c73b6eea8fa971fd","3825"," ","<p style=""font-size: 15px;"">Before beginning, we ask that you read the consent information and confirm your agreement to participate in the experiment.</p>
      <p style=""font-size: 15px;""> We ask that you remember that this is a research project and that your participation is entirely voluntary. You can stop your participation at any time, without needing to provide any explanation. The study we're asking you to participate in aims at examining how readers process written words. You will be engaged in a session of apprximately 20 minutes, followed by a brief questionnaire. You will have the opportunity to take a few breaks during the experiment. You will be paid £4 for your participation, corresponding to a rate of £8/hour. While this experiment looks at cognitive faculties, this experiment doesn't constitute clinical proof of eventual pathologies.</p>
      <p style=""font-size: 15px;"">All of the information collected thanks to yours and others' participation will be held in a secure password-protected server, and will not be shared with anyone not authorised to view it. Your personal information will be kept with an arbitrary participant ID. Thanks to this data anonymity process, any researcher analysing the data won't be able to track the information back to a specific participant. Therefore, this process will make identifying you impossibile, even when results from the study will be published in scientific reviews, presented at congresses, or at any other public forum. More generally, the collected data will be treated in accordance with the laws on privacy and conformity to the Legislative Degree n. 196 ""Code regarding the protection of personal data"" of the 30th of June 2003 and to the European Regulation 2016/670 (General Data Protection Regulation - GDPR). The Data Protection Officer is Avv. Valentina Carollo, who can be contacted at the following email addresses: <a href=""mailto:dpo@sissa.it"">dpo@sissa.it</a> or <a href=""mailto:rpd@sissa.it"">rpd@sissa.it</a> - PEC: <a href=""mailto:protocollo@pec.sissa.it"">protocollo@pec.sissa.it</a>.</p>
      <p style=""font-size: 15px;""> Before expressing your consent to participate, we would like to remind you again that in case you need explanations on any aspect of the experimental procedure, the researcher is at your disposition (<a href=""mailto:aliebelt@sissa.it"">aliebelt@sissa.it</a>, <a href=""mailto:davide.crepaldi@sissa.it"">davide.crepaldi@sissa.it</a>).</p>
      <p style=""font-size: 15px;"">If you would like to download the informed consent form, you can do so here: <a href=""BASL-Informed_Consent.pdf"" download>informed consent form</a>.</p>
      <p style=""font-size: 15px;"">We ask that you press the spacebar to proceed to the consent section.</p>","","","","","","","","",""
"survey-html-form","3","25828","0.0-3.0","5fd2416e5061f30735e202e9","650c16f0f2faf8d7a0d14c09","651c1cd7c73b6eea8fa971fd","14839","{""consent1"":""YES"",""consent2"":""YES"",""consent3"":""YES"",""consent4"":""YES"",""consent5"":""YES"",""consent6"":""YES""}","","","","","","","","","",""
"fullscreen","4","39054","0.0-4.0","5fd2416e5061f30735e202e9","650c16f0f2faf8d7a0d14c09","651c1cd7c73b6eea8fa971fd","","","","true","","","","","","","",""
"html-keyboard-response","5","46976","0.0-5.0","5fd2416e5061f30735e202e9","650c16f0f2faf8d7a0d14c09","651c1cd7c73b6eea8fa971fd","7921"," ","<p>Welcome, and thank you very much for your time!</p>
      <p>In this experiment, you'll be a language expert who's been asked to take a look at words that Earth has received in its first communication with aliens. Your task, in this first part of the experiment, is to pay close attention to the words you'll be shown; later, world leaders will ask you questions on what you saw. The words will be shown to you quite quickly; it seems that the aliens were in a hurry :-)</p>
      <p>Press the spacebar to continue.<p>","","","","","","","","",""
"html-keyboard-response","6","47030","0.0-6.0","5fd2416e5061f30735e202e9","650c16f0f2faf8d7a0d14c09","651c1cd7c73b6eea8fa971fd","null","null","<p style=""font-size: 120px; font-family: BACS""> </p>","","","","","","","","",""
"html-keyboard-response","7","60259","0.0-7.0","5fd2416e5061f30735e202e9","650c16f0f2faf8d7a0d14c09","651c1cd7c73b6eea8fa971fd","13229"," ","<p>Here is an example of the words you'll see:</p>
      <img src='esempio.png' height='400px'>
      <p>When you're ready to begin, press the spacebar.</p></div>","","","","","","","","",""
"html-keyboard-response","8","61261","0.0-8.0-0.0","5fd2416e5061f30735e202e9","650c16f0f2faf8d7a0d14c09","651c1cd7c73b6eea8fa971fd","null","null","<p style=""font-size: 60px; font-family: BACS"">YlCPBhRKm</p>","","","","","","","","",""
"html-keyboard-response","9","62270","0.0-8.0-0.1","5fd2416e5061f30735e202e9","650c16f0f2faf8d7a0d14c09","651c1cd7c73b6eea8fa971fd","null","null","<p style=""font-size: 60px; font-family: BACS"">bRABtTRkY</p>","","","","","","","","",""
"html-keyboard-response","10","63282","0.0-8.0-0.2","5fd2416e5061f30735e202e9","650c16f0f2faf8d7a0d14c09","651c1cd7c73b6eea8fa971fd","null","null","<p style=""font-size: 60px; font-family: BACS"">NJZlQru</p>","","","","","","","","",""
"html-keyboard-response","11","64292","0.0-8.0-0.3","5fd2416e5061f30735e202e9","650c16f0f2faf8d7a0d14c09","651c1cd7c73b6eea8fa971fd","null","null","<p style=""font-size: 60px; font-family: BACS"">ukYZGUOA</p>","","","","","","","","",""
"html-keyboard-response","12","65300","0.0-8.0-0.4","5fd2416e5061f30735e202e9","650c16f0f2faf8d7a0d14c09","651c1cd7c73b6eea8fa971fd","null","null","<p style=""font-size: 60px; font-family: BACS"">mdlaUbG</p>","","","","","","","","",""
"html-keyboard-response","13","66303","0.0-8.0-0.5","5fd2416e5061f30735e202e9","650c16f0f2faf8d7a0d14c09","651c1cd7c73b6eea8fa971fd","null","null","<p style=""font-size: 60px; font-family: BACS"">mUOcOkam</p>","","","","","","","","",""
"html-keyboard-response","14","67313","0.0-8.0-0.6","5fd2416e5061f30735e202e9","650c16f0f2faf8d7a0d14c09","651c1cd7c73b6eea8fa971fd","null","null","<p style=""font-size: 60px; font-family: BACS"">dmZvmGUOA</p>","","","","","","","","",""
"html-keyboard-response","15","68323","0.0-8.0-0.7","5fd2416e5061f30735e202e9","650c16f0f2faf8d7a0d14c09","651c1cd7c73b6eea8fa971fd","null","null","<p style=""font-size: 60px; font-family: BACS"">bcbMTRkY</p>","","","","","","","","",""
"html-keyboard-response","16","69333","0.0-8.0-0.8","5fd2416e5061f30735e202e9","650c16f0f2faf8d7a0d14c09","651c1cd7c73b6eea8fa971fd","null","null","<p style=""font-size: 60px; font-family: BACS"">DlDdEPBT</p>","","","","","","","","",""
"html-keyboard-response","17","70347","0.0-8.0-0.9","5fd2416e5061f30735e202e9","650c16f0f2faf8d7a0d14c09","651c1cd7c73b6eea8fa971fd","null","null","<p style=""font-size: 60px; font-family: BACS"">mUOcOGlu</p>","","","","","","","","",""
"html-keyboard-response","18","71355","0.0-8.0-0.10","5fd2416e5061f30735e202e9","650c16f0f2faf8d7a0d14c09","651c1cd7c73b6eea8fa971fd","null","null","<p style=""font-size: 60px; font-family: BACS"">mhtcmCd</p>","","","","","","","","",""
"html-keyboard-response","19","72365","0.0-8.0-0.11","5fd2416e5061f30735e202e9","650c16f0f2faf8d7a0d14c09","651c1cd7c73b6eea8fa971fd","null","null","<p style=""font-size: 60px; font-family: BACS"">CRdBdhRKm</p>","","","","","","","","",""
"html-keyboard-response","20","73371","0.0-8.0-0.12","5fd2416e5061f30735e202e9","650c16f0f2faf8d7a0d14c09","651c1cd7c73b6eea8fa971fd","null","null","<p style=""font-size: 60px; font-family: BACS"">DlDdmCd</p>","","","","","","","","",""
"html-keyboard-response","21","74385","0.0-8.0-0.13","5fd2416e5061f30735e202e9","650c16f0f2faf8d7a0d14c09","651c1cd7c73b6eea8fa971fd","null","null","<p style=""font-size: 60px; font-family: BACS"">mdlaGlu</p>","","","","","","","","",""
"html-keyboard-response","22","75390","0.0-8.0-0.14","5fd2416e5061f30735e202e9","650c16f0f2faf8d7a0d14c09","651c1cd7c73b6eea8fa971fd","null","null","<p style=""font-size: 60px; font-family: BACS"">QbkAcQru</p>","","","","","","","","",""
"html-keyboard-response","23","76404","0.0-8.0-0.15","5fd2416e5061f30735e202e9","650c16f0f2faf8d7a0d14c09","651c1cd7c73b6eea8fa971fd","null","null","<p style=""font-size: 60px; font-family: BACS"">hAROKmCd</p>","","","","","","","","",""
"html-keyboard-response","24","77416","0.0-8.0-0.16","5fd2416e5061f30735e202e9","650c16f0f2faf8d7a0d14c09","651c1cd7c73b6eea8fa971fd","null","null","<p style=""font-size: 60px; font-family: BACS"">NJZlUbG</p>","","","","","","","","",""
"html-keyboard-response","25","78430","0.0-8.0-0.17","5fd2416e5061f30735e202e9","650c16f0f2faf8d7a0d14c09","651c1cd7c73b6eea8fa971fd","null","null","<p style=""font-size: 60px; font-family: BACS"">BPAlEAO</p>","","","","","","","","",""
"html-keyboard-response","26","79436","0.0-8.0-0.18","5fd2416e5061f30735e202e9","650c16f0f2faf8d7a0d14c09","651c1cd7c73b6eea8fa971fd","null","null","<p style=""font-size: 60px; font-family: BACS"">mhtcTRkY</p>","","","","","","","","",""
"html-keyboard-response","27","80446","0.0-8.0-0.19","5fd2416e5061f30735e202e9","650c16f0f2faf8d7a0d14c09","651c1cd7c73b6eea8fa971fd","null","null","<p style=""font-size: 60px; font-family: BACS"">bcbMhRKm</p>","","","","","","","","",""
"html-keyboard-response","28","81457","0.0-8.0-0.20","5fd2416e5061f30735e202e9","650c16f0f2faf8d7a0d14c09","651c1cd7c73b6eea8fa971fd","null","null","<p style=""font-size: 60px; font-family: BACS"">dCtMAEAO</p>","","","","","","","","",""
"html-keyboard-response","29","82466","0.0-8.0-0.21","5fd2416e5061f30735e202e9","650c16f0f2faf8d7a0d14c09","651c1cd7c73b6eea8fa971fd","null","null","<p style=""font-size: 60px; font-family: BACS"">BPAlTRkY</p>","","","","","","","","",""
"html-keyboard-response","30","83472","0.0-8.0-0.22","5fd2416e5061f30735e202e9","650c16f0f2faf8d7a0d14c09","651c1cd7c73b6eea8fa971fd","null","null","<p style=""font-size: 60px; font-family: BACS"">NJZlGUOA</p>","","","","","","","","",""
"html-keyboard-response","31","84485","0.0-8.0-0.23","5fd2416e5061f30735e202e9","650c16f0f2faf8d7a0d14c09","651c1cd7c73b6eea8fa971fd","null","null","<p style=""font-size: 60px; font-family: BACS"">ukYZQru</p>","","","","","","","","",""
"html-keyboard-response","32","85491","0.0-8.0-0.24","5fd2416e5061f30735e202e9","650c16f0f2faf8d7a0d14c09","651c1cd7c73b6eea8fa971fd","null","null","<p style=""font-size: 60px; font-family: BACS"">BPAlEPBT</p>","","","","","","","","",""
"html-keyboard-response","33","86503","0.0-8.0-0.25","5fd2416e5061f30735e202e9","650c16f0f2faf8d7a0d14c09","651c1cd7c73b6eea8fa971fd","null","null","<p style=""font-size: 60px; font-family: BACS"">dCtMAmCd</p>","","","","","","","","",""
"html-keyboard-response","34","87512","0.0-8.0-0.26","5fd2416e5061f30735e202e9","650c16f0f2faf8d7a0d14c09","651c1cd7c73b6eea8fa971fd","null","null","<p style=""font-size: 60px; font-family: BACS"">vclYQru</p>","","","","","","","","",""
"html-keyboard-response","35","88523","0.0-8.0-0.27","5fd2416e5061f30735e202e9","650c16f0f2faf8d7a0d14c09","651c1cd7c73b6eea8fa971fd","null","null","<p style=""font-size: 60px; font-family: BACS"">CRdBdTRkY</p>","","","","","","","","",""
"html-keyboard-response","36","89531","0.0-8.0-0.28","5fd2416e5061f30735e202e9","650c16f0f2faf8d7a0d14c09","651c1cd7c73b6eea8fa971fd","null","null","<p style=""font-size: 60px; font-family: BACS"">dmZvmkam</p>","","","","","","","","",""
"html-keyboard-response","37","90544","0.0-8.0-0.29","5fd2416e5061f30735e202e9","650c16f0f2faf8d7a0d14c09","651c1cd7c73b6eea8fa971fd","null","null","<p style=""font-size: 60px; font-family: BACS"">YlCPBEPBT</p>","","","","","","","","",""
"html-keyboard-response","38","91552","0.0-8.0-0.30","5fd2416e5061f30735e202e9","650c16f0f2faf8d7a0d14c09","651c1cd7c73b6eea8fa971fd","null","null","<p style=""font-size: 60px; font-family: BACS"">OkGYkam</p>","","","","","","","","",""
"html-keyboard-response","39","92567","0.0-8.0-0.31","5fd2416e5061f30735e202e9","650c16f0f2faf8d7a0d14c09","651c1cd7c73b6eea8fa971fd","null","null","<p style=""font-size: 60px; font-family: BACS"">bRABtmCd</p>","","","","","","","","",""
"html-keyboard-response","40","93581","0.0-8.0-0.32","5fd2416e5061f30735e202e9","650c16f0f2faf8d7a0d14c09","651c1cd7c73b6eea8fa971fd","null","null","<p style=""font-size: 60px; font-family: BACS"">dCtMAhRKm</p>","","","","","","","","",""
"html-keyboard-response","41","94595","0.0-8.0-0.33","5fd2416e5061f30735e202e9","650c16f0f2faf8d7a0d14c09","651c1cd7c73b6eea8fa971fd","null","null","<p style=""font-size: 60px; font-family: BACS"">DlDdEAO</p>","","","","","","","","",""
"html-keyboard-response","42","95609","0.0-8.0-0.34","5fd2416e5061f30735e202e9","650c16f0f2faf8d7a0d14c09","651c1cd7c73b6eea8fa971fd","null","null","<p style=""font-size: 60px; font-family: BACS"">mhtcEPBT</p>","","","","","","","","",""
"html-keyboard-response","43","96619","0.0-8.0-0.35","5fd2416e5061f30735e202e9","650c16f0f2faf8d7a0d14c09","651c1cd7c73b6eea8fa971fd","null","null","<p style=""font-size: 60px; font-family: BACS"">hAROKhRKm</p>","","","","","","","","",""
"html-keyboard-response","44","97626","0.0-8.0-0.36","5fd2416e5061f30735e202e9","650c16f0f2faf8d7a0d14c09","651c1cd7c73b6eea8fa971fd","null","null","<p style=""font-size: 60px; font-family: BACS"">mdlaGUOA</p>","","","","","","","","",""
"html-keyboard-response","45","98636","0.0-8.0-0.37","5fd2416e5061f30735e202e9","650c16f0f2faf8d7a0d14c09","651c1cd7c73b6eea8fa971fd","null","null","<p style=""font-size: 60px; font-family: BACS"">vclYkam</p>","","","","","","","","",""
"html-keyboard-response","46","99645","0.0-8.0-0.38","5fd2416e5061f30735e202e9","650c16f0f2faf8d7a0d14c09","651c1cd7c73b6eea8fa971fd","null","null","<p style=""font-size: 60px; font-family: BACS"">hAROKEPBT</p>","","","","","","","","",""
"html-keyboard-response","47","100657","0.0-8.0-0.39","5fd2416e5061f30735e202e9","650c16f0f2faf8d7a0d14c09","651c1cd7c73b6eea8fa971fd","null","null","<p style=""font-size: 60px; font-family: BACS"">ukYZGlu</p>","","","","","","","","",""
"html-keyboard-response","48","101673","0.0-8.0-0.40","5fd2416e5061f30735e202e9","650c16f0f2faf8d7a0d14c09","651c1cd7c73b6eea8fa971fd","null","null","<p style=""font-size: 60px; font-family: BACS"">QbkAcGUOA</p>","","","","","","","","",""
"html-keyboard-response","49","102688","0.0-8.0-0.41","5fd2416e5061f30735e202e9","650c16f0f2faf8d7a0d14c09","651c1cd7c73b6eea8fa971fd","null","null","<p style=""font-size: 60px; font-family: BACS"">bcbMEAO</p>","","","","","","","","",""
"html-keyboard-response","50","103698","0.0-8.0-0.42","5fd2416e5061f30735e202e9","650c16f0f2faf8d7a0d14c09","651c1cd7c73b6eea8fa971fd","null","null","<p style=""font-size: 60px; font-family: BACS"">OkGYUbG</p>","","","","","","","","",""
"html-keyboard-response","51","104711","0.0-8.0-0.43","5fd2416e5061f30735e202e9","650c16f0f2faf8d7a0d14c09","651c1cd7c73b6eea8fa971fd","null","null","<p style=""font-size: 60px; font-family: BACS"">mhtcEAO</p>","","","","","","","","",""
"html-keyboard-response","52","105719","0.0-8.0-0.44","5fd2416e5061f30735e202e9","650c16f0f2faf8d7a0d14c09","651c1cd7c73b6eea8fa971fd","null","null","<p style=""font-size: 60px; font-family: BACS"">bcbMEPBT</p>","","","","","","","","",""
"html-keyboard-response","53","106733","0.0-8.0-0.45","5fd2416e5061f30735e202e9","650c16f0f2faf8d7a0d14c09","651c1cd7c73b6eea8fa971fd","null","null","<p style=""font-size: 60px; font-family: BACS"">aNYmbUbG</p>","","","","","","","","",""
"html-keyboard-response","54","107742","0.0-8.0-0.46","5fd2416e5061f30735e202e9","650c16f0f2faf8d7a0d14c09","651c1cd7c73b6eea8fa971fd","null","null","<p style=""font-size: 60px; font-family: BACS"">dmZvmGlu</p>","","","","","","","","",""
"html-keyboard-response","55","108752","0.0-8.0-0.47","5fd2416e5061f30735e202e9","650c16f0f2faf8d7a0d14c09","651c1cd7c73b6eea8fa971fd","null","null","<p style=""font-size: 60px; font-family: BACS"">tcYbdmCd</p>","","","","","","","","",""
"html-keyboard-response","56","109764","0.0-8.0-0.48","5fd2416e5061f30735e202e9","650c16f0f2faf8d7a0d14c09","651c1cd7c73b6eea8fa971fd","null","null","<p style=""font-size: 60px; font-family: BACS"">ukYZkam</p>","","","","","","","","",""
"html-keyboard-response","57","110774","0.0-8.0-0.49","5fd2416e5061f30735e202e9","650c16f0f2faf8d7a0d14c09","651c1cd7c73b6eea8fa971fd","null","null","<p style=""font-size: 60px; font-family: BACS"">tcYbdhRKm</p>","","","","","","","","",""
"html-keyboard-response","58","111785","0.0-8.0-0.50","5fd2416e5061f30735e202e9","650c16f0f2faf8d7a0d14c09","651c1cd7c73b6eea8fa971fd","null","null","<p style=""font-size: 60px; font-family: BACS"">cuOJbkam</p>","","","","","","","","",""
"html-keyboard-response","59","112795","0.0-8.0-0.51","5fd2416e5061f30735e202e9","650c16f0f2faf8d7a0d14c09","651c1cd7c73b6eea8fa971fd","null","null","<p style=""font-size: 60px; font-family: BACS"">mUOcOQru</p>","","","","","","","","",""
"html-keyboard-response","60","113804","0.0-8.0-0.52","5fd2416e5061f30735e202e9","650c16f0f2faf8d7a0d14c09","651c1cd7c73b6eea8fa971fd","null","null","<p style=""font-size: 60px; font-family: BACS"">dCtMAEPBT</p>","","","","","","","","",""
"html-keyboard-response","61","114813","0.0-8.0-0.53","5fd2416e5061f30735e202e9","650c16f0f2faf8d7a0d14c09","651c1cd7c73b6eea8fa971fd","null","null","<p style=""font-size: 60px; font-family: BACS"">QbkAcGlu</p>","","","","","","","","",""
"html-keyboard-response","62","115816","0.0-8.0-0.54","5fd2416e5061f30735e202e9","650c16f0f2faf8d7a0d14c09","651c1cd7c73b6eea8fa971fd","null","null","<p style=""font-size: 60px; font-family: BACS"">dmZvmUbG</p>","","","","","","","","",""
"html-keyboard-response","63","116824","0.0-8.0-0.55","5fd2416e5061f30735e202e9","650c16f0f2faf8d7a0d14c09","651c1cd7c73b6eea8fa971fd","null","null","<p style=""font-size: 60px; font-family: BACS"">aNYmbkam</p>","","","","","","","","",""
"html-keyboard-response","64","117838","0.0-8.0-0.56","5fd2416e5061f30735e202e9","650c16f0f2faf8d7a0d14c09","651c1cd7c73b6eea8fa971fd","null","null","<p style=""font-size: 60px; font-family: BACS"">QbkAcUbG</p>","","","","","","","","",""
"html-keyboard-response","65","118840","0.0-8.0-0.57","5fd2416e5061f30735e202e9","650c16f0f2faf8d7a0d14c09","651c1cd7c73b6eea8fa971fd","null","null","<p style=""font-size: 60px; font-family: BACS"">aNYmbQru</p>","","","","","","","","",""
"html-keyboard-response","66","119854","0.0-8.0-0.58","5fd2416e5061f30735e202e9","650c16f0f2faf8d7a0d14c09","651c1cd7c73b6eea8fa971fd","null","null","<p style=""font-size: 60px; font-family: BACS"">CRdBdmCd</p>","","","","","","","","",""
"html-keyboard-response","67","120867","0.0-8.0-0.59","5fd2416e5061f30735e202e9","650c16f0f2faf8d7a0d14c09","651c1cd7c73b6eea8fa971fd","null","null","<p style=""font-size: 60px; font-family: BACS"">YlCPBEAO</p>","","","","","","","","",""
"html-keyboard-response","68","121881","0.0-8.0-0.60","5fd2416e5061f30735e202e9","650c16f0f2faf8d7a0d14c09","651c1cd7c73b6eea8fa971fd","null","null","<p style=""font-size: 60px; font-family: BACS"">tcYbdEPBT</p>","","","","","","","","",""
"html-keyboard-response","69","122889","0.0-8.0-0.61","5fd2416e5061f30735e202e9","650c16f0f2faf8d7a0d14c09","651c1cd7c73b6eea8fa971fd","null","null","<p style=""font-size: 60px; font-family: BACS"">OkGYGlu</p>","","","","","","","","",""
"html-keyboard-response","70","123897","0.0-8.0-0.62","5fd2416e5061f30735e202e9","650c16f0f2faf8d7a0d14c09","651c1cd7c73b6eea8fa971fd","null","null","<p style=""font-size: 60px; font-family: BACS"">hAROKTRkY</p>","","","","","","","","",""
"html-keyboard-response","71","124909","0.0-8.0-0.63","5fd2416e5061f30735e202e9","650c16f0f2faf8d7a0d14c09","651c1cd7c73b6eea8fa971fd","null","null","<p style=""font-size: 60px; font-family: BACS"">DlDdhRKm</p>","","","","","","","","",""
"html-keyboard-response","72","125924","0.0-8.0-0.64","5fd2416e5061f30735e202e9","650c16f0f2faf8d7a0d14c09","651c1cd7c73b6eea8fa971fd","null","null","<p style=""font-size: 60px; font-family: BACS"">bRABtEAO</p>","","","","","","","","",""
"html-keyboard-response","73","126936","0.0-8.0-0.65","5fd2416e5061f30735e202e9","650c16f0f2faf8d7a0d14c09","651c1cd7c73b6eea8fa971fd","null","null","<p style=""font-size: 60px; font-family: BACS"">cuOJbUbG</p>","","","","","","","","",""
"html-keyboard-response","74","127945","0.0-8.0-0.66","5fd2416e5061f30735e202e9","650c16f0f2faf8d7a0d14c09","651c1cd7c73b6eea8fa971fd","null","null","<p style=""font-size: 60px; font-family: BACS"">OkGYGUOA</p>","","","","","","","","",""
"html-keyboard-response","75","128952","0.0-8.0-0.67","5fd2416e5061f30735e202e9","650c16f0f2faf8d7a0d14c09","651c1cd7c73b6eea8fa971fd","null","null","<p style=""font-size: 60px; font-family: BACS"">cuOJbGlu</p>","","","","","","","","",""
"html-keyboard-response","76","129967","0.0-8.0-0.68","5fd2416e5061f30735e202e9","650c16f0f2faf8d7a0d14c09","651c1cd7c73b6eea8fa971fd","null","null","<p style=""font-size: 60px; font-family: BACS"">NJZlkam</p>","","","","","","","","",""
"html-keyboard-response","77","130980","0.0-8.0-0.69","5fd2416e5061f30735e202e9","650c16f0f2faf8d7a0d14c09","651c1cd7c73b6eea8fa971fd","null","null","<p style=""font-size: 60px; font-family: BACS"">BPAlmCd</p>","","","","","","","","",""
"html-keyboard-response","78","131986","0.0-8.0-0.70","5fd2416e5061f30735e202e9","650c16f0f2faf8d7a0d14c09","651c1cd7c73b6eea8fa971fd","null","null","<p style=""font-size: 60px; font-family: BACS"">mUOcOUbG</p>","","","","","","","","",""
"html-keyboard-response","79","132999","0.0-8.0-0.71","5fd2416e5061f30735e202e9","650c16f0f2faf8d7a0d14c09","651c1cd7c73b6eea8fa971fd","null","null","<p style=""font-size: 60px; font-family: BACS"">bRABthRKm</p>","","","","","","","","",""
"html-keyboard-response","80","134009","0.0-8.0-0.72","5fd2416e5061f30735e202e9","650c16f0f2faf8d7a0d14c09","651c1cd7c73b6eea8fa971fd","null","null","<p style=""font-size: 60px; font-family: BACS"">YlCPBTRkY</p>","","","","","","","","",""
"html-keyboard-response","81","135021","0.0-8.0-0.73","5fd2416e5061f30735e202e9","650c16f0f2faf8d7a0d14c09","651c1cd7c73b6eea8fa971fd","null","null","<p style=""font-size: 60px; font-family: BACS"">vclYGlu</p>","","","","","","","","",""
"html-keyboard-response","82","136023","0.0-8.0-0.74","5fd2416e5061f30735e202e9","650c16f0f2faf8d7a0d14c09","651c1cd7c73b6eea8fa971fd","null","null","<p style=""font-size: 60px; font-family: BACS"">aNYmbGUOA</p>","","","","","","","","",""
"html-keyboard-response","83","137030","0.0-8.0-0.75","5fd2416e5061f30735e202e9","650c16f0f2faf8d7a0d14c09","651c1cd7c73b6eea8fa971fd","null","null","<p style=""font-size: 60px; font-family: BACS"">mdlaQru</p>","","","","","","","","",""
"html-keyboard-response","84","138039","0.0-8.0-0.76","5fd2416e5061f30735e202e9","650c16f0f2faf8d7a0d14c09","651c1cd7c73b6eea8fa971fd","null","null","<p style=""font-size: 60px; font-family: BACS"">tcYbdTRkY</p>","","","","","","","","",""
"html-keyboard-response","85","139048","0.0-8.0-0.77","5fd2416e5061f30735e202e9","650c16f0f2faf8d7a0d14c09","651c1cd7c73b6eea8fa971fd","null","null","<p style=""font-size: 60px; font-family: BACS"">cuOJbQru</p>","","","","","","","","",""
"html-keyboard-response","86","140052","0.0-8.0-0.78","5fd2416e5061f30735e202e9","650c16f0f2faf8d7a0d14c09","651c1cd7c73b6eea8fa971fd","null","null","<p style=""font-size: 60px; font-family: BACS"">vclYGUOA</p>","","","","","","","","",""
"html-keyboard-response","87","141058","0.0-8.0-0.79","5fd2416e5061f30735e202e9","650c16f0f2faf8d7a0d14c09","651c1cd7c73b6eea8fa971fd","null","null","<p style=""font-size: 60px; font-family: BACS"">CRdBdEAO</p>","","","","","","","","",""
"html-keyboard-response","88","145898","0.0-9.0","5fd2416e5061f30735e202e9","650c16f0f2faf8d7a0d14c09","651c1cd7c73b6eea8fa971fd","4839"," ","<p>Great, you've seen the first block of words. You may now take a short break.</p>
      <p>Press the spacebar when you're ready to continue.</p>","","","","","","","","",""
"html-keyboard-response","89","146900","0.0-10.0-0.0","5fd2416e5061f30735e202e9","650c16f0f2faf8d7a0d14c09","651c1cd7c73b6eea8fa971fd","null","null","<p style=""font-size: 60px; font-family: BACS"">YlCPBTRkY</p>","","","","","","","","",""
"html-keyboard-response","90","147902","0.0-10.0-0.1","5fd2416e5061f30735e202e9","650c16f0f2faf8d7a0d14c09","651c1cd7c73b6eea8fa971fd","null","null","<p style=""font-size: 60px; font-family: BACS"">QbkAcGlu</p>","","","","","","","","",""
"html-keyboard-response","91","148903","0.0-10.0-0.2","5fd2416e5061f30735e202e9","650c16f0f2faf8d7a0d14c09","651c1cd7c73b6eea8fa971fd","null","null","<p style=""font-size: 60px; font-family: BACS"">mUOcOQru</p>","","","","","","","","",""
"html-keyboard-response","92","149911","0.0-10.0-0.3","5fd2416e5061f30735e202e9","650c16f0f2faf8d7a0d14c09","651c1cd7c73b6eea8fa971fd","null","null","<p style=""font-size: 60px; font-family: BACS"">vclYGUOA</p>","","","","","","","","",""
"html-keyboard-response","93","150920","0.0-10.0-0.4","5fd2416e5061f30735e202e9","650c16f0f2faf8d7a0d14c09","651c1cd7c73b6eea8fa971fd","null","null","<p style=""font-size: 60px; font-family: BACS"">BPAlEPBT</p>","","","","","","","","",""
"html-keyboard-response","94","151932","0.0-10.0-0.5","5fd2416e5061f30735e202e9","650c16f0f2faf8d7a0d14c09","651c1cd7c73b6eea8fa971fd","null","null","<p style=""font-size: 60px; font-family: BACS"">mUOcOGlu</p>","","","","","","","","",""
"html-keyboard-response","95","152937","0.0-10.0-0.6","5fd2416e5061f30735e202e9","650c16f0f2faf8d7a0d14c09","651c1cd7c73b6eea8fa971fd","null","null","<p style=""font-size: 60px; font-family: BACS"">YlCPBEAO</p>","","","","","","","","",""
"html-keyboard-response","96","153949","0.0-10.0-0.7","5fd2416e5061f30735e202e9","650c16f0f2faf8d7a0d14c09","651c1cd7c73b6eea8fa971fd","null","null","<p style=""font-size: 60px; font-family: BACS"">mdlaQru</p>","","","","","","","","",""
"html-keyboard-response","97","154961","0.0-10.0-0.8","5fd2416e5061f30735e202e9","650c16f0f2faf8d7a0d14c09","651c1cd7c73b6eea8fa971fd","null","null","<p style=""font-size: 60px; font-family: BACS"">tcYbdEPBT</p>","","","","","","","","",""
"html-keyboard-response","98","155970","0.0-10.0-0.9","5fd2416e5061f30735e202e9","650c16f0f2faf8d7a0d14c09","651c1cd7c73b6eea8fa971fd","null","null","<p style=""font-size: 60px; font-family: BACS"">DlDdhRKm</p>","","","","","","","","",""
"html-keyboard-response","99","156985","0.0-10.0-0.10","5fd2416e5061f30735e202e9","650c16f0f2faf8d7a0d14c09","651c1cd7c73b6eea8fa971fd","null","null","<p style=""font-size: 60px; font-family: BACS"">bRABtmCd</p>","","","","","","","","",""
"html-keyboard-response","100","157998","0.0-10.0-0.11","5fd2416e5061f30735e202e9","650c16f0f2faf8d7a0d14c09","651c1cd7c73b6eea8fa971fd","null","null","<p style=""font-size: 60px; font-family: BACS"">dmZvmkam</p>","","","","","","","","",""
"html-keyboard-response","101","159010","0.0-10.0-0.12","5fd2416e5061f30735e202e9","650c16f0f2faf8d7a0d14c09","651c1cd7c73b6eea8fa971fd","null","null","<p style=""font-size: 60px; font-family: BACS"">CRdBdTRkY</p>","","","","","","","","",""
"html-keyboard-response","102","160998","0.0-10.0-0.13","5fd2416e5061f30735e202e9","650c16f0f2faf8d7a0d14c09","651c1cd7c73b6eea8fa971fd","null","null","<p style=""font-size: 60px; font-family: BACS"">aNYmbkam</p>","","","","","","","","",""
"html-keyboard-response","103","162008","0.0-10.0-0.14","5fd2416e5061f30735e202e9","650c16f0f2faf8d7a0d14c09","651c1cd7c73b6eea8fa971fd","null","null","<p style=""font-size: 60px; font-family: BACS"">dCtMAEPBT</p>","","","","","","","","",""
"html-keyboard-response","104","163997","0.0-10.0-0.15","5fd2416e5061f30735e202e9","650c16f0f2faf8d7a0d14c09","651c1cd7c73b6eea8fa971fd","null","null","<p style=""font-size: 60px; font-family: BACS"">cuOJbkam</p>","","","","","","","","",""
"html-keyboard-response","105","165005","0.0-10.0-0.16","5fd2416e5061f30735e202e9","650c16f0f2faf8d7a0d14c09","651c1cd7c73b6eea8fa971fd","null","null","<p style=""font-size: 60px; font-family: BACS"">bRABtTRkY</p>","","","","","","","","",""
"html-keyboard-response","106","166020","0.0-10.0-0.17","5fd2416e5061f30735e202e9","650c16f0f2faf8d7a0d14c09","651c1cd7c73b6eea8fa971fd","null","null","<p style=""font-size: 60px; font-family: BACS"">mdlaGlu</p>","","","","","","","","",""
"html-keyboard-response","107","168002","0.0-10.0-0.18","5fd2416e5061f30735e202e9","650c16f0f2faf8d7a0d14c09","651c1cd7c73b6eea8fa971fd","null","null","<p style=""font-size: 60px; font-family: BACS"">bcbMTRkY</p>","","","","","","","","",""
"html-keyboard-response","108","169996","0.0-10.0-0.19","5fd2416e5061f30735e202e9","650c16f0f2faf8d7a0d14c09","651c1cd7c73b6eea8fa971fd","null","null","<p style=""font-size: 60px; font-family: BACS"">dCtMAhRKm</p>","","","","","","","","",""
"html-keyboard-response","109","171010","0.0-10.0-0.20","5fd2416e5061f30735e202e9","650c16f0f2faf8d7a0d14c09","651c1cd7c73b6eea8fa971fd","null","null","<p style=""font-size: 60px; font-family: BACS"">QbkAcGUOA</p>","","","","","","","","",""
"html-keyboard-response","110","172023","0.0-10.0-0.21","5fd2416e5061f30735e202e9","650c16f0f2faf8d7a0d14c09","651c1cd7c73b6eea8fa971fd","null","null","<p style=""font-size: 60px; font-family: BACS"">CRdBdEAO</p>","","","","","","","","",""
"html-keyboard-response","111","173034","0.0-10.0-0.22","5fd2416e5061f30735e202e9","650c16f0f2faf8d7a0d14c09","651c1cd7c73b6eea8fa971fd","null","null","<p style=""font-size: 60px; font-family: BACS"">mhtcEPBT</p>","","","","","","","","",""
"html-keyboard-response","112","174046","0.0-10.0-0.23","5fd2416e5061f30735e202e9","650c16f0f2faf8d7a0d14c09","651c1cd7c73b6eea8fa971fd","null","null","<p style=""font-size: 60px; font-family: BACS"">ukYZGlu</p>","","","","","","","","",""
"html-keyboard-response","113","175058","0.0-10.0-0.24","5fd2416e5061f30735e202e9","650c16f0f2faf8d7a0d14c09","651c1cd7c73b6eea8fa971fd","null","null","<p style=""font-size: 60px; font-family: BACS"">OkGYGUOA</p>","","","","","","","","",""
"html-keyboard-response","114","176071","0.0-10.0-0.25","5fd2416e5061f30735e202e9","650c16f0f2faf8d7a0d14c09","651c1cd7c73b6eea8fa971fd","null","null","<p style=""font-size: 60px; font-family: BACS"">BPAlmCd</p>","","","","","","","","",""
"html-keyboard-response","115","177081","0.0-10.0-0.26","5fd2416e5061f30735e202e9","650c16f0f2faf8d7a0d14c09","651c1cd7c73b6eea8fa971fd","null","null","<p style=""font-size: 60px; font-family: BACS"">hAROKEPBT</p>","","","","","","","","",""
"html-keyboard-response","116","178091","0.0-10.0-0.27","5fd2416e5061f30735e202e9","650c16f0f2faf8d7a0d14c09","651c1cd7c73b6eea8fa971fd","null","null","<p style=""font-size: 60px; font-family: BACS"">aNYmbQru</p>","","","","","","","","",""
"html-keyboard-response","117","179099","0.0-10.0-0.28","5fd2416e5061f30735e202e9","650c16f0f2faf8d7a0d14c09","651c1cd7c73b6eea8fa971fd","null","null","<p style=""font-size: 60px; font-family: BACS"">hAROKhRKm</p>","","","","","","","","",""
"html-keyboard-response","118","180102","0.0-10.0-0.29","5fd2416e5061f30735e202e9","650c16f0f2faf8d7a0d14c09","651c1cd7c73b6eea8fa971fd","null","null","<p style=""font-size: 60px; font-family: BACS"">dCtMAmCd</p>","","","","","","","","",""
"html-keyboard-response","119","181112","0.0-10.0-0.30","5fd2416e5061f30735e202e9","650c16f0f2faf8d7a0d14c09","651c1cd7c73b6eea8fa971fd","null","null","<p style=""font-size: 60px; font-family: BACS"">mdlaGUOA</p>","","","","","","","","",""
"html-keyboard-response","120","182125","0.0-10.0-0.31","5fd2416e5061f30735e202e9","650c16f0f2faf8d7a0d14c09","651c1cd7c73b6eea8fa971fd","null","null","<p style=""font-size: 60px; font-family: BACS"">OkGYUbG</p>","","","","","","","","",""
"html-keyboard-response","121","183130","0.0-10.0-0.32","5fd2416e5061f30735e202e9","650c16f0f2faf8d7a0d14c09","651c1cd7c73b6eea8fa971fd","null","null","<p style=""font-size: 60px; font-family: BACS"">dmZvmGUOA</p>","","","","","","","","",""
"html-keyboard-response","122","184139","0.0-10.0-0.33","5fd2416e5061f30735e202e9","650c16f0f2faf8d7a0d14c09","651c1cd7c73b6eea8fa971fd","null","null","<p style=""font-size: 60px; font-family: BACS"">mhtcmCd</p>","","","","","","","","",""
"html-keyboard-response","123","185145","0.0-10.0-0.34","5fd2416e5061f30735e202e9","650c16f0f2faf8d7a0d14c09","651c1cd7c73b6eea8fa971fd","null","null","<p style=""font-size: 60px; font-family: BACS"">vclYkam</p>","","","","","","","","",""
"html-keyboard-response","124","186154","0.0-10.0-0.35","5fd2416e5061f30735e202e9","650c16f0f2faf8d7a0d14c09","651c1cd7c73b6eea8fa971fd","null","null","<p style=""font-size: 60px; font-family: BACS"">hAROKTRkY</p>","","","","","","","","",""
"html-keyboard-response","125","187158","0.0-10.0-0.36","5fd2416e5061f30735e202e9","650c16f0f2faf8d7a0d14c09","651c1cd7c73b6eea8fa971fd","null","null","<p style=""font-size: 60px; font-family: BACS"">tcYbdhRKm</p>","","","","","","","","",""
"html-keyboard-response","126","188159","0.0-10.0-0.37","5fd2416e5061f30735e202e9","650c16f0f2faf8d7a0d14c09","651c1cd7c73b6eea8fa971fd","null","null","<p style=""font-size: 60px; font-family: BACS"">OkGYkam</p>","","","","","","","","",""
"html-keyboard-response","127","189163","0.0-10.0-0.38","5fd2416e5061f30735e202e9","650c16f0f2faf8d7a0d14c09","651c1cd7c73b6eea8fa971fd","null","null","<p style=""font-size: 60px; font-family: BACS"">bcbMEAO</p>","","","","","","","","",""
"html-keyboard-response","128","190173","0.0-10.0-0.39","5fd2416e5061f30735e202e9","650c16f0f2faf8d7a0d14c09","651c1cd7c73b6eea8fa971fd","null","null","<p style=""font-size: 60px; font-family: BACS"">ukYZQru</p>","","","","","","","","",""
"html-keyboard-response","129","191173","0.0-10.0-0.40","5fd2416e5061f30735e202e9","650c16f0f2faf8d7a0d14c09","651c1cd7c73b6eea8fa971fd","null","null","<p style=""font-size: 60px; font-family: BACS"">bRABtEAO</p>","","","","","","","","",""
"html-keyboard-response","130","192174","0.0-10.0-0.41","5fd2416e5061f30735e202e9","650c16f0f2faf8d7a0d14c09","651c1cd7c73b6eea8fa971fd","null","null","<p style=""font-size: 60px; font-family: BACS"">aNYmbUbG</p>","","","","","","","","",""
"html-keyboard-response","131","193177","0.0-10.0-0.42","5fd2416e5061f30735e202e9","650c16f0f2faf8d7a0d14c09","651c1cd7c73b6eea8fa971fd","null","null","<p style=""font-size: 60px; font-family: BACS"">cuOJbGlu</p>","","","","","","","","",""
"html-keyboard-response","132","194184","0.0-10.0-0.43","5fd2416e5061f30735e202e9","650c16f0f2faf8d7a0d14c09","651c1cd7c73b6eea8fa971fd","null","null","<p style=""font-size: 60px; font-family: BACS"">mdlaUbG</p>","","","","","","","","",""
"html-keyboard-response","133","195197","0.0-10.0-0.44","5fd2416e5061f30735e202e9","650c16f0f2faf8d7a0d14c09","651c1cd7c73b6eea8fa971fd","null","null","<p style=""font-size: 60px; font-family: BACS"">OkGYGlu</p>","","","","","","","","",""
"html-keyboard-response","134","196206","0.0-10.0-0.45","5fd2416e5061f30735e202e9","650c16f0f2faf8d7a0d14c09","651c1cd7c73b6eea8fa971fd","null","null","<p style=""font-size: 60px; font-family: BACS"">CRdBdmCd</p>","","","","","","","","",""
"html-keyboard-response","135","197219","0.0-10.0-0.46","5fd2416e5061f30735e202e9","650c16f0f2faf8d7a0d14c09","651c1cd7c73b6eea8fa971fd","null","null","<p style=""font-size: 60px; font-family: BACS"">NJZlUbG</p>","","","","","","","","",""
"html-keyboard-response","136","198224","0.0-10.0-0.47","5fd2416e5061f30735e202e9","650c16f0f2faf8d7a0d14c09","651c1cd7c73b6eea8fa971fd","null","null","<p style=""font-size: 60px; font-family: BACS"">tcYbdmCd</p>","","","","","","","","",""
"html-keyboard-response","137","199235","0.0-10.0-0.48","5fd2416e5061f30735e202e9","650c16f0f2faf8d7a0d14c09","651c1cd7c73b6eea8fa971fd","null","null","<p style=""font-size: 60px; font-family: BACS"">BPAlTRkY</p>","","","","","","","","",""
"html-keyboard-response","138","200248","0.0-10.0-0.49","5fd2416e5061f30735e202e9","650c16f0f2faf8d7a0d14c09","651c1cd7c73b6eea8fa971fd","null","null","<p style=""font-size: 60px; font-family: BACS"">QbkAcQru</p>","","","","","","","","",""
"html-keyboard-response","139","201263","0.0-10.0-0.50","5fd2416e5061f30735e202e9","650c16f0f2faf8d7a0d14c09","651c1cd7c73b6eea8fa971fd","null","null","<p style=""font-size: 60px; font-family: BACS"">DlDdEAO</p>","","","","","","","","",""
"html-keyboard-response","140","202270","0.0-10.0-0.51","5fd2416e5061f30735e202e9","650c16f0f2faf8d7a0d14c09","651c1cd7c73b6eea8fa971fd","null","null","<p style=""font-size: 60px; font-family: BACS"">YlCPBhRKm</p>","","","","","","","","",""
"html-keyboard-response","141","203273","0.0-10.0-0.52","5fd2416e5061f30735e202e9","650c16f0f2faf8d7a0d14c09","651c1cd7c73b6eea8fa971fd","null","null","<p style=""font-size: 60px; font-family: BACS"">NJZlGUOA</p>","","","","","","","","",""
"html-keyboard-response","142","204274","0.0-10.0-0.53","5fd2416e5061f30735e202e9","650c16f0f2faf8d7a0d14c09","651c1cd7c73b6eea8fa971fd","null","null","<p style=""font-size: 60px; font-family: BACS"">mUOcOkam</p>","","","","","","","","",""
"html-keyboard-response","143","205276","0.0-10.0-0.54","5fd2416e5061f30735e202e9","650c16f0f2faf8d7a0d14c09","651c1cd7c73b6eea8fa971fd","null","null","<p style=""font-size: 60px; font-family: BACS"">dmZvmGlu</p>","","","","","","","","",""
"html-keyboard-response","144","206291","0.0-10.0-0.55","5fd2416e5061f30735e202e9","650c16f0f2faf8d7a0d14c09","651c1cd7c73b6eea8fa971fd","null","null","<p style=""font-size: 60px; font-family: BACS"">dCtMAEAO</p>","","","","","","","","",""
"html-keyboard-response","145","207304","0.0-10.0-0.56","5fd2416e5061f30735e202e9","650c16f0f2faf8d7a0d14c09","651c1cd7c73b6eea8fa971fd","null","null","<p style=""font-size: 60px; font-family: BACS"">QbkAcUbG</p>","","","","","","","","",""
"html-keyboard-response","146","208310","0.0-10.0-0.57","5fd2416e5061f30735e202e9","650c16f0f2faf8d7a0d14c09","651c1cd7c73b6eea8fa971fd","null","null","<p style=""font-size: 60px; font-family: BACS"">YlCPBEPBT</p>","","","","","","","","",""
"html-keyboard-response","147","209321","0.0-10.0-0.58","5fd2416e5061f30735e202e9","650c16f0f2faf8d7a0d14c09","651c1cd7c73b6eea8fa971fd","null","null","<p style=""font-size: 60px; font-family: BACS"">ukYZGUOA</p>","","","","","","","","",""
"html-keyboard-response","148","210332","0.0-10.0-0.59","5fd2416e5061f30735e202e9","650c16f0f2faf8d7a0d14c09","651c1cd7c73b6eea8fa971fd","null","null","<p style=""font-size: 60px; font-family: BACS"">tcYbdTRkY</p>","","","","","","","","",""
"html-keyboard-response","149","211342","0.0-10.0-0.60","5fd2416e5061f30735e202e9","650c16f0f2faf8d7a0d14c09","651c1cd7c73b6eea8fa971fd","null","null","<p style=""font-size: 60px; font-family: BACS"">DlDdEPBT</p>","","","","","","","","",""
"html-keyboard-response","150","212356","0.0-10.0-0.61","5fd2416e5061f30735e202e9","650c16f0f2faf8d7a0d14c09","651c1cd7c73b6eea8fa971fd","null","null","<p style=""font-size: 60px; font-family: BACS"">bcbMhRKm</p>","","","","","","","","",""
"html-keyboard-response","151","213371","0.0-10.0-0.62","5fd2416e5061f30735e202e9","650c16f0f2faf8d7a0d14c09","651c1cd7c73b6eea8fa971fd","null","null","<p style=""font-size: 60px; font-family: BACS"">NJZlQru</p>","","","","","","","","",""
"html-keyboard-response","152","214384","0.0-10.0-0.63","5fd2416e5061f30735e202e9","650c16f0f2faf8d7a0d14c09","651c1cd7c73b6eea8fa971fd","null","null","<p style=""font-size: 60px; font-family: BACS"">hAROKmCd</p>","","","","","","","","",""
"html-keyboard-response","153","215394","0.0-10.0-0.64","5fd2416e5061f30735e202e9","650c16f0f2faf8d7a0d14c09","651c1cd7c73b6eea8fa971fd","null","null","<p style=""font-size: 60px; font-family: BACS"">mhtcEAO</p>","","","","","","","","",""
"html-keyboard-response","154","216396","0.0-10.0-0.65","5fd2416e5061f30735e202e9","650c16f0f2faf8d7a0d14c09","651c1cd7c73b6eea8fa971fd","null","null","<p style=""font-size: 60px; font-family: BACS"">vclYGlu</p>","","","","","","","","",""
"html-keyboard-response","155","217402","0.0-10.0-0.66","5fd2416e5061f30735e202e9","650c16f0f2faf8d7a0d14c09","651c1cd7c73b6eea8fa971fd","null","null","<p style=""font-size: 60px; font-family: BACS"">ukYZkam</p>","","","","","","","","",""
"html-keyboard-response","156","218403","0.0-10.0-0.67","5fd2416e5061f30735e202e9","650c16f0f2faf8d7a0d14c09","651c1cd7c73b6eea8fa971fd","null","null","<p style=""font-size: 60px; font-family: BACS"">bcbMEPBT</p>","","","","","","","","",""
"html-keyboard-response","157","219407","0.0-10.0-0.68","5fd2416e5061f30735e202e9","650c16f0f2faf8d7a0d14c09","651c1cd7c73b6eea8fa971fd","null","null","<p style=""font-size: 60px; font-family: BACS"">dmZvmUbG</p>","","","","","","","","",""
"html-keyboard-response","158","220423","0.0-10.0-0.69","5fd2416e5061f30735e202e9","650c16f0f2faf8d7a0d14c09","651c1cd7c73b6eea8fa971fd","null","null","<p style=""font-size: 60px; font-family: BACS"">bRABthRKm</p>","","","","","","","","",""
"html-keyboard-response","159","221432","0.0-10.0-0.70","5fd2416e5061f30735e202e9","650c16f0f2faf8d7a0d14c09","651c1cd7c73b6eea8fa971fd","null","null","<p style=""font-size: 60px; font-family: BACS"">NJZlkam</p>","","","","","","","","",""
"html-keyboard-response","160","222439","0.0-10.0-0.71","5fd2416e5061f30735e202e9","650c16f0f2faf8d7a0d14c09","651c1cd7c73b6eea8fa971fd","null","null","<p style=""font-size: 60px; font-family: BACS"">mUOcOUbG</p>","","","","","","","","",""
"html-keyboard-response","161","223450","0.0-10.0-0.72","5fd2416e5061f30735e202e9","650c16f0f2faf8d7a0d14c09","651c1cd7c73b6eea8fa971fd","null","null","<p style=""font-size: 60px; font-family: BACS"">aNYmbGUOA</p>","","","","","","","","",""
"html-keyboard-response","162","224459","0.0-10.0-0.73","5fd2416e5061f30735e202e9","650c16f0f2faf8d7a0d14c09","651c1cd7c73b6eea8fa971fd","null","null","<p style=""font-size: 60px; font-family: BACS"">vclYQru</p>","","","","","","","","",""
"html-keyboard-response","163","225460","0.0-10.0-0.74","5fd2416e5061f30735e202e9","650c16f0f2faf8d7a0d14c09","651c1cd7c73b6eea8fa971fd","null","null","<p style=""font-size: 60px; font-family: BACS"">DlDdmCd</p>","","","","","","","","",""
"html-keyboard-response","164","226466","0.0-10.0-0.75","5fd2416e5061f30735e202e9","650c16f0f2faf8d7a0d14c09","651c1cd7c73b6eea8fa971fd","null","null","<p style=""font-size: 60px; font-family: BACS"">cuOJbQru</p>","","","","","","","","",""
"html-keyboard-response","165","227475","0.0-10.0-0.76","5fd2416e5061f30735e202e9","650c16f0f2faf8d7a0d14c09","651c1cd7c73b6eea8fa971fd","null","null","<p style=""font-size: 60px; font-family: BACS"">BPAlEAO</p>","","","","","","","","",""
"html-keyboard-response","166","228490","0.0-10.0-0.77","5fd2416e5061f30735e202e9","650c16f0f2faf8d7a0d14c09","651c1cd7c73b6eea8fa971fd","null","null","<p style=""font-size: 60px; font-family: BACS"">cuOJbUbG</p>","","","","","","","","",""
"html-keyboard-response","167","229496","0.0-10.0-0.78","5fd2416e5061f30735e202e9","650c16f0f2faf8d7a0d14c09","651c1cd7c73b6eea8fa971fd","null","null","<p style=""font-size: 60px; font-family: BACS"">mhtcTRkY</p>","","","","","","","","",""
"html-keyboard-response","168","230509","0.0-10.0-0.79","5fd2416e5061f30735e202e9","650c16f0f2faf8d7a0d14c09","651c1cd7c73b6eea8fa971fd","null","null","<p style=""font-size: 60px; font-family: BACS"">CRdBdhRKm</p>","","","","","","","","",""
"html-keyboard-response","169","239650","0.0-11.0","5fd2416e5061f30735e202e9","650c16f0f2faf8d7a0d14c09","651c1cd7c73b6eea8fa971fd","9141"," ","<p>Great, you've seen the second block of words. You may now take a short break.</p>
      <p>Press the spacebar when you're ready to continue.</p>","","","","","","","","",""
"html-keyboard-response","170","240653","0.0-12.0-0.0","5fd2416e5061f30735e202e9","650c16f0f2faf8d7a0d14c09","651c1cd7c73b6eea8fa971fd","null","null","<p style=""font-size: 60px; font-family: BACS"">NJZlUbG</p>","","","","","","","","",""
"html-keyboard-response","171","241663","0.0-12.0-0.1","5fd2416e5061f30735e202e9","650c16f0f2faf8d7a0d14c09","651c1cd7c73b6eea8fa971fd","null","null","<p style=""font-size: 60px; font-family: BACS"">DlDdhRKm</p>","","","","","","","","",""
"html-keyboard-response","172","242674","0.0-12.0-0.2","5fd2416e5061f30735e202e9","650c16f0f2faf8d7a0d14c09","651c1cd7c73b6eea8fa971fd","null","null","<p style=""font-size: 60px; font-family: BACS"">mdlaGlu</p>","","","","","","","","",""
"html-keyboard-response","173","243688","0.0-12.0-0.3","5fd2416e5061f30735e202e9","650c16f0f2faf8d7a0d14c09","651c1cd7c73b6eea8fa971fd","null","null","<p style=""font-size: 60px; font-family: BACS"">CRdBdEAO</p>","","","","","","","","",""
"html-keyboard-response","174","244700","0.0-12.0-0.4","5fd2416e5061f30735e202e9","650c16f0f2faf8d7a0d14c09","651c1cd7c73b6eea8fa971fd","null","null","<p style=""font-size: 60px; font-family: BACS"">bRABthRKm</p>","","","","","","","","",""
"html-keyboard-response","175","245702","0.0-12.0-0.5","5fd2416e5061f30735e202e9","650c16f0f2faf8d7a0d14c09","651c1cd7c73b6eea8fa971fd","null","null","<p style=""font-size: 60px; font-family: BACS"">vclYGUOA</p>","","","","","","","","",""
"html-keyboard-response","176","246711","0.0-12.0-0.6","5fd2416e5061f30735e202e9","650c16f0f2faf8d7a0d14c09","651c1cd7c73b6eea8fa971fd","null","null","<p style=""font-size: 60px; font-family: BACS"">mUOcOUbG</p>","","","","","","","","",""
"html-keyboard-response","177","247726","0.0-12.0-0.7","5fd2416e5061f30735e202e9","650c16f0f2faf8d7a0d14c09","651c1cd7c73b6eea8fa971fd","null","null","<p style=""font-size: 60px; font-family: BACS"">QbkAcGUOA</p>","","","","","","","","",""
"html-keyboard-response","178","248734","0.0-12.0-0.8","5fd2416e5061f30735e202e9","650c16f0f2faf8d7a0d14c09","651c1cd7c73b6eea8fa971fd","null","null","<p style=""font-size: 60px; font-family: BACS"">DlDdEAO</p>","","","","","","","","",""
"html-keyboard-response","179","249743","0.0-12.0-0.9","5fd2416e5061f30735e202e9","650c16f0f2faf8d7a0d14c09","651c1cd7c73b6eea8fa971fd","null","null","<p style=""font-size: 60px; font-family: BACS"">NJZlkam</p>","","","","","","","","",""
"html-keyboard-response","180","250755","0.0-12.0-0.10","5fd2416e5061f30735e202e9","650c16f0f2faf8d7a0d14c09","651c1cd7c73b6eea8fa971fd","null","null","<p style=""font-size: 60px; font-family: BACS"">bRABtmCd</p>","","","","","","","","",""
"html-keyboard-response","181","251765","0.0-12.0-0.11","5fd2416e5061f30735e202e9","650c16f0f2faf8d7a0d14c09","651c1cd7c73b6eea8fa971fd","null","null","<p style=""font-size: 60px; font-family: BACS"">bcbMTRkY</p>","","","","","","","","",""
"html-keyboard-response","182","252772","0.0-12.0-0.12","5fd2416e5061f30735e202e9","650c16f0f2faf8d7a0d14c09","651c1cd7c73b6eea8fa971fd","null","null","<p style=""font-size: 60px; font-family: BACS"">dmZvmGUOA</p>","","","","","","","","",""
"html-keyboard-response","183","253784","0.0-12.0-0.13","5fd2416e5061f30735e202e9","650c16f0f2faf8d7a0d14c09","651c1cd7c73b6eea8fa971fd","null","null","<p style=""font-size: 60px; font-family: BACS"">hAROKEPBT</p>","","","","","","","","",""
"html-keyboard-response","184","254795","0.0-12.0-0.14","5fd2416e5061f30735e202e9","650c16f0f2faf8d7a0d14c09","651c1cd7c73b6eea8fa971fd","null","null","<p style=""font-size: 60px; font-family: BACS"">CRdBdmCd</p>","","","","","","","","",""
"html-keyboard-response","185","255807","0.0-12.0-0.15","5fd2416e5061f30735e202e9","650c16f0f2faf8d7a0d14c09","651c1cd7c73b6eea8fa971fd","null","null","<p style=""font-size: 60px; font-family: BACS"">bRABtEAO</p>","","","","","","","","",""
"html-keyboard-response","186","256815","0.0-12.0-0.16","5fd2416e5061f30735e202e9","650c16f0f2faf8d7a0d14c09","651c1cd7c73b6eea8fa971fd","null","null","<p style=""font-size: 60px; font-family: BACS"">cuOJbQru</p>","","","","","","","","",""
"html-keyboard-response","187","257817","0.0-12.0-0.17","5fd2416e5061f30735e202e9","650c16f0f2faf8d7a0d14c09","651c1cd7c73b6eea8fa971fd","null","null","<p style=""font-size: 60px; font-family: BACS"">NJZlGUOA</p>","","","","","","","","",""
"html-keyboard-response","188","258827","0.0-12.0-0.18","5fd2416e5061f30735e202e9","650c16f0f2faf8d7a0d14c09","651c1cd7c73b6eea8fa971fd","null","null","<p style=""font-size: 60px; font-family: BACS"">tcYbdmCd</p>","","","","","","","","",""
"html-keyboard-response","189","259838","0.0-12.0-0.19","5fd2416e5061f30735e202e9","650c16f0f2faf8d7a0d14c09","651c1cd7c73b6eea8fa971fd","null","null","<p style=""font-size: 60px; font-family: BACS"">bRABtTRkY</p>","","","","","","","","",""
"html-keyboard-response","190","260854","0.0-12.0-0.20","5fd2416e5061f30735e202e9","650c16f0f2faf8d7a0d14c09","651c1cd7c73b6eea8fa971fd","null","null","<p style=""font-size: 60px; font-family: BACS"">dmZvmUbG</p>","","","","","","","","",""
"html-keyboard-response","191","261863","0.0-12.0-0.21","5fd2416e5061f30735e202e9","650c16f0f2faf8d7a0d14c09","651c1cd7c73b6eea8fa971fd","null","null","<p style=""font-size: 60px; font-family: BACS"">ukYZGlu</p>","","","","","","","","",""
"html-keyboard-response","192","262874","0.0-12.0-0.22","5fd2416e5061f30735e202e9","650c16f0f2faf8d7a0d14c09","651c1cd7c73b6eea8fa971fd","null","null","<p style=""font-size: 60px; font-family: BACS"">hAROKhRKm</p>","","","","","","","","",""
"html-keyboard-response","193","263883","0.0-12.0-0.23","5fd2416e5061f30735e202e9","650c16f0f2faf8d7a0d14c09","651c1cd7c73b6eea8fa971fd","null","null","<p style=""font-size: 60px; font-family: BACS"">OkGYGUOA</p>","","","","","","","","",""
"html-keyboard-response","194","264892","0.0-12.0-0.24","5fd2416e5061f30735e202e9","650c16f0f2faf8d7a0d14c09","651c1cd7c73b6eea8fa971fd","null","null","<p style=""font-size: 60px; font-family: BACS"">vclYkam</p>","","","","","","","","",""
"html-keyboard-response","195","265905","0.0-12.0-0.25","5fd2416e5061f30735e202e9","650c16f0f2faf8d7a0d14c09","651c1cd7c73b6eea8fa971fd","null","null","<p style=""font-size: 60px; font-family: BACS"">YlCPBhRKm</p>","","","","","","","","",""
"html-keyboard-response","196","266915","0.0-12.0-0.26","5fd2416e5061f30735e202e9","650c16f0f2faf8d7a0d14c09","651c1cd7c73b6eea8fa971fd","null","null","<p style=""font-size: 60px; font-family: BACS"">mdlaUbG</p>","","","","","","","","",""
"html-keyboard-response","197","267924","0.0-12.0-0.27","5fd2416e5061f30735e202e9","650c16f0f2faf8d7a0d14c09","651c1cd7c73b6eea8fa971fd","null","null","<p style=""font-size: 60px; font-family: BACS"">mUOcOkam</p>","","","","","","","","",""
"html-keyboard-response","198","268940","0.0-12.0-0.28","5fd2416e5061f30735e202e9","650c16f0f2faf8d7a0d14c09","651c1cd7c73b6eea8fa971fd","null","null","<p style=""font-size: 60px; font-family: BACS"">tcYbdTRkY</p>","","","","","","","","",""
"html-keyboard-response","199","269954","0.0-12.0-0.29","5fd2416e5061f30735e202e9","650c16f0f2faf8d7a0d14c09","651c1cd7c73b6eea8fa971fd","null","null","<p style=""font-size: 60px; font-family: BACS"">bcbMEPBT</p>","","","","","","","","",""
"html-keyboard-response","200","270965","0.0-12.0-0.30","5fd2416e5061f30735e202e9","650c16f0f2faf8d7a0d14c09","651c1cd7c73b6eea8fa971fd","null","null","<p style=""font-size: 60px; font-family: BACS"">mUOcOQru</p>","","","","","","","","",""
"html-keyboard-response","201","271981","0.0-12.0-0.31","5fd2416e5061f30735e202e9","650c16f0f2faf8d7a0d14c09","651c1cd7c73b6eea8fa971fd","null","null","<p style=""font-size: 60px; font-family: BACS"">vclYGlu</p>","","","","","","","","",""
"html-keyboard-response","202","272992","0.0-12.0-0.32","5fd2416e5061f30735e202e9","650c16f0f2faf8d7a0d14c09","651c1cd7c73b6eea8fa971fd","null","null","<p style=""font-size: 60px; font-family: BACS"">mdlaGUOA</p>","","","","","","","","",""
"html-keyboard-response","203","273997","0.0-12.0-0.33","5fd2416e5061f30735e202e9","650c16f0f2faf8d7a0d14c09","651c1cd7c73b6eea8fa971fd","null","null","<p style=""font-size: 60px; font-family: BACS"">aNYmbkam</p>","","","","","","","","",""
"html-keyboard-response","204","275006","0.0-12.0-0.34","5fd2416e5061f30735e202e9","650c16f0f2faf8d7a0d14c09","651c1cd7c73b6eea8fa971fd","null","null","<p style=""font-size: 60px; font-family: BACS"">QbkAcQru</p>","","","","","","","","",""
"html-keyboard-response","205","276022","0.0-12.0-0.35","5fd2416e5061f30735e202e9","650c16f0f2faf8d7a0d14c09","651c1cd7c73b6eea8fa971fd","null","null","<p style=""font-size: 60px; font-family: BACS"">hAROKTRkY</p>","","","","","","","","",""
"html-keyboard-response","206","277030","0.0-12.0-0.36","5fd2416e5061f30735e202e9","650c16f0f2faf8d7a0d14c09","651c1cd7c73b6eea8fa971fd","null","null","<p style=""font-size: 60px; font-family: BACS"">cuOJbUbG</p>","","","","","","","","",""
"html-keyboard-response","207","278038","0.0-12.0-0.37","5fd2416e5061f30735e202e9","650c16f0f2faf8d7a0d14c09","651c1cd7c73b6eea8fa971fd","null","null","<p style=""font-size: 60px; font-family: BACS"">QbkAcGlu</p>","","","","","","","","",""
"html-keyboard-response","208","279047","0.0-12.0-0.38","5fd2416e5061f30735e202e9","650c16f0f2faf8d7a0d14c09","651c1cd7c73b6eea8fa971fd","null","null","<p style=""font-size: 60px; font-family: BACS"">mhtcEPBT</p>","","","","","","","","",""
"html-keyboard-response","209","280055","0.0-12.0-0.39","5fd2416e5061f30735e202e9","650c16f0f2faf8d7a0d14c09","651c1cd7c73b6eea8fa971fd","null","null","<p style=""font-size: 60px; font-family: BACS"">bcbMhRKm</p>","","","","","","","","",""
"html-keyboard-response","210","281062","0.0-12.0-0.40","5fd2416e5061f30735e202e9","650c16f0f2faf8d7a0d14c09","651c1cd7c73b6eea8fa971fd","null","null","<p style=""font-size: 60px; font-family: BACS"">mhtcEAO</p>","","","","","","","","",""
"html-keyboard-response","211","282072","0.0-12.0-0.41","5fd2416e5061f30735e202e9","650c16f0f2faf8d7a0d14c09","651c1cd7c73b6eea8fa971fd","null","null","<p style=""font-size: 60px; font-family: BACS"">DlDdEPBT</p>","","","","","","","","",""
"html-keyboard-response","212","283085","0.0-12.0-0.42","5fd2416e5061f30735e202e9","650c16f0f2faf8d7a0d14c09","651c1cd7c73b6eea8fa971fd","null","null","<p style=""font-size: 60px; font-family: BACS"">dCtMAhRKm</p>","","","","","","","","",""
"html-keyboard-response","213","284090","0.0-12.0-0.43","5fd2416e5061f30735e202e9","650c16f0f2faf8d7a0d14c09","651c1cd7c73b6eea8fa971fd","null","null","<p style=""font-size: 60px; font-family: BACS"">cuOJbGlu</p>","","","","","","","","",""
"html-keyboard-response","214","285103","0.0-12.0-0.44","5fd2416e5061f30735e202e9","650c16f0f2faf8d7a0d14c09","651c1cd7c73b6eea8fa971fd","null","null","<p style=""font-size: 60px; font-family: BACS"">mhtcmCd</p>","","","","","","","","",""
"html-keyboard-response","215","286109","0.0-12.0-0.45","5fd2416e5061f30735e202e9","650c16f0f2faf8d7a0d14c09","651c1cd7c73b6eea8fa971fd","null","null","<p style=""font-size: 60px; font-family: BACS"">ukYZkam</p>","","","","","","","","",""
"html-keyboard-response","216","287123","0.0-12.0-0.46","5fd2416e5061f30735e202e9","650c16f0f2faf8d7a0d14c09","651c1cd7c73b6eea8fa971fd","null","null","<p style=""font-size: 60px; font-family: BACS"">CRdBdhRKm</p>","","","","","","","","",""
"html-keyboard-response","217","288134","0.0-12.0-0.47","5fd2416e5061f30735e202e9","650c16f0f2faf8d7a0d14c09","651c1cd7c73b6eea8fa971fd","null","null","<p style=""font-size: 60px; font-family: BACS"">QbkAcUbG</p>","","","","","","","","",""
"html-keyboard-response","218","289147","0.0-12.0-0.48","5fd2416e5061f30735e202e9","650c16f0f2faf8d7a0d14c09","651c1cd7c73b6eea8fa971fd","null","null","<p style=""font-size: 60px; font-family: BACS"">dmZvmGlu</p>","","","","","","","","",""
"html-keyboard-response","219","290150","0.0-12.0-0.49","5fd2416e5061f30735e202e9","650c16f0f2faf8d7a0d14c09","651c1cd7c73b6eea8fa971fd","null","null","<p style=""font-size: 60px; font-family: BACS"">NJZlQru</p>","","","","","","","","",""
"html-keyboard-response","220","291156","0.0-12.0-0.50","5fd2416e5061f30735e202e9","650c16f0f2faf8d7a0d14c09","651c1cd7c73b6eea8fa971fd","null","null","<p style=""font-size: 60px; font-family: BACS"">YlCPBEAO</p>","","","","","","","","",""
"html-keyboard-response","221","292163","0.0-12.0-0.51","5fd2416e5061f30735e202e9","650c16f0f2faf8d7a0d14c09","651c1cd7c73b6eea8fa971fd","null","null","<p style=""font-size: 60px; font-family: BACS"">CRdBdTRkY</p>","","","","","","","","",""
"html-keyboard-response","222","293174","0.0-12.0-0.52","5fd2416e5061f30735e202e9","650c16f0f2faf8d7a0d14c09","651c1cd7c73b6eea8fa971fd","null","null","<p style=""font-size: 60px; font-family: BACS"">mUOcOGlu</p>","","","","","","","","",""
"html-keyboard-response","223","294189","0.0-12.0-0.53","5fd2416e5061f30735e202e9","650c16f0f2faf8d7a0d14c09","651c1cd7c73b6eea8fa971fd","null","null","<p style=""font-size: 60px; font-family: BACS"">aNYmbUbG</p>","","","","","","","","",""
"html-keyboard-response","224","295199","0.0-12.0-0.54","5fd2416e5061f30735e202e9","650c16f0f2faf8d7a0d14c09","651c1cd7c73b6eea8fa971fd","null","null","<p style=""font-size: 60px; font-family: BACS"">mdlaQru</p>","","","","","","","","",""
"html-keyboard-response","225","296209","0.0-12.0-0.55","5fd2416e5061f30735e202e9","650c16f0f2faf8d7a0d14c09","651c1cd7c73b6eea8fa971fd","null","null","<p style=""font-size: 60px; font-family: BACS"">OkGYUbG</p>","","","","","","","","",""
"html-keyboard-response","226","297222","0.0-12.0-0.56","5fd2416e5061f30735e202e9","650c16f0f2faf8d7a0d14c09","651c1cd7c73b6eea8fa971fd","null","null","<p style=""font-size: 60px; font-family: BACS"">bcbMEAO</p>","","","","","","","","",""
"html-keyboard-response","227","298232","0.0-12.0-0.57","5fd2416e5061f30735e202e9","650c16f0f2faf8d7a0d14c09","651c1cd7c73b6eea8fa971fd","null","null","<p style=""font-size: 60px; font-family: BACS"">vclYQru</p>","","","","","","","","",""
"html-keyboard-response","228","299240","0.0-12.0-0.58","5fd2416e5061f30735e202e9","650c16f0f2faf8d7a0d14c09","651c1cd7c73b6eea8fa971fd","null","null","<p style=""font-size: 60px; font-family: BACS"">OkGYGlu</p>","","","","","","","","",""
"html-keyboard-response","229","300255","0.0-12.0-0.59","5fd2416e5061f30735e202e9","650c16f0f2faf8d7a0d14c09","651c1cd7c73b6eea8fa971fd","null","null","<p style=""font-size: 60px; font-family: BACS"">BPAlEPBT</p>","","","","","","","","",""
"html-keyboard-response","230","301267","0.0-12.0-0.60","5fd2416e5061f30735e202e9","650c16f0f2faf8d7a0d14c09","651c1cd7c73b6eea8fa971fd","null","null","<p style=""font-size: 60px; font-family: BACS"">DlDdmCd</p>","","","","","","","","",""
"html-keyboard-response","231","302277","0.0-12.0-0.61","5fd2416e5061f30735e202e9","650c16f0f2faf8d7a0d14c09","651c1cd7c73b6eea8fa971fd","null","null","<p style=""font-size: 60px; font-family: BACS"">ukYZQru</p>","","","","","","","","",""
"html-keyboard-response","232","303288","0.0-12.0-0.62","5fd2416e5061f30735e202e9","650c16f0f2faf8d7a0d14c09","651c1cd7c73b6eea8fa971fd","null","null","<p style=""font-size: 60px; font-family: BACS"">YlCPBTRkY</p>","","","","","","","","",""
"html-keyboard-response","233","304300","0.0-12.0-0.63","5fd2416e5061f30735e202e9","650c16f0f2faf8d7a0d14c09","651c1cd7c73b6eea8fa971fd","null","null","<p style=""font-size: 60px; font-family: BACS"">dCtMAmCd</p>","","","","","","","","",""
"html-keyboard-response","234","305314","0.0-12.0-0.64","5fd2416e5061f30735e202e9","650c16f0f2faf8d7a0d14c09","651c1cd7c73b6eea8fa971fd","null","null","<p style=""font-size: 60px; font-family: BACS"">mhtcTRkY</p>","","","","","","","","",""
"html-keyboard-response","235","306322","0.0-12.0-0.65","5fd2416e5061f30735e202e9","650c16f0f2faf8d7a0d14c09","651c1cd7c73b6eea8fa971fd","null","null","<p style=""font-size: 60px; font-family: BACS"">dCtMAEAO</p>","","","","","","","","",""
"html-keyboard-response","236","307329","0.0-12.0-0.66","5fd2416e5061f30735e202e9","650c16f0f2faf8d7a0d14c09","651c1cd7c73b6eea8fa971fd","null","null","<p style=""font-size: 60px; font-family: BACS"">aNYmbGUOA</p>","","","","","","","","",""
"html-keyboard-response","237","308339","0.0-12.0-0.67","5fd2416e5061f30735e202e9","650c16f0f2faf8d7a0d14c09","651c1cd7c73b6eea8fa971fd","null","null","<p style=""font-size: 60px; font-family: BACS"">tcYbdEPBT</p>","","","","","","","","",""
"html-keyboard-response","238","309349","0.0-12.0-0.68","5fd2416e5061f30735e202e9","650c16f0f2faf8d7a0d14c09","651c1cd7c73b6eea8fa971fd","null","null","<p style=""font-size: 60px; font-family: BACS"">dmZvmkam</p>","","","","","","","","",""
"html-keyboard-response","239","310357","0.0-12.0-0.69","5fd2416e5061f30735e202e9","650c16f0f2faf8d7a0d14c09","651c1cd7c73b6eea8fa971fd","null","null","<p style=""font-size: 60px; font-family: BACS"">BPAlmCd</p>","","","","","","","","",""
"html-keyboard-response","240","311371","0.0-12.0-0.70","5fd2416e5061f30735e202e9","650c16f0f2faf8d7a0d14c09","651c1cd7c73b6eea8fa971fd","null","null","<p style=""font-size: 60px; font-family: BACS"">cuOJbkam</p>","","","","","","","","",""
"html-keyboard-response","241","312379","0.0-12.0-0.71","5fd2416e5061f30735e202e9","650c16f0f2faf8d7a0d14c09","651c1cd7c73b6eea8fa971fd","null","null","<p style=""font-size: 60px; font-family: BACS"">BPAlEAO</p>","","","","","","","","",""
"html-keyboard-response","242","313391","0.0-12.0-0.72","5fd2416e5061f30735e202e9","650c16f0f2faf8d7a0d14c09","651c1cd7c73b6eea8fa971fd","null","null","<p style=""font-size: 60px; font-family: BACS"">ukYZGUOA</p>","","","","","","","","",""
"html-keyboard-response","243","314399","0.0-12.0-0.73","5fd2416e5061f30735e202e9","650c16f0f2faf8d7a0d14c09","651c1cd7c73b6eea8fa971fd","null","null","<p style=""font-size: 60px; font-family: BACS"">aNYmbQru</p>","","","","","","","","",""
"html-keyboard-response","244","315409","0.0-12.0-0.74","5fd2416e5061f30735e202e9","650c16f0f2faf8d7a0d14c09","651c1cd7c73b6eea8fa971fd","null","null","<p style=""font-size: 60px; font-family: BACS"">YlCPBEPBT</p>","","","","","","","","",""
"html-keyboard-response","245","316422","0.0-12.0-0.75","5fd2416e5061f30735e202e9","650c16f0f2faf8d7a0d14c09","651c1cd7c73b6eea8fa971fd","null","null","<p style=""font-size: 60px; font-family: BACS"">BPAlTRkY</p>","","","","","","","","",""
"html-keyboard-response","246","317433","0.0-12.0-0.76","5fd2416e5061f30735e202e9","650c16f0f2faf8d7a0d14c09","651c1cd7c73b6eea8fa971fd","null","null","<p style=""font-size: 60px; font-family: BACS"">hAROKmCd</p>","","","","","","","","",""
"html-keyboard-response","247","318444","0.0-12.0-0.77","5fd2416e5061f30735e202e9","650c16f0f2faf8d7a0d14c09","651c1cd7c73b6eea8fa971fd","null","null","<p style=""font-size: 60px; font-family: BACS"">dCtMAEPBT</p>","","","","","","","","",""
"html-keyboard-response","248","319453","0.0-12.0-0.78","5fd2416e5061f30735e202e9","650c16f0f2faf8d7a0d14c09","651c1cd7c73b6eea8fa971fd","null","null","<p style=""font-size: 60px; font-family: BACS"">OkGYkam</p>","","","","","","","","",""
"html-keyboard-response","249","320463","0.0-12.0-0.79","5fd2416e5061f30735e202e9","650c16f0f2faf8d7a0d14c09","651c1cd7c73b6eea8fa971fd","null","null","<p style=""font-size: 60px; font-family: BACS"">tcYbdhRKm</p>","","","","","","","","",""
"html-keyboard-response","250","322091","0.0-13.0","5fd2416e5061f30735e202e9","650c16f0f2faf8d7a0d14c09","651c1cd7c73b6eea8fa971fd","1627"," ","<p>Great, you've seen the third block of words. You may now take a short break.</p>
      <p>Press the spacebar when you're ready to continue.</p>","","","","","","","","",""
"html-keyboard-response","251","323092","0.0-14.0-0.0","5fd2416e5061f30735e202e9","650c16f0f2faf8d7a0d14c09","651c1cd7c73b6eea8fa971fd","null","null","<p style=""font-size: 60px; font-family: BACS"">DlDdEAO</p>","","","","","","","","",""
"html-keyboard-response","252","324102","0.0-14.0-0.1","5fd2416e5061f30735e202e9","650c16f0f2faf8d7a0d14c09","651c1cd7c73b6eea8fa971fd","null","null","<p style=""font-size: 60px; font-family: BACS"">bRABthRKm</p>","","","","","","","","",""
"html-keyboard-response","253","325115","0.0-14.0-0.2","5fd2416e5061f30735e202e9","650c16f0f2faf8d7a0d14c09","651c1cd7c73b6eea8fa971fd","null","null","<p style=""font-size: 60px; font-family: BACS"">QbkAcGUOA</p>","","","","","","","","",""
"html-keyboard-response","254","326130","0.0-14.0-0.3","5fd2416e5061f30735e202e9","650c16f0f2faf8d7a0d14c09","651c1cd7c73b6eea8fa971fd","null","null","<p style=""font-size: 60px; font-family: BACS"">YlCPBTRkY</p>","","","","","","","","",""
"html-keyboard-response","255","327140","0.0-14.0-0.4","5fd2416e5061f30735e202e9","650c16f0f2faf8d7a0d14c09","651c1cd7c73b6eea8fa971fd","null","null","<p style=""font-size: 60px; font-family: BACS"">dmZvmGUOA</p>","","","","","","","","",""
"html-keyboard-response","256","328153","0.0-14.0-0.5","5fd2416e5061f30735e202e9","650c16f0f2faf8d7a0d14c09","651c1cd7c73b6eea8fa971fd","null","null","<p style=""font-size: 60px; font-family: BACS"">mhtcTRkY</p>","","","","","","","","",""
"html-keyboard-response","257","329165","0.0-14.0-0.6","5fd2416e5061f30735e202e9","650c16f0f2faf8d7a0d14c09","651c1cd7c73b6eea8fa971fd","null","null","<p style=""font-size: 60px; font-family: BACS"">DlDdEPBT</p>","","","","","","","","",""
"html-keyboard-response","258","330174","0.0-14.0-0.7","5fd2416e5061f30735e202e9","650c16f0f2faf8d7a0d14c09","651c1cd7c73b6eea8fa971fd","null","null","<p style=""font-size: 60px; font-family: BACS"">CRdBdTRkY</p>","","","","","","","","",""
"html-keyboard-response","259","331187","0.0-14.0-0.8","5fd2416e5061f30735e202e9","650c16f0f2faf8d7a0d14c09","651c1cd7c73b6eea8fa971fd","null","null","<p style=""font-size: 60px; font-family: BACS"">hAROKmCd</p>","","","","","","","","",""
"html-keyboard-response","260","332197","0.0-14.0-0.9","5fd2416e5061f30735e202e9","650c16f0f2faf8d7a0d14c09","651c1cd7c73b6eea8fa971fd","null","null","<p style=""font-size: 60px; font-family: BACS"">OkGYkam</p>","","","","","","","","",""
"html-keyboard-response","261","333209","0.0-14.0-0.10","5fd2416e5061f30735e202e9","650c16f0f2faf8d7a0d14c09","651c1cd7c73b6eea8fa971fd","null","null","<p style=""font-size: 60px; font-family: BACS"">dCtMAmCd</p>","","","","","","","","",""
"html-keyboard-response","262","334221","0.0-14.0-0.11","5fd2416e5061f30735e202e9","650c16f0f2faf8d7a0d14c09","651c1cd7c73b6eea8fa971fd","null","null","<p style=""font-size: 60px; font-family: BACS"">mUOcOkam</p>","","","","","","","","",""
"html-keyboard-response","263","335233","0.0-14.0-0.12","5fd2416e5061f30735e202e9","650c16f0f2faf8d7a0d14c09","651c1cd7c73b6eea8fa971fd","null","null","<p style=""font-size: 60px; font-family: BACS"">tcYbdmCd</p>","","","","","","","","",""
"html-keyboard-response","264","336240","0.0-14.0-0.13","5fd2416e5061f30735e202e9","650c16f0f2faf8d7a0d14c09","651c1cd7c73b6eea8fa971fd","null","null","<p style=""font-size: 60px; font-family: BACS"">cuOJbUbG</p>","","","","","","","","",""
"html-keyboard-response","265","337254","0.0-14.0-0.14","5fd2416e5061f30735e202e9","650c16f0f2faf8d7a0d14c09","651c1cd7c73b6eea8fa971fd","null","null","<p style=""font-size: 60px; font-family: BACS"">QbkAcQru</p>","","","","","","","","",""
"html-keyboard-response","266","338267","0.0-14.0-0.15","5fd2416e5061f30735e202e9","650c16f0f2faf8d7a0d14c09","651c1cd7c73b6eea8fa971fd","null","null","<p style=""font-size: 60px; font-family: BACS"">bcbMEAO</p>","","","","","","","","",""
"html-keyboard-response","267","339282","0.0-14.0-0.16","5fd2416e5061f30735e202e9","650c16f0f2faf8d7a0d14c09","651c1cd7c73b6eea8fa971fd","null","null","<p style=""font-size: 60px; font-family: BACS"">ukYZQru</p>","","","","","","","","",""
"html-keyboard-response","268","340283","0.0-14.0-0.17","5fd2416e5061f30735e202e9","650c16f0f2faf8d7a0d14c09","651c1cd7c73b6eea8fa971fd","null","null","<p style=""font-size: 60px; font-family: BACS"">cuOJbkam</p>","","","","","","","","",""
"html-keyboard-response","269","341287","0.0-14.0-0.18","5fd2416e5061f30735e202e9","650c16f0f2faf8d7a0d14c09","651c1cd7c73b6eea8fa971fd","null","null","<p style=""font-size: 60px; font-family: BACS"">YlCPBhRKm</p>","","","","","","","","",""
"html-keyboard-response","270","342294","0.0-14.0-0.19","5fd2416e5061f30735e202e9","650c16f0f2faf8d7a0d14c09","651c1cd7c73b6eea8fa971fd","null","null","<p style=""font-size: 60px; font-family: BACS"">ukYZGUOA</p>","","","","","","","","",""
"html-keyboard-response","271","343305","0.0-14.0-0.20","5fd2416e5061f30735e202e9","650c16f0f2faf8d7a0d14c09","651c1cd7c73b6eea8fa971fd","null","null","<p style=""font-size: 60px; font-family: BACS"">bcbMEPBT</p>","","","","","","","","",""
"html-keyboard-response","272","344315","0.0-14.0-0.21","5fd2416e5061f30735e202e9","650c16f0f2faf8d7a0d14c09","651c1cd7c73b6eea8fa971fd","null","null","<p style=""font-size: 60px; font-family: BACS"">aNYmbGUOA</p>","","","","","","","","",""
"html-keyboard-response","273","345325","0.0-14.0-0.22","5fd2416e5061f30735e202e9","650c16f0f2faf8d7a0d14c09","651c1cd7c73b6eea8fa971fd","null","null","<p style=""font-size: 60px; font-family: BACS"">DlDdmCd</p>","","","","","","","","",""
"html-keyboard-response","274","346334","0.0-14.0-0.23","5fd2416e5061f30735e202e9","650c16f0f2faf8d7a0d14c09","651c1cd7c73b6eea8fa971fd","null","null","<p style=""font-size: 60px; font-family: BACS"">NJZlGUOA</p>","","","","","","","","",""
"html-keyboard-response","275","347342","0.0-14.0-0.24","5fd2416e5061f30735e202e9","650c16f0f2faf8d7a0d14c09","651c1cd7c73b6eea8fa971fd","null","null","<p style=""font-size: 60px; font-family: BACS"">mhtcEPBT</p>","","","","","","","","",""
"html-keyboard-response","276","348350","0.0-14.0-0.25","5fd2416e5061f30735e202e9","650c16f0f2faf8d7a0d14c09","651c1cd7c73b6eea8fa971fd","null","null","<p style=""font-size: 60px; font-family: BACS"">mdlaQru</p>","","","","","","","","",""
"html-keyboard-response","277","349357","0.0-14.0-0.26","5fd2416e5061f30735e202e9","650c16f0f2faf8d7a0d14c09","651c1cd7c73b6eea8fa971fd","null","null","<p style=""font-size: 60px; font-family: BACS"">dCtMAEPBT</p>","","","","","","","","",""
"html-keyboard-response","278","350365","0.0-14.0-0.27","5fd2416e5061f30735e202e9","650c16f0f2faf8d7a0d14c09","651c1cd7c73b6eea8fa971fd","null","null","<p style=""font-size: 60px; font-family: BACS"">cuOJbGlu</p>","","","","","","","","",""
"html-keyboard-response","279","351379","0.0-14.0-0.28","5fd2416e5061f30735e202e9","650c16f0f2faf8d7a0d14c09","651c1cd7c73b6eea8fa971fd","null","null","<p style=""font-size: 60px; font-family: BACS"">tcYbdEPBT</p>","","","","","","","","",""
"html-keyboard-response","280","352386","0.0-14.0-0.29","5fd2416e5061f30735e202e9","650c16f0f2faf8d7a0d14c09","651c1cd7c73b6eea8fa971fd","null","null","<p style=""font-size: 60px; font-family: BACS"">mhtcEAO</p>","","","","","","","","",""
"html-keyboard-response","281","353397","0.0-14.0-0.30","5fd2416e5061f30735e202e9","650c16f0f2faf8d7a0d14c09","651c1cd7c73b6eea8fa971fd","null","null","<p style=""font-size: 60px; font-family: BACS"">NJZlQru</p>","","","","","","","","",""
"html-keyboard-response","282","354405","0.0-14.0-0.31","5fd2416e5061f30735e202e9","650c16f0f2faf8d7a0d14c09","651c1cd7c73b6eea8fa971fd","null","null","<p style=""font-size: 60px; font-family: BACS"">tcYbdhRKm</p>","","","","","","","","",""
"html-keyboard-response","283","355416","0.0-14.0-0.32","5fd2416e5061f30735e202e9","650c16f0f2faf8d7a0d14c09","651c1cd7c73b6eea8fa971fd","null","null","<p style=""font-size: 60px; font-family: BACS"">CRdBdEAO</p>","","","","","","","","",""
"html-keyboard-response","284","356429","0.0-14.0-0.33","5fd2416e5061f30735e202e9","650c16f0f2faf8d7a0d14c09","651c1cd7c73b6eea8fa971fd","null","null","<p style=""font-size: 60px; font-family: BACS"">dmZvmGlu</p>","","","","","","","","",""
"html-keyboard-response","285","357439","0.0-14.0-0.34","5fd2416e5061f30735e202e9","650c16f0f2faf8d7a0d14c09","651c1cd7c73b6eea8fa971fd","null","null","<p style=""font-size: 60px; font-family: BACS"">BPAlEAO</p>","","","","","","","","",""
"html-keyboard-response","286","358441","0.0-14.0-0.35","5fd2416e5061f30735e202e9","650c16f0f2faf8d7a0d14c09","651c1cd7c73b6eea8fa971fd","null","null","<p style=""font-size: 60px; font-family: BACS"">dCtMAhRKm</p>","","","","","","","","",""
"html-keyboard-response","287","359448","0.0-14.0-0.36","5fd2416e5061f30735e202e9","650c16f0f2faf8d7a0d14c09","651c1cd7c73b6eea8fa971fd","null","null","<p style=""font-size: 60px; font-family: BACS"">OkGYGUOA</p>","","","","","","","","",""
"html-keyboard-response","288","360461","0.0-14.0-0.37","5fd2416e5061f30735e202e9","650c16f0f2faf8d7a0d14c09","651c1cd7c73b6eea8fa971fd","null","null","<p style=""font-size: 60px; font-family: BACS"">hAROKTRkY</p>","","","","","","","","",""
"html-keyboard-response","289","361471","0.0-14.0-0.38","5fd2416e5061f30735e202e9","650c16f0f2faf8d7a0d14c09","651c1cd7c73b6eea8fa971fd","null","null","<p style=""font-size: 60px; font-family: BACS"">dCtMAEAO</p>","","","","","","","","",""
"html-keyboard-response","290","362486","0.0-14.0-0.39","5fd2416e5061f30735e202e9","650c16f0f2faf8d7a0d14c09","651c1cd7c73b6eea8fa971fd","null","null","<p style=""font-size: 60px; font-family: BACS"">bcbMTRkY</p>","","","","","","","","",""
"html-keyboard-response","291","363498","0.0-14.0-0.40","5fd2416e5061f30735e202e9","650c16f0f2faf8d7a0d14c09","651c1cd7c73b6eea8fa971fd","null","null","<p style=""font-size: 60px; font-family: BACS"">DlDdhRKm</p>","","","","","","","","",""
"html-keyboard-response","292","364507","0.0-14.0-0.41","5fd2416e5061f30735e202e9","650c16f0f2faf8d7a0d14c09","651c1cd7c73b6eea8fa971fd","null","null","<p style=""font-size: 60px; font-family: BACS"">dmZvmkam</p>","","","","","","","","",""
"html-keyboard-response","293","365517","0.0-14.0-0.42","5fd2416e5061f30735e202e9","650c16f0f2faf8d7a0d14c09","651c1cd7c73b6eea8fa971fd","null","null","<p style=""font-size: 60px; font-family: BACS"">BPAlEPBT</p>","","","","","","","","",""
"html-keyboard-response","294","366526","0.0-14.0-0.43","5fd2416e5061f30735e202e9","650c16f0f2faf8d7a0d14c09","651c1cd7c73b6eea8fa971fd","null","null","<p style=""font-size: 60px; font-family: BACS"">CRdBdmCd</p>","","","","","","","","",""
"html-keyboard-response","295","367538","0.0-14.0-0.44","5fd2416e5061f30735e202e9","650c16f0f2faf8d7a0d14c09","651c1cd7c73b6eea8fa971fd","null","null","<p style=""font-size: 60px; font-family: BACS"">vclYGlu</p>","","","","","","","","",""
"html-keyboard-response","296","368548","0.0-14.0-0.45","5fd2416e5061f30735e202e9","650c16f0f2faf8d7a0d14c09","651c1cd7c73b6eea8fa971fd","null","null","<p style=""font-size: 60px; font-family: BACS"">dmZvmUbG</p>","","","","","","","","",""
"html-keyboard-response","297","369557","0.0-14.0-0.46","5fd2416e5061f30735e202e9","650c16f0f2faf8d7a0d14c09","651c1cd7c73b6eea8fa971fd","null","null","<p style=""font-size: 60px; font-family: BACS"">aNYmbkam</p>","","","","","","","","",""
"html-keyboard-response","298","370568","0.0-14.0-0.47","5fd2416e5061f30735e202e9","650c16f0f2faf8d7a0d14c09","651c1cd7c73b6eea8fa971fd","null","null","<p style=""font-size: 60px; font-family: BACS"">QbkAcUbG</p>","","","","","","","","",""
"html-keyboard-response","299","371584","0.0-14.0-0.48","5fd2416e5061f30735e202e9","650c16f0f2faf8d7a0d14c09","651c1cd7c73b6eea8fa971fd","null","null","<p style=""font-size: 60px; font-family: BACS"">BPAlmCd</p>","","","","","","","","",""
"html-keyboard-response","300","372595","0.0-14.0-0.49","5fd2416e5061f30735e202e9","650c16f0f2faf8d7a0d14c09","651c1cd7c73b6eea8fa971fd","null","null","<p style=""font-size: 60px; font-family: BACS"">bRABtEAO</p>","","","","","","","","",""
"html-keyboard-response","301","373595","0.0-14.0-0.50","5fd2416e5061f30735e202e9","650c16f0f2faf8d7a0d14c09","651c1cd7c73b6eea8fa971fd","null","null","<p style=""font-size: 60px; font-family: BACS"">NJZlUbG</p>","","","","","","","","",""
"html-keyboard-response","302","374596","0.0-14.0-0.51","5fd2416e5061f30735e202e9","650c16f0f2faf8d7a0d14c09","651c1cd7c73b6eea8fa971fd","null","null","<p style=""font-size: 60px; font-family: BACS"">bcbMhRKm</p>","","","","","","","","",""
"html-keyboard-response","303","375601","0.0-14.0-0.52","5fd2416e5061f30735e202e9","650c16f0f2faf8d7a0d14c09","651c1cd7c73b6eea8fa971fd","null","null","<p style=""font-size: 60px; font-family: BACS"">QbkAcGlu</p>","","","","","","","","",""
"html-keyboard-response","304","376613","0.0-14.0-0.53","5fd2416e5061f30735e202e9","650c16f0f2faf8d7a0d14c09","651c1cd7c73b6eea8fa971fd","null","null","<p style=""font-size: 60px; font-family: BACS"">aNYmbUbG</p>","","","","","","","","",""
"html-keyboard-response","305","377629","0.0-14.0-0.54","5fd2416e5061f30735e202e9","650c16f0f2faf8d7a0d14c09","651c1cd7c73b6eea8fa971fd","null","null","<p style=""font-size: 60px; font-family: BACS"">hAROKhRKm</p>","","","","","","","","",""
"html-keyboard-response","306","378641","0.0-14.0-0.55","5fd2416e5061f30735e202e9","650c16f0f2faf8d7a0d14c09","651c1cd7c73b6eea8fa971fd","null","null","<p style=""font-size: 60px; font-family: BACS"">mUOcOQru</p>","","","","","","","","",""
"html-keyboard-response","307","379654","0.0-14.0-0.56","5fd2416e5061f30735e202e9","650c16f0f2faf8d7a0d14c09","651c1cd7c73b6eea8fa971fd","null","null","<p style=""font-size: 60px; font-family: BACS"">CRdBdhRKm</p>","","","","","","","","",""
"html-keyboard-response","308","380669","0.0-14.0-0.57","5fd2416e5061f30735e202e9","650c16f0f2faf8d7a0d14c09","651c1cd7c73b6eea8fa971fd","null","null","<p style=""font-size: 60px; font-family: BACS"">mUOcOGlu</p>","","","","","","","","",""
"html-keyboard-response","309","381677","0.0-14.0-0.58","5fd2416e5061f30735e202e9","650c16f0f2faf8d7a0d14c09","651c1cd7c73b6eea8fa971fd","null","null","<p style=""font-size: 60px; font-family: BACS"">aNYmbQru</p>","","","","","","","","",""
"html-keyboard-response","310","382679","0.0-14.0-0.59","5fd2416e5061f30735e202e9","650c16f0f2faf8d7a0d14c09","651c1cd7c73b6eea8fa971fd","null","null","<p style=""font-size: 60px; font-family: BACS"">vclYGUOA</p>","","","","","","","","",""
"html-keyboard-response","311","383689","0.0-14.0-0.60","5fd2416e5061f30735e202e9","650c16f0f2faf8d7a0d14c09","651c1cd7c73b6eea8fa971fd","null","null","<p style=""font-size: 60px; font-family: BACS"">mUOcOUbG</p>","","","","","","","","",""
"html-keyboard-response","312","384697","0.0-14.0-0.61","5fd2416e5061f30735e202e9","650c16f0f2faf8d7a0d14c09","651c1cd7c73b6eea8fa971fd","null","null","<p style=""font-size: 60px; font-family: BACS"">vclYkam</p>","","","","","","","","",""
"html-keyboard-response","313","385710","0.0-14.0-0.62","5fd2416e5061f30735e202e9","650c16f0f2faf8d7a0d14c09","651c1cd7c73b6eea8fa971fd","null","null","<p style=""font-size: 60px; font-family: BACS"">bRABtmCd</p>","","","","","","","","",""
"html-keyboard-response","314","386723","0.0-14.0-0.63","5fd2416e5061f30735e202e9","650c16f0f2faf8d7a0d14c09","651c1cd7c73b6eea8fa971fd","null","null","<p style=""font-size: 60px; font-family: BACS"">YlCPBEAO</p>","","","","","","","","",""
"html-keyboard-response","315","387736","0.0-14.0-0.64","5fd2416e5061f30735e202e9","650c16f0f2faf8d7a0d14c09","651c1cd7c73b6eea8fa971fd","null","null","<p style=""font-size: 60px; font-family: BACS"">tcYbdTRkY</p>","","","","","","","","",""
"html-keyboard-response","316","388748","0.0-14.0-0.65","5fd2416e5061f30735e202e9","650c16f0f2faf8d7a0d14c09","651c1cd7c73b6eea8fa971fd","null","null","<p style=""font-size: 60px; font-family: BACS"">ukYZkam</p>","","","","","","","","",""
"html-keyboard-response","317","389758","0.0-14.0-0.66","5fd2416e5061f30735e202e9","650c16f0f2faf8d7a0d14c09","651c1cd7c73b6eea8fa971fd","null","null","<p style=""font-size: 60px; font-family: BACS"">BPAlTRkY</p>","","","","","","","","",""
"html-keyboard-response","318","390769","0.0-14.0-0.67","5fd2416e5061f30735e202e9","650c16f0f2faf8d7a0d14c09","651c1cd7c73b6eea8fa971fd","null","null","<p style=""font-size: 60px; font-family: BACS"">mdlaGlu</p>","","","","","","","","",""
"html-keyboard-response","319","391776","0.0-14.0-0.68","5fd2416e5061f30735e202e9","650c16f0f2faf8d7a0d14c09","651c1cd7c73b6eea8fa971fd","null","null","<p style=""font-size: 60px; font-family: BACS"">YlCPBEPBT</p>","","","","","","","","",""
"html-keyboard-response","320","392784","0.0-14.0-0.69","5fd2416e5061f30735e202e9","650c16f0f2faf8d7a0d14c09","651c1cd7c73b6eea8fa971fd","null","null","<p style=""font-size: 60px; font-family: BACS"">OkGYGlu</p>","","","","","","","","",""
"html-keyboard-response","321","393798","0.0-14.0-0.70","5fd2416e5061f30735e202e9","650c16f0f2faf8d7a0d14c09","651c1cd7c73b6eea8fa971fd","null","null","<p style=""font-size: 60px; font-family: BACS"">mdlaGUOA</p>","","","","","","","","",""
"html-keyboard-response","322","394811","0.0-14.0-0.71","5fd2416e5061f30735e202e9","650c16f0f2faf8d7a0d14c09","651c1cd7c73b6eea8fa971fd","null","null","<p style=""font-size: 60px; font-family: BACS"">bRABtTRkY</p>","","","","","","","","",""
"html-keyboard-response","323","395824","0.0-14.0-0.72","5fd2416e5061f30735e202e9","650c16f0f2faf8d7a0d14c09","651c1cd7c73b6eea8fa971fd","null","null","<p style=""font-size: 60px; font-family: BACS"">mdlaUbG</p>","","","","","","","","",""
"html-keyboard-response","324","396829","0.0-14.0-0.73","5fd2416e5061f30735e202e9","650c16f0f2faf8d7a0d14c09","651c1cd7c73b6eea8fa971fd","null","null","<p style=""font-size: 60px; font-family: BACS"">NJZlkam</p>","","","","","","","","",""
"html-keyboard-response","325","397839","0.0-14.0-0.74","5fd2416e5061f30735e202e9","650c16f0f2faf8d7a0d14c09","651c1cd7c73b6eea8fa971fd","null","null","<p style=""font-size: 60px; font-family: BACS"">vclYQru</p>","","","","","","","","",""
"html-keyboard-response","326","398849","0.0-14.0-0.75","5fd2416e5061f30735e202e9","650c16f0f2faf8d7a0d14c09","651c1cd7c73b6eea8fa971fd","null","null","<p style=""font-size: 60px; font-family: BACS"">hAROKEPBT</p>","","","","","","","","",""
"html-keyboard-response","327","399865","0.0-14.0-0.76","5fd2416e5061f30735e202e9","650c16f0f2faf8d7a0d14c09","651c1cd7c73b6eea8fa971fd","null","null","<p style=""font-size: 60px; font-family: BACS"">mhtcmCd</p>","","","","","","","","",""
"html-keyboard-response","328","400875","0.0-14.0-0.77","5fd2416e5061f30735e202e9","650c16f0f2faf8d7a0d14c09","651c1cd7c73b6eea8fa971fd","null","null","<p style=""font-size: 60px; font-family: BACS"">ukYZGlu</p>","","","","","","","","",""
"html-keyboard-response","329","401885","0.0-14.0-0.78","5fd2416e5061f30735e202e9","650c16f0f2faf8d7a0d14c09","651c1cd7c73b6eea8fa971fd","null","null","<p style=""font-size: 60px; font-family: BACS"">OkGYUbG</p>","","","","","","","","",""
"html-keyboard-response","330","402895","0.0-14.0-0.79","5fd2416e5061f30735e202e9","650c16f0f2faf8d7a0d14c09","651c1cd7c73b6eea8fa971fd","null","null","<p style=""font-size: 60px; font-family: BACS"">cuOJbQru</p>","","","","","","","","",""
"html-keyboard-response","331","404721","0.0-15.0","5fd2416e5061f30735e202e9","650c16f0f2faf8d7a0d14c09","651c1cd7c73b6eea8fa971fd","1826"," ","<p>Great, you've seen the fourth block of words. You may now take a short break.</p>
      <p>Press the spacebar when you're ready to continue.</p>","","","","","","","","",""
"html-keyboard-response","332","405735","0.0-16.0-0.0","5fd2416e5061f30735e202e9","650c16f0f2faf8d7a0d14c09","651c1cd7c73b6eea8fa971fd","null","null","<p style=""font-size: 60px; font-family: BACS"">CRdBdEAO</p>","","","","","","","","",""
"html-keyboard-response","333","406741","0.0-16.0-0.1","5fd2416e5061f30735e202e9","650c16f0f2faf8d7a0d14c09","651c1cd7c73b6eea8fa971fd","null","null","<p style=""font-size: 60px; font-family: BACS"">CRdBdEAO</p>","","","","","","","","",""
"html-keyboard-response","334","407750","0.0-16.0-0.2","5fd2416e5061f30735e202e9","650c16f0f2faf8d7a0d14c09","651c1cd7c73b6eea8fa971fd","null","null","<p style=""font-size: 60px; font-family: BACS"">CRdBdEAO</p>","","","","","","","","",""
"html-keyboard-response","335","408759","0.0-16.0-0.3","5fd2416e5061f30735e202e9","650c16f0f2faf8d7a0d14c09","651c1cd7c73b6eea8fa971fd","null","null","<p style=""font-size: 60px; font-family: BACS"">CRdBdEAO</p>","","","","","","","","",""
"html-keyboard-response","336","409768","0.0-16.0-0.4","5fd2416e5061f30735e202e9","650c16f0f2faf8d7a0d14c09","651c1cd7c73b6eea8fa971fd","null","null","<p style=""font-size: 60px; font-family: BACS"">CRdBdEAO</p>","","","","","","","","",""
"html-keyboard-response","337","410780","0.0-16.0-0.5","5fd2416e5061f30735e202e9","650c16f0f2faf8d7a0d14c09","651c1cd7c73b6eea8fa971fd","null","null","<p style=""font-size: 60px; font-family: BACS"">CRdBdEAO</p>","","","","","","","","",""
"html-keyboard-response","338","411795","0.0-16.0-0.6","5fd2416e5061f30735e202e9","650c16f0f2faf8d7a0d14c09","651c1cd7c73b6eea8fa971fd","null","null","<p style=""font-size: 60px; font-family: BACS"">CRdBdEAO</p>","","","","","","","","",""
"html-keyboard-response","339","412805","0.0-16.0-0.7","5fd2416e5061f30735e202e9","650c16f0f2faf8d7a0d14c09","651c1cd7c73b6eea8fa971fd","null","null","<p style=""font-size: 60px; font-family: BACS"">CRdBdEAO</p>","","","","","","","","",""
"html-keyboard-response","340","413816","0.0-16.0-0.8","5fd2416e5061f30735e202e9","650c16f0f2faf8d7a0d14c09","651c1cd7c73b6eea8fa971fd","null","null","<p style=""font-size: 60px; font-family: BACS"">CRdBdEAO</p>","","","","","","","","",""
"html-keyboard-response","341","414826","0.0-16.0-0.9","5fd2416e5061f30735e202e9","650c16f0f2faf8d7a0d14c09","651c1cd7c73b6eea8fa971fd","null","null","<p style=""font-size: 60px; font-family: BACS"">CRdBdEAO</p>","","","","","","","","",""
"html-keyboard-response","342","415833","0.0-16.0-0.10","5fd2416e5061f30735e202e9","650c16f0f2faf8d7a0d14c09","651c1cd7c73b6eea8fa971fd","null","null","<p style=""font-size: 60px; font-family: BACS"">CRdBdEAO</p>","","","","","","","","",""
"html-keyboard-response","343","416846","0.0-16.0-0.11","5fd2416e5061f30735e202e9","650c16f0f2faf8d7a0d14c09","651c1cd7c73b6eea8fa971fd","null","null","<p style=""font-size: 60px; font-family: BACS"">CRdBdEAO</p>","","","","","","","","",""
"html-keyboard-response","344","417861","0.0-16.0-0.12","5fd2416e5061f30735e202e9","650c16f0f2faf8d7a0d14c09","651c1cd7c73b6eea8fa971fd","null","null","<p style=""font-size: 60px; font-family: BACS"">CRdBdEAO</p>","","","","","","","","",""
"html-keyboard-response","345","418876","0.0-16.0-0.13","5fd2416e5061f30735e202e9","650c16f0f2faf8d7a0d14c09","651c1cd7c73b6eea8fa971fd","null","null","<p style=""font-size: 60px; font-family: BACS"">CRdBdEAO</p>","","","","","","","","",""
"html-keyboard-response","346","419889","0.0-16.0-0.14","5fd2416e5061f30735e202e9","650c16f0f2faf8d7a0d14c09","651c1cd7c73b6eea8fa971fd","null","null","<p style=""font-size: 60px; font-family: BACS"">CRdBdEAO</p>","","","","","","","","",""
"html-keyboard-response","347","420904","0.0-16.0-0.15","5fd2416e5061f30735e202e9","650c16f0f2faf8d7a0d14c09","651c1cd7c73b6eea8fa971fd","null","null","<p style=""font-size: 60px; font-family: BACS"">CRdBdEAO</p>","","","","","","","","",""
"html-keyboard-response","348","421919","0.0-16.0-0.16","5fd2416e5061f30735e202e9","650c16f0f2faf8d7a0d14c09","651c1cd7c73b6eea8fa971fd","null","null","<p style=""font-size: 60px; font-family: BACS"">CRdBdEAO</p>","","","","","","","","",""
"html-keyboard-response","349","422932","0.0-16.0-0.17","5fd2416e5061f30735e202e9","650c16f0f2faf8d7a0d14c09","651c1cd7c73b6eea8fa971fd","null","null","<p style=""font-size: 60px; font-family: BACS"">CRdBdEAO</p>","","","","","","","","",""
"html-keyboard-response","350","423939","0.0-16.0-0.18","5fd2416e5061f30735e202e9","650c16f0f2faf8d7a0d14c09","651c1cd7c73b6eea8fa971fd","null","null","<p style=""font-size: 60px; font-family: BACS"">CRdBdEAO</p>","","","","","","","","",""
"html-keyboard-response","351","424949","0.0-16.0-0.19","5fd2416e5061f30735e202e9","650c16f0f2faf8d7a0d14c09","651c1cd7c73b6eea8fa971fd","null","null","<p style=""font-size: 60px; font-family: BACS"">CRdBdEAO</p>","","","","","","","","",""
"html-keyboard-response","352","425958","0.0-16.0-0.20","5fd2416e5061f30735e202e9","650c16f0f2faf8d7a0d14c09","651c1cd7c73b6eea8fa971fd","null","null","<p style=""font-size: 60px; font-family: BACS"">CRdBdEAO</p>","","","","","","","","",""
"html-keyboard-response","353","426970","0.0-16.0-0.21","5fd2416e5061f30735e202e9","650c16f0f2faf8d7a0d14c09","651c1cd7c73b6eea8fa971fd","null","null","<p style=""font-size: 60px; font-family: BACS"">CRdBdEAO</p>","","","","","","","","",""
"html-keyboard-response","354","427980","0.0-16.0-0.22","5fd2416e5061f30735e202e9","650c16f0f2faf8d7a0d14c09","651c1cd7c73b6eea8fa971fd","null","null","<p style=""font-size: 60px; font-family: BACS"">CRdBdEAO</p>","","","","","","","","",""
"html-keyboard-response","355","428993","0.0-16.0-0.23","5fd2416e5061f30735e202e9","650c16f0f2faf8d7a0d14c09","651c1cd7c73b6eea8fa971fd","null","null","<p style=""font-size: 60px; font-family: BACS"">CRdBdEAO</p>","","","","","","","","",""
"html-keyboard-response","356","430006","0.0-16.0-0.24","5fd2416e5061f30735e202e9","650c16f0f2faf8d7a0d14c09","651c1cd7c73b6eea8fa971fd","null","null","<p style=""font-size: 60px; font-family: BACS"">CRdBdEAO</p>","","","","","","","","",""
"html-keyboard-response","357","431018","0.0-16.0-0.25","5fd2416e5061f30735e202e9","650c16f0f2faf8d7a0d14c09","651c1cd7c73b6eea8fa971fd","null","null","<p style=""font-size: 60px; font-family: BACS"">CRdBdEAO</p>","","","","","","","","",""
"html-keyboard-response","358","432025","0.0-16.0-0.26","5fd2416e5061f30735e202e9","650c16f0f2faf8d7a0d14c09","651c1cd7c73b6eea8fa971fd","null","null","<p style=""font-size: 60px; font-family: BACS"">CRdBdEAO</p>","","","","","","","","",""
"html-keyboard-response","359","433034","0.0-16.0-0.27","5fd2416e5061f30735e202e9","650c16f0f2faf8d7a0d14c09","651c1cd7c73b6eea8fa971fd","null","null","<p style=""font-size: 60px; font-family: BACS"">CRdBdEAO</p>","","","","","","","","",""
"html-keyboard-response","360","434045","0.0-16.0-0.28","5fd2416e5061f30735e202e9","650c16f0f2faf8d7a0d14c09","651c1cd7c73b6eea8fa971fd","null","null","<p style=""font-size: 60px; font-family: BACS"">CRdBdEAO</p>","","","","","","","","",""
"html-keyboard-response","361","435046","0.0-16.0-0.29","5fd2416e5061f30735e202e9","650c16f0f2faf8d7a0d14c09","651c1cd7c73b6eea8fa971fd","null","null","<p style=""font-size: 60px; font-family: BACS"">CRdBdEAO</p>","","","","","","","","",""
"html-keyboard-response","362","436055","0.0-16.0-0.30","5fd2416e5061f30735e202e9","650c16f0f2faf8d7a0d14c09","651c1cd7c73b6eea8fa971fd","null","null","<p style=""font-size: 60px; font-family: BACS"">CRdBdEAO</p>","","","","","","","","",""
"html-keyboard-response","363","437063","0.0-16.0-0.31","5fd2416e5061f30735e202e9","650c16f0f2faf8d7a0d14c09","651c1cd7c73b6eea8fa971fd","null","null","<p style=""font-size: 60px; font-family: BACS"">CRdBdEAO</p>","","","","","","","","",""
"html-keyboard-response","364","438073","0.0-16.0-0.32","5fd2416e5061f30735e202e9","650c16f0f2faf8d7a0d14c09","651c1cd7c73b6eea8fa971fd","null","null","<p style=""font-size: 60px; font-family: BACS"">CRdBdEAO</p>","","","","","","","","",""
"html-keyboard-response","365","439084","0.0-16.0-0.33","5fd2416e5061f30735e202e9","650c16f0f2faf8d7a0d14c09","651c1cd7c73b6eea8fa971fd","null","null","<p style=""font-size: 60px; font-family: BACS"">CRdBdEAO</p>","","","","","","","","",""
"html-keyboard-response","366","440090","0.0-16.0-0.34","5fd2416e5061f30735e202e9","650c16f0f2faf8d7a0d14c09","651c1cd7c73b6eea8fa971fd","null","null","<p style=""font-size: 60px; font-family: BACS"">CRdBdEAO</p>","","","","","","","","",""
"html-keyboard-response","367","441099","0.0-16.0-0.35","5fd2416e5061f30735e202e9","650c16f0f2faf8d7a0d14c09","651c1cd7c73b6eea8fa971fd","null","null","<p style=""font-size: 60px; font-family: BACS"">CRdBdEAO</p>","","","","","","","","",""
"html-keyboard-response","368","442114","0.0-16.0-0.36","5fd2416e5061f30735e202e9","650c16f0f2faf8d7a0d14c09","651c1cd7c73b6eea8fa971fd","null","null","<p style=""font-size: 60px; font-family: BACS"">CRdBdEAO</p>","","","","","","","","",""
"html-keyboard-response","369","443120","0.0-16.0-0.37","5fd2416e5061f30735e202e9","650c16f0f2faf8d7a0d14c09","651c1cd7c73b6eea8fa971fd","null","null","<p style=""font-size: 60px; font-family: BACS"">CRdBdEAO</p>","","","","","","","","",""
"html-keyboard-response","370","444126","0.0-16.0-0.38","5fd2416e5061f30735e202e9","650c16f0f2faf8d7a0d14c09","651c1cd7c73b6eea8fa971fd","null","null","<p style=""font-size: 60px; font-family: BACS"">CRdBdEAO</p>","","","","","","","","",""
"html-keyboard-response","371","445138","0.0-16.0-0.39","5fd2416e5061f30735e202e9","650c16f0f2faf8d7a0d14c09","651c1cd7c73b6eea8fa971fd","null","null","<p style=""font-size: 60px; font-family: BACS"">CRdBdEAO</p>","","","","","","","","",""
"html-keyboard-response","372","446149","0.0-16.0-0.40","5fd2416e5061f30735e202e9","650c16f0f2faf8d7a0d14c09","651c1cd7c73b6eea8fa971fd","null","null","<p style=""font-size: 60px; font-family: BACS"">CRdBdEAO</p>","","","","","","","","",""
"html-keyboard-response","373","447162","0.0-16.0-0.41","5fd2416e5061f30735e202e9","650c16f0f2faf8d7a0d14c09","651c1cd7c73b6eea8fa971fd","null","null","<p style=""font-size: 60px; font-family: BACS"">CRdBdEAO</p>","","","","","","","","",""
"html-keyboard-response","374","448176","0.0-16.0-0.42","5fd2416e5061f30735e202e9","650c16f0f2faf8d7a0d14c09","651c1cd7c73b6eea8fa971fd","null","null","<p style=""font-size: 60px; font-family: BACS"">CRdBdEAO</p>","","","","","","","","",""
"html-keyboard-response","375","449189","0.0-16.0-0.43","5fd2416e5061f30735e202e9","650c16f0f2faf8d7a0d14c09","651c1cd7c73b6eea8fa971fd","null","null","<p style=""font-size: 60px; font-family: BACS"">CRdBdEAO</p>","","","","","","","","",""
"html-keyboard-response","376","450200","0.0-16.0-0.44","5fd2416e5061f30735e202e9","650c16f0f2faf8d7a0d14c09","651c1cd7c73b6eea8fa971fd","null","null","<p style=""font-size: 60px; font-family: BACS"">CRdBdEAO</p>","","","","","","","","",""
"html-keyboard-response","377","451201","0.0-16.0-0.45","5fd2416e5061f30735e202e9","650c16f0f2faf8d7a0d14c09","651c1cd7c73b6eea8fa971fd","null","null","<p style=""font-size: 60px; font-family: BACS"">CRdBdEAO</p>","","","","","","","","",""
"html-keyboard-response","378","452204","0.0-16.0-0.46","5fd2416e5061f30735e202e9","650c16f0f2faf8d7a0d14c09","651c1cd7c73b6eea8fa971fd","null","null","<p style=""font-size: 60px; font-family: BACS"">CRdBdEAO</p>","","","","","","","","",""
"html-keyboard-response","379","453217","0.0-16.0-0.47","5fd2416e5061f30735e202e9","650c16f0f2faf8d7a0d14c09","651c1cd7c73b6eea8fa971fd","null","null","<p style=""font-size: 60px; font-family: BACS"">CRdBdEAO</p>","","","","","","","","",""
"html-keyboard-response","380","454232","0.0-16.0-0.48","5fd2416e5061f30735e202e9","650c16f0f2faf8d7a0d14c09","651c1cd7c73b6eea8fa971fd","null","null","<p style=""font-size: 60px; font-family: BACS"">CRdBdEAO</p>","","","","","","","","",""
"html-keyboard-response","381","455237","0.0-16.0-0.49","5fd2416e5061f30735e202e9","650c16f0f2faf8d7a0d14c09","651c1cd7c73b6eea8fa971fd","null","null","<p style=""font-size: 60px; font-family: BACS"">CRdBdEAO</p>","","","","","","","","",""
"html-keyboard-response","382","456244","0.0-16.0-0.50","5fd2416e5061f30735e202e9","650c16f0f2faf8d7a0d14c09","651c1cd7c73b6eea8fa971fd","null","null","<p style=""font-size: 60px; font-family: BACS"">CRdBdEAO</p>","","","","","","","","",""
"html-keyboard-response","383","457256","0.0-16.0-0.51","5fd2416e5061f30735e202e9","650c16f0f2faf8d7a0d14c09","651c1cd7c73b6eea8fa971fd","null","null","<p style=""font-size: 60px; font-family: BACS"">CRdBdEAO</p>","","","","","","","","",""
"html-keyboard-response","384","458267","0.0-16.0-0.52","5fd2416e5061f30735e202e9","650c16f0f2faf8d7a0d14c09","651c1cd7c73b6eea8fa971fd","null","null","<p style=""font-size: 60px; font-family: BACS"">CRdBdEAO</p>","","","","","","","","",""
"html-keyboard-response","385","459280","0.0-16.0-0.53","5fd2416e5061f30735e202e9","650c16f0f2faf8d7a0d14c09","651c1cd7c73b6eea8fa971fd","null","null","<p style=""font-size: 60px; font-family: BACS"">CRdBdEAO</p>","","","","","","","","",""
"html-keyboard-response","386","460294","0.0-16.0-0.54","5fd2416e5061f30735e202e9","650c16f0f2faf8d7a0d14c09","651c1cd7c73b6eea8fa971fd","null","null","<p style=""font-size: 60px; font-family: BACS"">CRdBdEAO</p>","","","","","","","","",""
"html-keyboard-response","387","461305","0.0-16.0-0.55","5fd2416e5061f30735e202e9","650c16f0f2faf8d7a0d14c09","651c1cd7c73b6eea8fa971fd","null","null","<p style=""font-size: 60px; font-family: BACS"">CRdBdEAO</p>","","","","","","","","",""
"html-keyboard-response","388","462320","0.0-16.0-0.56","5fd2416e5061f30735e202e9","650c16f0f2faf8d7a0d14c09","651c1cd7c73b6eea8fa971fd","null","null","<p style=""font-size: 60px; font-family: BACS"">CRdBdEAO</p>","","","","","","","","",""
"html-keyboard-response","389","463329","0.0-16.0-0.57","5fd2416e5061f30735e202e9","650c16f0f2faf8d7a0d14c09","651c1cd7c73b6eea8fa971fd","null","null","<p style=""font-size: 60px; font-family: BACS"">CRdBdEAO</p>","","","","","","","","",""
"html-keyboard-response","390","464338","0.0-16.0-0.58","5fd2416e5061f30735e202e9","650c16f0f2faf8d7a0d14c09","651c1cd7c73b6eea8fa971fd","null","null","<p style=""font-size: 60px; font-family: BACS"">CRdBdEAO</p>","","","","","","","","",""
"html-keyboard-response","391","465349","0.0-16.0-0.59","5fd2416e5061f30735e202e9","650c16f0f2faf8d7a0d14c09","651c1cd7c73b6eea8fa971fd","null","null","<p style=""font-size: 60px; font-family: BACS"">CRdBdEAO</p>","","","","","","","","",""
"html-keyboard-response","392","466362","0.0-16.0-0.60","5fd2416e5061f30735e202e9","650c16f0f2faf8d7a0d14c09","651c1cd7c73b6eea8fa971fd","null","null","<p style=""font-size: 60px; font-family: BACS"">CRdBdEAO</p>","","","","","","","","",""
"html-keyboard-response","393","467372","0.0-16.0-0.61","5fd2416e5061f30735e202e9","650c16f0f2faf8d7a0d14c09","651c1cd7c73b6eea8fa971fd","null","null","<p style=""font-size: 60px; font-family: BACS"">CRdBdEAO</p>","","","","","","","","",""
"html-keyboard-response","394","468384","0.0-16.0-0.62","5fd2416e5061f30735e202e9","650c16f0f2faf8d7a0d14c09","651c1cd7c73b6eea8fa971fd","null","null","<p style=""font-size: 60px; font-family: BACS"">CRdBdEAO</p>","","","","","","","","",""
"html-keyboard-response","395","469398","0.0-16.0-0.63","5fd2416e5061f30735e202e9","650c16f0f2faf8d7a0d14c09","651c1cd7c73b6eea8fa971fd","null","null","<p style=""font-size: 60px; font-family: BACS"">CRdBdEAO</p>","","","","","","","","",""
"html-keyboard-response","396","470411","0.0-16.0-0.64","5fd2416e5061f30735e202e9","650c16f0f2faf8d7a0d14c09","651c1cd7c73b6eea8fa971fd","null","null","<p style=""font-size: 60px; font-family: BACS"">CRdBdEAO</p>","","","","","","","","",""
"html-keyboard-response","397","471416","0.0-16.0-0.65","5fd2416e5061f30735e202e9","650c16f0f2faf8d7a0d14c09","651c1cd7c73b6eea8fa971fd","null","null","<p style=""font-size: 60px; font-family: BACS"">CRdBdEAO</p>","","","","","","","","",""
"html-keyboard-response","398","472425","0.0-16.0-0.66","5fd2416e5061f30735e202e9","650c16f0f2faf8d7a0d14c09","651c1cd7c73b6eea8fa971fd","null","null","<p style=""font-size: 60px; font-family: BACS"">CRdBdEAO</p>","","","","","","","","",""
