"trial_type","trial_index","time_elapsed","internal_node_id","subject_id","study_id","session_id","rt","response","stimulus","success","item","task","correct_response","testing_condition","correct","target","confound","name","view_history"
"pavlovia","0","1047","0.0-0.0","5e283f8ad48ecf000ddd0724","650c16f0f2faf8d7a0d14c09","651c1bd13941e2daa6061e2e","","","","","","","","","","","","",""
"survey-html-form","1","13231","0.0-1.0","5e283f8ad48ecf000ddd0724","650c16f0f2faf8d7a0d14c09","651c1bd13941e2daa6061e2e","12181","{""ID"":""5e283f8ad48ecf000ddd0724""}","","","","","","","","","","",""
"html-keyboard-response","2","19998","0.0-2.0","5e283f8ad48ecf000ddd0724","650c16f0f2faf8d7a0d14c09","651c1bd13941e2daa6061e2e","6765"," ","<p style=""font-size: 15px;"">Before beginning, we ask that you read the consent information and confirm your agreement to participate in the experiment.</p>
      <p style=""font-size: 15px;""> We ask that you remember that this is a research project and that your participation is entirely voluntary. You can stop your participation at any time, without needing to provide any explanation. The study we're asking you to participate in aims at examining how readers process written words. You will be engaged in a session of apprximately 20 minutes, followed by a brief questionnaire. You will have the opportunity to take a few breaks during the experiment. You will be paid £4 for your participation, corresponding to a rate of £8/hour. While this experiment looks at cognitive faculties, this experiment doesn't constitute clinical proof of eventual pathologies.</p>
      <p style=""font-size: 15px;"">All of the information collected thanks to yours and others' participation will be held in a secure password-protected server, and will not be shared with anyone not authorised to view it. Your personal information will be kept with an arbitrary participant ID. Thanks to this data anonymity process, any researcher analysing the data won't be able to track the information back to a specific participant. Therefore, this process will make identifying you impossibile, even when results from the study will be published in scientific reviews, presented at congresses, or at any other public forum. More generally, the collected data will be treated in accordance with the laws on privacy and conformity to the Legislative Degree n. 196 ""Code regarding the protection of personal data"" of the 30th of June 2003 and to the European Regulation 2016/670 (General Data Protection Regulation - GDPR). The Data Protection Officer is Avv. Valentina Carollo, who can be contacted at the following email addresses: <a href=""mailto:dpo@sissa.it"">dpo@sissa.it</a> or <a href=""mailto:rpd@sissa.it"">rpd@sissa.it</a> - PEC: <a href=""mailto:protocollo@pec.sissa.it"">protocollo@pec.sissa.it</a>.</p>
      <p style=""font-size: 15px;""> Before expressing your consent to participate, we would like to remind you again that in case you need explanations on any aspect of the experimental procedure, the researcher is at your disposition (<a href=""mailto:aliebelt@sissa.it"">aliebelt@sissa.it</a>, <a href=""mailto:davide.crepaldi@sissa.it"">davide.crepaldi@sissa.it</a>).</p>
      <p style=""font-size: 15px;"">If you would like to download the informed consent form, you can do so here: <a href=""BASL-Informed_Consent.pdf"" download>informed consent form</a>.</p>
      <p style=""font-size: 15px;"">We ask that you press the spacebar to proceed to the consent section.</p>","","","","","","","","","",""
"survey-html-form","3","31785","0.0-3.0","5e283f8ad48ecf000ddd0724","650c16f0f2faf8d7a0d14c09","651c1bd13941e2daa6061e2e","11785","{""consent1"":""YES"",""consent2"":""YES"",""consent3"":""YES"",""consent4"":""YES"",""consent5"":""YES"",""consent6"":""YES""}","","","","","","","","","","",""
"fullscreen","4","35015","0.0-4.0","5e283f8ad48ecf000ddd0724","650c16f0f2faf8d7a0d14c09","651c1bd13941e2daa6061e2e","","","","true","","","","","","","","",""
"html-keyboard-response","5","44553","0.0-5.0","5e283f8ad48ecf000ddd0724","650c16f0f2faf8d7a0d14c09","651c1bd13941e2daa6061e2e","9536"," ","<p>Welcome, and thank you very much for your time!</p>
      <p>In this experiment, you'll be a language expert who's been asked to take a look at words that Earth has received in its first communication with aliens. Your task, in this first part of the experiment, is to pay close attention to the words you'll be shown; later, world leaders will ask you questions on what you saw. The words will be shown to you quite quickly; it seems that the aliens were in a hurry :-)</p>
      <p>Press the spacebar to continue.<p>","","","","","","","","","",""
"html-keyboard-response","6","44604","0.0-6.0","5e283f8ad48ecf000ddd0724","650c16f0f2faf8d7a0d14c09","651c1bd13941e2daa6061e2e","null","null","<p style=""font-size: 120px; font-family: BACS""> </p>","","","","","","","","","",""
"html-keyboard-response","7","50783","0.0-7.0","5e283f8ad48ecf000ddd0724","650c16f0f2faf8d7a0d14c09","651c1bd13941e2daa6061e2e","6183"," ","<p>Here is an example of the words you'll see:</p>
      <img src='esempio.png' height='400px'>
      <p>When you're ready to begin, press the spacebar.</p></div>","","","","","","","","","",""
"html-keyboard-response","8","51786","0.0-8.0-0.0","5e283f8ad48ecf000ddd0724","650c16f0f2faf8d7a0d14c09","651c1bd13941e2daa6061e2e","null","null","<p style=""font-size: 60px; font-family: BACS"">mbZlvJQ</p>","","","","","","","","","",""
"html-keyboard-response","9","52787","0.0-8.0-0.1","5e283f8ad48ecf000ddd0724","650c16f0f2faf8d7a0d14c09","651c1bd13941e2daa6061e2e","null","null","<p style=""font-size: 60px; font-family: BACS"">tcYbdcPK</p>","","","","","","","","","",""
"html-keyboard-response","10","53790","0.0-8.0-0.2","5e283f8ad48ecf000ddd0724","650c16f0f2faf8d7a0d14c09","651c1bd13941e2daa6061e2e","null","null","<p style=""font-size: 60px; font-family: BACS"">lBlEABb</p>","","","","","","","","","",""
"html-keyboard-response","11","54794","0.0-8.0-0.3","5e283f8ad48ecf000ddd0724","650c16f0f2faf8d7a0d14c09","651c1bd13941e2daa6061e2e","null","null","<p style=""font-size: 60px; font-family: BACS"">mBbKDOAK</p>","","","","","","","","","",""
"html-keyboard-response","12","55796","0.0-8.0-0.4","5e283f8ad48ecf000ddd0724","650c16f0f2faf8d7a0d14c09","651c1bd13941e2daa6061e2e","null","null","<p style=""font-size: 60px; font-family: BACS"">lRCBcPK</p>","","","","","","","","","",""
"html-keyboard-response","13","56804","0.0-8.0-0.5","5e283f8ad48ecf000ddd0724","650c16f0f2faf8d7a0d14c09","651c1bd13941e2daa6061e2e","null","null","<p style=""font-size: 60px; font-family: BACS"">hkRKTRK</p>","","","","","","","","","",""
"html-keyboard-response","14","57817","0.0-8.0-0.6","5e283f8ad48ecf000ddd0724","650c16f0f2faf8d7a0d14c09","651c1bd13941e2daa6061e2e","null","null","<p style=""font-size: 60px; font-family: BACS"">LuNZkYL</p>","","","","","","","","","",""
"html-keyboard-response","15","58826","0.0-8.0-0.7","5e283f8ad48ecf000ddd0724","650c16f0f2faf8d7a0d14c09","651c1bd13941e2daa6061e2e","null","null","<p style=""font-size: 60px; font-family: BACS"">TObCODOAK</p>","","","","","","","","","",""
"html-keyboard-response","16","59835","0.0-8.0-0.8","5e283f8ad48ecf000ddd0724","650c16f0f2faf8d7a0d14c09","651c1bd13941e2daa6061e2e","null","null","<p style=""font-size: 60px; font-family: BACS"">lBlEmhc</p>","","","","","","","","","",""
"html-keyboard-response","17","60844","0.0-8.0-0.9","5e283f8ad48ecf000ddd0724","650c16f0f2faf8d7a0d14c09","651c1bd13941e2daa6061e2e","null","null","<p style=""font-size: 60px; font-family: BACS"">PEtETRK</p>","","","","","","","","","",""
"html-keyboard-response","18","61861","0.0-8.0-0.10","5e283f8ad48ecf000ddd0724","650c16f0f2faf8d7a0d14c09","651c1bd13941e2daa6061e2e","null","null","<p style=""font-size: 60px; font-family: BACS"">bYGOZvJQ</p>","","","","","","","","","",""
"html-keyboard-response","19","62866","0.0-8.0-0.11","5e283f8ad48ecf000ddd0724","650c16f0f2faf8d7a0d14c09","651c1bd13941e2daa6061e2e","null","null","<p style=""font-size: 60px; font-family: BACS"">UJkGbadk</p>","","","","","","","","","",""
"html-keyboard-response","20","63874","0.0-8.0-0.12","5e283f8ad48ecf000ddd0724","650c16f0f2faf8d7a0d14c09","651c1bd13941e2daa6061e2e","null","null","<p style=""font-size: 60px; font-family: BACS"">hkRKDOAK</p>","","","","","","","","","",""
"html-keyboard-response","21","64877","0.0-8.0-0.13","5e283f8ad48ecf000ddd0724","650c16f0f2faf8d7a0d14c09","651c1bd13941e2daa6061e2e","null","null","<p style=""font-size: 60px; font-family: BACS"">QcladLcO</p>","","","","","","","","","",""
"html-keyboard-response","22","65885","0.0-8.0-0.14","5e283f8ad48ecf000ddd0724","650c16f0f2faf8d7a0d14c09","651c1bd13941e2daa6061e2e","null","null","<p style=""font-size: 60px; font-family: BACS"">GNAcavJQ</p>","","","","","","","","","",""
"html-keyboard-response","23","66889","0.0-8.0-0.15","5e283f8ad48ecf000ddd0724","650c16f0f2faf8d7a0d14c09","651c1bd13941e2daa6061e2e","null","null","<p style=""font-size: 60px; font-family: BACS"">tcYbdmhc</p>","","","","","","","","","",""
"html-keyboard-response","24","67896","0.0-8.0-0.16","5e283f8ad48ecf000ddd0724","650c16f0f2faf8d7a0d14c09","651c1bd13941e2daa6061e2e","null","null","<p style=""font-size: 60px; font-family: BACS"">bYGOZLcO</p>","","","","","","","","","",""
"html-keyboard-response","25","68899","0.0-8.0-0.17","5e283f8ad48ecf000ddd0724","650c16f0f2faf8d7a0d14c09","651c1bd13941e2daa6061e2e","null","null","<p style=""font-size: 60px; font-family: BACS"">TObCOmhc</p>","","","","","","","","","",""
"html-keyboard-response","26","69908","0.0-8.0-0.18","5e283f8ad48ecf000ddd0724","650c16f0f2faf8d7a0d14c09","651c1bd13941e2daa6061e2e","null","null","<p style=""font-size: 60px; font-family: BACS"">mbZlbadk</p>","","","","","","","","","",""
"html-keyboard-response","27","70917","0.0-8.0-0.19","5e283f8ad48ecf000ddd0724","650c16f0f2faf8d7a0d14c09","651c1bd13941e2daa6061e2e","null","null","<p style=""font-size: 60px; font-family: BACS"">LuNZvJQ</p>","","","","","","","","","",""
"html-keyboard-response","28","71925","0.0-8.0-0.20","5e283f8ad48ecf000ddd0724","650c16f0f2faf8d7a0d14c09","651c1bd13941e2daa6061e2e","null","null","<p style=""font-size: 60px; font-family: BACS"">KMDYtcPK</p>","","","","","","","","","",""
"html-keyboard-response","29","72927","0.0-8.0-0.21","5e283f8ad48ecf000ddd0724","650c16f0f2faf8d7a0d14c09","651c1bd13941e2daa6061e2e","null","null","<p style=""font-size: 60px; font-family: BACS"">hkRKmhc</p>","","","","","","","","","",""
"html-keyboard-response","30","73936","0.0-8.0-0.22","5e283f8ad48ecf000ddd0724","650c16f0f2faf8d7a0d14c09","651c1bd13941e2daa6061e2e","null","null","<p style=""font-size: 60px; font-family: BACS"">adkrUbG</p>","","","","","","","","","",""
"html-keyboard-response","31","74938","0.0-8.0-0.23","5e283f8ad48ecf000ddd0724","650c16f0f2faf8d7a0d14c09","651c1bd13941e2daa6061e2e","null","null","<p style=""font-size: 60px; font-family: BACS"">hkRKcPK</p>","","","","","","","","","",""
"html-keyboard-response","32","75946","0.0-8.0-0.24","5e283f8ad48ecf000ddd0724","650c16f0f2faf8d7a0d14c09","651c1bd13941e2daa6061e2e","null","null","<p style=""font-size: 60px; font-family: BACS"">cDOEBTRK</p>","","","","","","","","","",""
"html-keyboard-response","33","76962","0.0-8.0-0.25","5e283f8ad48ecf000ddd0724","650c16f0f2faf8d7a0d14c09","651c1bd13941e2daa6061e2e","null","null","<p style=""font-size: 60px; font-family: BACS"">dNZAbadk</p>","","","","","","","","","",""
"html-keyboard-response","34","77970","0.0-8.0-0.26","5e283f8ad48ecf000ddd0724","650c16f0f2faf8d7a0d14c09","651c1bd13941e2daa6061e2e","null","null","<p style=""font-size: 60px; font-family: BACS"">vmuLlLcO</p>","","","","","","","","","",""
"html-keyboard-response","35","78978","0.0-8.0-0.27","5e283f8ad48ecf000ddd0724","650c16f0f2faf8d7a0d14c09","651c1bd13941e2daa6061e2e","null","null","<p style=""font-size: 60px; font-family: BACS"">PEtEcPK</p>","","","","","","","","","",""
"html-keyboard-response","36","79980","0.0-8.0-0.28","5e283f8ad48ecf000ddd0724","650c16f0f2faf8d7a0d14c09","651c1bd13941e2daa6061e2e","null","null","<p style=""font-size: 60px; font-family: BACS"">vmuLlUbG</p>","","","","","","","","","",""
"html-keyboard-response","37","80997","0.0-8.0-0.29","5e283f8ad48ecf000ddd0724","650c16f0f2faf8d7a0d14c09","651c1bd13941e2daa6061e2e","null","null","<p style=""font-size: 60px; font-family: BACS"">dNZALcO</p>","","","","","","","","","",""
"html-keyboard-response","38","82007","0.0-8.0-0.30","5e283f8ad48ecf000ddd0724","650c16f0f2faf8d7a0d14c09","651c1bd13941e2daa6061e2e","null","null","<p style=""font-size: 60px; font-family: BACS"">PEtEmhc</p>","","","","","","","","","",""
"html-keyboard-response","39","83015","0.0-8.0-0.31","5e283f8ad48ecf000ddd0724","650c16f0f2faf8d7a0d14c09","651c1bd13941e2daa6061e2e","null","null","<p style=""font-size: 60px; font-family: BACS"">kbmZOvJQ</p>","","","","","","","","","",""
"html-keyboard-response","40","84024","0.0-8.0-0.32","5e283f8ad48ecf000ddd0724","650c16f0f2faf8d7a0d14c09","651c1bd13941e2daa6061e2e","null","null","<p style=""font-size: 60px; font-family: BACS"">BKDRYmhc</p>","","","","","","","","","",""
"html-keyboard-response","41","85027","0.0-8.0-0.33","5e283f8ad48ecf000ddd0724","650c16f0f2faf8d7a0d14c09","651c1bd13941e2daa6061e2e","null","null","<p style=""font-size: 60px; font-family: BACS"">QcladvJQ</p>","","","","","","","","","",""
"html-keyboard-response","42","86036","0.0-8.0-0.34","5e283f8ad48ecf000ddd0724","650c16f0f2faf8d7a0d14c09","651c1bd13941e2daa6061e2e","null","null","<p style=""font-size: 60px; font-family: BACS"">KMDYtTRK</p>","","","","","","","","","",""
"html-keyboard-response","43","87044","0.0-8.0-0.35","5e283f8ad48ecf000ddd0724","650c16f0f2faf8d7a0d14c09","651c1bd13941e2daa6061e2e","null","null","<p style=""font-size: 60px; font-family: BACS"">cDOEBABb</p>","","","","","","","","","",""
"html-keyboard-response","44","88053","0.0-8.0-0.36","5e283f8ad48ecf000ddd0724","650c16f0f2faf8d7a0d14c09","651c1bd13941e2daa6061e2e","null","null","<p style=""font-size: 60px; font-family: BACS"">mbZlkYL</p>","","","","","","","","","",""
"html-keyboard-response","45","89054","0.0-8.0-0.37","5e283f8ad48ecf000ddd0724","650c16f0f2faf8d7a0d14c09","651c1bd13941e2daa6061e2e","null","null","<p style=""font-size: 60px; font-family: BACS"">BKDRYcPK</p>","","","","","","","","","",""
"html-keyboard-response","46","90071","0.0-8.0-0.38","5e283f8ad48ecf000ddd0724","650c16f0f2faf8d7a0d14c09","651c1bd13941e2daa6061e2e","null","null","<p style=""font-size: 60px; font-family: BACS"">bYGOZUbG</p>","","","","","","","","","",""
"html-keyboard-response","47","91075","0.0-8.0-0.39","5e283f8ad48ecf000ddd0724","650c16f0f2faf8d7a0d14c09","651c1bd13941e2daa6061e2e","null","null","<p style=""font-size: 60px; font-family: BACS"">dNZAkYL</p>","","","","","","","","","",""
"html-keyboard-response","48","92091","0.0-8.0-0.40","5e283f8ad48ecf000ddd0724","650c16f0f2faf8d7a0d14c09","651c1bd13941e2daa6061e2e","null","null","<p style=""font-size: 60px; font-family: BACS"">TObCOABb</p>","","","","","","","","","",""
"html-keyboard-response","49","93101","0.0-8.0-0.41","5e283f8ad48ecf000ddd0724","650c16f0f2faf8d7a0d14c09","651c1bd13941e2daa6061e2e","null","null","<p style=""font-size: 60px; font-family: BACS"">adkrbadk</p>","","","","","","","","","",""
"html-keyboard-response","50","94104","0.0-8.0-0.42","5e283f8ad48ecf000ddd0724","650c16f0f2faf8d7a0d14c09","651c1bd13941e2daa6061e2e","null","null","<p style=""font-size: 60px; font-family: BACS"">cDOEBmhc</p>","","","","","","","","","",""
"html-keyboard-response","51","95107","0.0-8.0-0.43","5e283f8ad48ecf000ddd0724","650c16f0f2faf8d7a0d14c09","651c1bd13941e2daa6061e2e","null","null","<p style=""font-size: 60px; font-family: BACS"">GNAcaUbG</p>","","","","","","","","","",""
"html-keyboard-response","52","96110","0.0-8.0-0.44","5e283f8ad48ecf000ddd0724","650c16f0f2faf8d7a0d14c09","651c1bd13941e2daa6061e2e","null","null","<p style=""font-size: 60px; font-family: BACS"">TObCOTRK</p>","","","","","","","","","",""
"html-keyboard-response","53","97113","0.0-8.0-0.45","5e283f8ad48ecf000ddd0724","650c16f0f2faf8d7a0d14c09","651c1bd13941e2daa6061e2e","null","null","<p style=""font-size: 60px; font-family: BACS"">adkrkYL</p>","","","","","","","","","",""
"html-keyboard-response","54","98115","0.0-8.0-0.46","5e283f8ad48ecf000ddd0724","650c16f0f2faf8d7a0d14c09","651c1bd13941e2daa6061e2e","null","null","<p style=""font-size: 60px; font-family: BACS"">Qcladbadk</p>","","","","","","","","","",""
"html-keyboard-response","55","99124","0.0-8.0-0.47","5e283f8ad48ecf000ddd0724","650c16f0f2faf8d7a0d14c09","651c1bd13941e2daa6061e2e","null","null","<p style=""font-size: 60px; font-family: BACS"">lBlEcPK</p>","","","","","","","","","",""
"html-keyboard-response","56","100133","0.0-8.0-0.48","5e283f8ad48ecf000ddd0724","650c16f0f2faf8d7a0d14c09","651c1bd13941e2daa6061e2e","null","null","<p style=""font-size: 60px; font-family: BACS"">UJkGkYL</p>","","","","","","","","","",""
"html-keyboard-response","57","101135","0.0-8.0-0.49","5e283f8ad48ecf000ddd0724","650c16f0f2faf8d7a0d14c09","651c1bd13941e2daa6061e2e","null","null","<p style=""font-size: 60px; font-family: BACS"">adkrvJQ</p>","","","","","","","","","",""
"html-keyboard-response","58","102151","0.0-8.0-0.50","5e283f8ad48ecf000ddd0724","650c16f0f2faf8d7a0d14c09","651c1bd13941e2daa6061e2e","null","null","<p style=""font-size: 60px; font-family: BACS"">cDOEBcPK</p>","","","","","","","","","",""
"html-keyboard-response","59","103160","0.0-8.0-0.51","5e283f8ad48ecf000ddd0724","650c16f0f2faf8d7a0d14c09","651c1bd13941e2daa6061e2e","null","null","<p style=""font-size: 60px; font-family: BACS"">LuNZUbG</p>","","","","","","","","","",""
"html-keyboard-response","60","104170","0.0-8.0-0.52","5e283f8ad48ecf000ddd0724","650c16f0f2faf8d7a0d14c09","651c1bd13941e2daa6061e2e","null","null","<p style=""font-size: 60px; font-family: BACS"">GNAcakYL</p>","","","","","","","","","",""
"html-keyboard-response","61","105182","0.0-8.0-0.53","5e283f8ad48ecf000ddd0724","650c16f0f2faf8d7a0d14c09","651c1bd13941e2daa6061e2e","null","null","<p style=""font-size: 60px; font-family: BACS"">mBbKABb</p>","","","","","","","","","",""
"html-keyboard-response","62","106187","0.0-8.0-0.54","5e283f8ad48ecf000ddd0724","650c16f0f2faf8d7a0d14c09","651c1bd13941e2daa6061e2e","null","null","<p style=""font-size: 60px; font-family: BACS"">tcYbdDOAK</p>","","","","","","","","","",""
"html-keyboard-response","63","107188","0.0-8.0-0.55","5e283f8ad48ecf000ddd0724","650c16f0f2faf8d7a0d14c09","651c1bd13941e2daa6061e2e","null","null","<p style=""font-size: 60px; font-family: BACS"">bYGOZbadk</p>","","","","","","","","","",""
"html-keyboard-response","64","108191","0.0-8.0-0.56","5e283f8ad48ecf000ddd0724","650c16f0f2faf8d7a0d14c09","651c1bd13941e2daa6061e2e","null","null","<p style=""font-size: 60px; font-family: BACS"">PEtEDOAK</p>","","","","","","","","","",""
"html-keyboard-response","65","109192","0.0-8.0-0.57","5e283f8ad48ecf000ddd0724","650c16f0f2faf8d7a0d14c09","651c1bd13941e2daa6061e2e","null","null","<p style=""font-size: 60px; font-family: BACS"">tcYbdABb</p>","","","","","","","","","",""
"html-keyboard-response","66","110195","0.0-8.0-0.58","5e283f8ad48ecf000ddd0724","650c16f0f2faf8d7a0d14c09","651c1bd13941e2daa6061e2e","null","null","<p style=""font-size: 60px; font-family: BACS"">GNAcaLcO</p>","","","","","","","","","",""
"html-keyboard-response","67","111215","0.0-8.0-0.59","5e283f8ad48ecf000ddd0724","650c16f0f2faf8d7a0d14c09","651c1bd13941e2daa6061e2e","null","null","<p style=""font-size: 60px; font-family: BACS"">vmuLlbadk</p>","","","","","","","","","",""
"html-keyboard-response","68","112223","0.0-8.0-0.60","5e283f8ad48ecf000ddd0724","650c16f0f2faf8d7a0d14c09","651c1bd13941e2daa6061e2e","null","null","<p style=""font-size: 60px; font-family: BACS"">mbZlLcO</p>","","","","","","","","","",""
"html-keyboard-response","69","113226","0.0-8.0-0.61","5e283f8ad48ecf000ddd0724","650c16f0f2faf8d7a0d14c09","651c1bd13941e2daa6061e2e","null","null","<p style=""font-size: 60px; font-family: BACS"">lRCBTRK</p>","","","","","","","","","",""
"html-keyboard-response","70","114242","0.0-8.0-0.62","5e283f8ad48ecf000ddd0724","650c16f0f2faf8d7a0d14c09","651c1bd13941e2daa6061e2e","null","null","<p style=""font-size: 60px; font-family: BACS"">kbmZObadk</p>","","","","","","","","","",""
"html-keyboard-response","71","115243","0.0-8.0-0.63","5e283f8ad48ecf000ddd0724","650c16f0f2faf8d7a0d14c09","651c1bd13941e2daa6061e2e","null","null","<p style=""font-size: 60px; font-family: BACS"">mBbKmhc</p>","","","","","","","","","",""
"html-keyboard-response","72","116252","0.0-8.0-0.64","5e283f8ad48ecf000ddd0724","650c16f0f2faf8d7a0d14c09","651c1bd13941e2daa6061e2e","null","null","<p style=""font-size: 60px; font-family: BACS"">lRCBDOAK</p>","","","","","","","","","",""
"html-keyboard-response","73","117258","0.0-8.0-0.65","5e283f8ad48ecf000ddd0724","650c16f0f2faf8d7a0d14c09","651c1bd13941e2daa6061e2e","null","null","<p style=""font-size: 60px; font-family: BACS"">dNZAUbG</p>","","","","","","","","","",""
"html-keyboard-response","74","118275","0.0-8.0-0.66","5e283f8ad48ecf000ddd0724","650c16f0f2faf8d7a0d14c09","651c1bd13941e2daa6061e2e","null","null","<p style=""font-size: 60px; font-family: BACS"">kbmZOLcO</p>","","","","","","","","","",""
"html-keyboard-response","75","119284","0.0-8.0-0.67","5e283f8ad48ecf000ddd0724","650c16f0f2faf8d7a0d14c09","651c1bd13941e2daa6061e2e","null","null","<p style=""font-size: 60px; font-family: BACS"">QcladkYL</p>","","","","","","","","","",""
"html-keyboard-response","76","120295","0.0-8.0-0.68","5e283f8ad48ecf000ddd0724","650c16f0f2faf8d7a0d14c09","651c1bd13941e2daa6061e2e","null","null","<p style=""font-size: 60px; font-family: BACS"">lRCBABb</p>","","","","","","","","","",""
"html-keyboard-response","77","121303","0.0-8.0-0.69","5e283f8ad48ecf000ddd0724","650c16f0f2faf8d7a0d14c09","651c1bd13941e2daa6061e2e","null","null","<p style=""font-size: 60px; font-family: BACS"">lBlETRK</p>","","","","","","","","","",""
"html-keyboard-response","78","122304","0.0-8.0-0.70","5e283f8ad48ecf000ddd0724","650c16f0f2faf8d7a0d14c09","651c1bd13941e2daa6061e2e","null","null","<p style=""font-size: 60px; font-family: BACS"">LuNZLcO</p>","","","","","","","","","",""
"html-keyboard-response","79","123306","0.0-8.0-0.71","5e283f8ad48ecf000ddd0724","650c16f0f2faf8d7a0d14c09","651c1bd13941e2daa6061e2e","null","null","<p style=""font-size: 60px; font-family: BACS"">UJkGvJQ</p>","","","","","","","","","",""
"html-keyboard-response","80","124314","0.0-8.0-0.72","5e283f8ad48ecf000ddd0724","650c16f0f2faf8d7a0d14c09","651c1bd13941e2daa6061e2e","null","null","<p style=""font-size: 60px; font-family: BACS"">BKDRYABb</p>","","","","","","","","","",""
"html-keyboard-response","81","125324","0.0-8.0-0.73","5e283f8ad48ecf000ddd0724","650c16f0f2faf8d7a0d14c09","651c1bd13941e2daa6061e2e","null","null","<p style=""font-size: 60px; font-family: BACS"">UJkGUbG</p>","","","","","","","","","",""
"html-keyboard-response","82","126337","0.0-8.0-0.74","5e283f8ad48ecf000ddd0724","650c16f0f2faf8d7a0d14c09","651c1bd13941e2daa6061e2e","null","null","<p style=""font-size: 60px; font-family: BACS"">vmuLlkYL</p>","","","","","","","","","",""
"html-keyboard-response","83","127354","0.0-8.0-0.75","5e283f8ad48ecf000ddd0724","650c16f0f2faf8d7a0d14c09","651c1bd13941e2daa6061e2e","null","null","<p style=""font-size: 60px; font-family: BACS"">KMDYtABb</p>","","","","","","","","","",""
"html-keyboard-response","84","128356","0.0-8.0-0.76","5e283f8ad48ecf000ddd0724","650c16f0f2faf8d7a0d14c09","651c1bd13941e2daa6061e2e","null","null","<p style=""font-size: 60px; font-family: BACS"">BKDRYDOAK</p>","","","","","","","","","",""
"html-keyboard-response","85","129373","0.0-8.0-0.77","5e283f8ad48ecf000ddd0724","650c16f0f2faf8d7a0d14c09","651c1bd13941e2daa6061e2e","null","null","<p style=""font-size: 60px; font-family: BACS"">mBbKTRK</p>","","","","","","","","","",""
"html-keyboard-response","86","130383","0.0-8.0-0.78","5e283f8ad48ecf000ddd0724","650c16f0f2faf8d7a0d14c09","651c1bd13941e2daa6061e2e","null","null","<p style=""font-size: 60px; font-family: BACS"">kbmZOUbG</p>","","","","","","","","","",""
"html-keyboard-response","87","131391","0.0-8.0-0.79","5e283f8ad48ecf000ddd0724","650c16f0f2faf8d7a0d14c09","651c1bd13941e2daa6061e2e","null","null","<p style=""font-size: 60px; font-family: BACS"">KMDYtDOAK</p>","","","","","","","","","",""
"html-keyboard-response","88","137777","0.0-9.0","5e283f8ad48ecf000ddd0724","650c16f0f2faf8d7a0d14c09","651c1bd13941e2daa6061e2e","6384"," ","<p>Great, you've seen the first block of words. You may now take a short break.</p>
      <p>Press the spacebar when you're ready to continue.</p>","","","","","","","","","",""
"html-keyboard-response","89","138788","0.0-10.0-0.0","5e283f8ad48ecf000ddd0724","650c16f0f2faf8d7a0d14c09","651c1bd13941e2daa6061e2e","null","null","<p style=""font-size: 60px; font-family: BACS"">adkrbadk</p>","","","","","","","","","",""
"html-keyboard-response","90","139794","0.0-10.0-0.1","5e283f8ad48ecf000ddd0724","650c16f0f2faf8d7a0d14c09","651c1bd13941e2daa6061e2e","null","null","<p style=""font-size: 60px; font-family: BACS"">cDOEBcPK</p>","","","","","","","","","",""
"html-keyboard-response","91","140805","0.0-10.0-0.2","5e283f8ad48ecf000ddd0724","650c16f0f2faf8d7a0d14c09","651c1bd13941e2daa6061e2e","null","null","<p style=""font-size: 60px; font-family: BACS"">BKDRYABb</p>","","","","","","","","","",""
"html-keyboard-response","92","141813","0.0-10.0-0.3","5e283f8ad48ecf000ddd0724","650c16f0f2faf8d7a0d14c09","651c1bd13941e2daa6061e2e","null","null","<p style=""font-size: 60px; font-family: BACS"">vmuLlkYL</p>","","","","","","","","","",""
"html-keyboard-response","93","142823","0.0-10.0-0.4","5e283f8ad48ecf000ddd0724","650c16f0f2faf8d7a0d14c09","651c1bd13941e2daa6061e2e","null","null","<p style=""font-size: 60px; font-family: BACS"">UJkGvJQ</p>","","","","","","","","","",""
"html-keyboard-response","94","143825","0.0-10.0-0.5","5e283f8ad48ecf000ddd0724","650c16f0f2faf8d7a0d14c09","651c1bd13941e2daa6061e2e","null","null","<p style=""font-size: 60px; font-family: BACS"">vmuLlUbG</p>","","","","","","","","","",""
"html-keyboard-response","95","144834","0.0-10.0-0.6","5e283f8ad48ecf000ddd0724","650c16f0f2faf8d7a0d14c09","651c1bd13941e2daa6061e2e","null","null","<p style=""font-size: 60px; font-family: BACS"">PEtETRK</p>","","","","","","","","","",""
"html-keyboard-response","96","145846","0.0-10.0-0.7","5e283f8ad48ecf000ddd0724","650c16f0f2faf8d7a0d14c09","651c1bd13941e2daa6061e2e","null","null","<p style=""font-size: 60px; font-family: BACS"">TObCOABb</p>","","","","","","","","","",""
"html-keyboard-response","97","146855","0.0-10.0-0.8","5e283f8ad48ecf000ddd0724","650c16f0f2faf8d7a0d14c09","651c1bd13941e2daa6061e2e","null","null","<p style=""font-size: 60px; font-family: BACS"">tcYbdDOAK</p>","","","","","","","","","",""
"html-keyboard-response","98","147856","0.0-10.0-0.9","5e283f8ad48ecf000ddd0724","650c16f0f2faf8d7a0d14c09","651c1bd13941e2daa6061e2e","null","null","<p style=""font-size: 60px; font-family: BACS"">cDOEBABb</p>","","","","","","","","","",""
"html-keyboard-response","99","148865","0.0-10.0-0.10","5e283f8ad48ecf000ddd0724","650c16f0f2faf8d7a0d14c09","651c1bd13941e2daa6061e2e","null","null","<p style=""font-size: 60px; font-family: BACS"">PEtEmhc</p>","","","","","","","","","",""
"html-keyboard-response","100","149874","0.0-10.0-0.11","5e283f8ad48ecf000ddd0724","650c16f0f2faf8d7a0d14c09","651c1bd13941e2daa6061e2e","null","null","<p style=""font-size: 60px; font-family: BACS"">tcYbdcPK</p>","","","","","","","","","",""
"html-keyboard-response","101","150885","0.0-10.0-0.12","5e283f8ad48ecf000ddd0724","650c16f0f2faf8d7a0d14c09","651c1bd13941e2daa6061e2e","null","null","<p style=""font-size: 60px; font-family: BACS"">UJkGkYL</p>","","","","","","","","","",""
"html-keyboard-response","102","151895","0.0-10.0-0.13","5e283f8ad48ecf000ddd0724","650c16f0f2faf8d7a0d14c09","651c1bd13941e2daa6061e2e","null","null","<p style=""font-size: 60px; font-family: BACS"">TObCOmhc</p>","","","","","","","","","",""
"html-keyboard-response","103","152904","0.0-10.0-0.14","5e283f8ad48ecf000ddd0724","650c16f0f2faf8d7a0d14c09","651c1bd13941e2daa6061e2e","null","null","<p style=""font-size: 60px; font-family: BACS"">dNZAUbG</p>","","","","","","","","","",""
"html-keyboard-response","104","153912","0.0-10.0-0.15","5e283f8ad48ecf000ddd0724","650c16f0f2faf8d7a0d14c09","651c1bd13941e2daa6061e2e","null","null","<p style=""font-size: 60px; font-family: BACS"">QcladLcO</p>","","","","","","","","","",""
"html-keyboard-response","105","154914","0.0-10.0-0.16","5e283f8ad48ecf000ddd0724","650c16f0f2faf8d7a0d14c09","651c1bd13941e2daa6061e2e","null","null","<p style=""font-size: 60px; font-family: BACS"">lBlEmhc</p>","","","","","","","","","",""
"html-keyboard-response","106","155916","0.0-10.0-0.17","5e283f8ad48ecf000ddd0724","650c16f0f2faf8d7a0d14c09","651c1bd13941e2daa6061e2e","null","null","<p style=""font-size: 60px; font-family: BACS"">UJkGbadk</p>","","","","","","","","","",""
"html-keyboard-response","107","156920","0.0-10.0-0.18","5e283f8ad48ecf000ddd0724","650c16f0f2faf8d7a0d14c09","651c1bd13941e2daa6061e2e","null","null","<p style=""font-size: 60px; font-family: BACS"">PEtEcPK</p>","","","","","","","","","",""
"html-keyboard-response","108","157929","0.0-10.0-0.19","5e283f8ad48ecf000ddd0724","650c16f0f2faf8d7a0d14c09","651c1bd13941e2daa6061e2e","null","null","<p style=""font-size: 60px; font-family: BACS"">hkRKTRK</p>","","","","","","","","","",""
"html-keyboard-response","109","158931","0.0-10.0-0.20","5e283f8ad48ecf000ddd0724","650c16f0f2faf8d7a0d14c09","651c1bd13941e2daa6061e2e","null","null","<p style=""font-size: 60px; font-family: BACS"">dNZAkYL</p>","","","","","","","","","",""
"html-keyboard-response","110","159939","0.0-10.0-0.21","5e283f8ad48ecf000ddd0724","650c16f0f2faf8d7a0d14c09","651c1bd13941e2daa6061e2e","null","null","<p style=""font-size: 60px; font-family: BACS"">hkRKDOAK</p>","","","","","","","","","",""
"html-keyboard-response","111","160949","0.0-10.0-0.22","5e283f8ad48ecf000ddd0724","650c16f0f2faf8d7a0d14c09","651c1bd13941e2daa6061e2e","null","null","<p style=""font-size: 60px; font-family: BACS"">bYGOZvJQ</p>","","","","","","","","","",""
"html-keyboard-response","112","161957","0.0-10.0-0.23","5e283f8ad48ecf000ddd0724","650c16f0f2faf8d7a0d14c09","651c1bd13941e2daa6061e2e","null","null","<p style=""font-size: 60px; font-family: BACS"">mBbKmhc</p>","","","","","","","","","",""
"html-keyboard-response","113","162967","0.0-10.0-0.24","5e283f8ad48ecf000ddd0724","650c16f0f2faf8d7a0d14c09","651c1bd13941e2daa6061e2e","null","null","<p style=""font-size: 60px; font-family: BACS"">GNAcaLcO</p>","","","","","","","","","",""
"html-keyboard-response","114","163983","0.0-10.0-0.25","5e283f8ad48ecf000ddd0724","650c16f0f2faf8d7a0d14c09","651c1bd13941e2daa6061e2e","null","null","<p style=""font-size: 60px; font-family: BACS"">lBlEABb</p>","","","","","","","","","",""
"html-keyboard-response","115","164985","0.0-10.0-0.26","5e283f8ad48ecf000ddd0724","650c16f0f2faf8d7a0d14c09","651c1bd13941e2daa6061e2e","null","null","<p style=""font-size: 60px; font-family: BACS"">kbmZOUbG</p>","","","","","","","","","",""
"html-keyboard-response","116","165993","0.0-10.0-0.27","5e283f8ad48ecf000ddd0724","650c16f0f2faf8d7a0d14c09","651c1bd13941e2daa6061e2e","null","null","<p style=""font-size: 60px; font-family: BACS"">adkrkYL</p>","","","","","","","","","",""
"html-keyboard-response","117","167001","0.0-10.0-0.28","5e283f8ad48ecf000ddd0724","650c16f0f2faf8d7a0d14c09","651c1bd13941e2daa6061e2e","null","null","<p style=""font-size: 60px; font-family: BACS"">KMDYtDOAK</p>","","","","","","","","","",""
"html-keyboard-response","118","168010","0.0-10.0-0.29","5e283f8ad48ecf000ddd0724","650c16f0f2faf8d7a0d14c09","651c1bd13941e2daa6061e2e","null","null","<p style=""font-size: 60px; font-family: BACS"">adkrvJQ</p>","","","","","","","","","",""
"html-keyboard-response","119","169019","0.0-10.0-0.30","5e283f8ad48ecf000ddd0724","650c16f0f2faf8d7a0d14c09","651c1bd13941e2daa6061e2e","null","null","<p style=""font-size: 60px; font-family: BACS"">dNZALcO</p>","","","","","","","","","",""
"html-keyboard-response","120","170022","0.0-10.0-0.31","5e283f8ad48ecf000ddd0724","650c16f0f2faf8d7a0d14c09","651c1bd13941e2daa6061e2e","null","null","<p style=""font-size: 60px; font-family: BACS"">lBlETRK</p>","","","","","","","","","",""
"html-keyboard-response","121","171030","0.0-10.0-0.32","5e283f8ad48ecf000ddd0724","650c16f0f2faf8d7a0d14c09","651c1bd13941e2daa6061e2e","null","null","<p style=""font-size: 60px; font-family: BACS"">dNZAbadk</p>","","","","","","","","","",""
"html-keyboard-response","122","172041","0.0-10.0-0.33","5e283f8ad48ecf000ddd0724","650c16f0f2faf8d7a0d14c09","651c1bd13941e2daa6061e2e","null","null","<p style=""font-size: 60px; font-family: BACS"">mBbKABb</p>","","","","","","","","","",""
"html-keyboard-response","123","173050","0.0-10.0-0.34","5e283f8ad48ecf000ddd0724","650c16f0f2faf8d7a0d14c09","651c1bd13941e2daa6061e2e","null","null","<p style=""font-size: 60px; font-family: BACS"">kbmZOvJQ</p>","","","","","","","","","",""
"html-keyboard-response","124","174059","0.0-10.0-0.35","5e283f8ad48ecf000ddd0724","650c16f0f2faf8d7a0d14c09","651c1bd13941e2daa6061e2e","null","null","<p style=""font-size: 60px; font-family: BACS"">QcladkYL</p>","","","","","","","","","",""
"html-keyboard-response","125","175069","0.0-10.0-0.36","5e283f8ad48ecf000ddd0724","650c16f0f2faf8d7a0d14c09","651c1bd13941e2daa6061e2e","null","null","<p style=""font-size: 60px; font-family: BACS"">lRCBABb</p>","","","","","","","","","",""
"html-keyboard-response","126","176072","0.0-10.0-0.37","5e283f8ad48ecf000ddd0724","650c16f0f2faf8d7a0d14c09","651c1bd13941e2daa6061e2e","null","null","<p style=""font-size: 60px; font-family: BACS"">lBlEcPK</p>","","","","","","","","","",""
"html-keyboard-response","127","177086","0.0-10.0-0.38","5e283f8ad48ecf000ddd0724","650c16f0f2faf8d7a0d14c09","651c1bd13941e2daa6061e2e","null","null","<p style=""font-size: 60px; font-family: BACS"">mBbKTRK</p>","","","","","","","","","",""
"html-keyboard-response","128","178090","0.0-10.0-0.39","5e283f8ad48ecf000ddd0724","650c16f0f2faf8d7a0d14c09","651c1bd13941e2daa6061e2e","null","null","<p style=""font-size: 60px; font-family: BACS"">KMDYtcPK</p>","","","","","","","","","",""
"html-keyboard-response","129","179100","0.0-10.0-0.40","5e283f8ad48ecf000ddd0724","650c16f0f2faf8d7a0d14c09","651c1bd13941e2daa6061e2e","null","null","<p style=""font-size: 60px; font-family: BACS"">bYGOZUbG</p>","","","","","","","","","",""
"html-keyboard-response","130","180113","0.0-10.0-0.41","5e283f8ad48ecf000ddd0724","650c16f0f2faf8d7a0d14c09","651c1bd13941e2daa6061e2e","null","null","<p style=""font-size: 60px; font-family: BACS"">kbmZOLcO</p>","","","","","","","","","",""
"html-keyboard-response","131","181117","0.0-10.0-0.42","5e283f8ad48ecf000ddd0724","650c16f0f2faf8d7a0d14c09","651c1bd13941e2daa6061e2e","null","null","<p style=""font-size: 60px; font-family: BACS"">BKDRYDOAK</p>","","","","","","","","","",""
"html-keyboard-response","132","182125","0.0-10.0-0.43","5e283f8ad48ecf000ddd0724","650c16f0f2faf8d7a0d14c09","651c1bd13941e2daa6061e2e","null","null","<p style=""font-size: 60px; font-family: BACS"">mbZlvJQ</p>","","","","","","","","","",""
"html-keyboard-response","133","183134","0.0-10.0-0.44","5e283f8ad48ecf000ddd0724","650c16f0f2faf8d7a0d14c09","651c1bd13941e2daa6061e2e","null","null","<p style=""font-size: 60px; font-family: BACS"">PEtEDOAK</p>","","","","","","","","","",""
"html-keyboard-response","134","184143","0.0-10.0-0.45","5e283f8ad48ecf000ddd0724","650c16f0f2faf8d7a0d14c09","651c1bd13941e2daa6061e2e","null","null","<p style=""font-size: 60px; font-family: BACS"">lRCBTRK</p>","","","","","","","","","",""
"html-keyboard-response","135","185147","0.0-10.0-0.46","5e283f8ad48ecf000ddd0724","650c16f0f2faf8d7a0d14c09","651c1bd13941e2daa6061e2e","null","null","<p style=""font-size: 60px; font-family: BACS"">UJkGUbG</p>","","","","","","","","","",""
"html-keyboard-response","136","186161","0.0-10.0-0.47","5e283f8ad48ecf000ddd0724","650c16f0f2faf8d7a0d14c09","651c1bd13941e2daa6061e2e","null","null","<p style=""font-size: 60px; font-family: BACS"">TObCODOAK</p>","","","","","","","","","",""
"html-keyboard-response","137","187170","0.0-10.0-0.48","5e283f8ad48ecf000ddd0724","650c16f0f2faf8d7a0d14c09","651c1bd13941e2daa6061e2e","null","null","<p style=""font-size: 60px; font-family: BACS"">bYGOZbadk</p>","","","","","","","","","",""
"html-keyboard-response","138","188186","0.0-10.0-0.49","5e283f8ad48ecf000ddd0724","650c16f0f2faf8d7a0d14c09","651c1bd13941e2daa6061e2e","null","null","<p style=""font-size: 60px; font-family: BACS"">GNAcavJQ</p>","","","","","","","","","",""
"html-keyboard-response","139","189197","0.0-10.0-0.50","5e283f8ad48ecf000ddd0724","650c16f0f2faf8d7a0d14c09","651c1bd13941e2daa6061e2e","null","null","<p style=""font-size: 60px; font-family: BACS"">KMDYtTRK</p>","","","","","","","","","",""
"html-keyboard-response","140","190199","0.0-10.0-0.51","5e283f8ad48ecf000ddd0724","650c16f0f2faf8d7a0d14c09","651c1bd13941e2daa6061e2e","null","null","<p style=""font-size: 60px; font-family: BACS"">Qcladbadk</p>","","","","","","","","","",""
"html-keyboard-response","141","191200","0.0-10.0-0.52","5e283f8ad48ecf000ddd0724","650c16f0f2faf8d7a0d14c09","651c1bd13941e2daa6061e2e","null","null","<p style=""font-size: 60px; font-family: BACS"">mBbKDOAK</p>","","","","","","","","","",""
"html-keyboard-response","142","192208","0.0-10.0-0.53","5e283f8ad48ecf000ddd0724","650c16f0f2faf8d7a0d14c09","651c1bd13941e2daa6061e2e","null","null","<p style=""font-size: 60px; font-family: BACS"">tcYbdABb</p>","","","","","","","","","",""
"html-keyboard-response","143","193225","0.0-10.0-0.54","5e283f8ad48ecf000ddd0724","650c16f0f2faf8d7a0d14c09","651c1bd13941e2daa6061e2e","null","null","<p style=""font-size: 60px; font-family: BACS"">hkRKmhc</p>","","","","","","","","","",""
"html-keyboard-response","144","194233","0.0-10.0-0.55","5e283f8ad48ecf000ddd0724","650c16f0f2faf8d7a0d14c09","651c1bd13941e2daa6061e2e","null","null","<p style=""font-size: 60px; font-family: BACS"">mbZlLcO</p>","","","","","","","","","",""
"html-keyboard-response","145","195243","0.0-10.0-0.56","5e283f8ad48ecf000ddd0724","650c16f0f2faf8d7a0d14c09","651c1bd13941e2daa6061e2e","null","null","<p style=""font-size: 60px; font-family: BACS"">GNAcakYL</p>","","","","","","","","","",""
"html-keyboard-response","146","196252","0.0-10.0-0.57","5e283f8ad48ecf000ddd0724","650c16f0f2faf8d7a0d14c09","651c1bd13941e2daa6061e2e","null","null","<p style=""font-size: 60px; font-family: BACS"">QcladvJQ</p>","","","","","","","","","",""
"html-keyboard-response","147","197261","0.0-10.0-0.58","5e283f8ad48ecf000ddd0724","650c16f0f2faf8d7a0d14c09","651c1bd13941e2daa6061e2e","null","null","<p style=""font-size: 60px; font-family: BACS"">mbZlbadk</p>","","","","","","","","","",""
"html-keyboard-response","148","198278","0.0-10.0-0.59","5e283f8ad48ecf000ddd0724","650c16f0f2faf8d7a0d14c09","651c1bd13941e2daa6061e2e","null","null","<p style=""font-size: 60px; font-family: BACS"">TObCOTRK</p>","","","","","","","","","",""
"html-keyboard-response","149","199295","0.0-10.0-0.60","5e283f8ad48ecf000ddd0724","650c16f0f2faf8d7a0d14c09","651c1bd13941e2daa6061e2e","null","null","<p style=""font-size: 60px; font-family: BACS"">lRCBcPK</p>","","","","","","","","","",""
"html-keyboard-response","150","200311","0.0-10.0-0.61","5e283f8ad48ecf000ddd0724","650c16f0f2faf8d7a0d14c09","651c1bd13941e2daa6061e2e","null","null","<p style=""font-size: 60px; font-family: BACS"">vmuLlbadk</p>","","","","","","","","","",""
"html-keyboard-response","151","201328","0.0-10.0-0.62","5e283f8ad48ecf000ddd0724","650c16f0f2faf8d7a0d14c09","651c1bd13941e2daa6061e2e","null","null","<p style=""font-size: 60px; font-family: BACS"">mbZlkYL</p>","","","","","","","","","",""
"html-keyboard-response","152","202339","0.0-10.0-0.63","5e283f8ad48ecf000ddd0724","650c16f0f2faf8d7a0d14c09","651c1bd13941e2daa6061e2e","null","null","<p style=""font-size: 60px; font-family: BACS"">GNAcaUbG</p>","","","","","","","","","",""
"html-keyboard-response","153","203347","0.0-10.0-0.64","5e283f8ad48ecf000ddd0724","650c16f0f2faf8d7a0d14c09","651c1bd13941e2daa6061e2e","null","null","<p style=""font-size: 60px; font-family: BACS"">cDOEBTRK</p>","","","","","","","","","",""
"html-keyboard-response","154","204348","0.0-10.0-0.65","5e283f8ad48ecf000ddd0724","650c16f0f2faf8d7a0d14c09","651c1bd13941e2daa6061e2e","null","null","<p style=""font-size: 60px; font-family: BACS"">lRCBDOAK</p>","","","","","","","","","",""
"html-keyboard-response","155","205352","0.0-10.0-0.66","5e283f8ad48ecf000ddd0724","650c16f0f2faf8d7a0d14c09","651c1bd13941e2daa6061e2e","null","null","<p style=""font-size: 60px; font-family: BACS"">LuNZkYL</p>","","","","","","","","","",""
"html-keyboard-response","156","206363","0.0-10.0-0.67","5e283f8ad48ecf000ddd0724","650c16f0f2faf8d7a0d14c09","651c1bd13941e2daa6061e2e","null","null","<p style=""font-size: 60px; font-family: BACS"">kbmZObadk</p>","","","","","","","","","",""
"html-keyboard-response","157","207364","0.0-10.0-0.68","5e283f8ad48ecf000ddd0724","650c16f0f2faf8d7a0d14c09","651c1bd13941e2daa6061e2e","null","null","<p style=""font-size: 60px; font-family: BACS"">LuNZUbG</p>","","","","","","","","","",""
"html-keyboard-response","158","208366","0.0-10.0-0.69","5e283f8ad48ecf000ddd0724","650c16f0f2faf8d7a0d14c09","651c1bd13941e2daa6061e2e","null","null","<p style=""font-size: 60px; font-family: BACS"">tcYbdmhc</p>","","","","","","","","","",""
"html-keyboard-response","159","209369","0.0-10.0-0.70","5e283f8ad48ecf000ddd0724","650c16f0f2faf8d7a0d14c09","651c1bd13941e2daa6061e2e","null","null","<p style=""font-size: 60px; font-family: BACS"">LuNZLcO</p>","","","","","","","","","",""
"html-keyboard-response","160","210379","0.0-10.0-0.71","5e283f8ad48ecf000ddd0724","650c16f0f2faf8d7a0d14c09","651c1bd13941e2daa6061e2e","null","null","<p style=""font-size: 60px; font-family: BACS"">KMDYtABb</p>","","","","","","","","","",""
"html-keyboard-response","161","211388","0.0-10.0-0.72","5e283f8ad48ecf000ddd0724","650c16f0f2faf8d7a0d14c09","651c1bd13941e2daa6061e2e","null","null","<p style=""font-size: 60px; font-family: BACS"">vmuLlLcO</p>","","","","","","","","","",""
"html-keyboard-response","162","212390","0.0-10.0-0.73","5e283f8ad48ecf000ddd0724","650c16f0f2faf8d7a0d14c09","651c1bd13941e2daa6061e2e","null","null","<p style=""font-size: 60px; font-family: BACS"">cDOEBmhc</p>","","","","","","","","","",""
"html-keyboard-response","163","213391","0.0-10.0-0.74","5e283f8ad48ecf000ddd0724","650c16f0f2faf8d7a0d14c09","651c1bd13941e2daa6061e2e","null","null","<p style=""font-size: 60px; font-family: BACS"">adkrUbG</p>","","","","","","","","","",""
"html-keyboard-response","164","214399","0.0-10.0-0.75","5e283f8ad48ecf000ddd0724","650c16f0f2faf8d7a0d14c09","651c1bd13941e2daa6061e2e","null","null","<p style=""font-size: 60px; font-family: BACS"">BKDRYcPK</p>","","","","","","","","","",""
"html-keyboard-response","165","215409","0.0-10.0-0.76","5e283f8ad48ecf000ddd0724","650c16f0f2faf8d7a0d14c09","651c1bd13941e2daa6061e2e","null","null","<p style=""font-size: 60px; font-family: BACS"">LuNZvJQ</p>","","","","","","","","","",""
"html-keyboard-response","166","216417","0.0-10.0-0.77","5e283f8ad48ecf000ddd0724","650c16f0f2faf8d7a0d14c09","651c1bd13941e2daa6061e2e","null","null","<p style=""font-size: 60px; font-family: BACS"">BKDRYmhc</p>","","","","","","","","","",""
"html-keyboard-response","167","217426","0.0-10.0-0.78","5e283f8ad48ecf000ddd0724","650c16f0f2faf8d7a0d14c09","651c1bd13941e2daa6061e2e","null","null","<p style=""font-size: 60px; font-family: BACS"">hkRKcPK</p>","","","","","","","","","",""
"html-keyboard-response","168","218428","0.0-10.0-0.79","5e283f8ad48ecf000ddd0724","650c16f0f2faf8d7a0d14c09","651c1bd13941e2daa6061e2e","null","null","<p style=""font-size: 60px; font-family: BACS"">bYGOZLcO</p>","","","","","","","","","",""
"html-keyboard-response","169","224648","0.0-11.0","5e283f8ad48ecf000ddd0724","650c16f0f2faf8d7a0d14c09","651c1bd13941e2daa6061e2e","6220"," ","<p>Great, you've seen the second block of words. You may now take a short break.</p>
      <p>Press the spacebar when you're ready to continue.</p>","","","","","","","","","",""
"html-keyboard-response","170","225665","0.0-12.0-0.0","5e283f8ad48ecf000ddd0724","650c16f0f2faf8d7a0d14c09","651c1bd13941e2daa6061e2e","null","null","<p style=""font-size: 60px; font-family: BACS"">cDOEBcPK</p>","","","","","","","","","",""
"html-keyboard-response","171","226674","0.0-12.0-0.1","5e283f8ad48ecf000ddd0724","650c16f0f2faf8d7a0d14c09","651c1bd13941e2daa6061e2e","null","null","<p style=""font-size: 60px; font-family: BACS"">GNAcakYL</p>","","","","","","","","","",""
"html-keyboard-response","172","227682","0.0-12.0-0.2","5e283f8ad48ecf000ddd0724","650c16f0f2faf8d7a0d14c09","651c1bd13941e2daa6061e2e","null","null","<p style=""font-size: 60px; font-family: BACS"">UJkGvJQ</p>","","","","","","","","","",""
"html-keyboard-response","173","228691","0.0-12.0-0.3","5e283f8ad48ecf000ddd0724","650c16f0f2faf8d7a0d14c09","651c1bd13941e2daa6061e2e","null","null","<p style=""font-size: 60px; font-family: BACS"">GNAcaUbG</p>","","","","","","","","","",""
"html-keyboard-response","174","229703","0.0-12.0-0.4","5e283f8ad48ecf000ddd0724","650c16f0f2faf8d7a0d14c09","651c1bd13941e2daa6061e2e","null","null","<p style=""font-size: 60px; font-family: BACS"">cDOEBmhc</p>","","","","","","","","","",""
"html-keyboard-response","175","230706","0.0-12.0-0.5","5e283f8ad48ecf000ddd0724","650c16f0f2faf8d7a0d14c09","651c1bd13941e2daa6061e2e","null","null","<p style=""font-size: 60px; font-family: BACS"">kbmZObadk</p>","","","","","","","","","",""
"html-keyboard-response","176","231713","0.0-12.0-0.6","5e283f8ad48ecf000ddd0724","650c16f0f2faf8d7a0d14c09","651c1bd13941e2daa6061e2e","null","null","<p style=""font-size: 60px; font-family: BACS"">LuNZLcO</p>","","","","","","","","","",""
"html-keyboard-response","177","232729","0.0-12.0-0.7","5e283f8ad48ecf000ddd0724","650c16f0f2faf8d7a0d14c09","651c1bd13941e2daa6061e2e","null","null","<p style=""font-size: 60px; font-family: BACS"">lRCBDOAK</p>","","","","","","","","","",""
"html-keyboard-response","178","233731","0.0-12.0-0.8","5e283f8ad48ecf000ddd0724","650c16f0f2faf8d7a0d14c09","651c1bd13941e2daa6061e2e","null","null","<p style=""font-size: 60px; font-family: BACS"">KMDYtABb</p>","","","","","","","","","",""
"html-keyboard-response","179","234739","0.0-12.0-0.9","5e283f8ad48ecf000ddd0724","650c16f0f2faf8d7a0d14c09","651c1bd13941e2daa6061e2e","null","null","<p style=""font-size: 60px; font-family: BACS"">QcladLcO</p>","","","","","","","","","",""
"html-keyboard-response","180","235751","0.0-12.0-0.10","5e283f8ad48ecf000ddd0724","650c16f0f2faf8d7a0d14c09","651c1bd13941e2daa6061e2e","null","null","<p style=""font-size: 60px; font-family: BACS"">hkRKTRK</p>","","","","","","","","","",""
"html-keyboard-response","181","236754","0.0-12.0-0.11","5e283f8ad48ecf000ddd0724","650c16f0f2faf8d7a0d14c09","651c1bd13941e2daa6061e2e","null","null","<p style=""font-size: 60px; font-family: BACS"">lRCBABb</p>","","","","","","","","","",""
"html-keyboard-response","182","237755","0.0-12.0-0.12","5e283f8ad48ecf000ddd0724","650c16f0f2faf8d7a0d14c09","651c1bd13941e2daa6061e2e","null","null","<p style=""font-size: 60px; font-family: BACS"">PEtEcPK</p>","","","","","","","","","",""
"html-keyboard-response","183","238767","0.0-12.0-0.13","5e283f8ad48ecf000ddd0724","650c16f0f2faf8d7a0d14c09","651c1bd13941e2daa6061e2e","null","null","<p style=""font-size: 60px; font-family: BACS"">lBlEABb</p>","","","","","","","","","",""
"html-keyboard-response","184","239779","0.0-12.0-0.14","5e283f8ad48ecf000ddd0724","650c16f0f2faf8d7a0d14c09","651c1bd13941e2daa6061e2e","null","null","<p style=""font-size: 60px; font-family: BACS"">LuNZUbG</p>","","","","","","","","","",""
"html-keyboard-response","185","240782","0.0-12.0-0.15","5e283f8ad48ecf000ddd0724","650c16f0f2faf8d7a0d14c09","651c1bd13941e2daa6061e2e","null","null","<p style=""font-size: 60px; font-family: BACS"">lRCBTRK</p>","","","","","","","","","",""
"html-keyboard-response","186","241784","0.0-12.0-0.16","5e283f8ad48ecf000ddd0724","650c16f0f2faf8d7a0d14c09","651c1bd13941e2daa6061e2e","null","null","<p style=""font-size: 60px; font-family: BACS"">hkRKDOAK</p>","","","","","","","","","",""
"html-keyboard-response","187","242796","0.0-12.0-0.17","5e283f8ad48ecf000ddd0724","650c16f0f2faf8d7a0d14c09","651c1bd13941e2daa6061e2e","null","null","<p style=""font-size: 60px; font-family: BACS"">BKDRYcPK</p>","","","","","","","","","",""
"html-keyboard-response","188","243812","0.0-12.0-0.18","5e283f8ad48ecf000ddd0724","650c16f0f2faf8d7a0d14c09","651c1bd13941e2daa6061e2e","null","null","<p style=""font-size: 60px; font-family: BACS"">kbmZOUbG</p>","","","","","","","","","",""
"html-keyboard-response","189","244813","0.0-12.0-0.19","5e283f8ad48ecf000ddd0724","650c16f0f2faf8d7a0d14c09","651c1bd13941e2daa6061e2e","null","null","<p style=""font-size: 60px; font-family: BACS"">mBbKDOAK</p>","","","","","","","","","",""
"html-keyboard-response","190","245814","0.0-12.0-0.20","5e283f8ad48ecf000ddd0724","650c16f0f2faf8d7a0d14c09","651c1bd13941e2daa6061e2e","null","null","<p style=""font-size: 60px; font-family: BACS"">kbmZOLcO</p>","","","","","","","","","",""
"html-keyboard-response","191","246827","0.0-12.0-0.21","5e283f8ad48ecf000ddd0724","650c16f0f2faf8d7a0d14c09","651c1bd13941e2daa6061e2e","null","null","<p style=""font-size: 60px; font-family: BACS"">KMDYtDOAK</p>","","","","","","","","","",""
"html-keyboard-response","192","247830","0.0-12.0-0.22","5e283f8ad48ecf000ddd0724","650c16f0f2faf8d7a0d14c09","651c1bd13941e2daa6061e2e","null","null","<p style=""font-size: 60px; font-family: BACS"">cDOEBTRK</p>","","","","","","","","","",""
"html-keyboard-response","193","248831","0.0-12.0-0.23","5e283f8ad48ecf000ddd0724","650c16f0f2faf8d7a0d14c09","651c1bd13941e2daa6061e2e","null","null","<p style=""font-size: 60px; font-family: BACS"">adkrkYL</p>","","","","","","","","","",""
"html-keyboard-response","194","249832","0.0-12.0-0.24","5e283f8ad48ecf000ddd0724","650c16f0f2faf8d7a0d14c09","651c1bd13941e2daa6061e2e","null","null","<p style=""font-size: 60px; font-family: BACS"">BKDRYABb</p>","","","","","","","","","",""
"html-keyboard-response","195","250843","0.0-12.0-0.25","5e283f8ad48ecf000ddd0724","650c16f0f2faf8d7a0d14c09","651c1bd13941e2daa6061e2e","null","null","<p style=""font-size: 60px; font-family: BACS"">TObCOmhc</p>","","","","","","","","","",""
"html-keyboard-response","196","251860","0.0-12.0-0.26","5e283f8ad48ecf000ddd0724","650c16f0f2faf8d7a0d14c09","651c1bd13941e2daa6061e2e","null","null","<p style=""font-size: 60px; font-family: BACS"">cDOEBABb</p>","","","","","","","","","",""
"html-keyboard-response","197","252862","0.0-12.0-0.27","5e283f8ad48ecf000ddd0724","650c16f0f2faf8d7a0d14c09","651c1bd13941e2daa6061e2e","null","null","<p style=""font-size: 60px; font-family: BACS"">BKDRYmhc</p>","","","","","","","","","",""
"html-keyboard-response","198","253866","0.0-12.0-0.28","5e283f8ad48ecf000ddd0724","650c16f0f2faf8d7a0d14c09","651c1bd13941e2daa6061e2e","null","null","<p style=""font-size: 60px; font-family: BACS"">PEtEDOAK</p>","","","","","","","","","",""
"html-keyboard-response","199","254871","0.0-12.0-0.29","5e283f8ad48ecf000ddd0724","650c16f0f2faf8d7a0d14c09","651c1bd13941e2daa6061e2e","null","null","<p style=""font-size: 60px; font-family: BACS"">LuNZkYL</p>","","","","","","","","","",""
"html-keyboard-response","200","255882","0.0-12.0-0.30","5e283f8ad48ecf000ddd0724","650c16f0f2faf8d7a0d14c09","651c1bd13941e2daa6061e2e","null","null","<p style=""font-size: 60px; font-family: BACS"">vmuLlbadk</p>","","","","","","","","","",""
"html-keyboard-response","201","256899","0.0-12.0-0.31","5e283f8ad48ecf000ddd0724","650c16f0f2faf8d7a0d14c09","651c1bd13941e2daa6061e2e","null","null","<p style=""font-size: 60px; font-family: BACS"">hkRKmhc</p>","","","","","","","","","",""
"html-keyboard-response","202","257908","0.0-12.0-0.32","5e283f8ad48ecf000ddd0724","650c16f0f2faf8d7a0d14c09","651c1bd13941e2daa6061e2e","null","null","<p style=""font-size: 60px; font-family: BACS"">bYGOZUbG</p>","","","","","","","","","",""
"html-keyboard-response","203","258910","0.0-12.0-0.33","5e283f8ad48ecf000ddd0724","650c16f0f2faf8d7a0d14c09","651c1bd13941e2daa6061e2e","null","null","<p style=""font-size: 60px; font-family: BACS"">dNZAbadk</p>","","","","","","","","","",""
"html-keyboard-response","204","259911","0.0-12.0-0.34","5e283f8ad48ecf000ddd0724","650c16f0f2faf8d7a0d14c09","651c1bd13941e2daa6061e2e","null","null","<p style=""font-size: 60px; font-family: BACS"">GNAcavJQ</p>","","","","","","","","","",""
"html-keyboard-response","205","260922","0.0-12.0-0.35","5e283f8ad48ecf000ddd0724","650c16f0f2faf8d7a0d14c09","651c1bd13941e2daa6061e2e","null","null","<p style=""font-size: 60px; font-family: BACS"">mbZlbadk</p>","","","","","","","","","",""
"html-keyboard-response","206","261931","0.0-12.0-0.36","5e283f8ad48ecf000ddd0724","650c16f0f2faf8d7a0d14c09","651c1bd13941e2daa6061e2e","null","null","<p style=""font-size: 60px; font-family: BACS"">QcladkYL</p>","","","","","","","","","",""
"html-keyboard-response","207","262939","0.0-12.0-0.37","5e283f8ad48ecf000ddd0724","650c16f0f2faf8d7a0d14c09","651c1bd13941e2daa6061e2e","null","null","<p style=""font-size: 60px; font-family: BACS"">mBbKTRK</p>","","","","","","","","","",""
"html-keyboard-response","208","263941","0.0-12.0-0.38","5e283f8ad48ecf000ddd0724","650c16f0f2faf8d7a0d14c09","651c1bd13941e2daa6061e2e","null","null","<p style=""font-size: 60px; font-family: BACS"">mbZlvJQ</p>","","","","","","","","","",""
"html-keyboard-response","209","264950","0.0-12.0-0.39","5e283f8ad48ecf000ddd0724","650c16f0f2faf8d7a0d14c09","651c1bd13941e2daa6061e2e","null","null","<p style=""font-size: 60px; font-family: BACS"">dNZAUbG</p>","","","","","","","","","",""
"html-keyboard-response","210","265951","0.0-12.0-0.40","5e283f8ad48ecf000ddd0724","650c16f0f2faf8d7a0d14c09","651c1bd13941e2daa6061e2e","null","null","<p style=""font-size: 60px; font-family: BACS"">adkrvJQ</p>","","","","","","","","","",""
"html-keyboard-response","211","266959","0.0-12.0-0.41","5e283f8ad48ecf000ddd0724","650c16f0f2faf8d7a0d14c09","651c1bd13941e2daa6061e2e","null","null","<p style=""font-size: 60px; font-family: BACS"">hkRKcPK</p>","","","","","","","","","",""
"html-keyboard-response","212","267967","0.0-12.0-0.42","5e283f8ad48ecf000ddd0724","650c16f0f2faf8d7a0d14c09","651c1bd13941e2daa6061e2e","null","null","<p style=""font-size: 60px; font-family: BACS"">BKDRYDOAK</p>","","","","","","","","","",""
"html-keyboard-response","213","268968","0.0-12.0-0.43","5e283f8ad48ecf000ddd0724","650c16f0f2faf8d7a0d14c09","651c1bd13941e2daa6061e2e","null","null","<p style=""font-size: 60px; font-family: BACS"">lBlEmhc</p>","","","","","","","","","",""
"html-keyboard-response","214","269986","0.0-12.0-0.44","5e283f8ad48ecf000ddd0724","650c16f0f2faf8d7a0d14c09","651c1bd13941e2daa6061e2e","null","null","<p style=""font-size: 60px; font-family: BACS"">UJkGkYL</p>","","","","","","","","","",""
"html-keyboard-response","215","270988","0.0-12.0-0.45","5e283f8ad48ecf000ddd0724","650c16f0f2faf8d7a0d14c09","651c1bd13941e2daa6061e2e","null","null","<p style=""font-size: 60px; font-family: BACS"">lBlEcPK</p>","","","","","","","","","",""
"html-keyboard-response","216","271997","0.0-12.0-0.46","5e283f8ad48ecf000ddd0724","650c16f0f2faf8d7a0d14c09","651c1bd13941e2daa6061e2e","null","null","<p style=""font-size: 60px; font-family: BACS"">mbZlkYL</p>","","","","","","","","","",""
"html-keyboard-response","217","273006","0.0-12.0-0.47","5e283f8ad48ecf000ddd0724","650c16f0f2faf8d7a0d14c09","651c1bd13941e2daa6061e2e","null","null","<p style=""font-size: 60px; font-family: BACS"">tcYbdABb</p>","","","","","","","","","",""
"html-keyboard-response","218","274023","0.0-12.0-0.48","5e283f8ad48ecf000ddd0724","650c16f0f2faf8d7a0d14c09","651c1bd13941e2daa6061e2e","null","null","<p style=""font-size: 60px; font-family: BACS"">Qcladbadk</p>","","","","","","","","","",""
"html-keyboard-response","219","275025","0.0-12.0-0.49","5e283f8ad48ecf000ddd0724","650c16f0f2faf8d7a0d14c09","651c1bd13941e2daa6061e2e","null","null","<p style=""font-size: 60px; font-family: BACS"">tcYbdmhc</p>","","","","","","","","","",""
"html-keyboard-response","220","276036","0.0-12.0-0.50","5e283f8ad48ecf000ddd0724","650c16f0f2faf8d7a0d14c09","651c1bd13941e2daa6061e2e","null","null","<p style=""font-size: 60px; font-family: BACS"">PEtETRK</p>","","","","","","","","","",""
"html-keyboard-response","221","277045","0.0-12.0-0.51","5e283f8ad48ecf000ddd0724","650c16f0f2faf8d7a0d14c09","651c1bd13941e2daa6061e2e","null","null","<p style=""font-size: 60px; font-family: BACS"">TObCOABb</p>","","","","","","","","","",""
"html-keyboard-response","222","278054","0.0-12.0-0.52","5e283f8ad48ecf000ddd0724","650c16f0f2faf8d7a0d14c09","651c1bd13941e2daa6061e2e","null","null","<p style=""font-size: 60px; font-family: BACS"">GNAcaLcO</p>","","","","","","","","","",""
"html-keyboard-response","223","279071","0.0-12.0-0.53","5e283f8ad48ecf000ddd0724","650c16f0f2faf8d7a0d14c09","651c1bd13941e2daa6061e2e","null","null","<p style=""font-size: 60px; font-family: BACS"">QcladvJQ</p>","","","","","","","","","",""
"html-keyboard-response","224","280073","0.0-12.0-0.54","5e283f8ad48ecf000ddd0724","650c16f0f2faf8d7a0d14c09","651c1bd13941e2daa6061e2e","null","null","<p style=""font-size: 60px; font-family: BACS"">mBbKmhc</p>","","","","","","","","","",""
"html-keyboard-response","225","281082","0.0-12.0-0.55","5e283f8ad48ecf000ddd0724","650c16f0f2faf8d7a0d14c09","651c1bd13941e2daa6061e2e","null","null","<p style=""font-size: 60px; font-family: BACS"">dNZALcO</p>","","","","","","","","","",""
"html-keyboard-response","226","282090","0.0-12.0-0.56","5e283f8ad48ecf000ddd0724","650c16f0f2faf8d7a0d14c09","651c1bd13941e2daa6061e2e","null","null","<p style=""font-size: 60px; font-family: BACS"">LuNZvJQ</p>","","","","","","","","","",""
"html-keyboard-response","227","283099","0.0-12.0-0.57","5e283f8ad48ecf000ddd0724","650c16f0f2faf8d7a0d14c09","651c1bd13941e2daa6061e2e","null","null","<p style=""font-size: 60px; font-family: BACS"">PEtEmhc</p>","","","","","","","","","",""
"html-keyboard-response","228","284108","0.0-12.0-0.58","5e283f8ad48ecf000ddd0724","650c16f0f2faf8d7a0d14c09","651c1bd13941e2daa6061e2e","null","null","<p style=""font-size: 60px; font-family: BACS"">dNZAkYL</p>","","","","","","","","","",""
"html-keyboard-response","229","285117","0.0-12.0-0.59","5e283f8ad48ecf000ddd0724","650c16f0f2faf8d7a0d14c09","651c1bd13941e2daa6061e2e","null","null","<p style=""font-size: 60px; font-family: BACS"">kbmZOvJQ</p>","","","","","","","","","",""
"html-keyboard-response","230","286126","0.0-12.0-0.60","5e283f8ad48ecf000ddd0724","650c16f0f2faf8d7a0d14c09","651c1bd13941e2daa6061e2e","null","null","<p style=""font-size: 60px; font-family: BACS"">adkrUbG</p>","","","","","","","","","",""
"html-keyboard-response","231","287127","0.0-12.0-0.61","5e283f8ad48ecf000ddd0724","650c16f0f2faf8d7a0d14c09","651c1bd13941e2daa6061e2e","null","null","<p style=""font-size: 60px; font-family: BACS"">lRCBcPK</p>","","","","","","","","","",""
"html-keyboard-response","232","288135","0.0-12.0-0.62","5e283f8ad48ecf000ddd0724","650c16f0f2faf8d7a0d14c09","651c1bd13941e2daa6061e2e","null","null","<p style=""font-size: 60px; font-family: BACS"">tcYbdDOAK</p>","","","","","","","","","",""
"html-keyboard-response","233","289137","0.0-12.0-0.63","5e283f8ad48ecf000ddd0724","650c16f0f2faf8d7a0d14c09","651c1bd13941e2daa6061e2e","null","null","<p style=""font-size: 60px; font-family: BACS"">mbZlLcO</p>","","","","","","","","","",""
"html-keyboard-response","234","290153","0.0-12.0-0.64","5e283f8ad48ecf000ddd0724","650c16f0f2faf8d7a0d14c09","651c1bd13941e2daa6061e2e","null","null","<p style=""font-size: 60px; font-family: BACS"">bYGOZbadk</p>","","","","","","","","","",""
"html-keyboard-response","235","291163","0.0-12.0-0.65","5e283f8ad48ecf000ddd0724","650c16f0f2faf8d7a0d14c09","651c1bd13941e2daa6061e2e","null","null","<p style=""font-size: 60px; font-family: BACS"">TObCODOAK</p>","","","","","","","","","",""
"html-keyboard-response","236","292170","0.0-12.0-0.66","5e283f8ad48ecf000ddd0724","650c16f0f2faf8d7a0d14c09","651c1bd13941e2daa6061e2e","null","null","<p style=""font-size: 60px; font-family: BACS"">lBlETRK</p>","","","","","","","","","",""
"html-keyboard-response","237","293178","0.0-12.0-0.67","5e283f8ad48ecf000ddd0724","650c16f0f2faf8d7a0d14c09","651c1bd13941e2daa6061e2e","null","null","<p style=""font-size: 60px; font-family: BACS"">mBbKABb</p>","","","","","","","","","",""
"html-keyboard-response","238","294187","0.0-12.0-0.68","5e283f8ad48ecf000ddd0724","650c16f0f2faf8d7a0d14c09","651c1bd13941e2daa6061e2e","null","null","<p style=""font-size: 60px; font-family: BACS"">UJkGbadk</p>","","","","","","","","","",""
"html-keyboard-response","239","295189","0.0-12.0-0.69","5e283f8ad48ecf000ddd0724","650c16f0f2faf8d7a0d14c09","651c1bd13941e2daa6061e2e","null","null","<p style=""font-size: 60px; font-family: BACS"">vmuLlLcO</p>","","","","","","","","","",""
"html-keyboard-response","240","296190","0.0-12.0-0.70","5e283f8ad48ecf000ddd0724","650c16f0f2faf8d7a0d14c09","651c1bd13941e2daa6061e2e","null","null","<p style=""font-size: 60px; font-family: BACS"">adkrbadk</p>","","","","","","","","","",""
"html-keyboard-response","241","297207","0.0-12.0-0.71","5e283f8ad48ecf000ddd0724","650c16f0f2faf8d7a0d14c09","651c1bd13941e2daa6061e2e","null","null","<p style=""font-size: 60px; font-family: BACS"">tcYbdcPK</p>","","","","","","","","","",""
"html-keyboard-response","242","298215","0.0-12.0-0.72","5e283f8ad48ecf000ddd0724","650c16f0f2faf8d7a0d14c09","651c1bd13941e2daa6061e2e","null","null","<p style=""font-size: 60px; font-family: BACS"">vmuLlkYL</p>","","","","","","","","","",""
"html-keyboard-response","243","299224","0.0-12.0-0.73","5e283f8ad48ecf000ddd0724","650c16f0f2faf8d7a0d14c09","651c1bd13941e2daa6061e2e","null","null","<p style=""font-size: 60px; font-family: BACS"">UJkGUbG</p>","","","","","","","","","",""
"html-keyboard-response","244","300234","0.0-12.0-0.74","5e283f8ad48ecf000ddd0724","650c16f0f2faf8d7a0d14c09","651c1bd13941e2daa6061e2e","null","null","<p style=""font-size: 60px; font-family: BACS"">KMDYtTRK</p>","","","","","","","","","",""
"html-keyboard-response","245","301245","0.0-12.0-0.75","5e283f8ad48ecf000ddd0724","650c16f0f2faf8d7a0d14c09","651c1bd13941e2daa6061e2e","null","null","<p style=""font-size: 60px; font-family: BACS"">vmuLlUbG</p>","","","","","","","","","",""
"html-keyboard-response","246","302248","0.0-12.0-0.76","5e283f8ad48ecf000ddd0724","650c16f0f2faf8d7a0d14c09","651c1bd13941e2daa6061e2e","null","null","<p style=""font-size: 60px; font-family: BACS"">KMDYtcPK</p>","","","","","","","","","",""
"html-keyboard-response","247","303258","0.0-12.0-0.77","5e283f8ad48ecf000ddd0724","650c16f0f2faf8d7a0d14c09","651c1bd13941e2daa6061e2e","null","null","<p style=""font-size: 60px; font-family: BACS"">bYGOZLcO</p>","","","","","","","","","",""
"html-keyboard-response","248","304267","0.0-12.0-0.78","5e283f8ad48ecf000ddd0724","650c16f0f2faf8d7a0d14c09","651c1bd13941e2daa6061e2e","null","null","<p style=""font-size: 60px; font-family: BACS"">TObCOTRK</p>","","","","","","","","","",""
"html-keyboard-response","249","305269","0.0-12.0-0.79","5e283f8ad48ecf000ddd0724","650c16f0f2faf8d7a0d14c09","651c1bd13941e2daa6061e2e","null","null","<p style=""font-size: 60px; font-family: BACS"">bYGOZvJQ</p>","","","","","","","","","",""
"html-keyboard-response","250","309223","0.0-13.0","5e283f8ad48ecf000ddd0724","650c16f0f2faf8d7a0d14c09","651c1bd13941e2daa6061e2e","3953"," ","<p>Great, you've seen the third block of words. You may now take a short break.</p>
      <p>Press the spacebar when you're ready to continue.</p>","","","","","","","","","",""
"html-keyboard-response","251","310236","0.0-14.0-0.0","5e283f8ad48ecf000ddd0724","650c16f0f2faf8d7a0d14c09","651c1bd13941e2daa6061e2e","null","null","<p style=""font-size: 60px; font-family: BACS"">cDOEBmhc</p>","","","","","","","","","",""
"html-keyboard-response","252","311245","0.0-14.0-0.1","5e283f8ad48ecf000ddd0724","650c16f0f2faf8d7a0d14c09","651c1bd13941e2daa6061e2e","null","null","<p style=""font-size: 60px; font-family: BACS"">PEtEcPK</p>","","","","","","","","","",""
"html-keyboard-response","253","312254","0.0-14.0-0.2","5e283f8ad48ecf000ddd0724","650c16f0f2faf8d7a0d14c09","651c1bd13941e2daa6061e2e","null","null","<p style=""font-size: 60px; font-family: BACS"">dNZAUbG</p>","","","","","","","","","",""
"html-keyboard-response","254","313265","0.0-14.0-0.3","5e283f8ad48ecf000ddd0724","650c16f0f2faf8d7a0d14c09","651c1bd13941e2daa6061e2e","null","null","<p style=""font-size: 60px; font-family: BACS"">kbmZOLcO</p>","","","","","","","","","",""
"html-keyboard-response","255","314268","0.0-14.0-0.4","5e283f8ad48ecf000ddd0724","650c16f0f2faf8d7a0d14c09","651c1bd13941e2daa6061e2e","null","null","<p style=""font-size: 60px; font-family: BACS"">UJkGUbG</p>","","","","","","","","","",""
"html-keyboard-response","256","315279","0.0-14.0-0.5","5e283f8ad48ecf000ddd0724","650c16f0f2faf8d7a0d14c09","651c1bd13941e2daa6061e2e","null","null","<p style=""font-size: 60px; font-family: BACS"">tcYbdABb</p>","","","","","","","","","",""
"html-keyboard-response","257","316292","0.0-14.0-0.6","5e283f8ad48ecf000ddd0724","650c16f0f2faf8d7a0d14c09","651c1bd13941e2daa6061e2e","null","null","<p style=""font-size: 60px; font-family: BACS"">kbmZOUbG</p>","","","","","","","","","",""
"html-keyboard-response","258","317300","0.0-14.0-0.7","5e283f8ad48ecf000ddd0724","650c16f0f2faf8d7a0d14c09","651c1bd13941e2daa6061e2e","null","null","<p style=""font-size: 60px; font-family: BACS"">mBbKmhc</p>","","","","","","","","","",""
"html-keyboard-response","259","318309","0.0-14.0-0.8","5e283f8ad48ecf000ddd0724","650c16f0f2faf8d7a0d14c09","651c1bd13941e2daa6061e2e","null","null","<p style=""font-size: 60px; font-family: BACS"">vmuLlbadk</p>","","","","","","","","","",""
"html-keyboard-response","260","319323","0.0-14.0-0.9","5e283f8ad48ecf000ddd0724","650c16f0f2faf8d7a0d14c09","651c1bd13941e2daa6061e2e","null","null","<p style=""font-size: 60px; font-family: BACS"">LuNZUbG</p>","","","","","","","","","",""
"html-keyboard-response","261","320331","0.0-14.0-0.10","5e283f8ad48ecf000ddd0724","650c16f0f2faf8d7a0d14c09","651c1bd13941e2daa6061e2e","null","null","<p style=""font-size: 60px; font-family: BACS"">dNZAbadk</p>","","","","","","","","","",""
"html-keyboard-response","262","321332","0.0-14.0-0.11","5e283f8ad48ecf000ddd0724","650c16f0f2faf8d7a0d14c09","651c1bd13941e2daa6061e2e","null","null","<p style=""font-size: 60px; font-family: BACS"">KMDYtcPK</p>","","","","","","","","","",""
"html-keyboard-response","263","322335","0.0-14.0-0.12","5e283f8ad48ecf000ddd0724","650c16f0f2faf8d7a0d14c09","651c1bd13941e2daa6061e2e","null","null","<p style=""font-size: 60px; font-family: BACS"">mbZlLcO</p>","","","","","","","","","",""
"html-keyboard-response","264","323344","0.0-14.0-0.13","5e283f8ad48ecf000ddd0724","650c16f0f2faf8d7a0d14c09","651c1bd13941e2daa6061e2e","null","null","<p style=""font-size: 60px; font-family: BACS"">lBlEcPK</p>","","","","","","","","","",""
"html-keyboard-response","265","324347","0.0-14.0-0.14","5e283f8ad48ecf000ddd0724","650c16f0f2faf8d7a0d14c09","651c1bd13941e2daa6061e2e","null","null","<p style=""font-size: 60px; font-family: BACS"">TObCOTRK</p>","","","","","","","","","",""
"html-keyboard-response","266","325357","0.0-14.0-0.15","5e283f8ad48ecf000ddd0724","650c16f0f2faf8d7a0d14c09","651c1bd13941e2daa6061e2e","null","null","<p style=""font-size: 60px; font-family: BACS"">dNZALcO</p>","","","","","","","","","",""
"html-keyboard-response","267","326366","0.0-14.0-0.16","5e283f8ad48ecf000ddd0724","650c16f0f2faf8d7a0d14c09","651c1bd13941e2daa6061e2e","null","null","<p style=""font-size: 60px; font-family: BACS"">bYGOZbadk</p>","","","","","","","","","",""
"html-keyboard-response","268","327368","0.0-14.0-0.17","5e283f8ad48ecf000ddd0724","650c16f0f2faf8d7a0d14c09","651c1bd13941e2daa6061e2e","null","null","<p style=""font-size: 60px; font-family: BACS"">mBbKTRK</p>","","","","","","","","","",""
"html-keyboard-response","269","328369","0.0-14.0-0.18","5e283f8ad48ecf000ddd0724","650c16f0f2faf8d7a0d14c09","651c1bd13941e2daa6061e2e","null","null","<p style=""font-size: 60px; font-family: BACS"">GNAcavJQ</p>","","","","","","","","","",""
"html-keyboard-response","270","329373","0.0-14.0-0.19","5e283f8ad48ecf000ddd0724","650c16f0f2faf8d7a0d14c09","651c1bd13941e2daa6061e2e","null","null","<p style=""font-size: 60px; font-family: BACS"">QcladkYL</p>","","","","","","","","","",""
"html-keyboard-response","271","330375","0.0-14.0-0.20","5e283f8ad48ecf000ddd0724","650c16f0f2faf8d7a0d14c09","651c1bd13941e2daa6061e2e","null","null","<p style=""font-size: 60px; font-family: BACS"">lRCBcPK</p>","","","","","","","","","",""
"html-keyboard-response","272","331377","0.0-14.0-0.21","5e283f8ad48ecf000ddd0724","650c16f0f2faf8d7a0d14c09","651c1bd13941e2daa6061e2e","null","null","<p style=""font-size: 60px; font-family: BACS"">PEtETRK</p>","","","","","","","","","",""
"html-keyboard-response","273","332385","0.0-14.0-0.22","5e283f8ad48ecf000ddd0724","650c16f0f2faf8d7a0d14c09","651c1bd13941e2daa6061e2e","null","null","<p style=""font-size: 60px; font-family: BACS"">adkrUbG</p>","","","","","","","","","",""
"html-keyboard-response","274","333393","0.0-14.0-0.23","5e283f8ad48ecf000ddd0724","650c16f0f2faf8d7a0d14c09","651c1bd13941e2daa6061e2e","null","null","<p style=""font-size: 60px; font-family: BACS"">LuNZvJQ</p>","","","","","","","","","",""
"html-keyboard-response","275","334412","0.0-14.0-0.24","5e283f8ad48ecf000ddd0724","650c16f0f2faf8d7a0d14c09","651c1bd13941e2daa6061e2e","null","null","<p style=""font-size: 60px; font-family: BACS"">hkRKcPK</p>","","","","","","","","","",""
"html-keyboard-response","276","335421","0.0-14.0-0.25","5e283f8ad48ecf000ddd0724","650c16f0f2faf8d7a0d14c09","651c1bd13941e2daa6061e2e","null","null","<p style=""font-size: 60px; font-family: BACS"">LuNZkYL</p>","","","","","","","","","",""
"html-keyboard-response","277","336438","0.0-14.0-0.26","5e283f8ad48ecf000ddd0724","650c16f0f2faf8d7a0d14c09","651c1bd13941e2daa6061e2e","null","null","<p style=""font-size: 60px; font-family: BACS"">mBbKABb</p>","","","","","","","","","",""
"html-keyboard-response","278","337439","0.0-14.0-0.27","5e283f8ad48ecf000ddd0724","650c16f0f2faf8d7a0d14c09","651c1bd13941e2daa6061e2e","null","null","<p style=""font-size: 60px; font-family: BACS"">BKDRYmhc</p>","","","","","","","","","",""
"html-keyboard-response","279","338444","0.0-14.0-0.28","5e283f8ad48ecf000ddd0724","650c16f0f2faf8d7a0d14c09","651c1bd13941e2daa6061e2e","null","null","<p style=""font-size: 60px; font-family: BACS"">vmuLlUbG</p>","","","","","","","","","",""
"html-keyboard-response","280","339454","0.0-14.0-0.29","5e283f8ad48ecf000ddd0724","650c16f0f2faf8d7a0d14c09","651c1bd13941e2daa6061e2e","null","null","<p style=""font-size: 60px; font-family: BACS"">hkRKDOAK</p>","","","","","","","","","",""
"html-keyboard-response","281","340458","0.0-14.0-0.30","5e283f8ad48ecf000ddd0724","650c16f0f2faf8d7a0d14c09","651c1bd13941e2daa6061e2e","null","null","<p style=""font-size: 60px; font-family: BACS"">KMDYtABb</p>","","","","","","","","","",""
"html-keyboard-response","282","341467","0.0-14.0-0.31","5e283f8ad48ecf000ddd0724","650c16f0f2faf8d7a0d14c09","651c1bd13941e2daa6061e2e","null","null","<p style=""font-size: 60px; font-family: BACS"">adkrkYL</p>","","","","","","","","","",""
"html-keyboard-response","283","342468","0.0-14.0-0.32","5e283f8ad48ecf000ddd0724","650c16f0f2faf8d7a0d14c09","651c1bd13941e2daa6061e2e","null","null","<p style=""font-size: 60px; font-family: BACS"">PEtEDOAK</p>","","","","","","","","","",""
"html-keyboard-response","284","343470","0.0-14.0-0.33","5e283f8ad48ecf000ddd0724","650c16f0f2faf8d7a0d14c09","651c1bd13941e2daa6061e2e","null","null","<p style=""font-size: 60px; font-family: BACS"">cDOEBABb</p>","","","","","","","","","",""
"html-keyboard-response","285","344473","0.0-14.0-0.34","5e283f8ad48ecf000ddd0724","650c16f0f2faf8d7a0d14c09","651c1bd13941e2daa6061e2e","null","null","<p style=""font-size: 60px; font-family: BACS"">UJkGvJQ</p>","","","","","","","","","",""
"html-keyboard-response","286","345482","0.0-14.0-0.35","5e283f8ad48ecf000ddd0724","650c16f0f2faf8d7a0d14c09","651c1bd13941e2daa6061e2e","null","null","<p style=""font-size: 60px; font-family: BACS"">LuNZLcO</p>","","","","","","","","","",""
"html-keyboard-response","287","346486","0.0-14.0-0.36","5e283f8ad48ecf000ddd0724","650c16f0f2faf8d7a0d14c09","651c1bd13941e2daa6061e2e","null","null","<p style=""font-size: 60px; font-family: BACS"">GNAcakYL</p>","","","","","","","","","",""
"html-keyboard-response","288","347494","0.0-14.0-0.37","5e283f8ad48ecf000ddd0724","650c16f0f2faf8d7a0d14c09","651c1bd13941e2daa6061e2e","null","null","<p style=""font-size: 60px; font-family: BACS"">lRCBTRK</p>","","","","","","","","","",""
"html-keyboard-response","289","348495","0.0-14.0-0.38","5e283f8ad48ecf000ddd0724","650c16f0f2faf8d7a0d14c09","651c1bd13941e2daa6061e2e","null","null","<p style=""font-size: 60px; font-family: BACS"">bYGOZvJQ</p>","","","","","","","","","",""
"html-keyboard-response","290","349498","0.0-14.0-0.39","5e283f8ad48ecf000ddd0724","650c16f0f2faf8d7a0d14c09","651c1bd13941e2daa6061e2e","null","null","<p style=""font-size: 60px; font-family: BACS"">vmuLlLcO</p>","","","","","","","","","",""
"html-keyboard-response","291","350507","0.0-14.0-0.40","5e283f8ad48ecf000ddd0724","650c16f0f2faf8d7a0d14c09","651c1bd13941e2daa6061e2e","null","null","<p style=""font-size: 60px; font-family: BACS"">dNZAkYL</p>","","","","","","","","","",""
"html-keyboard-response","292","351510","0.0-14.0-0.41","5e283f8ad48ecf000ddd0724","650c16f0f2faf8d7a0d14c09","651c1bd13941e2daa6061e2e","null","null","<p style=""font-size: 60px; font-family: BACS"">TObCOmhc</p>","","","","","","","","","",""
"html-keyboard-response","293","352514","0.0-14.0-0.42","5e283f8ad48ecf000ddd0724","650c16f0f2faf8d7a0d14c09","651c1bd13941e2daa6061e2e","null","null","<p style=""font-size: 60px; font-family: BACS"">mbZlbadk</p>","","","","","","","","","",""
"html-keyboard-response","294","353517","0.0-14.0-0.43","5e283f8ad48ecf000ddd0724","650c16f0f2faf8d7a0d14c09","651c1bd13941e2daa6061e2e","null","null","<p style=""font-size: 60px; font-family: BACS"">BKDRYDOAK</p>","","","","","","","","","",""
"html-keyboard-response","295","354519","0.0-14.0-0.44","5e283f8ad48ecf000ddd0724","650c16f0f2faf8d7a0d14c09","651c1bd13941e2daa6061e2e","null","null","<p style=""font-size: 60px; font-family: BACS"">tcYbdcPK</p>","","","","","","","","","",""
"html-keyboard-response","296","355528","0.0-14.0-0.45","5e283f8ad48ecf000ddd0724","650c16f0f2faf8d7a0d14c09","651c1bd13941e2daa6061e2e","null","null","<p style=""font-size: 60px; font-family: BACS"">QcladvJQ</p>","","","","","","","","","",""
"html-keyboard-response","297","356530","0.0-14.0-0.46","5e283f8ad48ecf000ddd0724","650c16f0f2faf8d7a0d14c09","651c1bd13941e2daa6061e2e","null","null","<p style=""font-size: 60px; font-family: BACS"">kbmZObadk</p>","","","","","","","","","",""
"html-keyboard-response","298","357531","0.0-14.0-0.47","5e283f8ad48ecf000ddd0724","650c16f0f2faf8d7a0d14c09","651c1bd13941e2daa6061e2e","null","null","<p style=""font-size: 60px; font-family: BACS"">mbZlkYL</p>","","","","","","","","","",""
"html-keyboard-response","299","358539","0.0-14.0-0.48","5e283f8ad48ecf000ddd0724","650c16f0f2faf8d7a0d14c09","651c1bd13941e2daa6061e2e","null","null","<p style=""font-size: 60px; font-family: BACS"">lBlEABb</p>","","","","","","","","","",""
"html-keyboard-response","300","359543","0.0-14.0-0.49","5e283f8ad48ecf000ddd0724","650c16f0f2faf8d7a0d14c09","651c1bd13941e2daa6061e2e","null","null","<p style=""font-size: 60px; font-family: BACS"">KMDYtTRK</p>","","","","","","","","","",""
"html-keyboard-response","301","360552","0.0-14.0-0.50","5e283f8ad48ecf000ddd0724","650c16f0f2faf8d7a0d14c09","651c1bd13941e2daa6061e2e","null","null","<p style=""font-size: 60px; font-family: BACS"">adkrvJQ</p>","","","","","","","","","",""
"html-keyboard-response","302","361554","0.0-14.0-0.51","5e283f8ad48ecf000ddd0724","650c16f0f2faf8d7a0d14c09","651c1bd13941e2daa6061e2e","null","null","<p style=""font-size: 60px; font-family: BACS"">mBbKDOAK</p>","","","","","","","","","",""
"html-keyboard-response","303","362561","0.0-14.0-0.52","5e283f8ad48ecf000ddd0724","650c16f0f2faf8d7a0d14c09","651c1bd13941e2daa6061e2e","null","null","<p style=""font-size: 60px; font-family: BACS"">TObCOABb</p>","","","","","","","","","",""
"html-keyboard-response","304","363563","0.0-14.0-0.53","5e283f8ad48ecf000ddd0724","650c16f0f2faf8d7a0d14c09","651c1bd13941e2daa6061e2e","null","null","<p style=""font-size: 60px; font-family: BACS"">mbZlvJQ</p>","","","","","","","","","",""
"html-keyboard-response","305","364571","0.0-14.0-0.54","5e283f8ad48ecf000ddd0724","650c16f0f2faf8d7a0d14c09","651c1bd13941e2daa6061e2e","null","null","<p style=""font-size: 60px; font-family: BACS"">BKDRYcPK</p>","","","","","","","","","",""
"html-keyboard-response","306","365581","0.0-14.0-0.55","5e283f8ad48ecf000ddd0724","650c16f0f2faf8d7a0d14c09","651c1bd13941e2daa6061e2e","null","null","<p style=""font-size: 60px; font-family: BACS"">bYGOZLcO</p>","","","","","","","","","",""
"html-keyboard-response","307","366588","0.0-14.0-0.56","5e283f8ad48ecf000ddd0724","650c16f0f2faf8d7a0d14c09","651c1bd13941e2daa6061e2e","null","null","<p style=""font-size: 60px; font-family: BACS"">TObCODOAK</p>","","","","","","","","","",""
"html-keyboard-response","308","367591","0.0-14.0-0.57","5e283f8ad48ecf000ddd0724","650c16f0f2faf8d7a0d14c09","651c1bd13941e2daa6061e2e","null","null","<p style=""font-size: 60px; font-family: BACS"">cDOEBTRK</p>","","","","","","","","","",""
"html-keyboard-response","309","368607","0.0-14.0-0.58","5e283f8ad48ecf000ddd0724","650c16f0f2faf8d7a0d14c09","651c1bd13941e2daa6061e2e","null","null","<p style=""font-size: 60px; font-family: BACS"">tcYbdmhc</p>","","","","","","","","","",""
"html-keyboard-response","310","369609","0.0-14.0-0.59","5e283f8ad48ecf000ddd0724","650c16f0f2faf8d7a0d14c09","651c1bd13941e2daa6061e2e","null","null","<p style=""font-size: 60px; font-family: BACS"">lRCBABb</p>","","","","","","","","","",""
"html-keyboard-response","311","370619","0.0-14.0-0.60","5e283f8ad48ecf000ddd0724","650c16f0f2faf8d7a0d14c09","651c1bd13941e2daa6061e2e","null","null","<p style=""font-size: 60px; font-family: BACS"">UJkGbadk</p>","","","","","","","","","",""
"html-keyboard-response","312","371620","0.0-14.0-0.61","5e283f8ad48ecf000ddd0724","650c16f0f2faf8d7a0d14c09","651c1bd13941e2daa6061e2e","null","null","<p style=""font-size: 60px; font-family: BACS"">lRCBDOAK</p>","","","","","","","","","",""
"html-keyboard-response","313","372623","0.0-14.0-0.62","5e283f8ad48ecf000ddd0724","650c16f0f2faf8d7a0d14c09","651c1bd13941e2daa6061e2e","null","null","<p style=""font-size: 60px; font-family: BACS"">cDOEBcPK</p>","","","","","","","","","",""
"html-keyboard-response","314","373632","0.0-14.0-0.63","5e283f8ad48ecf000ddd0724","650c16f0f2faf8d7a0d14c09","651c1bd13941e2daa6061e2e","null","null","<p style=""font-size: 60px; font-family: BACS"">adkrbadk</p>","","","","","","","","","",""
"html-keyboard-response","315","374649","0.0-14.0-0.64","5e283f8ad48ecf000ddd0724","650c16f0f2faf8d7a0d14c09","651c1bd13941e2daa6061e2e","null","null","<p style=""font-size: 60px; font-family: BACS"">PEtEmhc</p>","","","","","","","","","",""
"html-keyboard-response","316","375657","0.0-14.0-0.65","5e283f8ad48ecf000ddd0724","650c16f0f2faf8d7a0d14c09","651c1bd13941e2daa6061e2e","null","null","<p style=""font-size: 60px; font-family: BACS"">GNAcaUbG</p>","","","","","","","","","",""
"html-keyboard-response","317","376661","0.0-14.0-0.66","5e283f8ad48ecf000ddd0724","650c16f0f2faf8d7a0d14c09","651c1bd13941e2daa6061e2e","null","null","<p style=""font-size: 60px; font-family: BACS"">lBlEmhc</p>","","","","","","","","","",""
"html-keyboard-response","318","377665","0.0-14.0-0.67","5e283f8ad48ecf000ddd0724","650c16f0f2faf8d7a0d14c09","651c1bd13941e2daa6061e2e","null","null","<p style=""font-size: 60px; font-family: BACS"">GNAcaLcO</p>","","","","","","","","","",""
"html-keyboard-response","319","378665","0.0-14.0-0.68","5e283f8ad48ecf000ddd0724","650c16f0f2faf8d7a0d14c09","651c1bd13941e2daa6061e2e","null","null","<p style=""font-size: 60px; font-family: BACS"">KMDYtDOAK</p>","","","","","","","","","",""
"html-keyboard-response","320","379667","0.0-14.0-0.69","5e283f8ad48ecf000ddd0724","650c16f0f2faf8d7a0d14c09","651c1bd13941e2daa6061e2e","null","null","<p style=""font-size: 60px; font-family: BACS"">Qcladbadk</p>","","","","","","","","","",""
"html-keyboard-response","321","380669","0.0-14.0-0.70","5e283f8ad48ecf000ddd0724","650c16f0f2faf8d7a0d14c09","651c1bd13941e2daa6061e2e","null","null","<p style=""font-size: 60px; font-family: BACS"">vmuLlkYL</p>","","","","","","","","","",""
"html-keyboard-response","322","381683","0.0-14.0-0.71","5e283f8ad48ecf000ddd0724","650c16f0f2faf8d7a0d14c09","651c1bd13941e2daa6061e2e","null","null","<p style=""font-size: 60px; font-family: BACS"">tcYbdDOAK</p>","","","","","","","","","",""
"html-keyboard-response","323","382700","0.0-14.0-0.72","5e283f8ad48ecf000ddd0724","650c16f0f2faf8d7a0d14c09","651c1bd13941e2daa6061e2e","null","null","<p style=""font-size: 60px; font-family: BACS"">hkRKTRK</p>","","","","","","","","","",""
"html-keyboard-response","324","383702","0.0-14.0-0.73","5e283f8ad48ecf000ddd0724","650c16f0f2faf8d7a0d14c09","651c1bd13941e2daa6061e2e","null","null","<p style=""font-size: 60px; font-family: BACS"">BKDRYABb</p>","","","","","","","","","",""
"html-keyboard-response","325","384704","0.0-14.0-0.74","5e283f8ad48ecf000ddd0724","650c16f0f2faf8d7a0d14c09","651c1bd13941e2daa6061e2e","null","null","<p style=""font-size: 60px; font-family: BACS"">lBlETRK</p>","","","","","","","","","",""
"html-keyboard-response","326","385712","0.0-14.0-0.75","5e283f8ad48ecf000ddd0724","650c16f0f2faf8d7a0d14c09","651c1bd13941e2daa6061e2e","null","null","<p style=""font-size: 60px; font-family: BACS"">hkRKmhc</p>","","","","","","","","","",""
"html-keyboard-response","327","386715","0.0-14.0-0.76","5e283f8ad48ecf000ddd0724","650c16f0f2faf8d7a0d14c09","651c1bd13941e2daa6061e2e","null","null","<p style=""font-size: 60px; font-family: BACS"">bYGOZUbG</p>","","","","","","","","","",""
"html-keyboard-response","328","387728","0.0-14.0-0.77","5e283f8ad48ecf000ddd0724","650c16f0f2faf8d7a0d14c09","651c1bd13941e2daa6061e2e","null","null","<p style=""font-size: 60px; font-family: BACS"">UJkGkYL</p>","","","","","","","","","",""
"html-keyboard-response","329","388745","0.0-14.0-0.78","5e283f8ad48ecf000ddd0724","650c16f0f2faf8d7a0d14c09","651c1bd13941e2daa6061e2e","null","null","<p style=""font-size: 60px; font-family: BACS"">kbmZOvJQ</p>","","","","","","","","","",""
"html-keyboard-response","330","389753","0.0-14.0-0.79","5e283f8ad48ecf000ddd0724","650c16f0f2faf8d7a0d14c09","651c1bd13941e2daa6061e2e","null","null","<p style=""font-size: 60px; font-family: BACS"">QcladLcO</p>","","","","","","","","","",""
"html-keyboard-response","331","392439","0.0-15.0","5e283f8ad48ecf000ddd0724","650c16f0f2faf8d7a0d14c09","651c1bd13941e2daa6061e2e","2686"," ","<p>Great, you've seen the fourth block of words. You may now take a short break.</p>
      <p>Press the spacebar when you're ready to continue.</p>","","","","","","","","","",""
"html-keyboard-response","332","393445","0.0-16.0-0.0","5e283f8ad48ecf000ddd0724","650c16f0f2faf8d7a0d14c09","651c1bd13941e2daa6061e2e","null","null","<p style=""font-size: 60px; font-family: BACS"">KMDYtDOAK</p>","","","","","","","","","",""
"html-keyboard-response","333","394456","0.0-16.0-0.1","5e283f8ad48ecf000ddd0724","650c16f0f2faf8d7a0d14c09","651c1bd13941e2daa6061e2e","null","null","<p style=""font-size: 60px; font-family: BACS"">KMDYtDOAK</p>","","","","","","","","","",""
"html-keyboard-response","334","395464","0.0-16.0-0.2","5e283f8ad48ecf000ddd0724","650c16f0f2faf8d7a0d14c09","651c1bd13941e2daa6061e2e","null","null","<p style=""font-size: 60px; font-family: BACS"">KMDYtDOAK</p>","","","","","","","","","",""
"html-keyboard-response","335","396480","0.0-16.0-0.3","5e283f8ad48ecf000ddd0724","650c16f0f2faf8d7a0d14c09","651c1bd13941e2daa6061e2e","null","null","<p style=""font-size: 60px; font-family: BACS"">KMDYtDOAK</p>","","","","","","","","","",""
"html-keyboard-response","336","397484","0.0-16.0-0.4","5e283f8ad48ecf000ddd0724","650c16f0f2faf8d7a0d14c09","651c1bd13941e2daa6061e2e","null","null","<p style=""font-size: 60px; font-family: BACS"">KMDYtDOAK</p>","","","","","","","","","",""
"html-keyboard-response","337","398495","0.0-16.0-0.5","5e283f8ad48ecf000ddd0724","650c16f0f2faf8d7a0d14c09","651c1bd13941e2daa6061e2e","null","null","<p style=""font-size: 60px; font-family: BACS"">KMDYtDOAK</p>","","","","","","","","","",""
"html-keyboard-response","338","399499","0.0-16.0-0.6","5e283f8ad48ecf000ddd0724","650c16f0f2faf8d7a0d14c09","651c1bd13941e2daa6061e2e","null","null","<p style=""font-size: 60px; font-family: BACS"">KMDYtDOAK</p>","","","","","","","","","",""
"html-keyboard-response","339","400500","0.0-16.0-0.7","5e283f8ad48ecf000ddd0724","650c16f0f2faf8d7a0d14c09","651c1bd13941e2daa6061e2e","null","null","<p style=""font-size: 60px; font-family: BACS"">KMDYtDOAK</p>","","","","","","","","","",""
"html-keyboard-response","340","401510","0.0-16.0-0.8","5e283f8ad48ecf000ddd0724","650c16f0f2faf8d7a0d14c09","651c1bd13941e2daa6061e2e","null","null","<p style=""font-size: 60px; font-family: BACS"">KMDYtDOAK</p>","","","","","","","","","",""
"html-keyboard-response","341","402518","0.0-16.0-0.9","5e283f8ad48ecf000ddd0724","650c16f0f2faf8d7a0d14c09","651c1bd13941e2daa6061e2e","null","null","<p style=""font-size: 60px; font-family: BACS"">KMDYtDOAK</p>","","","","","","","","","",""
"html-keyboard-response","342","403527","0.0-16.0-0.10","5e283f8ad48ecf000ddd0724","650c16f0f2faf8d7a0d14c09","651c1bd13941e2daa6061e2e","null","null","<p style=""font-size: 60px; font-family: BACS"">KMDYtDOAK</p>","","","","","","","","","",""
"html-keyboard-response","343","404536","0.0-16.0-0.11","5e283f8ad48ecf000ddd0724","650c16f0f2faf8d7a0d14c09","651c1bd13941e2daa6061e2e","null","null","<p style=""font-size: 60px; font-family: BACS"">KMDYtDOAK</p>","","","","","","","","","",""
"html-keyboard-response","344","405537","0.0-16.0-0.12","5e283f8ad48ecf000ddd0724","650c16f0f2faf8d7a0d14c09","651c1bd13941e2daa6061e2e","null","null","<p style=""font-size: 60px; font-family: BACS"">KMDYtDOAK</p>","","","","","","","","","",""
"html-keyboard-response","345","406546","0.0-16.0-0.13","5e283f8ad48ecf000ddd0724","650c16f0f2faf8d7a0d14c09","651c1bd13941e2daa6061e2e","null","null","<p style=""font-size: 60px; font-family: BACS"">KMDYtDOAK</p>","","","","","","","","","",""
"html-keyboard-response","346","407556","0.0-16.0-0.14","5e283f8ad48ecf000ddd0724","650c16f0f2faf8d7a0d14c09","651c1bd13941e2daa6061e2e","null","null","<p style=""font-size: 60px; font-family: BACS"">KMDYtDOAK</p>","","","","","","","","","",""
"html-keyboard-response","347","408573","0.0-16.0-0.15","5e283f8ad48ecf000ddd0724","650c16f0f2faf8d7a0d14c09","651c1bd13941e2daa6061e2e","null","null","<p style=""font-size: 60px; font-family: BACS"">KMDYtDOAK</p>","","","","","","","","","",""
"html-keyboard-response","348","409575","0.0-16.0-0.16","5e283f8ad48ecf000ddd0724","650c16f0f2faf8d7a0d14c09","651c1bd13941e2daa6061e2e","null","null","<p style=""font-size: 60px; font-family: BACS"">KMDYtDOAK</p>","","","","","","","","","",""
"html-keyboard-response","349","410584","0.0-16.0-0.17","5e283f8ad48ecf000ddd0724","650c16f0f2faf8d7a0d14c09","651c1bd13941e2daa6061e2e","null","null","<p style=""font-size: 60px; font-family: BACS"">KMDYtDOAK</p>","","","","","","","","","",""
"html-keyboard-response","350","411592","0.0-16.0-0.18","5e283f8ad48ecf000ddd0724","650c16f0f2faf8d7a0d14c09","651c1bd13941e2daa6061e2e","null","null","<p style=""font-size: 60px; font-family: BACS"">KMDYtDOAK</p>","","","","","","","","","",""
"html-keyboard-response","351","412595","0.0-16.0-0.19","5e283f8ad48ecf000ddd0724","650c16f0f2faf8d7a0d14c09","651c1bd13941e2daa6061e2e","null","null","<p style=""font-size: 60px; font-family: BACS"">KMDYtDOAK</p>","","","","","","","","","",""
"html-keyboard-response","352","413611","0.0-16.0-0.20","5e283f8ad48ecf000ddd0724","650c16f0f2faf8d7a0d14c09","651c1bd13941e2daa6061e2e","null","null","<p style=""font-size: 60px; font-family: BACS"">KMDYtDOAK</p>","","","","","","","","","",""
"html-keyboard-response","353","414613","0.0-16.0-0.21","5e283f8ad48ecf000ddd0724","650c16f0f2faf8d7a0d14c09","651c1bd13941e2daa6061e2e","null","null","<p style=""font-size: 60px; font-family: BACS"">KMDYtDOAK</p>","","","","","","","","","",""
"html-keyboard-response","354","415617","0.0-16.0-0.22","5e283f8ad48ecf000ddd0724","650c16f0f2faf8d7a0d14c09","651c1bd13941e2daa6061e2e","null","null","<p style=""font-size: 60px; font-family: BACS"">KMDYtDOAK</p>","","","","","","","","","",""
"html-keyboard-response","355","416628","0.0-16.0-0.23","5e283f8ad48ecf000ddd0724","650c16f0f2faf8d7a0d14c09","651c1bd13941e2daa6061e2e","null","null","<p style=""font-size: 60px; font-family: BACS"">KMDYtDOAK</p>","","","","","","","","","",""
"html-keyboard-response","356","417637","0.0-16.0-0.24","5e283f8ad48ecf000ddd0724","650c16f0f2faf8d7a0d14c09","651c1bd13941e2daa6061e2e","null","null","<p style=""font-size: 60px; font-family: BACS"">KMDYtDOAK</p>","","","","","","","","","",""
"html-keyboard-response","357","418646","0.0-16.0-0.25","5e283f8ad48ecf000ddd0724","650c16f0f2faf8d7a0d14c09","651c1bd13941e2daa6061e2e","null","null","<p style=""font-size: 60px; font-family: BACS"">KMDYtDOAK</p>","","","","","","","","","",""
"html-keyboard-response","358","419648","0.0-16.0-0.26","5e283f8ad48ecf000ddd0724","650c16f0f2faf8d7a0d14c09","651c1bd13941e2daa6061e2e","null","null","<p style=""font-size: 60px; font-family: BACS"">KMDYtDOAK</p>","","","","","","","","","",""
"html-keyboard-response","359","420664","0.0-16.0-0.27","5e283f8ad48ecf000ddd0724","650c16f0f2faf8d7a0d14c09","651c1bd13941e2daa6061e2e","null","null","<p style=""font-size: 60px; font-family: BACS"">KMDYtDOAK</p>","","","","","","","","","",""
"html-keyboard-response","360","421673","0.0-16.0-0.28","5e283f8ad48ecf000ddd0724","650c16f0f2faf8d7a0d14c09","651c1bd13941e2daa6061e2e","null","null","<p style=""font-size: 60px; font-family: BACS"">KMDYtDOAK</p>","","","","","","","","","",""
"html-keyboard-response","361","422676","0.0-16.0-0.29","5e283f8ad48ecf000ddd0724","650c16f0f2faf8d7a0d14c09","651c1bd13941e2daa6061e2e","null","null","<p style=""font-size: 60px; font-family: BACS"">KMDYtDOAK</p>","","","","","","","","","",""
"html-keyboard-response","362","423686","0.0-16.0-0.30","5e283f8ad48ecf000ddd0724","650c16f0f2faf8d7a0d14c09","651c1bd13941e2daa6061e2e","null","null","<p style=""font-size: 60px; font-family: BACS"">KMDYtDOAK</p>","","","","","","","","","",""
"html-keyboard-response","363","424689","0.0-16.0-0.31","5e283f8ad48ecf000ddd0724","650c16f0f2faf8d7a0d14c09","651c1bd13941e2daa6061e2e","null","null","<p style=""font-size: 60px; font-family: BACS"">KMDYtDOAK</p>","","","","","","","","","",""
"html-keyboard-response","364","425693","0.0-16.0-0.32","5e283f8ad48ecf000ddd0724","650c16f0f2faf8d7a0d14c09","651c1bd13941e2daa6061e2e","null","null","<p style=""font-size: 60px; font-family: BACS"">KMDYtDOAK</p>","","","","","","","","","",""
"html-keyboard-response","365","426705","0.0-16.0-0.33","5e283f8ad48ecf000ddd0724","650c16f0f2faf8d7a0d14c09","651c1bd13941e2daa6061e2e","null","null","<p style=""font-size: 60px; font-family: BACS"">KMDYtDOAK</p>","","","","","","","","","",""
"html-keyboard-response","366","427721","0.0-16.0-0.34","5e283f8ad48ecf000ddd0724","650c16f0f2faf8d7a0d14c09","651c1bd13941e2daa6061e2e","null","null","<p style=""font-size: 60px; font-family: BACS"">KMDYtDOAK</p>","","","","","","","","","",""
"html-keyboard-response","367","428722","0.0-16.0-0.35","5e283f8ad48ecf000ddd0724","650c16f0f2faf8d7a0d14c09","651c1bd13941e2daa6061e2e","null","null","<p style=""font-size: 60px; font-family: BACS"">KMDYtDOAK</p>","","","","","","","","","",""
"html-keyboard-response","368","429731","0.0-16.0-0.36","5e283f8ad48ecf000ddd0724","650c16f0f2faf8d7a0d14c09","651c1bd13941e2daa6061e2e","null","null","<p style=""font-size: 60px; font-family: BACS"">KMDYtDOAK</p>","","","","","","","","","",""
"html-keyboard-response","369","430739","0.0-16.0-0.37","5e283f8ad48ecf000ddd0724","650c16f0f2faf8d7a0d14c09","651c1bd13941e2daa6061e2e","null","null","<p style=""font-size: 60px; font-family: BACS"">KMDYtDOAK</p>","","","","","","","","","",""
"html-keyboard-response","370","431747","0.0-16.0-0.38","5e283f8ad48ecf000ddd0724","650c16f0f2faf8d7a0d14c09","651c1bd13941e2daa6061e2e","null","null","<p style=""font-size: 60px; font-family: BACS"">KMDYtDOAK</p>","","","","","","","","","",""
"html-keyboard-response","371","432756","0.0-16.0-0.39","5e283f8ad48ecf000ddd0724","650c16f0f2faf8d7a0d14c09","651c1bd13941e2daa6061e2e","null","null","<p style=""font-size: 60px; font-family: BACS"">KMDYtDOAK</p>","","","","","","","","","",""
"html-keyboard-response","372","433765","0.0-16.0-0.40","5e283f8ad48ecf000ddd0724","650c16f0f2faf8d7a0d14c09","651c1bd13941e2daa6061e2e","null","null","<p style=""font-size: 60px; font-family: BACS"">KMDYtDOAK</p>","","","","","","","","","",""
"html-keyboard-response","373","434766","0.0-16.0-0.41","5e283f8ad48ecf000ddd0724","650c16f0f2faf8d7a0d14c09","651c1bd13941e2daa6061e2e","null","null","<p style=""font-size: 60px; font-family: BACS"">KMDYtDOAK</p>","","","","","","","","","",""
"html-keyboard-response","374","435778","0.0-16.0-0.42","5e283f8ad48ecf000ddd0724","650c16f0f2faf8d7a0d14c09","651c1bd13941e2daa6061e2e","null","null","<p style=""font-size: 60px; font-family: BACS"">KMDYtDOAK</p>","","","","","","","","","",""
"html-keyboard-response","375","436780","0.0-16.0-0.43","5e283f8ad48ecf000ddd0724","650c16f0f2faf8d7a0d14c09","651c1bd13941e2daa6061e2e","null","null","<p style=""font-size: 60px; font-family: BACS"">KMDYtDOAK</p>","","","","","","","","","",""
"html-keyboard-response","376","437789","0.0-16.0-0.44","5e283f8ad48ecf000ddd0724","650c16f0f2faf8d7a0d14c09","651c1bd13941e2daa6061e2e","null","null","<p style=""font-size: 60px; font-family: BACS"">KMDYtDOAK</p>","","","","","","","","","",""
"html-keyboard-response","377","438796","0.0-16.0-0.45","5e283f8ad48ecf000ddd0724","650c16f0f2faf8d7a0d14c09","651c1bd13941e2daa6061e2e","null","null","<p style=""font-size: 60px; font-family: BACS"">KMDYtDOAK</p>","","","","","","","","","",""
"html-keyboard-response","378","439800","0.0-16.0-0.46","5e283f8ad48ecf000ddd0724","650c16f0f2faf8d7a0d14c09","651c1bd13941e2daa6061e2e","null","null","<p style=""font-size: 60px; font-family: BACS"">KMDYtDOAK</p>","","","","","","","","","",""
"html-keyboard-response","379","440816","0.0-16.0-0.47","5e283f8ad48ecf000ddd0724","650c16f0f2faf8d7a0d14c09","651c1bd13941e2daa6061e2e","null","null","<p style=""font-size: 60px; font-family: BACS"">KMDYtDOAK</p>","","","","","","","","","",""
"html-keyboard-response","380","441825","0.0-16.0-0.48","5e283f8ad48ecf000ddd0724","650c16f0f2faf8d7a0d14c09","651c1bd13941e2daa6061e2e","null","null","<p style=""font-size: 60px; font-family: BACS"">KMDYtDOAK</p>","","","","","","","","","",""
"html-keyboard-response","381","442834","0.0-16.0-0.49","5e283f8ad48ecf000ddd0724","650c16f0f2faf8d7a0d14c09","651c1bd13941e2daa6061e2e","null","null","<p style=""font-size: 60px; font-family: BACS"">KMDYtDOAK</p>","","","","","","","","","",""
"html-keyboard-response","382","443836","0.0-16.0-0.50","5e283f8ad48ecf000ddd0724","650c16f0f2faf8d7a0d14c09","651c1bd13941e2daa6061e2e","null","null","<p style=""font-size: 60px; font-family: BACS"">KMDYtDOAK</p>","","","","","","","","","",""
"html-keyboard-response","383","444841","0.0-16.0-0.51","5e283f8ad48ecf000ddd0724","650c16f0f2faf8d7a0d14c09","651c1bd13941e2daa6061e2e","null","null","<p style=""font-size: 60px; font-family: BACS"">KMDYtDOAK</p>","","","","","","","","","",""
"html-keyboard-response","384","445850","0.0-16.0-0.52","5e283f8ad48ecf000ddd0724","650c16f0f2faf8d7a0d14c09","651c1bd13941e2daa6061e2e","null","null","<p style=""font-size: 60px; font-family: BACS"">KMDYtDOAK</p>","","","","","","","","","",""
"html-keyboard-response","385","446858","0.0-16.0-0.53","5e283f8ad48ecf000ddd0724","650c16f0f2faf8d7a0d14c09","651c1bd13941e2daa6061e2e","null","null","<p style=""font-size: 60px; font-family: BACS"">KMDYtDOAK</p>","","","","","","","","","",""
"html-keyboard-response","386","447863","0.0-16.0-0.54","5e283f8ad48ecf000ddd0724","650c16f0f2faf8d7a0d14c09","651c1bd13941e2daa6061e2e","null","null","<p style=""font-size: 60px; font-family: BACS"">KMDYtDOAK</p>","","","","","","","","","",""
"html-keyboard-response","387","448872","0.0-16.0-0.55","5e283f8ad48ecf000ddd0724","650c16f0f2faf8d7a0d14c09","651c1bd13941e2daa6061e2e","null","null","<p style=""font-size: 60px; font-family: BACS"">KMDYtDOAK</p>","","","","","","","","","",""
"html-keyboard-response","388","449876","0.0-16.0-0.56","5e283f8ad48ecf000ddd0724","650c16f0f2faf8d7a0d14c09","651c1bd13941e2daa6061e2e","null","null","<p style=""font-size: 60px; font-family: BACS"">KMDYtDOAK</p>","","","","","","","","","",""
"html-keyboard-response","389","450888","0.0-16.0-0.57","5e283f8ad48ecf000ddd0724","650c16f0f2faf8d7a0d14c09","651c1bd13941e2daa6061e2e","null","null","<p style=""font-size: 60px; font-family: BACS"">KMDYtDOAK</p>","","","","","","","","","",""
"html-keyboard-response","390","451891","0.0-16.0-0.58","5e283f8ad48ecf000ddd0724","650c16f0f2faf8d7a0d14c09","651c1bd13941e2daa6061e2e","null","null","<p style=""font-size: 60px; font-family: BACS"">KMDYtDOAK</p>","","","","","","","","","",""
"html-keyboard-response","391","452908","0.0-16.0-0.59","5e283f8ad48ecf000ddd0724","650c16f0f2faf8d7a0d14c09","651c1bd13941e2daa6061e2e","null","null","<p style=""font-size: 60px; font-family: BACS"">KMDYtDOAK</p>","","","","","","","","","",""
"html-keyboard-response","392","453924","0.0-16.0-0.60","5e283f8ad48ecf000ddd0724","650c16f0f2faf8d7a0d14c09","651c1bd13941e2daa6061e2e","null","null","<p style=""font-size: 60px; font-family: BACS"">KMDYtDOAK</p>","","","","","","","","","",""
"html-keyboard-response","393","454925","0.0-16.0-0.61","5e283f8ad48ecf000ddd0724","650c16f0f2faf8d7a0d14c09","651c1bd13941e2daa6061e2e","null","null","<p style=""font-size: 60px; font-family: BACS"">KMDYtDOAK</p>","","","","","","","","","",""
