"trial_type","trial_index","time_elapsed","internal_node_id","subject_id","study_id","session_id","rt","response","stimulus","success","item","task","correct_response","testing_condition","correct","target","confound","name"
"pavlovia","0","686","0.0-0.0","5ec12ed7a66dbf01c7d740c1","650c16f0f2faf8d7a0d14c09","651c1c20a6ef7bed516d247e","","","","","","","","","","","",""
"survey-html-form","1","16628","0.0-1.0","5ec12ed7a66dbf01c7d740c1","650c16f0f2faf8d7a0d14c09","651c1c20a6ef7bed516d247e","15941","{""ID"":""5ec12ed7a66dbf01c7d740c1""}","","","","","","","","","",""
"html-keyboard-response","2","22307","0.0-2.0","5ec12ed7a66dbf01c7d740c1","650c16f0f2faf8d7a0d14c09","651c1c20a6ef7bed516d247e","5678"," ","<p style=""font-size: 15px;"">Before beginning, we ask that you read the consent information and confirm your agreement to participate in the experiment.</p>
      <p style=""font-size: 15px;""> We ask that you remember that this is a research project and that your participation is entirely voluntary. You can stop your participation at any time, without needing to provide any explanation. The study we're asking you to participate in aims at examining how readers process written words. You will be engaged in a session of apprximately 20 minutes, followed by a brief questionnaire. You will have the opportunity to take a few breaks during the experiment. You will be paid £4 for your participation, corresponding to a rate of £8/hour. While this experiment looks at cognitive faculties, this experiment doesn't constitute clinical proof of eventual pathologies.</p>
      <p style=""font-size: 15px;"">All of the information collected thanks to yours and others' participation will be held in a secure password-protected server, and will not be shared with anyone not authorised to view it. Your personal information will be kept with an arbitrary participant ID. Thanks to this data anonymity process, any researcher analysing the data won't be able to track the information back to a specific participant. Therefore, this process will make identifying you impossibile, even when results from the study will be published in scientific reviews, presented at congresses, or at any other public forum. More generally, the collected data will be treated in accordance with the laws on privacy and conformity to the Legislative Degree n. 196 ""Code regarding the protection of personal data"" of the 30th of June 2003 and to the European Regulation 2016/670 (General Data Protection Regulation - GDPR). The Data Protection Officer is Avv. Valentina Carollo, who can be contacted at the following email addresses: <a href=""mailto:dpo@sissa.it"">dpo@sissa.it</a> or <a href=""mailto:rpd@sissa.it"">rpd@sissa.it</a> - PEC: <a href=""mailto:protocollo@pec.sissa.it"">protocollo@pec.sissa.it</a>.</p>
      <p style=""font-size: 15px;""> Before expressing your consent to participate, we would like to remind you again that in case you need explanations on any aspect of the experimental procedure, the researcher is at your disposition (<a href=""mailto:aliebelt@sissa.it"">aliebelt@sissa.it</a>, <a href=""mailto:davide.crepaldi@sissa.it"">davide.crepaldi@sissa.it</a>).</p>
      <p style=""font-size: 15px;"">If you would like to download the informed consent form, you can do so here: <a href=""BASL-Informed_Consent.pdf"" download>informed consent form</a>.</p>
      <p style=""font-size: 15px;"">We ask that you press the spacebar to proceed to the consent section.</p>","","","","","","","","",""
"survey-html-form","3","29513","0.0-3.0","5ec12ed7a66dbf01c7d740c1","650c16f0f2faf8d7a0d14c09","651c1c20a6ef7bed516d247e","7206","{""consent1"":""YES"",""consent2"":""YES"",""consent3"":""YES"",""consent4"":""YES"",""consent5"":""YES"",""consent6"":""YES""}","","","","","","","","","",""
"fullscreen","4","33589","0.0-4.0","5ec12ed7a66dbf01c7d740c1","650c16f0f2faf8d7a0d14c09","651c1c20a6ef7bed516d247e","","","","true","","","","","","","",""
"html-keyboard-response","5","53977","0.0-5.0","5ec12ed7a66dbf01c7d740c1","650c16f0f2faf8d7a0d14c09","651c1c20a6ef7bed516d247e","20389"," ","<p>Welcome, and thank you very much for your time!</p>
      <p>In this experiment, you'll be a language expert who's been asked to take a look at words that Earth has received in its first communication with aliens. Your task, in this first part of the experiment, is to pay close attention to the words you'll be shown; later, world leaders will ask you questions on what you saw. The words will be shown to you quite quickly; it seems that the aliens were in a hurry :-)</p>
      <p>Press the spacebar to continue.<p>","","","","","","","","",""
"html-keyboard-response","6","54029","0.0-6.0","5ec12ed7a66dbf01c7d740c1","650c16f0f2faf8d7a0d14c09","651c1c20a6ef7bed516d247e","null","null","<p style=""font-size: 120px; font-family: BACS""> </p>","","","","","","","","",""
"html-keyboard-response","7","59348","0.0-7.0","5ec12ed7a66dbf01c7d740c1","650c16f0f2faf8d7a0d14c09","651c1c20a6ef7bed516d247e","5319"," ","<p>Here is an example of the words you'll see:</p>
      <img src='esempio.png' height='400px'>
      <p>When you're ready to begin, press the spacebar.</p></div>","","","","","","","","",""
"html-keyboard-response","8","60350","0.0-8.0-0.0","5ec12ed7a66dbf01c7d740c1","650c16f0f2faf8d7a0d14c09","651c1c20a6ef7bed516d247e","null","null","<p style=""font-size: 60px; font-family: BACS"">tKDmhRdCc</p>","","","","","","","","",""
"html-keyboard-response","9","61352","0.0-8.0-0.1","5ec12ed7a66dbf01c7d740c1","650c16f0f2faf8d7a0d14c09","651c1c20a6ef7bed516d247e","null","null","<p style=""font-size: 60px; font-family: BACS"">ZdNmUYaum</p>","","","","","","","","",""
"html-keyboard-response","10","62352","0.0-8.0-0.2","5ec12ed7a66dbf01c7d740c1","650c16f0f2faf8d7a0d14c09","651c1c20a6ef7bed516d247e","null","null","<p style=""font-size: 60px; font-family: BACS"">vJabcYUv</p>","","","","","","","","",""
"html-keyboard-response","11","63353","0.0-8.0-0.3","5ec12ed7a66dbf01c7d740c1","650c16f0f2faf8d7a0d14c09","651c1c20a6ef7bed516d247e","null","null","<p style=""font-size: 60px; font-family: BACS"">tKDmhRDM</p>","","","","","","","","",""
"html-keyboard-response","12","64353","0.0-8.0-0.4","5ec12ed7a66dbf01c7d740c1","650c16f0f2faf8d7a0d14c09","651c1c20a6ef7bed516d247e","null","null","<p style=""font-size: 60px; font-family: BACS"">uQkrdcYUv</p>","","","","","","","","",""
"html-keyboard-response","13","65354","0.0-8.0-0.5","5ec12ed7a66dbf01c7d740c1","650c16f0f2faf8d7a0d14c09","651c1c20a6ef7bed516d247e","null","null","<p style=""font-size: 60px; font-family: BACS"">vJabLkNc</p>","","","","","","","","",""
"html-keyboard-response","14","66363","0.0-8.0-0.6","5ec12ed7a66dbf01c7d740c1","650c16f0f2faf8d7a0d14c09","651c1c20a6ef7bed516d247e","null","null","<p style=""font-size: 60px; font-family: BACS"">ckduAYNu</p>","","","","","","","","",""
"html-keyboard-response","15","67364","0.0-8.0-0.7","5ec12ed7a66dbf01c7d740c1","650c16f0f2faf8d7a0d14c09","651c1c20a6ef7bed516d247e","null","null","<p style=""font-size: 60px; font-family: BACS"">GNAcacYUv</p>","","","","","","","","",""
"html-keyboard-response","16","68368","0.0-8.0-0.8","5ec12ed7a66dbf01c7d740c1","650c16f0f2faf8d7a0d14c09","651c1c20a6ef7bed516d247e","null","null","<p style=""font-size: 60px; font-family: BACS"">DMRPDlDT</p>","","","","","","","","",""
"html-keyboard-response","17","69369","0.0-8.0-0.9","5ec12ed7a66dbf01c7d740c1","650c16f0f2faf8d7a0d14c09","651c1c20a6ef7bed516d247e","null","null","<p style=""font-size: 60px; font-family: BACS"">LAclALUOk</p>","","","","","","","","",""
"html-keyboard-response","18","70373","0.0-8.0-0.10","5ec12ed7a66dbf01c7d740c1","650c16f0f2faf8d7a0d14c09","651c1c20a6ef7bed516d247e","null","null","<p style=""font-size: 60px; font-family: BACS"">BdtACkMEC</p>","","","","","","","","",""
"html-keyboard-response","19","71374","0.0-8.0-0.11","5ec12ed7a66dbf01c7d740c1","650c16f0f2faf8d7a0d14c09","651c1c20a6ef7bed516d247e","null","null","<p style=""font-size: 60px; font-family: BACS"">LAclAYaum</p>","","","","","","","","",""
"html-keyboard-response","20","72375","0.0-8.0-0.12","5ec12ed7a66dbf01c7d740c1","650c16f0f2faf8d7a0d14c09","651c1c20a6ef7bed516d247e","null","null","<p style=""font-size: 60px; font-family: BACS"">uQkrdLUOk</p>","","","","","","","","",""
"html-keyboard-response","21","73382","0.0-8.0-0.13","5ec12ed7a66dbf01c7d740c1","650c16f0f2faf8d7a0d14c09","651c1c20a6ef7bed516d247e","null","null","<p style=""font-size: 60px; font-family: BACS"">bmdABmCd</p>","","","","","","","","",""
"html-keyboard-response","22","74382","0.0-8.0-0.14","5ec12ed7a66dbf01c7d740c1","650c16f0f2faf8d7a0d14c09","651c1c20a6ef7bed516d247e","null","null","<p style=""font-size: 60px; font-family: BACS"">PCMPKkMEC</p>","","","","","","","","",""
"html-keyboard-response","23","75384","0.0-8.0-0.15","5ec12ed7a66dbf01c7d740c1","650c16f0f2faf8d7a0d14c09","651c1c20a6ef7bed516d247e","null","null","<p style=""font-size: 60px; font-family: BACS"">ckduALUOk</p>","","","","","","","","",""
"html-keyboard-response","24","76384","0.0-8.0-0.16","5ec12ed7a66dbf01c7d740c1","650c16f0f2faf8d7a0d14c09","651c1c20a6ef7bed516d247e","null","null","<p style=""font-size: 60px; font-family: BACS"">YOaAbLkNc</p>","","","","","","","","",""
"html-keyboard-response","25","77394","0.0-8.0-0.17","5ec12ed7a66dbf01c7d740c1","650c16f0f2faf8d7a0d14c09","651c1c20a6ef7bed516d247e","null","null","<p style=""font-size: 60px; font-family: BACS"">ZJLmrYaum</p>","","","","","","","","",""
"html-keyboard-response","26","78408","0.0-8.0-0.18","5ec12ed7a66dbf01c7d740c1","650c16f0f2faf8d7a0d14c09","651c1c20a6ef7bed516d247e","null","null","<p style=""font-size: 60px; font-family: BACS"">MBKREmCd</p>","","","","","","","","",""
"html-keyboard-response","27","79409","0.0-8.0-0.19","5ec12ed7a66dbf01c7d740c1","650c16f0f2faf8d7a0d14c09","651c1c20a6ef7bed516d247e","null","null","<p style=""font-size: 60px; font-family: BACS"">RtRhRDM</p>","","","","","","","","",""
"html-keyboard-response","28","80410","0.0-8.0-0.20","5ec12ed7a66dbf01c7d740c1","650c16f0f2faf8d7a0d14c09","651c1c20a6ef7bed516d247e","null","null","<p style=""font-size: 60px; font-family: BACS"">ZdNmULkNc</p>","","","","","","","","",""
"html-keyboard-response","29","81415","0.0-8.0-0.21","5ec12ed7a66dbf01c7d740c1","650c16f0f2faf8d7a0d14c09","651c1c20a6ef7bed516d247e","null","null","<p style=""font-size: 60px; font-family: BACS"">QLrOJYaum</p>","","","","","","","","",""
"html-keyboard-response","30","82416","0.0-8.0-0.22","5ec12ed7a66dbf01c7d740c1","650c16f0f2faf8d7a0d14c09","651c1c20a6ef7bed516d247e","null","null","<p style=""font-size: 60px; font-family: BACS"">PCMPKmCd</p>","","","","","","","","",""
"html-keyboard-response","31","83418","0.0-8.0-0.23","5ec12ed7a66dbf01c7d740c1","650c16f0f2faf8d7a0d14c09","651c1c20a6ef7bed516d247e","null","null","<p style=""font-size: 60px; font-family: BACS"">QLrOJcYUv</p>","","","","","","","","",""
"html-keyboard-response","32","84420","0.0-8.0-0.24","5ec12ed7a66dbf01c7d740c1","650c16f0f2faf8d7a0d14c09","651c1c20a6ef7bed516d247e","null","null","<p style=""font-size: 60px; font-family: BACS"">PCMPKRDM</p>","","","","","","","","",""
"html-keyboard-response","33","85421","0.0-8.0-0.25","5ec12ed7a66dbf01c7d740c1","650c16f0f2faf8d7a0d14c09","651c1c20a6ef7bed516d247e","null","null","<p style=""font-size: 60px; font-family: BACS"">vJabYaum</p>","","","","","","","","",""
"html-keyboard-response","34","86421","0.0-8.0-0.26","5ec12ed7a66dbf01c7d740c1","650c16f0f2faf8d7a0d14c09","651c1c20a6ef7bed516d247e","null","null","<p style=""font-size: 60px; font-family: BACS"">QLrOJYNu</p>","","","","","","","","",""
"html-keyboard-response","35","87422","0.0-8.0-0.27","5ec12ed7a66dbf01c7d740c1","650c16f0f2faf8d7a0d14c09","651c1c20a6ef7bed516d247e","null","null","<p style=""font-size: 60px; font-family: BACS"">ckduALkNc</p>","","","","","","","","",""
"html-keyboard-response","36","88431","0.0-8.0-0.28","5ec12ed7a66dbf01c7d740c1","650c16f0f2faf8d7a0d14c09","651c1c20a6ef7bed516d247e","null","null","<p style=""font-size: 60px; font-family: BACS"">auYAkYNu</p>","","","","","","","","",""
"html-keyboard-response","37","89431","0.0-8.0-0.29","5ec12ed7a66dbf01c7d740c1","650c16f0f2faf8d7a0d14c09","651c1c20a6ef7bed516d247e","null","null","<p style=""font-size: 60px; font-family: BACS"">bcbMDlDT</p>","","","","","","","","",""
"html-keyboard-response","38","90432","0.0-8.0-0.30","5ec12ed7a66dbf01c7d740c1","650c16f0f2faf8d7a0d14c09","651c1c20a6ef7bed516d247e","null","null","<p style=""font-size: 60px; font-family: BACS"">bROCkMEC</p>","","","","","","","","",""
"html-keyboard-response","39","91433","0.0-8.0-0.31","5ec12ed7a66dbf01c7d740c1","650c16f0f2faf8d7a0d14c09","651c1c20a6ef7bed516d247e","null","null","<p style=""font-size: 60px; font-family: BACS"">DMRPmCd</p>","","","","","","","","",""
"html-keyboard-response","40","92433","0.0-8.0-0.32","5ec12ed7a66dbf01c7d740c1","650c16f0f2faf8d7a0d14c09","651c1c20a6ef7bed516d247e","null","null","<p style=""font-size: 60px; font-family: BACS"">CRdBdRDM</p>","","","","","","","","",""
"html-keyboard-response","41","93434","0.0-8.0-0.33","5ec12ed7a66dbf01c7d740c1","650c16f0f2faf8d7a0d14c09","651c1c20a6ef7bed516d247e","null","null","<p style=""font-size: 60px; font-family: BACS"">BdtACRdCc</p>","","","","","","","","",""
"html-keyboard-response","42","94434","0.0-8.0-0.34","5ec12ed7a66dbf01c7d740c1","650c16f0f2faf8d7a0d14c09","651c1c20a6ef7bed516d247e","null","null","<p style=""font-size: 60px; font-family: BACS"">MBKREDlDT</p>","","","","","","","","",""
"html-keyboard-response","43","95435","0.0-8.0-0.35","5ec12ed7a66dbf01c7d740c1","650c16f0f2faf8d7a0d14c09","651c1c20a6ef7bed516d247e","null","null","<p style=""font-size: 60px; font-family: BACS"">GNAcaLUOk</p>","","","","","","","","",""
"html-keyboard-response","44","96437","0.0-8.0-0.36","5ec12ed7a66dbf01c7d740c1","650c16f0f2faf8d7a0d14c09","651c1c20a6ef7bed516d247e","null","null","<p style=""font-size: 60px; font-family: BACS"">tKDmhmCd</p>","","","","","","","","",""
"html-keyboard-response","45","97438","0.0-8.0-0.37","5ec12ed7a66dbf01c7d740c1","650c16f0f2faf8d7a0d14c09","651c1c20a6ef7bed516d247e","null","null","<p style=""font-size: 60px; font-family: BACS"">bcbMRDM</p>","","","","","","","","",""
"html-keyboard-response","46","98445","0.0-8.0-0.38","5ec12ed7a66dbf01c7d740c1","650c16f0f2faf8d7a0d14c09","651c1c20a6ef7bed516d247e","null","null","<p style=""font-size: 60px; font-family: BACS"">RtRhRdCc</p>","","","","","","","","",""
"html-keyboard-response","47","99446","0.0-8.0-0.39","5ec12ed7a66dbf01c7d740c1","650c16f0f2faf8d7a0d14c09","651c1c20a6ef7bed516d247e","null","null","<p style=""font-size: 60px; font-family: BACS"">ZJLmrcYUv</p>","","","","","","","","",""
"html-keyboard-response","48","100447","0.0-8.0-0.40","5ec12ed7a66dbf01c7d740c1","650c16f0f2faf8d7a0d14c09","651c1c20a6ef7bed516d247e","null","null","<p style=""font-size: 60px; font-family: BACS"">YOaAbYNu</p>","","","","","","","","",""
"html-keyboard-response","49","101448","0.0-8.0-0.41","5ec12ed7a66dbf01c7d740c1","650c16f0f2faf8d7a0d14c09","651c1c20a6ef7bed516d247e","null","null","<p style=""font-size: 60px; font-family: BACS"">MBKREkMEC</p>","","","","","","","","",""
"html-keyboard-response","50","102449","0.0-8.0-0.42","5ec12ed7a66dbf01c7d740c1","650c16f0f2faf8d7a0d14c09","651c1c20a6ef7bed516d247e","null","null","<p style=""font-size: 60px; font-family: BACS"">ZJLmrYNu</p>","","","","","","","","",""
"html-keyboard-response","51","103449","0.0-8.0-0.43","5ec12ed7a66dbf01c7d740c1","650c16f0f2faf8d7a0d14c09","651c1c20a6ef7bed516d247e","null","null","<p style=""font-size: 60px; font-family: BACS"">DMRPRdCc</p>","","","","","","","","",""
"html-keyboard-response","52","104450","0.0-8.0-0.44","5ec12ed7a66dbf01c7d740c1","650c16f0f2faf8d7a0d14c09","651c1c20a6ef7bed516d247e","null","null","<p style=""font-size: 60px; font-family: BACS"">bmdABDlDT</p>","","","","","","","","",""
"html-keyboard-response","53","105454","0.0-8.0-0.45","5ec12ed7a66dbf01c7d740c1","650c16f0f2faf8d7a0d14c09","651c1c20a6ef7bed516d247e","null","null","<p style=""font-size: 60px; font-family: BACS"">bcbMRdCc</p>","","","","","","","","",""
"html-keyboard-response","54","106454","0.0-8.0-0.46","5ec12ed7a66dbf01c7d740c1","650c16f0f2faf8d7a0d14c09","651c1c20a6ef7bed516d247e","null","null","<p style=""font-size: 60px; font-family: BACS"">tKDmhkMEC</p>","","","","","","","","",""
"html-keyboard-response","55","107455","0.0-8.0-0.47","5ec12ed7a66dbf01c7d740c1","650c16f0f2faf8d7a0d14c09","651c1c20a6ef7bed516d247e","null","null","<p style=""font-size: 60px; font-family: BACS"">GNAcaLkNc</p>","","","","","","","","",""
"html-keyboard-response","56","108461","0.0-8.0-0.48","5ec12ed7a66dbf01c7d740c1","650c16f0f2faf8d7a0d14c09","651c1c20a6ef7bed516d247e","null","null","<p style=""font-size: 60px; font-family: BACS"">BdtACRDM</p>","","","","","","","","",""
"html-keyboard-response","57","109461","0.0-8.0-0.49","5ec12ed7a66dbf01c7d740c1","650c16f0f2faf8d7a0d14c09","651c1c20a6ef7bed516d247e","null","null","<p style=""font-size: 60px; font-family: BACS"">CRdBdkMEC</p>","","","","","","","","",""
"html-keyboard-response","58","110462","0.0-8.0-0.50","5ec12ed7a66dbf01c7d740c1","650c16f0f2faf8d7a0d14c09","651c1c20a6ef7bed516d247e","null","null","<p style=""font-size: 60px; font-family: BACS"">bROCDlDT</p>","","","","","","","","",""
"html-keyboard-response","59","111464","0.0-8.0-0.51","5ec12ed7a66dbf01c7d740c1","650c16f0f2faf8d7a0d14c09","651c1c20a6ef7bed516d247e","null","null","<p style=""font-size: 60px; font-family: BACS"">bmdABRDM</p>","","","","","","","","",""
"html-keyboard-response","60","112465","0.0-8.0-0.52","5ec12ed7a66dbf01c7d740c1","650c16f0f2faf8d7a0d14c09","651c1c20a6ef7bed516d247e","null","null","<p style=""font-size: 60px; font-family: BACS"">uQkrdYNu</p>","","","","","","","","",""
"html-keyboard-response","61","113466","0.0-8.0-0.53","5ec12ed7a66dbf01c7d740c1","650c16f0f2faf8d7a0d14c09","651c1c20a6ef7bed516d247e","null","null","<p style=""font-size: 60px; font-family: BACS"">ckduAcYUv</p>","","","","","","","","",""
"html-keyboard-response","62","114469","0.0-8.0-0.54","5ec12ed7a66dbf01c7d740c1","650c16f0f2faf8d7a0d14c09","651c1c20a6ef7bed516d247e","null","null","<p style=""font-size: 60px; font-family: BACS"">RtRhDlDT</p>","","","","","","","","",""
"html-keyboard-response","63","115471","0.0-8.0-0.55","5ec12ed7a66dbf01c7d740c1","650c16f0f2faf8d7a0d14c09","651c1c20a6ef7bed516d247e","null","null","<p style=""font-size: 60px; font-family: BACS"">LAclAYNu</p>","","","","","","","","",""
"html-keyboard-response","64","116477","0.0-8.0-0.56","5ec12ed7a66dbf01c7d740c1","650c16f0f2faf8d7a0d14c09","651c1c20a6ef7bed516d247e","null","null","<p style=""font-size: 60px; font-family: BACS"">RtRhmCd</p>","","","","","","","","",""
"html-keyboard-response","65","117479","0.0-8.0-0.57","5ec12ed7a66dbf01c7d740c1","650c16f0f2faf8d7a0d14c09","651c1c20a6ef7bed516d247e","null","null","<p style=""font-size: 60px; font-family: BACS"">GNAcaYaum</p>","","","","","","","","",""
"html-keyboard-response","66","118479","0.0-8.0-0.58","5ec12ed7a66dbf01c7d740c1","650c16f0f2faf8d7a0d14c09","651c1c20a6ef7bed516d247e","null","null","<p style=""font-size: 60px; font-family: BACS"">vJabYNu</p>","","","","","","","","",""
"html-keyboard-response","67","119480","0.0-8.0-0.59","5ec12ed7a66dbf01c7d740c1","650c16f0f2faf8d7a0d14c09","651c1c20a6ef7bed516d247e","null","null","<p style=""font-size: 60px; font-family: BACS"">bROCmCd</p>","","","","","","","","",""
"html-keyboard-response","68","120481","0.0-8.0-0.60","5ec12ed7a66dbf01c7d740c1","650c16f0f2faf8d7a0d14c09","651c1c20a6ef7bed516d247e","null","null","<p style=""font-size: 60px; font-family: BACS"">ZJLmrLkNc</p>","","","","","","","","",""
"html-keyboard-response","69","121491","0.0-8.0-0.61","5ec12ed7a66dbf01c7d740c1","650c16f0f2faf8d7a0d14c09","651c1c20a6ef7bed516d247e","null","null","<p style=""font-size: 60px; font-family: BACS"">QLrOJLUOk</p>","","","","","","","","",""
"html-keyboard-response","70","122492","0.0-8.0-0.62","5ec12ed7a66dbf01c7d740c1","650c16f0f2faf8d7a0d14c09","651c1c20a6ef7bed516d247e","null","null","<p style=""font-size: 60px; font-family: BACS"">CRdBdmCd</p>","","","","","","","","",""
"html-keyboard-response","71","123493","0.0-8.0-0.63","5ec12ed7a66dbf01c7d740c1","650c16f0f2faf8d7a0d14c09","651c1c20a6ef7bed516d247e","null","null","<p style=""font-size: 60px; font-family: BACS"">YOaAbYaum</p>","","","","","","","","",""
"html-keyboard-response","72","124493","0.0-8.0-0.64","5ec12ed7a66dbf01c7d740c1","650c16f0f2faf8d7a0d14c09","651c1c20a6ef7bed516d247e","null","null","<p style=""font-size: 60px; font-family: BACS"">DMRPRDM</p>","","","","","","","","",""
"html-keyboard-response","73","125494","0.0-8.0-0.65","5ec12ed7a66dbf01c7d740c1","650c16f0f2faf8d7a0d14c09","651c1c20a6ef7bed516d247e","null","null","<p style=""font-size: 60px; font-family: BACS"">LAclALkNc</p>","","","","","","","","",""
"html-keyboard-response","74","126496","0.0-8.0-0.66","5ec12ed7a66dbf01c7d740c1","650c16f0f2faf8d7a0d14c09","651c1c20a6ef7bed516d247e","null","null","<p style=""font-size: 60px; font-family: BACS"">bROCRdCc</p>","","","","","","","","",""
"html-keyboard-response","75","127497","0.0-8.0-0.67","5ec12ed7a66dbf01c7d740c1","650c16f0f2faf8d7a0d14c09","651c1c20a6ef7bed516d247e","null","null","<p style=""font-size: 60px; font-family: BACS"">bmdABkMEC</p>","","","","","","","","",""
"html-keyboard-response","76","128510","0.0-8.0-0.68","5ec12ed7a66dbf01c7d740c1","650c16f0f2faf8d7a0d14c09","651c1c20a6ef7bed516d247e","null","null","<p style=""font-size: 60px; font-family: BACS"">auYAkcYUv</p>","","","","","","","","",""
"html-keyboard-response","77","129526","0.0-8.0-0.69","5ec12ed7a66dbf01c7d740c1","650c16f0f2faf8d7a0d14c09","651c1c20a6ef7bed516d247e","null","null","<p style=""font-size: 60px; font-family: BACS"">bcbMkMEC</p>","","","","","","","","",""
"html-keyboard-response","78","130540","0.0-8.0-0.70","5ec12ed7a66dbf01c7d740c1","650c16f0f2faf8d7a0d14c09","651c1c20a6ef7bed516d247e","null","null","<p style=""font-size: 60px; font-family: BACS"">PCMPKDlDT</p>","","","","","","","","",""
"html-keyboard-response","79","131553","0.0-8.0-0.71","5ec12ed7a66dbf01c7d740c1","650c16f0f2faf8d7a0d14c09","651c1c20a6ef7bed516d247e","null","null","<p style=""font-size: 60px; font-family: BACS"">auYAkLUOk</p>","","","","","","","","",""
"html-keyboard-response","80","132560","0.0-8.0-0.72","5ec12ed7a66dbf01c7d740c1","650c16f0f2faf8d7a0d14c09","651c1c20a6ef7bed516d247e","null","null","<p style=""font-size: 60px; font-family: BACS"">MBKRERdCc</p>","","","","","","","","",""
"html-keyboard-response","81","133563","0.0-8.0-0.73","5ec12ed7a66dbf01c7d740c1","650c16f0f2faf8d7a0d14c09","651c1c20a6ef7bed516d247e","null","null","<p style=""font-size: 60px; font-family: BACS"">YOaAbLUOk</p>","","","","","","","","",""
"html-keyboard-response","82","134565","0.0-8.0-0.74","5ec12ed7a66dbf01c7d740c1","650c16f0f2faf8d7a0d14c09","651c1c20a6ef7bed516d247e","null","null","<p style=""font-size: 60px; font-family: BACS"">auYAkLkNc</p>","","","","","","","","",""
"html-keyboard-response","83","135580","0.0-8.0-0.75","5ec12ed7a66dbf01c7d740c1","650c16f0f2faf8d7a0d14c09","651c1c20a6ef7bed516d247e","null","null","<p style=""font-size: 60px; font-family: BACS"">ZdNmUcYUv</p>","","","","","","","","",""
"html-keyboard-response","84","136580","0.0-8.0-0.76","5ec12ed7a66dbf01c7d740c1","650c16f0f2faf8d7a0d14c09","651c1c20a6ef7bed516d247e","null","null","<p style=""font-size: 60px; font-family: BACS"">uQkrdYaum</p>","","","","","","","","",""
"html-keyboard-response","85","137596","0.0-8.0-0.77","5ec12ed7a66dbf01c7d740c1","650c16f0f2faf8d7a0d14c09","651c1c20a6ef7bed516d247e","null","null","<p style=""font-size: 60px; font-family: BACS"">BdtACDlDT</p>","","","","","","","","",""
"html-keyboard-response","86","138603","0.0-8.0-0.78","5ec12ed7a66dbf01c7d740c1","650c16f0f2faf8d7a0d14c09","651c1c20a6ef7bed516d247e","null","null","<p style=""font-size: 60px; font-family: BACS"">ZdNmULUOk</p>","","","","","","","","",""
"html-keyboard-response","87","139610","0.0-8.0-0.79","5ec12ed7a66dbf01c7d740c1","650c16f0f2faf8d7a0d14c09","651c1c20a6ef7bed516d247e","null","null","<p style=""font-size: 60px; font-family: BACS"">CRdBdRdCc</p>","","","","","","","","",""
"html-keyboard-response","88","143631","0.0-9.0","5ec12ed7a66dbf01c7d740c1","650c16f0f2faf8d7a0d14c09","651c1c20a6ef7bed516d247e","4021"," ","<p>Great, you've seen the first block of words. You may now take a short break.</p>
      <p>Press the spacebar when you're ready to continue.</p>","","","","","","","","",""
"html-keyboard-response","89","144634","0.0-10.0-0.0","5ec12ed7a66dbf01c7d740c1","650c16f0f2faf8d7a0d14c09","651c1c20a6ef7bed516d247e","null","null","<p style=""font-size: 60px; font-family: BACS"">PCMPKRDM</p>","","","","","","","","",""
"html-keyboard-response","90","145644","0.0-10.0-0.1","5ec12ed7a66dbf01c7d740c1","650c16f0f2faf8d7a0d14c09","651c1c20a6ef7bed516d247e","null","null","<p style=""font-size: 60px; font-family: BACS"">uQkrdYaum</p>","","","","","","","","",""
"html-keyboard-response","91","146649","0.0-10.0-0.2","5ec12ed7a66dbf01c7d740c1","650c16f0f2faf8d7a0d14c09","651c1c20a6ef7bed516d247e","null","null","<p style=""font-size: 60px; font-family: BACS"">ZJLmrYNu</p>","","","","","","","","",""
"html-keyboard-response","92","147652","0.0-10.0-0.3","5ec12ed7a66dbf01c7d740c1","650c16f0f2faf8d7a0d14c09","651c1c20a6ef7bed516d247e","null","null","<p style=""font-size: 60px; font-family: BACS"">DMRPmCd</p>","","","","","","","","",""
"html-keyboard-response","93","148665","0.0-10.0-0.4","5ec12ed7a66dbf01c7d740c1","650c16f0f2faf8d7a0d14c09","651c1c20a6ef7bed516d247e","null","null","<p style=""font-size: 60px; font-family: BACS"">uQkrdcYUv</p>","","","","","","","","",""
"html-keyboard-response","94","149679","0.0-10.0-0.5","5ec12ed7a66dbf01c7d740c1","650c16f0f2faf8d7a0d14c09","651c1c20a6ef7bed516d247e","null","null","<p style=""font-size: 60px; font-family: BACS"">bmdABDlDT</p>","","","","","","","","",""
"html-keyboard-response","95","150683","0.0-10.0-0.6","5ec12ed7a66dbf01c7d740c1","650c16f0f2faf8d7a0d14c09","651c1c20a6ef7bed516d247e","null","null","<p style=""font-size: 60px; font-family: BACS"">GNAcacYUv</p>","","","","","","","","",""
"html-keyboard-response","96","151692","0.0-10.0-0.7","5ec12ed7a66dbf01c7d740c1","650c16f0f2faf8d7a0d14c09","651c1c20a6ef7bed516d247e","null","null","<p style=""font-size: 60px; font-family: BACS"">MBKREDlDT</p>","","","","","","","","",""
"html-keyboard-response","97","152695","0.0-10.0-0.8","5ec12ed7a66dbf01c7d740c1","650c16f0f2faf8d7a0d14c09","651c1c20a6ef7bed516d247e","null","null","<p style=""font-size: 60px; font-family: BACS"">GNAcaLUOk</p>","","","","","","","","",""
"html-keyboard-response","98","153710","0.0-10.0-0.9","5ec12ed7a66dbf01c7d740c1","650c16f0f2faf8d7a0d14c09","651c1c20a6ef7bed516d247e","null","null","<p style=""font-size: 60px; font-family: BACS"">MBKREkMEC</p>","","","","","","","","",""
"html-keyboard-response","99","154725","0.0-10.0-0.10","5ec12ed7a66dbf01c7d740c1","650c16f0f2faf8d7a0d14c09","651c1c20a6ef7bed516d247e","null","null","<p style=""font-size: 60px; font-family: BACS"">YOaAbLUOk</p>","","","","","","","","",""
"html-keyboard-response","100","155738","0.0-10.0-0.11","5ec12ed7a66dbf01c7d740c1","650c16f0f2faf8d7a0d14c09","651c1c20a6ef7bed516d247e","null","null","<p style=""font-size: 60px; font-family: BACS"">vJabYaum</p>","","","","","","","","",""
"html-keyboard-response","101","156751","0.0-10.0-0.12","5ec12ed7a66dbf01c7d740c1","650c16f0f2faf8d7a0d14c09","651c1c20a6ef7bed516d247e","null","null","<p style=""font-size: 60px; font-family: BACS"">bcbMRDM</p>","","","","","","","","",""
"html-keyboard-response","102","157752","0.0-10.0-0.13","5ec12ed7a66dbf01c7d740c1","650c16f0f2faf8d7a0d14c09","651c1c20a6ef7bed516d247e","null","null","<p style=""font-size: 60px; font-family: BACS"">RtRhRdCc</p>","","","","","","","","",""
"html-keyboard-response","103","158757","0.0-10.0-0.14","5ec12ed7a66dbf01c7d740c1","650c16f0f2faf8d7a0d14c09","651c1c20a6ef7bed516d247e","null","null","<p style=""font-size: 60px; font-family: BACS"">ZdNmULkNc</p>","","","","","","","","",""
"html-keyboard-response","104","159761","0.0-10.0-0.15","5ec12ed7a66dbf01c7d740c1","650c16f0f2faf8d7a0d14c09","651c1c20a6ef7bed516d247e","null","null","<p style=""font-size: 60px; font-family: BACS"">ZJLmrYaum</p>","","","","","","","","",""
"html-keyboard-response","105","160776","0.0-10.0-0.16","5ec12ed7a66dbf01c7d740c1","650c16f0f2faf8d7a0d14c09","651c1c20a6ef7bed516d247e","null","null","<p style=""font-size: 60px; font-family: BACS"">bmdABmCd</p>","","","","","","","","",""
"html-keyboard-response","106","161779","0.0-10.0-0.17","5ec12ed7a66dbf01c7d740c1","650c16f0f2faf8d7a0d14c09","651c1c20a6ef7bed516d247e","null","null","<p style=""font-size: 60px; font-family: BACS"">bROCDlDT</p>","","","","","","","","",""
"html-keyboard-response","107","162795","0.0-10.0-0.18","5ec12ed7a66dbf01c7d740c1","650c16f0f2faf8d7a0d14c09","651c1c20a6ef7bed516d247e","null","null","<p style=""font-size: 60px; font-family: BACS"">bcbMRdCc</p>","","","","","","","","",""
"html-keyboard-response","108","163799","0.0-10.0-0.19","5ec12ed7a66dbf01c7d740c1","650c16f0f2faf8d7a0d14c09","651c1c20a6ef7bed516d247e","null","null","<p style=""font-size: 60px; font-family: BACS"">uQkrdLUOk</p>","","","","","","","","",""
"html-keyboard-response","109","164804","0.0-10.0-0.20","5ec12ed7a66dbf01c7d740c1","650c16f0f2faf8d7a0d14c09","651c1c20a6ef7bed516d247e","null","null","<p style=""font-size: 60px; font-family: BACS"">CRdBdkMEC</p>","","","","","","","","",""
"html-keyboard-response","110","165819","0.0-10.0-0.21","5ec12ed7a66dbf01c7d740c1","650c16f0f2faf8d7a0d14c09","651c1c20a6ef7bed516d247e","null","null","<p style=""font-size: 60px; font-family: BACS"">auYAkcYUv</p>","","","","","","","","",""
"html-keyboard-response","111","166820","0.0-10.0-0.22","5ec12ed7a66dbf01c7d740c1","650c16f0f2faf8d7a0d14c09","651c1c20a6ef7bed516d247e","null","null","<p style=""font-size: 60px; font-family: BACS"">RtRhRDM</p>","","","","","","","","",""
"html-keyboard-response","112","167822","0.0-10.0-0.23","5ec12ed7a66dbf01c7d740c1","650c16f0f2faf8d7a0d14c09","651c1c20a6ef7bed516d247e","null","null","<p style=""font-size: 60px; font-family: BACS"">BdtACRdCc</p>","","","","","","","","",""
"html-keyboard-response","113","168831","0.0-10.0-0.24","5ec12ed7a66dbf01c7d740c1","650c16f0f2faf8d7a0d14c09","651c1c20a6ef7bed516d247e","null","null","<p style=""font-size: 60px; font-family: BACS"">QLrOJcYUv</p>","","","","","","","","",""
"html-keyboard-response","114","169838","0.0-10.0-0.25","5ec12ed7a66dbf01c7d740c1","650c16f0f2faf8d7a0d14c09","651c1c20a6ef7bed516d247e","null","null","<p style=""font-size: 60px; font-family: BACS"">LAclAYNu</p>","","","","","","","","",""
"html-keyboard-response","115","170842","0.0-10.0-0.26","5ec12ed7a66dbf01c7d740c1","650c16f0f2faf8d7a0d14c09","651c1c20a6ef7bed516d247e","null","null","<p style=""font-size: 60px; font-family: BACS"">bROCkMEC</p>","","","","","","","","",""
"html-keyboard-response","116","171846","0.0-10.0-0.27","5ec12ed7a66dbf01c7d740c1","650c16f0f2faf8d7a0d14c09","651c1c20a6ef7bed516d247e","null","null","<p style=""font-size: 60px; font-family: BACS"">PCMPKDlDT</p>","","","","","","","","",""
"html-keyboard-response","117","172849","0.0-10.0-0.28","5ec12ed7a66dbf01c7d740c1","650c16f0f2faf8d7a0d14c09","651c1c20a6ef7bed516d247e","null","null","<p style=""font-size: 60px; font-family: BACS"">LAclAYaum</p>","","","","","","","","",""
"html-keyboard-response","118","173864","0.0-10.0-0.29","5ec12ed7a66dbf01c7d740c1","650c16f0f2faf8d7a0d14c09","651c1c20a6ef7bed516d247e","null","null","<p style=""font-size: 60px; font-family: BACS"">ckduALUOk</p>","","","","","","","","",""
"html-keyboard-response","119","174869","0.0-10.0-0.30","5ec12ed7a66dbf01c7d740c1","650c16f0f2faf8d7a0d14c09","651c1c20a6ef7bed516d247e","null","null","<p style=""font-size: 60px; font-family: BACS"">DMRPRDM</p>","","","","","","","","",""
"html-keyboard-response","120","175883","0.0-10.0-0.31","5ec12ed7a66dbf01c7d740c1","650c16f0f2faf8d7a0d14c09","651c1c20a6ef7bed516d247e","null","null","<p style=""font-size: 60px; font-family: BACS"">YOaAbLkNc</p>","","","","","","","","",""
"html-keyboard-response","121","176890","0.0-10.0-0.32","5ec12ed7a66dbf01c7d740c1","650c16f0f2faf8d7a0d14c09","651c1c20a6ef7bed516d247e","null","null","<p style=""font-size: 60px; font-family: BACS"">ZdNmULUOk</p>","","","","","","","","",""
"html-keyboard-response","122","177894","0.0-10.0-0.33","5ec12ed7a66dbf01c7d740c1","650c16f0f2faf8d7a0d14c09","651c1c20a6ef7bed516d247e","null","null","<p style=""font-size: 60px; font-family: BACS"">bROCRdCc</p>","","","","","","","","",""
"html-keyboard-response","123","178899","0.0-10.0-0.34","5ec12ed7a66dbf01c7d740c1","650c16f0f2faf8d7a0d14c09","651c1c20a6ef7bed516d247e","null","null","<p style=""font-size: 60px; font-family: BACS"">PCMPKmCd</p>","","","","","","","","",""
"html-keyboard-response","124","179906","0.0-10.0-0.35","5ec12ed7a66dbf01c7d740c1","650c16f0f2faf8d7a0d14c09","651c1c20a6ef7bed516d247e","null","null","<p style=""font-size: 60px; font-family: BACS"">YOaAbYNu</p>","","","","","","","","",""
"html-keyboard-response","125","180910","0.0-10.0-0.36","5ec12ed7a66dbf01c7d740c1","650c16f0f2faf8d7a0d14c09","651c1c20a6ef7bed516d247e","null","null","<p style=""font-size: 60px; font-family: BACS"">MBKREmCd</p>","","","","","","","","",""
"html-keyboard-response","126","181913","0.0-10.0-0.37","5ec12ed7a66dbf01c7d740c1","650c16f0f2faf8d7a0d14c09","651c1c20a6ef7bed516d247e","null","null","<p style=""font-size: 60px; font-family: BACS"">bmdABkMEC</p>","","","","","","","","",""
"html-keyboard-response","127","182916","0.0-10.0-0.38","5ec12ed7a66dbf01c7d740c1","650c16f0f2faf8d7a0d14c09","651c1c20a6ef7bed516d247e","null","null","<p style=""font-size: 60px; font-family: BACS"">ckduAcYUv</p>","","","","","","","","",""
"html-keyboard-response","128","183922","0.0-10.0-0.39","5ec12ed7a66dbf01c7d740c1","650c16f0f2faf8d7a0d14c09","651c1c20a6ef7bed516d247e","null","null","<p style=""font-size: 60px; font-family: BACS"">auYAkLUOk</p>","","","","","","","","",""
"html-keyboard-response","129","184926","0.0-10.0-0.40","5ec12ed7a66dbf01c7d740c1","650c16f0f2faf8d7a0d14c09","651c1c20a6ef7bed516d247e","null","null","<p style=""font-size: 60px; font-family: BACS"">DMRPRdCc</p>","","","","","","","","",""
"html-keyboard-response","130","185932","0.0-10.0-0.41","5ec12ed7a66dbf01c7d740c1","650c16f0f2faf8d7a0d14c09","651c1c20a6ef7bed516d247e","null","null","<p style=""font-size: 60px; font-family: BACS"">ZJLmrcYUv</p>","","","","","","","","",""
"html-keyboard-response","131","186935","0.0-10.0-0.42","5ec12ed7a66dbf01c7d740c1","650c16f0f2faf8d7a0d14c09","651c1c20a6ef7bed516d247e","null","null","<p style=""font-size: 60px; font-family: BACS"">DMRPDlDT</p>","","","","","","","","",""
"html-keyboard-response","132","187950","0.0-10.0-0.43","5ec12ed7a66dbf01c7d740c1","650c16f0f2faf8d7a0d14c09","651c1c20a6ef7bed516d247e","null","null","<p style=""font-size: 60px; font-family: BACS"">tKDmhkMEC</p>","","","","","","","","",""
"html-keyboard-response","133","188950","0.0-10.0-0.44","5ec12ed7a66dbf01c7d740c1","650c16f0f2faf8d7a0d14c09","651c1c20a6ef7bed516d247e","null","null","<p style=""font-size: 60px; font-family: BACS"">RtRhmCd</p>","","","","","","","","",""
"html-keyboard-response","134","189951","0.0-10.0-0.45","5ec12ed7a66dbf01c7d740c1","650c16f0f2faf8d7a0d14c09","651c1c20a6ef7bed516d247e","null","null","<p style=""font-size: 60px; font-family: BACS"">QLrOJLUOk</p>","","","","","","","","",""
"html-keyboard-response","135","190965","0.0-10.0-0.46","5ec12ed7a66dbf01c7d740c1","650c16f0f2faf8d7a0d14c09","651c1c20a6ef7bed516d247e","null","null","<p style=""font-size: 60px; font-family: BACS"">uQkrdYNu</p>","","","","","","","","",""
"html-keyboard-response","136","191967","0.0-10.0-0.47","5ec12ed7a66dbf01c7d740c1","650c16f0f2faf8d7a0d14c09","651c1c20a6ef7bed516d247e","null","null","<p style=""font-size: 60px; font-family: BACS"">bcbMkMEC</p>","","","","","","","","",""
"html-keyboard-response","137","192969","0.0-10.0-0.48","5ec12ed7a66dbf01c7d740c1","650c16f0f2faf8d7a0d14c09","651c1c20a6ef7bed516d247e","null","null","<p style=""font-size: 60px; font-family: BACS"">QLrOJYaum</p>","","","","","","","","",""
"html-keyboard-response","138","193970","0.0-10.0-0.49","5ec12ed7a66dbf01c7d740c1","650c16f0f2faf8d7a0d14c09","651c1c20a6ef7bed516d247e","null","null","<p style=""font-size: 60px; font-family: BACS"">ckduAYNu</p>","","","","","","","","",""
"html-keyboard-response","139","194971","0.0-10.0-0.50","5ec12ed7a66dbf01c7d740c1","650c16f0f2faf8d7a0d14c09","651c1c20a6ef7bed516d247e","null","null","<p style=""font-size: 60px; font-family: BACS"">vJabcYUv</p>","","","","","","","","",""
"html-keyboard-response","140","195971","0.0-10.0-0.51","5ec12ed7a66dbf01c7d740c1","650c16f0f2faf8d7a0d14c09","651c1c20a6ef7bed516d247e","null","null","<p style=""font-size: 60px; font-family: BACS"">BdtACkMEC</p>","","","","","","","","",""
"html-keyboard-response","141","196972","0.0-10.0-0.52","5ec12ed7a66dbf01c7d740c1","650c16f0f2faf8d7a0d14c09","651c1c20a6ef7bed516d247e","null","null","<p style=""font-size: 60px; font-family: BACS"">CRdBdRdCc</p>","","","","","","","","",""
"html-keyboard-response","142","197973","0.0-10.0-0.53","5ec12ed7a66dbf01c7d740c1","650c16f0f2faf8d7a0d14c09","651c1c20a6ef7bed516d247e","null","null","<p style=""font-size: 60px; font-family: BACS"">tKDmhmCd</p>","","","","","","","","",""
"html-keyboard-response","143","198978","0.0-10.0-0.54","5ec12ed7a66dbf01c7d740c1","650c16f0f2faf8d7a0d14c09","651c1c20a6ef7bed516d247e","null","null","<p style=""font-size: 60px; font-family: BACS"">GNAcaYaum</p>","","","","","","","","",""
"html-keyboard-response","144","199979","0.0-10.0-0.55","5ec12ed7a66dbf01c7d740c1","650c16f0f2faf8d7a0d14c09","651c1c20a6ef7bed516d247e","null","null","<p style=""font-size: 60px; font-family: BACS"">RtRhDlDT</p>","","","","","","","","",""
"html-keyboard-response","145","200980","0.0-10.0-0.56","5ec12ed7a66dbf01c7d740c1","650c16f0f2faf8d7a0d14c09","651c1c20a6ef7bed516d247e","null","null","<p style=""font-size: 60px; font-family: BACS"">LAclALUOk</p>","","","","","","","","",""
"html-keyboard-response","146","201981","0.0-10.0-0.57","5ec12ed7a66dbf01c7d740c1","650c16f0f2faf8d7a0d14c09","651c1c20a6ef7bed516d247e","null","null","<p style=""font-size: 60px; font-family: BACS"">ZdNmUYaum</p>","","","","","","","","",""
"html-keyboard-response","147","202982","0.0-10.0-0.58","5ec12ed7a66dbf01c7d740c1","650c16f0f2faf8d7a0d14c09","651c1c20a6ef7bed516d247e","null","null","<p style=""font-size: 60px; font-family: BACS"">CRdBdRDM</p>","","","","","","","","",""
"html-keyboard-response","148","203984","0.0-10.0-0.59","5ec12ed7a66dbf01c7d740c1","650c16f0f2faf8d7a0d14c09","651c1c20a6ef7bed516d247e","null","null","<p style=""font-size: 60px; font-family: BACS"">auYAkYNu</p>","","","","","","","","",""
"html-keyboard-response","149","204985","0.0-10.0-0.60","5ec12ed7a66dbf01c7d740c1","650c16f0f2faf8d7a0d14c09","651c1c20a6ef7bed516d247e","null","null","<p style=""font-size: 60px; font-family: BACS"">bmdABRDM</p>","","","","","","","","",""
"html-keyboard-response","150","205986","0.0-10.0-0.61","5ec12ed7a66dbf01c7d740c1","650c16f0f2faf8d7a0d14c09","651c1c20a6ef7bed516d247e","null","null","<p style=""font-size: 60px; font-family: BACS"">vJabYNu</p>","","","","","","","","",""
"html-keyboard-response","151","206991","0.0-10.0-0.62","5ec12ed7a66dbf01c7d740c1","650c16f0f2faf8d7a0d14c09","651c1c20a6ef7bed516d247e","null","null","<p style=""font-size: 60px; font-family: BACS"">bcbMDlDT</p>","","","","","","","","",""
"html-keyboard-response","152","207995","0.0-10.0-0.63","5ec12ed7a66dbf01c7d740c1","650c16f0f2faf8d7a0d14c09","651c1c20a6ef7bed516d247e","null","null","<p style=""font-size: 60px; font-family: BACS"">QLrOJYNu</p>","","","","","","","","",""
"html-keyboard-response","153","209008","0.0-10.0-0.64","5ec12ed7a66dbf01c7d740c1","650c16f0f2faf8d7a0d14c09","651c1c20a6ef7bed516d247e","null","null","<p style=""font-size: 60px; font-family: BACS"">auYAkLkNc</p>","","","","","","","","",""
"html-keyboard-response","154","210009","0.0-10.0-0.65","5ec12ed7a66dbf01c7d740c1","650c16f0f2faf8d7a0d14c09","651c1c20a6ef7bed516d247e","null","null","<p style=""font-size: 60px; font-family: BACS"">MBKRERdCc</p>","","","","","","","","",""
"html-keyboard-response","155","211010","0.0-10.0-0.66","5ec12ed7a66dbf01c7d740c1","650c16f0f2faf8d7a0d14c09","651c1c20a6ef7bed516d247e","null","null","<p style=""font-size: 60px; font-family: BACS"">bROCmCd</p>","","","","","","","","",""
"html-keyboard-response","156","212011","0.0-10.0-0.67","5ec12ed7a66dbf01c7d740c1","650c16f0f2faf8d7a0d14c09","651c1c20a6ef7bed516d247e","null","null","<p style=""font-size: 60px; font-family: BACS"">LAclALkNc</p>","","","","","","","","",""
"html-keyboard-response","157","213012","0.0-10.0-0.68","5ec12ed7a66dbf01c7d740c1","650c16f0f2faf8d7a0d14c09","651c1c20a6ef7bed516d247e","null","null","<p style=""font-size: 60px; font-family: BACS"">tKDmhRDM</p>","","","","","","","","",""
"html-keyboard-response","158","214013","0.0-10.0-0.69","5ec12ed7a66dbf01c7d740c1","650c16f0f2faf8d7a0d14c09","651c1c20a6ef7bed516d247e","null","null","<p style=""font-size: 60px; font-family: BACS"">ckduALkNc</p>","","","","","","","","",""
"html-keyboard-response","159","215019","0.0-10.0-0.70","5ec12ed7a66dbf01c7d740c1","650c16f0f2faf8d7a0d14c09","651c1c20a6ef7bed516d247e","null","null","<p style=""font-size: 60px; font-family: BACS"">tKDmhRdCc</p>","","","","","","","","",""
"html-keyboard-response","160","216020","0.0-10.0-0.71","5ec12ed7a66dbf01c7d740c1","650c16f0f2faf8d7a0d14c09","651c1c20a6ef7bed516d247e","null","null","<p style=""font-size: 60px; font-family: BACS"">PCMPKkMEC</p>","","","","","","","","",""
"html-keyboard-response","161","217021","0.0-10.0-0.72","5ec12ed7a66dbf01c7d740c1","650c16f0f2faf8d7a0d14c09","651c1c20a6ef7bed516d247e","null","null","<p style=""font-size: 60px; font-family: BACS"">ZJLmrLkNc</p>","","","","","","","","",""
"html-keyboard-response","162","218021","0.0-10.0-0.73","5ec12ed7a66dbf01c7d740c1","650c16f0f2faf8d7a0d14c09","651c1c20a6ef7bed516d247e","null","null","<p style=""font-size: 60px; font-family: BACS"">ZdNmUcYUv</p>","","","","","","","","",""
"html-keyboard-response","163","219023","0.0-10.0-0.74","5ec12ed7a66dbf01c7d740c1","650c16f0f2faf8d7a0d14c09","651c1c20a6ef7bed516d247e","null","null","<p style=""font-size: 60px; font-family: BACS"">CRdBdmCd</p>","","","","","","","","",""
"html-keyboard-response","164","220023","0.0-10.0-0.75","5ec12ed7a66dbf01c7d740c1","650c16f0f2faf8d7a0d14c09","651c1c20a6ef7bed516d247e","null","null","<p style=""font-size: 60px; font-family: BACS"">BdtACDlDT</p>","","","","","","","","",""
"html-keyboard-response","165","221024","0.0-10.0-0.76","5ec12ed7a66dbf01c7d740c1","650c16f0f2faf8d7a0d14c09","651c1c20a6ef7bed516d247e","null","null","<p style=""font-size: 60px; font-family: BACS"">vJabLkNc</p>","","","","","","","","",""
"html-keyboard-response","166","222026","0.0-10.0-0.77","5ec12ed7a66dbf01c7d740c1","650c16f0f2faf8d7a0d14c09","651c1c20a6ef7bed516d247e","null","null","<p style=""font-size: 60px; font-family: BACS"">YOaAbYaum</p>","","","","","","","","",""
"html-keyboard-response","167","223026","0.0-10.0-0.78","5ec12ed7a66dbf01c7d740c1","650c16f0f2faf8d7a0d14c09","651c1c20a6ef7bed516d247e","null","null","<p style=""font-size: 60px; font-family: BACS"">GNAcaLkNc</p>","","","","","","","","",""
"html-keyboard-response","168","224027","0.0-10.0-0.79","5ec12ed7a66dbf01c7d740c1","650c16f0f2faf8d7a0d14c09","651c1c20a6ef7bed516d247e","null","null","<p style=""font-size: 60px; font-family: BACS"">BdtACRDM</p>","","","","","","","","",""
"html-keyboard-response","169","227188","0.0-11.0","5ec12ed7a66dbf01c7d740c1","650c16f0f2faf8d7a0d14c09","651c1c20a6ef7bed516d247e","3161"," ","<p>Great, you've seen the second block of words. You may now take a short break.</p>
      <p>Press the spacebar when you're ready to continue.</p>","","","","","","","","",""
"html-keyboard-response","170","228196","0.0-12.0-0.0","5ec12ed7a66dbf01c7d740c1","650c16f0f2faf8d7a0d14c09","651c1c20a6ef7bed516d247e","null","null","<p style=""font-size: 60px; font-family: BACS"">QLrOJcYUv</p>","","","","","","","","",""
"html-keyboard-response","171","229197","0.0-12.0-0.1","5ec12ed7a66dbf01c7d740c1","650c16f0f2faf8d7a0d14c09","651c1c20a6ef7bed516d247e","null","null","<p style=""font-size: 60px; font-family: BACS"">bmdABkMEC</p>","","","","","","","","",""
"html-keyboard-response","172","230198","0.0-12.0-0.2","5ec12ed7a66dbf01c7d740c1","650c16f0f2faf8d7a0d14c09","651c1c20a6ef7bed516d247e","null","null","<p style=""font-size: 60px; font-family: BACS"">bROCmCd</p>","","","","","","","","",""
"html-keyboard-response","173","231199","0.0-12.0-0.3","5ec12ed7a66dbf01c7d740c1","650c16f0f2faf8d7a0d14c09","651c1c20a6ef7bed516d247e","null","null","<p style=""font-size: 60px; font-family: BACS"">BdtACDlDT</p>","","","","","","","","",""
"html-keyboard-response","174","232200","0.0-12.0-0.4","5ec12ed7a66dbf01c7d740c1","650c16f0f2faf8d7a0d14c09","651c1c20a6ef7bed516d247e","null","null","<p style=""font-size: 60px; font-family: BACS"">MBKREmCd</p>","","","","","","","","",""
"html-keyboard-response","175","233201","0.0-12.0-0.5","5ec12ed7a66dbf01c7d740c1","650c16f0f2faf8d7a0d14c09","651c1c20a6ef7bed516d247e","null","null","<p style=""font-size: 60px; font-family: BACS"">LAclALUOk</p>","","","","","","","","",""
"html-keyboard-response","176","234212","0.0-12.0-0.6","5ec12ed7a66dbf01c7d740c1","650c16f0f2faf8d7a0d14c09","651c1c20a6ef7bed516d247e","null","null","<p style=""font-size: 60px; font-family: BACS"">auYAkLkNc</p>","","","","","","","","",""
"html-keyboard-response","177","235213","0.0-12.0-0.7","5ec12ed7a66dbf01c7d740c1","650c16f0f2faf8d7a0d14c09","651c1c20a6ef7bed516d247e","null","null","<p style=""font-size: 60px; font-family: BACS"">ZdNmUcYUv</p>","","","","","","","","",""
"html-keyboard-response","178","236214","0.0-12.0-0.8","5ec12ed7a66dbf01c7d740c1","650c16f0f2faf8d7a0d14c09","651c1c20a6ef7bed516d247e","null","null","<p style=""font-size: 60px; font-family: BACS"">YOaAbYNu</p>","","","","","","","","",""
"html-keyboard-response","179","237214","0.0-12.0-0.9","5ec12ed7a66dbf01c7d740c1","650c16f0f2faf8d7a0d14c09","651c1c20a6ef7bed516d247e","null","null","<p style=""font-size: 60px; font-family: BACS"">ckduALUOk</p>","","","","","","","","",""
"html-keyboard-response","180","238215","0.0-12.0-0.10","5ec12ed7a66dbf01c7d740c1","650c16f0f2faf8d7a0d14c09","651c1c20a6ef7bed516d247e","null","null","<p style=""font-size: 60px; font-family: BACS"">bcbMDlDT</p>","","","","","","","","",""
"html-keyboard-response","181","239216","0.0-12.0-0.11","5ec12ed7a66dbf01c7d740c1","650c16f0f2faf8d7a0d14c09","651c1c20a6ef7bed516d247e","null","null","<p style=""font-size: 60px; font-family: BACS"">ZJLmrYaum</p>","","","","","","","","",""
"html-keyboard-response","182","240216","0.0-12.0-0.12","5ec12ed7a66dbf01c7d740c1","650c16f0f2faf8d7a0d14c09","651c1c20a6ef7bed516d247e","null","null","<p style=""font-size: 60px; font-family: BACS"">bROCRdCc</p>","","","","","","","","",""
"html-keyboard-response","183","241217","0.0-12.0-0.13","5ec12ed7a66dbf01c7d740c1","650c16f0f2faf8d7a0d14c09","651c1c20a6ef7bed516d247e","null","null","<p style=""font-size: 60px; font-family: BACS"">ckduAYNu</p>","","","","","","","","",""
"html-keyboard-response","184","242218","0.0-12.0-0.14","5ec12ed7a66dbf01c7d740c1","650c16f0f2faf8d7a0d14c09","651c1c20a6ef7bed516d247e","null","null","<p style=""font-size: 60px; font-family: BACS"">ZdNmULkNc</p>","","","","","","","","",""
"html-keyboard-response","185","243219","0.0-12.0-0.15","5ec12ed7a66dbf01c7d740c1","650c16f0f2faf8d7a0d14c09","651c1c20a6ef7bed516d247e","null","null","<p style=""font-size: 60px; font-family: BACS"">BdtACRDM</p>","","","","","","","","",""
"html-keyboard-response","186","244220","0.0-12.0-0.16","5ec12ed7a66dbf01c7d740c1","650c16f0f2faf8d7a0d14c09","651c1c20a6ef7bed516d247e","null","null","<p style=""font-size: 60px; font-family: BACS"">YOaAbLUOk</p>","","","","","","","","",""
"html-keyboard-response","187","245221","0.0-12.0-0.17","5ec12ed7a66dbf01c7d740c1","650c16f0f2faf8d7a0d14c09","651c1c20a6ef7bed516d247e","null","null","<p style=""font-size: 60px; font-family: BACS"">DMRPRDM</p>","","","","","","","","",""
"html-keyboard-response","188","246225","0.0-12.0-0.18","5ec12ed7a66dbf01c7d740c1","650c16f0f2faf8d7a0d14c09","651c1c20a6ef7bed516d247e","null","null","<p style=""font-size: 60px; font-family: BACS"">LAclAYNu</p>","","","","","","","","",""
"html-keyboard-response","189","247226","0.0-12.0-0.19","5ec12ed7a66dbf01c7d740c1","650c16f0f2faf8d7a0d14c09","651c1c20a6ef7bed516d247e","null","null","<p style=""font-size: 60px; font-family: BACS"">uQkrdYaum</p>","","","","","","","","",""
"html-keyboard-response","190","248227","0.0-12.0-0.20","5ec12ed7a66dbf01c7d740c1","650c16f0f2faf8d7a0d14c09","651c1c20a6ef7bed516d247e","null","null","<p style=""font-size: 60px; font-family: BACS"">bmdABDlDT</p>","","","","","","","","",""
"html-keyboard-response","191","249228","0.0-12.0-0.21","5ec12ed7a66dbf01c7d740c1","650c16f0f2faf8d7a0d14c09","651c1c20a6ef7bed516d247e","null","null","<p style=""font-size: 60px; font-family: BACS"">ZdNmULUOk</p>","","","","","","","","",""
"html-keyboard-response","192","250230","0.0-12.0-0.22","5ec12ed7a66dbf01c7d740c1","650c16f0f2faf8d7a0d14c09","651c1c20a6ef7bed516d247e","null","null","<p style=""font-size: 60px; font-family: BACS"">PCMPKRDM</p>","","","","","","","","",""
"html-keyboard-response","193","251232","0.0-12.0-0.23","5ec12ed7a66dbf01c7d740c1","650c16f0f2faf8d7a0d14c09","651c1c20a6ef7bed516d247e","null","null","<p style=""font-size: 60px; font-family: BACS"">BdtACkMEC</p>","","","","","","","","",""
"html-keyboard-response","194","252232","0.0-12.0-0.24","5ec12ed7a66dbf01c7d740c1","650c16f0f2faf8d7a0d14c09","651c1c20a6ef7bed516d247e","null","null","<p style=""font-size: 60px; font-family: BACS"">bROCDlDT</p>","","","","","","","","",""
"html-keyboard-response","195","253233","0.0-12.0-0.25","5ec12ed7a66dbf01c7d740c1","650c16f0f2faf8d7a0d14c09","651c1c20a6ef7bed516d247e","null","null","<p style=""font-size: 60px; font-family: BACS"">RtRhRDM</p>","","","","","","","","",""
"html-keyboard-response","196","254234","0.0-12.0-0.26","5ec12ed7a66dbf01c7d740c1","650c16f0f2faf8d7a0d14c09","651c1c20a6ef7bed516d247e","null","null","<p style=""font-size: 60px; font-family: BACS"">CRdBdRdCc</p>","","","","","","","","",""
"html-keyboard-response","197","255236","0.0-12.0-0.27","5ec12ed7a66dbf01c7d740c1","650c16f0f2faf8d7a0d14c09","651c1c20a6ef7bed516d247e","null","null","<p style=""font-size: 60px; font-family: BACS"">tKDmhkMEC</p>","","","","","","","","",""
"html-keyboard-response","198","256237","0.0-12.0-0.28","5ec12ed7a66dbf01c7d740c1","650c16f0f2faf8d7a0d14c09","651c1c20a6ef7bed516d247e","null","null","<p style=""font-size: 60px; font-family: BACS"">DMRPmCd</p>","","","","","","","","",""
"html-keyboard-response","199","257247","0.0-12.0-0.29","5ec12ed7a66dbf01c7d740c1","650c16f0f2faf8d7a0d14c09","651c1c20a6ef7bed516d247e","null","null","<p style=""font-size: 60px; font-family: BACS"">ckduAcYUv</p>","","","","","","","","",""
"html-keyboard-response","200","258248","0.0-12.0-0.30","5ec12ed7a66dbf01c7d740c1","650c16f0f2faf8d7a0d14c09","651c1c20a6ef7bed516d247e","null","null","<p style=""font-size: 60px; font-family: BACS"">bcbMRDM</p>","","","","","","","","",""
"html-keyboard-response","201","259248","0.0-12.0-0.31","5ec12ed7a66dbf01c7d740c1","650c16f0f2faf8d7a0d14c09","651c1c20a6ef7bed516d247e","null","null","<p style=""font-size: 60px; font-family: BACS"">GNAcaLkNc</p>","","","","","","","","",""
"html-keyboard-response","202","260250","0.0-12.0-0.32","5ec12ed7a66dbf01c7d740c1","650c16f0f2faf8d7a0d14c09","651c1c20a6ef7bed516d247e","null","null","<p style=""font-size: 60px; font-family: BACS"">uQkrdLUOk</p>","","","","","","","","",""
"html-keyboard-response","203","261250","0.0-12.0-0.33","5ec12ed7a66dbf01c7d740c1","650c16f0f2faf8d7a0d14c09","651c1c20a6ef7bed516d247e","null","null","<p style=""font-size: 60px; font-family: BACS"">bcbMkMEC</p>","","","","","","","","",""
"html-keyboard-response","204","262251","0.0-12.0-0.34","5ec12ed7a66dbf01c7d740c1","650c16f0f2faf8d7a0d14c09","651c1c20a6ef7bed516d247e","null","null","<p style=""font-size: 60px; font-family: BACS"">GNAcaLUOk</p>","","","","","","","","",""
"html-keyboard-response","205","263252","0.0-12.0-0.35","5ec12ed7a66dbf01c7d740c1","650c16f0f2faf8d7a0d14c09","651c1c20a6ef7bed516d247e","null","null","<p style=""font-size: 60px; font-family: BACS"">ZJLmrLkNc</p>","","","","","","","","",""
"html-keyboard-response","206","264253","0.0-12.0-0.36","5ec12ed7a66dbf01c7d740c1","650c16f0f2faf8d7a0d14c09","651c1c20a6ef7bed516d247e","null","null","<p style=""font-size: 60px; font-family: BACS"">RtRhmCd</p>","","","","","","","","",""
"html-keyboard-response","207","265254","0.0-12.0-0.37","5ec12ed7a66dbf01c7d740c1","650c16f0f2faf8d7a0d14c09","651c1c20a6ef7bed516d247e","null","null","<p style=""font-size: 60px; font-family: BACS"">vJabYNu</p>","","","","","","","","",""
"html-keyboard-response","208","266255","0.0-12.0-0.38","5ec12ed7a66dbf01c7d740c1","650c16f0f2faf8d7a0d14c09","651c1c20a6ef7bed516d247e","null","null","<p style=""font-size: 60px; font-family: BACS"">DMRPRdCc</p>","","","","","","","","",""
"html-keyboard-response","209","267255","0.0-12.0-0.39","5ec12ed7a66dbf01c7d740c1","650c16f0f2faf8d7a0d14c09","651c1c20a6ef7bed516d247e","null","null","<p style=""font-size: 60px; font-family: BACS"">YOaAbLkNc</p>","","","","","","","","",""
"html-keyboard-response","210","268256","0.0-12.0-0.40","5ec12ed7a66dbf01c7d740c1","650c16f0f2faf8d7a0d14c09","651c1c20a6ef7bed516d247e","null","null","<p style=""font-size: 60px; font-family: BACS"">CRdBdkMEC</p>","","","","","","","","",""
"html-keyboard-response","211","269272","0.0-12.0-0.41","5ec12ed7a66dbf01c7d740c1","650c16f0f2faf8d7a0d14c09","651c1c20a6ef7bed516d247e","null","null","<p style=""font-size: 60px; font-family: BACS"">MBKREDlDT</p>","","","","","","","","",""
"html-keyboard-response","212","270274","0.0-12.0-0.42","5ec12ed7a66dbf01c7d740c1","650c16f0f2faf8d7a0d14c09","651c1c20a6ef7bed516d247e","null","null","<p style=""font-size: 60px; font-family: BACS"">QLrOJLUOk</p>","","","","","","","","",""
"html-keyboard-response","213","271276","0.0-12.0-0.43","5ec12ed7a66dbf01c7d740c1","650c16f0f2faf8d7a0d14c09","651c1c20a6ef7bed516d247e","null","null","<p style=""font-size: 60px; font-family: BACS"">vJabYaum</p>","","","","","","","","",""
"html-keyboard-response","214","272291","0.0-12.0-0.44","5ec12ed7a66dbf01c7d740c1","650c16f0f2faf8d7a0d14c09","651c1c20a6ef7bed516d247e","null","null","<p style=""font-size: 60px; font-family: BACS"">MBKRERdCc</p>","","","","","","","","",""
"html-keyboard-response","215","273292","0.0-12.0-0.45","5ec12ed7a66dbf01c7d740c1","650c16f0f2faf8d7a0d14c09","651c1c20a6ef7bed516d247e","null","null","<p style=""font-size: 60px; font-family: BACS"">ZdNmUYaum</p>","","","","","","","","",""
"html-keyboard-response","216","274296","0.0-12.0-0.46","5ec12ed7a66dbf01c7d740c1","650c16f0f2faf8d7a0d14c09","651c1c20a6ef7bed516d247e","null","null","<p style=""font-size: 60px; font-family: BACS"">bROCkMEC</p>","","","","","","","","",""
"html-keyboard-response","217","275297","0.0-12.0-0.47","5ec12ed7a66dbf01c7d740c1","650c16f0f2faf8d7a0d14c09","651c1c20a6ef7bed516d247e","null","null","<p style=""font-size: 60px; font-family: BACS"">PCMPKmCd</p>","","","","","","","","",""
"html-keyboard-response","218","276299","0.0-12.0-0.48","5ec12ed7a66dbf01c7d740c1","650c16f0f2faf8d7a0d14c09","651c1c20a6ef7bed516d247e","null","null","<p style=""font-size: 60px; font-family: BACS"">RtRhRdCc</p>","","","","","","","","",""
"html-keyboard-response","219","277300","0.0-12.0-0.49","5ec12ed7a66dbf01c7d740c1","650c16f0f2faf8d7a0d14c09","651c1c20a6ef7bed516d247e","null","null","<p style=""font-size: 60px; font-family: BACS"">LAclALkNc</p>","","","","","","","","",""
"html-keyboard-response","220","278301","0.0-12.0-0.50","5ec12ed7a66dbf01c7d740c1","650c16f0f2faf8d7a0d14c09","651c1c20a6ef7bed516d247e","null","null","<p style=""font-size: 60px; font-family: BACS"">ZJLmrYNu</p>","","","","","","","","",""
"html-keyboard-response","221","279302","0.0-12.0-0.51","5ec12ed7a66dbf01c7d740c1","650c16f0f2faf8d7a0d14c09","651c1c20a6ef7bed516d247e","null","null","<p style=""font-size: 60px; font-family: BACS"">MBKREkMEC</p>","","","","","","","","",""
"html-keyboard-response","222","280303","0.0-12.0-0.52","5ec12ed7a66dbf01c7d740c1","650c16f0f2faf8d7a0d14c09","651c1c20a6ef7bed516d247e","null","null","<p style=""font-size: 60px; font-family: BACS"">PCMPKDlDT</p>","","","","","","","","",""
"html-keyboard-response","223","281315","0.0-12.0-0.53","5ec12ed7a66dbf01c7d740c1","650c16f0f2faf8d7a0d14c09","651c1c20a6ef7bed516d247e","null","null","<p style=""font-size: 60px; font-family: BACS"">bmdABmCd</p>","","","","","","","","",""
"html-keyboard-response","224","282328","0.0-12.0-0.54","5ec12ed7a66dbf01c7d740c1","650c16f0f2faf8d7a0d14c09","651c1c20a6ef7bed516d247e","null","null","<p style=""font-size: 60px; font-family: BACS"">YOaAbYaum</p>","","","","","","","","",""
"html-keyboard-response","225","283329","0.0-12.0-0.55","5ec12ed7a66dbf01c7d740c1","650c16f0f2faf8d7a0d14c09","651c1c20a6ef7bed516d247e","null","null","<p style=""font-size: 60px; font-family: BACS"">CRdBdRDM</p>","","","","","","","","",""
"html-keyboard-response","226","284329","0.0-12.0-0.56","5ec12ed7a66dbf01c7d740c1","650c16f0f2faf8d7a0d14c09","651c1c20a6ef7bed516d247e","null","null","<p style=""font-size: 60px; font-family: BACS"">tKDmhRdCc</p>","","","","","","","","",""
"html-keyboard-response","227","285331","0.0-12.0-0.57","5ec12ed7a66dbf01c7d740c1","650c16f0f2faf8d7a0d14c09","651c1c20a6ef7bed516d247e","null","null","<p style=""font-size: 60px; font-family: BACS"">bmdABRDM</p>","","","","","","","","",""
"html-keyboard-response","228","286331","0.0-12.0-0.58","5ec12ed7a66dbf01c7d740c1","650c16f0f2faf8d7a0d14c09","651c1c20a6ef7bed516d247e","null","null","<p style=""font-size: 60px; font-family: BACS"">auYAkYNu</p>","","","","","","","","",""
"html-keyboard-response","229","287332","0.0-12.0-0.59","5ec12ed7a66dbf01c7d740c1","650c16f0f2faf8d7a0d14c09","651c1c20a6ef7bed516d247e","null","null","<p style=""font-size: 60px; font-family: BACS"">CRdBdmCd</p>","","","","","","","","",""
"html-keyboard-response","230","288333","0.0-12.0-0.60","5ec12ed7a66dbf01c7d740c1","650c16f0f2faf8d7a0d14c09","651c1c20a6ef7bed516d247e","null","null","<p style=""font-size: 60px; font-family: BACS"">PCMPKkMEC</p>","","","","","","","","",""
"html-keyboard-response","231","289334","0.0-12.0-0.61","5ec12ed7a66dbf01c7d740c1","650c16f0f2faf8d7a0d14c09","651c1c20a6ef7bed516d247e","null","null","<p style=""font-size: 60px; font-family: BACS"">auYAkLUOk</p>","","","","","","","","",""
"html-keyboard-response","232","290335","0.0-12.0-0.62","5ec12ed7a66dbf01c7d740c1","650c16f0f2faf8d7a0d14c09","651c1c20a6ef7bed516d247e","null","null","<p style=""font-size: 60px; font-family: BACS"">LAclAYaum</p>","","","","","","","","",""
"html-keyboard-response","233","291335","0.0-12.0-0.63","5ec12ed7a66dbf01c7d740c1","650c16f0f2faf8d7a0d14c09","651c1c20a6ef7bed516d247e","null","null","<p style=""font-size: 60px; font-family: BACS"">auYAkcYUv</p>","","","","","","","","",""
"html-keyboard-response","234","292349","0.0-12.0-0.64","5ec12ed7a66dbf01c7d740c1","650c16f0f2faf8d7a0d14c09","651c1c20a6ef7bed516d247e","null","null","<p style=""font-size: 60px; font-family: BACS"">GNAcaYaum</p>","","","","","","","","",""
"html-keyboard-response","235","293351","0.0-12.0-0.65","5ec12ed7a66dbf01c7d740c1","650c16f0f2faf8d7a0d14c09","651c1c20a6ef7bed516d247e","null","null","<p style=""font-size: 60px; font-family: BACS"">uQkrdcYUv</p>","","","","","","","","",""
"html-keyboard-response","236","294351","0.0-12.0-0.66","5ec12ed7a66dbf01c7d740c1","650c16f0f2faf8d7a0d14c09","651c1c20a6ef7bed516d247e","null","null","<p style=""font-size: 60px; font-family: BACS"">ckduALkNc</p>","","","","","","","","",""
"html-keyboard-response","237","295367","0.0-12.0-0.67","5ec12ed7a66dbf01c7d740c1","650c16f0f2faf8d7a0d14c09","651c1c20a6ef7bed516d247e","null","null","<p style=""font-size: 60px; font-family: BACS"">QLrOJYaum</p>","","","","","","","","",""
"html-keyboard-response","238","296369","0.0-12.0-0.68","5ec12ed7a66dbf01c7d740c1","650c16f0f2faf8d7a0d14c09","651c1c20a6ef7bed516d247e","null","null","<p style=""font-size: 60px; font-family: BACS"">vJabLkNc</p>","","","","","","","","",""
"html-keyboard-response","239","297370","0.0-12.0-0.69","5ec12ed7a66dbf01c7d740c1","650c16f0f2faf8d7a0d14c09","651c1c20a6ef7bed516d247e","null","null","<p style=""font-size: 60px; font-family: BACS"">RtRhDlDT</p>","","","","","","","","",""
"html-keyboard-response","240","298371","0.0-12.0-0.70","5ec12ed7a66dbf01c7d740c1","650c16f0f2faf8d7a0d14c09","651c1c20a6ef7bed516d247e","null","null","<p style=""font-size: 60px; font-family: BACS"">bcbMRdCc</p>","","","","","","","","",""
"html-keyboard-response","241","299385","0.0-12.0-0.71","5ec12ed7a66dbf01c7d740c1","650c16f0f2faf8d7a0d14c09","651c1c20a6ef7bed516d247e","null","null","<p style=""font-size: 60px; font-family: BACS"">uQkrdYNu</p>","","","","","","","","",""
"html-keyboard-response","242","300386","0.0-12.0-0.72","5ec12ed7a66dbf01c7d740c1","650c16f0f2faf8d7a0d14c09","651c1c20a6ef7bed516d247e","null","null","<p style=""font-size: 60px; font-family: BACS"">GNAcacYUv</p>","","","","","","","","",""
"html-keyboard-response","243","301388","0.0-12.0-0.73","5ec12ed7a66dbf01c7d740c1","650c16f0f2faf8d7a0d14c09","651c1c20a6ef7bed516d247e","null","null","<p style=""font-size: 60px; font-family: BACS"">tKDmhmCd</p>","","","","","","","","",""
"html-keyboard-response","244","302389","0.0-12.0-0.74","5ec12ed7a66dbf01c7d740c1","650c16f0f2faf8d7a0d14c09","651c1c20a6ef7bed516d247e","null","null","<p style=""font-size: 60px; font-family: BACS"">vJabcYUv</p>","","","","","","","","",""
"html-keyboard-response","245","303390","0.0-12.0-0.75","5ec12ed7a66dbf01c7d740c1","650c16f0f2faf8d7a0d14c09","651c1c20a6ef7bed516d247e","null","null","<p style=""font-size: 60px; font-family: BACS"">BdtACRdCc</p>","","","","","","","","",""
"html-keyboard-response","246","304392","0.0-12.0-0.76","5ec12ed7a66dbf01c7d740c1","650c16f0f2faf8d7a0d14c09","651c1c20a6ef7bed516d247e","null","null","<p style=""font-size: 60px; font-family: BACS"">QLrOJYNu</p>","","","","","","","","",""
"html-keyboard-response","247","305393","0.0-12.0-0.77","5ec12ed7a66dbf01c7d740c1","650c16f0f2faf8d7a0d14c09","651c1c20a6ef7bed516d247e","null","null","<p style=""font-size: 60px; font-family: BACS"">DMRPDlDT</p>","","","","","","","","",""
"html-keyboard-response","248","306394","0.0-12.0-0.78","5ec12ed7a66dbf01c7d740c1","650c16f0f2faf8d7a0d14c09","651c1c20a6ef7bed516d247e","null","null","<p style=""font-size: 60px; font-family: BACS"">tKDmhRDM</p>","","","","","","","","",""
"html-keyboard-response","249","307395","0.0-12.0-0.79","5ec12ed7a66dbf01c7d740c1","650c16f0f2faf8d7a0d14c09","651c1c20a6ef7bed516d247e","null","null","<p style=""font-size: 60px; font-family: BACS"">ZJLmrcYUv</p>","","","","","","","","",""
"html-keyboard-response","250","310350","0.0-13.0","5ec12ed7a66dbf01c7d740c1","650c16f0f2faf8d7a0d14c09","651c1c20a6ef7bed516d247e","2955"," ","<p>Great, you've seen the third block of words. You may now take a short break.</p>
      <p>Press the spacebar when you're ready to continue.</p>","","","","","","","","",""
"html-keyboard-response","251","311353","0.0-14.0-0.0","5ec12ed7a66dbf01c7d740c1","650c16f0f2faf8d7a0d14c09","651c1c20a6ef7bed516d247e","null","null","<p style=""font-size: 60px; font-family: BACS"">QLrOJYaum</p>","","","","","","","","",""
"html-keyboard-response","252","312354","0.0-14.0-0.1","5ec12ed7a66dbf01c7d740c1","650c16f0f2faf8d7a0d14c09","651c1c20a6ef7bed516d247e","null","null","<p style=""font-size: 60px; font-family: BACS"">PCMPKRDM</p>","","","","","","","","",""
"html-keyboard-response","253","313354","0.0-14.0-0.2","5ec12ed7a66dbf01c7d740c1","650c16f0f2faf8d7a0d14c09","651c1c20a6ef7bed516d247e","null","null","<p style=""font-size: 60px; font-family: BACS"">ZJLmrYNu</p>","","","","","","","","",""
"html-keyboard-response","254","314356","0.0-14.0-0.3","5ec12ed7a66dbf01c7d740c1","650c16f0f2faf8d7a0d14c09","651c1c20a6ef7bed516d247e","null","null","<p style=""font-size: 60px; font-family: BACS"">tKDmhRdCc</p>","","","","","","","","",""
"html-keyboard-response","255","315357","0.0-14.0-0.4","5ec12ed7a66dbf01c7d740c1","650c16f0f2faf8d7a0d14c09","651c1c20a6ef7bed516d247e","null","null","<p style=""font-size: 60px; font-family: BACS"">GNAcaLUOk</p>","","","","","","","","",""
"html-keyboard-response","256","316357","0.0-14.0-0.5","5ec12ed7a66dbf01c7d740c1","650c16f0f2faf8d7a0d14c09","651c1c20a6ef7bed516d247e","null","null","<p style=""font-size: 60px; font-family: BACS"">vJabLkNc</p>","","","","","","","","",""
"html-keyboard-response","257","317359","0.0-14.0-0.6","5ec12ed7a66dbf01c7d740c1","650c16f0f2faf8d7a0d14c09","651c1c20a6ef7bed516d247e","null","null","<p style=""font-size: 60px; font-family: BACS"">auYAkLUOk</p>","","","","","","","","",""
"html-keyboard-response","258","318368","0.0-14.0-0.7","5ec12ed7a66dbf01c7d740c1","650c16f0f2faf8d7a0d14c09","651c1c20a6ef7bed516d247e","null","null","<p style=""font-size: 60px; font-family: BACS"">bcbMRDM</p>","","","","","","","","",""
"html-keyboard-response","259","319369","0.0-14.0-0.8","5ec12ed7a66dbf01c7d740c1","650c16f0f2faf8d7a0d14c09","651c1c20a6ef7bed516d247e","null","null","<p style=""font-size: 60px; font-family: BACS"">ZJLmrYaum</p>","","","","","","","","",""
"html-keyboard-response","260","320369","0.0-14.0-0.9","5ec12ed7a66dbf01c7d740c1","650c16f0f2faf8d7a0d14c09","651c1c20a6ef7bed516d247e","null","null","<p style=""font-size: 60px; font-family: BACS"">ckduALkNc</p>","","","","","","","","",""
"html-keyboard-response","261","321370","0.0-14.0-0.10","5ec12ed7a66dbf01c7d740c1","650c16f0f2faf8d7a0d14c09","651c1c20a6ef7bed516d247e","null","null","<p style=""font-size: 60px; font-family: BACS"">PCMPKkMEC</p>","","","","","","","","",""
"html-keyboard-response","262","322385","0.0-14.0-0.11","5ec12ed7a66dbf01c7d740c1","650c16f0f2faf8d7a0d14c09","651c1c20a6ef7bed516d247e","null","null","<p style=""font-size: 60px; font-family: BACS"">ckduAYNu</p>","","","","","","","","",""
"html-keyboard-response","263","323398","0.0-14.0-0.12","5ec12ed7a66dbf01c7d740c1","650c16f0f2faf8d7a0d14c09","651c1c20a6ef7bed516d247e","null","null","<p style=""font-size: 60px; font-family: BACS"">bmdABkMEC</p>","","","","","","","","",""
"html-keyboard-response","264","324399","0.0-14.0-0.13","5ec12ed7a66dbf01c7d740c1","650c16f0f2faf8d7a0d14c09","651c1c20a6ef7bed516d247e","null","null","<p style=""font-size: 60px; font-family: BACS"">uQkrdLUOk</p>","","","","","","","","",""
"html-keyboard-response","265","325401","0.0-14.0-0.14","5ec12ed7a66dbf01c7d740c1","650c16f0f2faf8d7a0d14c09","651c1c20a6ef7bed516d247e","null","null","<p style=""font-size: 60px; font-family: BACS"">tKDmhRDM</p>","","","","","","","","",""
"html-keyboard-response","266","326416","0.0-14.0-0.15","5ec12ed7a66dbf01c7d740c1","650c16f0f2faf8d7a0d14c09","651c1c20a6ef7bed516d247e","null","null","<p style=""font-size: 60px; font-family: BACS"">LAclALUOk</p>","","","","","","","","",""
"html-keyboard-response","267","327418","0.0-14.0-0.16","5ec12ed7a66dbf01c7d740c1","650c16f0f2faf8d7a0d14c09","651c1c20a6ef7bed516d247e","null","null","<p style=""font-size: 60px; font-family: BACS"">tKDmhmCd</p>","","","","","","","","",""
"html-keyboard-response","268","328419","0.0-14.0-0.17","5ec12ed7a66dbf01c7d740c1","650c16f0f2faf8d7a0d14c09","651c1c20a6ef7bed516d247e","null","null","<p style=""font-size: 60px; font-family: BACS"">auYAkLkNc</p>","","","","","","","","",""
"html-keyboard-response","269","329419","0.0-14.0-0.18","5ec12ed7a66dbf01c7d740c1","650c16f0f2faf8d7a0d14c09","651c1c20a6ef7bed516d247e","null","null","<p style=""font-size: 60px; font-family: BACS"">DMRPDlDT</p>","","","","","","","","",""
"html-keyboard-response","270","330420","0.0-14.0-0.19","5ec12ed7a66dbf01c7d740c1","650c16f0f2faf8d7a0d14c09","651c1c20a6ef7bed516d247e","null","null","<p style=""font-size: 60px; font-family: BACS"">vJabYNu</p>","","","","","","","","",""
"html-keyboard-response","271","331432","0.0-14.0-0.20","5ec12ed7a66dbf01c7d740c1","650c16f0f2faf8d7a0d14c09","651c1c20a6ef7bed516d247e","null","null","<p style=""font-size: 60px; font-family: BACS"">MBKREDlDT</p>","","","","","","","","",""
"html-keyboard-response","272","332447","0.0-14.0-0.21","5ec12ed7a66dbf01c7d740c1","650c16f0f2faf8d7a0d14c09","651c1c20a6ef7bed516d247e","null","null","<p style=""font-size: 60px; font-family: BACS"">CRdBdkMEC</p>","","","","","","","","",""
"html-keyboard-response","273","333462","0.0-14.0-0.22","5ec12ed7a66dbf01c7d740c1","650c16f0f2faf8d7a0d14c09","651c1c20a6ef7bed516d247e","null","null","<p style=""font-size: 60px; font-family: BACS"">QLrOJYNu</p>","","","","","","","","",""
"html-keyboard-response","274","334464","0.0-14.0-0.23","5ec12ed7a66dbf01c7d740c1","650c16f0f2faf8d7a0d14c09","651c1c20a6ef7bed516d247e","null","null","<p style=""font-size: 60px; font-family: BACS"">ZJLmrLkNc</p>","","","","","","","","",""
"html-keyboard-response","275","335477","0.0-14.0-0.24","5ec12ed7a66dbf01c7d740c1","650c16f0f2faf8d7a0d14c09","651c1c20a6ef7bed516d247e","null","null","<p style=""font-size: 60px; font-family: BACS"">DMRPmCd</p>","","","","","","","","",""
"html-keyboard-response","276","336477","0.0-14.0-0.25","5ec12ed7a66dbf01c7d740c1","650c16f0f2faf8d7a0d14c09","651c1c20a6ef7bed516d247e","null","null","<p style=""font-size: 60px; font-family: BACS"">ckduAcYUv</p>","","","","","","","","",""
"html-keyboard-response","277","337478","0.0-14.0-0.26","5ec12ed7a66dbf01c7d740c1","650c16f0f2faf8d7a0d14c09","651c1c20a6ef7bed516d247e","null","null","<p style=""font-size: 60px; font-family: BACS"">DMRPRDM</p>","","","","","","","","",""
"html-keyboard-response","278","338479","0.0-14.0-0.27","5ec12ed7a66dbf01c7d740c1","650c16f0f2faf8d7a0d14c09","651c1c20a6ef7bed516d247e","null","null","<p style=""font-size: 60px; font-family: BACS"">bROCDlDT</p>","","","","","","","","",""
"html-keyboard-response","279","339479","0.0-14.0-0.28","5ec12ed7a66dbf01c7d740c1","650c16f0f2faf8d7a0d14c09","651c1c20a6ef7bed516d247e","null","null","<p style=""font-size: 60px; font-family: BACS"">BdtACRdCc</p>","","","","","","","","",""
"html-keyboard-response","280","340480","0.0-14.0-0.29","5ec12ed7a66dbf01c7d740c1","650c16f0f2faf8d7a0d14c09","651c1c20a6ef7bed516d247e","null","null","<p style=""font-size: 60px; font-family: BACS"">RtRhRDM</p>","","","","","","","","",""
"html-keyboard-response","281","341484","0.0-14.0-0.30","5ec12ed7a66dbf01c7d740c1","650c16f0f2faf8d7a0d14c09","651c1c20a6ef7bed516d247e","null","null","<p style=""font-size: 60px; font-family: BACS"">MBKRERdCc</p>","","","","","","","","",""
"html-keyboard-response","282","342485","0.0-14.0-0.31","5ec12ed7a66dbf01c7d740c1","650c16f0f2faf8d7a0d14c09","651c1c20a6ef7bed516d247e","null","null","<p style=""font-size: 60px; font-family: BACS"">ZdNmUYaum</p>","","","","","","","","",""
"html-keyboard-response","283","343486","0.0-14.0-0.32","5ec12ed7a66dbf01c7d740c1","650c16f0f2faf8d7a0d14c09","651c1c20a6ef7bed516d247e","null","null","<p style=""font-size: 60px; font-family: BACS"">bROCRdCc</p>","","","","","","","","",""
"html-keyboard-response","284","344486","0.0-14.0-0.33","5ec12ed7a66dbf01c7d740c1","650c16f0f2faf8d7a0d14c09","651c1c20a6ef7bed516d247e","null","null","<p style=""font-size: 60px; font-family: BACS"">MBKREkMEC</p>","","","","","","","","",""
"html-keyboard-response","285","345487","0.0-14.0-0.34","5ec12ed7a66dbf01c7d740c1","650c16f0f2faf8d7a0d14c09","651c1c20a6ef7bed516d247e","null","null","<p style=""font-size: 60px; font-family: BACS"">vJabcYUv</p>","","","","","","","","",""
"html-keyboard-response","286","346489","0.0-14.0-0.35","5ec12ed7a66dbf01c7d740c1","650c16f0f2faf8d7a0d14c09","651c1c20a6ef7bed516d247e","null","null","<p style=""font-size: 60px; font-family: BACS"">ckduALUOk</p>","","","","","","","","",""
"html-keyboard-response","287","347490","0.0-14.0-0.36","5ec12ed7a66dbf01c7d740c1","650c16f0f2faf8d7a0d14c09","651c1c20a6ef7bed516d247e","null","null","<p style=""font-size: 60px; font-family: BACS"">auYAkcYUv</p>","","","","","","","","",""
"html-keyboard-response","288","348491","0.0-14.0-0.37","5ec12ed7a66dbf01c7d740c1","650c16f0f2faf8d7a0d14c09","651c1c20a6ef7bed516d247e","null","null","<p style=""font-size: 60px; font-family: BACS"">RtRhmCd</p>","","","","","","","","",""
"html-keyboard-response","289","349504","0.0-14.0-0.38","5ec12ed7a66dbf01c7d740c1","650c16f0f2faf8d7a0d14c09","651c1c20a6ef7bed516d247e","null","null","<p style=""font-size: 60px; font-family: BACS"">ZdNmUcYUv</p>","","","","","","","","",""
"html-keyboard-response","290","350506","0.0-14.0-0.39","5ec12ed7a66dbf01c7d740c1","650c16f0f2faf8d7a0d14c09","651c1c20a6ef7bed516d247e","null","null","<p style=""font-size: 60px; font-family: BACS"">PCMPKDlDT</p>","","","","","","","","",""
"html-keyboard-response","291","351511","0.0-14.0-0.40","5ec12ed7a66dbf01c7d740c1","650c16f0f2faf8d7a0d14c09","651c1c20a6ef7bed516d247e","null","null","<p style=""font-size: 60px; font-family: BACS"">bcbMRdCc</p>","","","","","","","","",""
"html-keyboard-response","292","352512","0.0-14.0-0.41","5ec12ed7a66dbf01c7d740c1","650c16f0f2faf8d7a0d14c09","651c1c20a6ef7bed516d247e","null","null","<p style=""font-size: 60px; font-family: BACS"">MBKREmCd</p>","","","","","","","","",""
"html-keyboard-response","293","353513","0.0-14.0-0.42","5ec12ed7a66dbf01c7d740c1","650c16f0f2faf8d7a0d14c09","651c1c20a6ef7bed516d247e","null","null","<p style=""font-size: 60px; font-family: BACS"">LAclALkNc</p>","","","","","","","","",""
"html-keyboard-response","294","354515","0.0-14.0-0.43","5ec12ed7a66dbf01c7d740c1","650c16f0f2faf8d7a0d14c09","651c1c20a6ef7bed516d247e","null","null","<p style=""font-size: 60px; font-family: BACS"">RtRhRdCc</p>","","","","","","","","",""
"html-keyboard-response","295","355527","0.0-14.0-0.44","5ec12ed7a66dbf01c7d740c1","650c16f0f2faf8d7a0d14c09","651c1c20a6ef7bed516d247e","null","null","<p style=""font-size: 60px; font-family: BACS"">ZdNmULkNc</p>","","","","","","","","",""
"html-keyboard-response","296","356529","0.0-14.0-0.45","5ec12ed7a66dbf01c7d740c1","650c16f0f2faf8d7a0d14c09","651c1c20a6ef7bed516d247e","null","null","<p style=""font-size: 60px; font-family: BACS"">bROCmCd</p>","","","","","","","","",""
"html-keyboard-response","297","357530","0.0-14.0-0.46","5ec12ed7a66dbf01c7d740c1","650c16f0f2faf8d7a0d14c09","651c1c20a6ef7bed516d247e","null","null","<p style=""font-size: 60px; font-family: BACS"">QLrOJcYUv</p>","","","","","","","","",""
"html-keyboard-response","298","358531","0.0-14.0-0.47","5ec12ed7a66dbf01c7d740c1","650c16f0f2faf8d7a0d14c09","651c1c20a6ef7bed516d247e","null","null","<p style=""font-size: 60px; font-family: BACS"">YOaAbYaum</p>","","","","","","","","",""
"html-keyboard-response","299","359533","0.0-14.0-0.48","5ec12ed7a66dbf01c7d740c1","650c16f0f2faf8d7a0d14c09","651c1c20a6ef7bed516d247e","null","null","<p style=""font-size: 60px; font-family: BACS"">RtRhDlDT</p>","","","","","","","","",""
"html-keyboard-response","300","360533","0.0-14.0-0.49","5ec12ed7a66dbf01c7d740c1","650c16f0f2faf8d7a0d14c09","651c1c20a6ef7bed516d247e","null","null","<p style=""font-size: 60px; font-family: BACS"">BdtACRDM</p>","","","","","","","","",""
"html-keyboard-response","301","361534","0.0-14.0-0.50","5ec12ed7a66dbf01c7d740c1","650c16f0f2faf8d7a0d14c09","651c1c20a6ef7bed516d247e","null","null","<p style=""font-size: 60px; font-family: BACS"">LAclAYaum</p>","","","","","","","","",""
"html-keyboard-response","302","362541","0.0-14.0-0.51","5ec12ed7a66dbf01c7d740c1","650c16f0f2faf8d7a0d14c09","651c1c20a6ef7bed516d247e","null","null","<p style=""font-size: 60px; font-family: BACS"">auYAkYNu</p>","","","","","","","","",""
"html-keyboard-response","303","363546","0.0-14.0-0.52","5ec12ed7a66dbf01c7d740c1","650c16f0f2faf8d7a0d14c09","651c1c20a6ef7bed516d247e","null","null","<p style=""font-size: 60px; font-family: BACS"">QLrOJLUOk</p>","","","","","","","","",""
"html-keyboard-response","304","364546","0.0-14.0-0.53","5ec12ed7a66dbf01c7d740c1","650c16f0f2faf8d7a0d14c09","651c1c20a6ef7bed516d247e","null","null","<p style=""font-size: 60px; font-family: BACS"">bmdABmCd</p>","","","","","","","","",""
"html-keyboard-response","305","365557","0.0-14.0-0.54","5ec12ed7a66dbf01c7d740c1","650c16f0f2faf8d7a0d14c09","651c1c20a6ef7bed516d247e","null","null","<p style=""font-size: 60px; font-family: BACS"">CRdBdRdCc</p>","","","","","","","","",""
"html-keyboard-response","306","366558","0.0-14.0-0.55","5ec12ed7a66dbf01c7d740c1","650c16f0f2faf8d7a0d14c09","651c1c20a6ef7bed516d247e","null","null","<p style=""font-size: 60px; font-family: BACS"">BdtACDlDT</p>","","","","","","","","",""
"html-keyboard-response","307","367559","0.0-14.0-0.56","5ec12ed7a66dbf01c7d740c1","650c16f0f2faf8d7a0d14c09","651c1c20a6ef7bed516d247e","null","null","<p style=""font-size: 60px; font-family: BACS"">PCMPKmCd</p>","","","","","","","","",""
"html-keyboard-response","308","368574","0.0-14.0-0.57","5ec12ed7a66dbf01c7d740c1","650c16f0f2faf8d7a0d14c09","651c1c20a6ef7bed516d247e","null","null","<p style=""font-size: 60px; font-family: BACS"">DMRPRdCc</p>","","","","","","","","",""
"html-keyboard-response","309","369575","0.0-14.0-0.58","5ec12ed7a66dbf01c7d740c1","650c16f0f2faf8d7a0d14c09","651c1c20a6ef7bed516d247e","null","null","<p style=""font-size: 60px; font-family: BACS"">tKDmhkMEC</p>","","","","","","","","",""
"html-keyboard-response","310","370575","0.0-14.0-0.59","5ec12ed7a66dbf01c7d740c1","650c16f0f2faf8d7a0d14c09","651c1c20a6ef7bed516d247e","null","null","<p style=""font-size: 60px; font-family: BACS"">CRdBdmCd</p>","","","","","","","","",""
"html-keyboard-response","311","371577","0.0-14.0-0.60","5ec12ed7a66dbf01c7d740c1","650c16f0f2faf8d7a0d14c09","651c1c20a6ef7bed516d247e","null","null","<p style=""font-size: 60px; font-family: BACS"">bmdABRDM</p>","","","","","","","","",""
"html-keyboard-response","312","372592","0.0-14.0-0.61","5ec12ed7a66dbf01c7d740c1","650c16f0f2faf8d7a0d14c09","651c1c20a6ef7bed516d247e","null","null","<p style=""font-size: 60px; font-family: BACS"">vJabYaum</p>","","","","","","","","",""
"html-keyboard-response","313","373596","0.0-14.0-0.62","5ec12ed7a66dbf01c7d740c1","650c16f0f2faf8d7a0d14c09","651c1c20a6ef7bed516d247e","null","null","<p style=""font-size: 60px; font-family: BACS"">ZdNmULUOk</p>","","","","","","","","",""
"html-keyboard-response","314","374601","0.0-14.0-0.63","5ec12ed7a66dbf01c7d740c1","650c16f0f2faf8d7a0d14c09","651c1c20a6ef7bed516d247e","null","null","<p style=""font-size: 60px; font-family: BACS"">bmdABDlDT</p>","","","","","","","","",""
"html-keyboard-response","315","375617","0.0-14.0-0.64","5ec12ed7a66dbf01c7d740c1","650c16f0f2faf8d7a0d14c09","651c1c20a6ef7bed516d247e","null","null","<p style=""font-size: 60px; font-family: BACS"">YOaAbLUOk</p>","","","","","","","","",""
"html-keyboard-response","316","376620","0.0-14.0-0.65","5ec12ed7a66dbf01c7d740c1","650c16f0f2faf8d7a0d14c09","651c1c20a6ef7bed516d247e","null","null","<p style=""font-size: 60px; font-family: BACS"">BdtACkMEC</p>","","","","","","","","",""
"html-keyboard-response","317","377622","0.0-14.0-0.66","5ec12ed7a66dbf01c7d740c1","650c16f0f2faf8d7a0d14c09","651c1c20a6ef7bed516d247e","null","null","<p style=""font-size: 60px; font-family: BACS"">uQkrdYaum</p>","","","","","","","","",""
"html-keyboard-response","318","378635","0.0-14.0-0.67","5ec12ed7a66dbf01c7d740c1","650c16f0f2faf8d7a0d14c09","651c1c20a6ef7bed516d247e","null","null","<p style=""font-size: 60px; font-family: BACS"">GNAcaLkNc</p>","","","","","","","","",""
"html-keyboard-response","319","379637","0.0-14.0-0.68","5ec12ed7a66dbf01c7d740c1","650c16f0f2faf8d7a0d14c09","651c1c20a6ef7bed516d247e","null","null","<p style=""font-size: 60px; font-family: BACS"">YOaAbYNu</p>","","","","","","","","",""
"html-keyboard-response","320","380637","0.0-14.0-0.69","5ec12ed7a66dbf01c7d740c1","650c16f0f2faf8d7a0d14c09","651c1c20a6ef7bed516d247e","null","null","<p style=""font-size: 60px; font-family: BACS"">CRdBdRDM</p>","","","","","","","","",""
"html-keyboard-response","321","381637","0.0-14.0-0.70","5ec12ed7a66dbf01c7d740c1","650c16f0f2faf8d7a0d14c09","651c1c20a6ef7bed516d247e","null","null","<p style=""font-size: 60px; font-family: BACS"">GNAcacYUv</p>","","","","","","","","",""
"html-keyboard-response","322","382647","0.0-14.0-0.71","5ec12ed7a66dbf01c7d740c1","650c16f0f2faf8d7a0d14c09","651c1c20a6ef7bed516d247e","null","null","<p style=""font-size: 60px; font-family: BACS"">bROCkMEC</p>","","","","","","","","",""
"html-keyboard-response","323","383662","0.0-14.0-0.72","5ec12ed7a66dbf01c7d740c1","650c16f0f2faf8d7a0d14c09","651c1c20a6ef7bed516d247e","null","null","<p style=""font-size: 60px; font-family: BACS"">GNAcaYaum</p>","","","","","","","","",""
"html-keyboard-response","324","384666","0.0-14.0-0.73","5ec12ed7a66dbf01c7d740c1","650c16f0f2faf8d7a0d14c09","651c1c20a6ef7bed516d247e","null","null","<p style=""font-size: 60px; font-family: BACS"">bcbMDlDT</p>","","","","","","","","",""
"html-keyboard-response","325","385667","0.0-14.0-0.74","5ec12ed7a66dbf01c7d740c1","650c16f0f2faf8d7a0d14c09","651c1c20a6ef7bed516d247e","null","null","<p style=""font-size: 60px; font-family: BACS"">uQkrdcYUv</p>","","","","","","","","",""
"html-keyboard-response","326","386675","0.0-14.0-0.75","5ec12ed7a66dbf01c7d740c1","650c16f0f2faf8d7a0d14c09","651c1c20a6ef7bed516d247e","null","null","<p style=""font-size: 60px; font-family: BACS"">YOaAbLkNc</p>","","","","","","","","",""
"html-keyboard-response","327","387676","0.0-14.0-0.76","5ec12ed7a66dbf01c7d740c1","650c16f0f2faf8d7a0d14c09","651c1c20a6ef7bed516d247e","null","null","<p style=""font-size: 60px; font-family: BACS"">LAclAYNu</p>","","","","","","","","",""
"html-keyboard-response","328","388678","0.0-14.0-0.77","5ec12ed7a66dbf01c7d740c1","650c16f0f2faf8d7a0d14c09","651c1c20a6ef7bed516d247e","null","null","<p style=""font-size: 60px; font-family: BACS"">bcbMkMEC</p>","","","","","","","","",""
"html-keyboard-response","329","389679","0.0-14.0-0.78","5ec12ed7a66dbf01c7d740c1","650c16f0f2faf8d7a0d14c09","651c1c20a6ef7bed516d247e","null","null","<p style=""font-size: 60px; font-family: BACS"">uQkrdYNu</p>","","","","","","","","",""
"html-keyboard-response","330","390683","0.0-14.0-0.79","5ec12ed7a66dbf01c7d740c1","650c16f0f2faf8d7a0d14c09","651c1c20a6ef7bed516d247e","null","null","<p style=""font-size: 60px; font-family: BACS"">ZJLmrcYUv</p>","","","","","","","","",""
"html-keyboard-response","331","392623","0.0-15.0","5ec12ed7a66dbf01c7d740c1","650c16f0f2faf8d7a0d14c09","651c1c20a6ef7bed516d247e","1939"," ","<p>Great, you've seen the fourth block of words. You may now take a short break.</p>
      <p>Press the spacebar when you're ready to continue.</p>","","","","","","","","",""
"html-keyboard-response","332","393634","0.0-16.0-0.0","5ec12ed7a66dbf01c7d740c1","650c16f0f2faf8d7a0d14c09","651c1c20a6ef7bed516d247e","null","null","<p style=""font-size: 60px; font-family: BACS"">CRdBdRdCc</p>","","","","","","","","",""
"html-keyboard-response","333","394636","0.0-16.0-0.1","5ec12ed7a66dbf01c7d740c1","650c16f0f2faf8d7a0d14c09","651c1c20a6ef7bed516d247e","null","null","<p style=""font-size: 60px; font-family: BACS"">CRdBdRdCc</p>","","","","","","","","",""
"html-keyboard-response","334","395642","0.0-16.0-0.2","5ec12ed7a66dbf01c7d740c1","650c16f0f2faf8d7a0d14c09","651c1c20a6ef7bed516d247e","null","null","<p style=""font-size: 60px; font-family: BACS"">CRdBdRdCc</p>","","","","","","","","",""
"html-keyboard-response","335","396645","0.0-16.0-0.3","5ec12ed7a66dbf01c7d740c1","650c16f0f2faf8d7a0d14c09","651c1c20a6ef7bed516d247e","null","null","<p style=""font-size: 60px; font-family: BACS"">CRdBdRdCc</p>","","","","","","","","",""
"html-keyboard-response","336","397649","0.0-16.0-0.4","5ec12ed7a66dbf01c7d740c1","650c16f0f2faf8d7a0d14c09","651c1c20a6ef7bed516d247e","null","null","<p style=""font-size: 60px; font-family: BACS"">CRdBdRdCc</p>","","","","","","","","",""
"html-keyboard-response","337","398650","0.0-16.0-0.5","5ec12ed7a66dbf01c7d740c1","650c16f0f2faf8d7a0d14c09","651c1c20a6ef7bed516d247e","null","null","<p style=""font-size: 60px; font-family: BACS"">CRdBdRdCc</p>","","","","","","","","",""
"html-keyboard-response","338","399663","0.0-16.0-0.6","5ec12ed7a66dbf01c7d740c1","650c16f0f2faf8d7a0d14c09","651c1c20a6ef7bed516d247e","null","null","<p style=""font-size: 60px; font-family: BACS"">CRdBdRdCc</p>","","","","","","","","",""
"html-keyboard-response","339","400679","0.0-16.0-0.7","5ec12ed7a66dbf01c7d740c1","650c16f0f2faf8d7a0d14c09","651c1c20a6ef7bed516d247e","null","null","<p style=""font-size: 60px; font-family: BACS"">CRdBdRdCc</p>","","","","","","","","",""
"html-keyboard-response","340","401681","0.0-16.0-0.8","5ec12ed7a66dbf01c7d740c1","650c16f0f2faf8d7a0d14c09","651c1c20a6ef7bed516d247e","null","null","<p style=""font-size: 60px; font-family: BACS"">CRdBdRdCc</p>","","","","","","","","",""
"html-keyboard-response","341","402689","0.0-16.0-0.9","5ec12ed7a66dbf01c7d740c1","650c16f0f2faf8d7a0d14c09","651c1c20a6ef7bed516d247e","null","null","<p style=""font-size: 60px; font-family: BACS"">CRdBdRdCc</p>","","","","","","","","",""
"html-keyboard-response","342","403695","0.0-16.0-0.10","5ec12ed7a66dbf01c7d740c1","650c16f0f2faf8d7a0d14c09","651c1c20a6ef7bed516d247e","null","null","<p style=""font-size: 60px; font-family: BACS"">CRdBdRdCc</p>","","","","","","","","",""
"html-keyboard-response","343","404699","0.0-16.0-0.11","5ec12ed7a66dbf01c7d740c1","650c16f0f2faf8d7a0d14c09","651c1c20a6ef7bed516d247e","null","null","<p style=""font-size: 60px; font-family: BACS"">CRdBdRdCc</p>","","","","","","","","",""
"html-keyboard-response","344","405702","0.0-16.0-0.12","5ec12ed7a66dbf01c7d740c1","650c16f0f2faf8d7a0d14c09","651c1c20a6ef7bed516d247e","null","null","<p style=""font-size: 60px; font-family: BACS"">CRdBdRdCc</p>","","","","","","","","",""
"html-keyboard-response","345","406705","0.0-16.0-0.13","5ec12ed7a66dbf01c7d740c1","650c16f0f2faf8d7a0d14c09","651c1c20a6ef7bed516d247e","null","null","<p style=""font-size: 60px; font-family: BACS"">CRdBdRdCc</p>","","","","","","","","",""
"html-keyboard-response","346","407709","0.0-16.0-0.14","5ec12ed7a66dbf01c7d740c1","650c16f0f2faf8d7a0d14c09","651c1c20a6ef7bed516d247e","null","null","<p style=""font-size: 60px; font-family: BACS"">CRdBdRdCc</p>","","","","","","","","",""
"html-keyboard-response","347","408712","0.0-16.0-0.15","5ec12ed7a66dbf01c7d740c1","650c16f0f2faf8d7a0d14c09","651c1c20a6ef7bed516d247e","null","null","<p style=""font-size: 60px; font-family: BACS"">CRdBdRdCc</p>","","","","","","","","",""
"html-keyboard-response","348","409715","0.0-16.0-0.16","5ec12ed7a66dbf01c7d740c1","650c16f0f2faf8d7a0d14c09","651c1c20a6ef7bed516d247e","null","null","<p style=""font-size: 60px; font-family: BACS"">CRdBdRdCc</p>","","","","","","","","",""
"html-keyboard-response","349","410730","0.0-16.0-0.17","5ec12ed7a66dbf01c7d740c1","650c16f0f2faf8d7a0d14c09","651c1c20a6ef7bed516d247e","null","null","<p style=""font-size: 60px; font-family: BACS"">CRdBdRdCc</p>","","","","","","","","",""
"html-keyboard-response","350","411743","0.0-16.0-0.18","5ec12ed7a66dbf01c7d740c1","650c16f0f2faf8d7a0d14c09","651c1c20a6ef7bed516d247e","null","null","<p style=""font-size: 60px; font-family: BACS"">CRdBdRdCc</p>","","","","","","","","",""
"html-keyboard-response","351","412758","0.0-16.0-0.19","5ec12ed7a66dbf01c7d740c1","650c16f0f2faf8d7a0d14c09","651c1c20a6ef7bed516d247e","null","null","<p style=""font-size: 60px; font-family: BACS"">CRdBdRdCc</p>","","","","","","","","",""
"html-keyboard-response","352","413760","0.0-16.0-0.20","5ec12ed7a66dbf01c7d740c1","650c16f0f2faf8d7a0d14c09","651c1c20a6ef7bed516d247e","null","null","<p style=""font-size: 60px; font-family: BACS"">CRdBdRdCc</p>","","","","","","","","",""
"html-keyboard-response","353","414762","0.0-16.0-0.21","5ec12ed7a66dbf01c7d740c1","650c16f0f2faf8d7a0d14c09","651c1c20a6ef7bed516d247e","null","null","<p style=""font-size: 60px; font-family: BACS"">CRdBdRdCc</p>","","","","","","","","",""
"html-keyboard-response","354","415764","0.0-16.0-0.22","5ec12ed7a66dbf01c7d740c1","650c16f0f2faf8d7a0d14c09","651c1c20a6ef7bed516d247e","null","null","<p style=""font-size: 60px; font-family: BACS"">CRdBdRdCc</p>","","","","","","","","",""
"html-keyboard-response","355","416779","0.0-16.0-0.23","5ec12ed7a66dbf01c7d740c1","650c16f0f2faf8d7a0d14c09","651c1c20a6ef7bed516d247e","null","null","<p style=""font-size: 60px; font-family: BACS"">CRdBdRdCc</p>","","","","","","","","",""
"html-keyboard-response","356","417792","0.0-16.0-0.24","5ec12ed7a66dbf01c7d740c1","650c16f0f2faf8d7a0d14c09","651c1c20a6ef7bed516d247e","null","null","<p style=""font-size: 60px; font-family: BACS"">CRdBdRdCc</p>","","","","","","","","",""
"html-keyboard-response","357","418793","0.0-16.0-0.25","5ec12ed7a66dbf01c7d740c1","650c16f0f2faf8d7a0d14c09","651c1c20a6ef7bed516d247e","null","null","<p style=""font-size: 60px; font-family: BACS"">CRdBdRdCc</p>","","","","","","","","",""
"html-keyboard-response","358","419807","0.0-16.0-0.26","5ec12ed7a66dbf01c7d740c1","650c16f0f2faf8d7a0d14c09","651c1c20a6ef7bed516d247e","null","null","<p style=""font-size: 60px; font-family: BACS"">CRdBdRdCc</p>","","","","","","","","",""
"html-keyboard-response","359","420809","0.0-16.0-0.27","5ec12ed7a66dbf01c7d740c1","650c16f0f2faf8d7a0d14c09","651c1c20a6ef7bed516d247e","null","null","<p style=""font-size: 60px; font-family: BACS"">CRdBdRdCc</p>","","","","","","","","",""
"html-keyboard-response","360","421812","0.0-16.0-0.28","5ec12ed7a66dbf01c7d740c1","650c16f0f2faf8d7a0d14c09","651c1c20a6ef7bed516d247e","null","null","<p style=""font-size: 60px; font-family: BACS"">CRdBdRdCc</p>","","","","","","","","",""
"html-keyboard-response","361","422825","0.0-16.0-0.29","5ec12ed7a66dbf01c7d740c1","650c16f0f2faf8d7a0d14c09","651c1c20a6ef7bed516d247e","null","null","<p style=""font-size: 60px; font-family: BACS"">CRdBdRdCc</p>","","","","","","","","",""
"html-keyboard-response","362","423839","0.0-16.0-0.30","5ec12ed7a66dbf01c7d740c1","650c16f0f2faf8d7a0d14c09","651c1c20a6ef7bed516d247e","null","null","<p style=""font-size: 60px; font-family: BACS"">CRdBdRdCc</p>","","","","","","","","",""
"html-keyboard-response","363","424854","0.0-16.0-0.31","5ec12ed7a66dbf01c7d740c1","650c16f0f2faf8d7a0d14c09","651c1c20a6ef7bed516d247e","null","null","<p style=""font-size: 60px; font-family: BACS"">CRdBdRdCc</p>","","","","","","","","",""
"html-keyboard-response","364","425856","0.0-16.0-0.32","5ec12ed7a66dbf01c7d740c1","650c16f0f2faf8d7a0d14c09","651c1c20a6ef7bed516d247e","null","null","<p style=""font-size: 60px; font-family: BACS"">CRdBdRdCc</p>","","","","","","","","",""
"html-keyboard-response","365","426872","0.0-16.0-0.33","5ec12ed7a66dbf01c7d740c1","650c16f0f2faf8d7a0d14c09","651c1c20a6ef7bed516d247e","null","null","<p style=""font-size: 60px; font-family: BACS"">CRdBdRdCc</p>","","","","","","","","",""
"html-keyboard-response","366","427873","0.0-16.0-0.34","5ec12ed7a66dbf01c7d740c1","650c16f0f2faf8d7a0d14c09","651c1c20a6ef7bed516d247e","null","null","<p style=""font-size: 60px; font-family: BACS"">CRdBdRdCc</p>","","","","","","","","",""
"html-keyboard-response","367","428873","0.0-16.0-0.35","5ec12ed7a66dbf01c7d740c1","650c16f0f2faf8d7a0d14c09","651c1c20a6ef7bed516d247e","null","null","<p style=""font-size: 60px; font-family: BACS"">CRdBdRdCc</p>","","","","","","","","",""
"html-keyboard-response","368","429879","0.0-16.0-0.36","5ec12ed7a66dbf01c7d740c1","650c16f0f2faf8d7a0d14c09","651c1c20a6ef7bed516d247e","null","null","<p style=""font-size: 60px; font-family: BACS"">CRdBdRdCc</p>","","","","","","","","",""
"html-keyboard-response","369","430879","0.0-16.0-0.37","5ec12ed7a66dbf01c7d740c1","650c16f0f2faf8d7a0d14c09","651c1c20a6ef7bed516d247e","null","null","<p style=""font-size: 60px; font-family: BACS"">CRdBdRdCc</p>","","","","","","","","",""
"html-keyboard-response","370","431880","0.0-16.0-0.38","5ec12ed7a66dbf01c7d740c1","650c16f0f2faf8d7a0d14c09","651c1c20a6ef7bed516d247e","null","null","<p style=""font-size: 60px; font-family: BACS"">CRdBdRdCc</p>","","","","","","","","",""
"html-keyboard-response","371","432891","0.0-16.0-0.39","5ec12ed7a66dbf01c7d740c1","650c16f0f2faf8d7a0d14c09","651c1c20a6ef7bed516d247e","null","null","<p style=""font-size: 60px; font-family: BACS"">CRdBdRdCc</p>","","","","","","","","",""
"html-keyboard-response","372","433891","0.0-16.0-0.40","5ec12ed7a66dbf01c7d740c1","650c16f0f2faf8d7a0d14c09","651c1c20a6ef7bed516d247e","null","null","<p style=""font-size: 60px; font-family: BACS"">CRdBdRdCc</p>","","","","","","","","",""
"html-keyboard-response","373","434893","0.0-16.0-0.41","5ec12ed7a66dbf01c7d740c1","650c16f0f2faf8d7a0d14c09","651c1c20a6ef7bed516d247e","null","null","<p style=""font-size: 60px; font-family: BACS"">CRdBdRdCc</p>","","","","","","","","",""
"html-keyboard-response","374","435897","0.0-16.0-0.42","5ec12ed7a66dbf01c7d740c1","650c16f0f2faf8d7a0d14c09","651c1c20a6ef7bed516d247e","null","null","<p style=""font-size: 60px; font-family: BACS"">CRdBdRdCc</p>","","","","","","","","",""
"html-keyboard-response","375","436897","0.0-16.0-0.43","5ec12ed7a66dbf01c7d740c1","650c16f0f2faf8d7a0d14c09","651c1c20a6ef7bed516d247e","null","null","<p style=""font-size: 60px; font-family: BACS"">CRdBdRdCc</p>","","","","","","","","",""
"html-keyboard-response","376","437899","0.0-16.0-0.44","5ec12ed7a66dbf01c7d740c1","650c16f0f2faf8d7a0d14c09","651c1c20a6ef7bed516d247e","null","null","<p style=""font-size: 60px; font-family: BACS"">CRdBdRdCc</p>","","","","","","","","",""
"html-keyboard-response","377","438900","0.0-16.0-0.45","5ec12ed7a66dbf01c7d740c1","650c16f0f2faf8d7a0d14c09","651c1c20a6ef7bed516d247e","null","null","<p style=""font-size: 60px; font-family: BACS"">CRdBdRdCc</p>","","","","","","","","",""
"html-keyboard-response","378","439900","0.0-16.0-0.46","5ec12ed7a66dbf01c7d740c1","650c16f0f2faf8d7a0d14c09","651c1c20a6ef7bed516d247e","null","null","<p style=""font-size: 60px; font-family: BACS"">CRdBdRdCc</p>","","","","","","","","",""
"html-keyboard-response","379","440915","0.0-16.0-0.47","5ec12ed7a66dbf01c7d740c1","650c16f0f2faf8d7a0d14c09","651c1c20a6ef7bed516d247e","null","null","<p style=""font-size: 60px; font-family: BACS"">CRdBdRdCc</p>","","","","","","","","",""
"html-keyboard-response","380","441915","0.0-16.0-0.48","5ec12ed7a66dbf01c7d740c1","650c16f0f2faf8d7a0d14c09","651c1c20a6ef7bed516d247e","null","null","<p style=""font-size: 60px; font-family: BACS"">CRdBdRdCc</p>","","","","","","","","",""
"html-keyboard-response","381","442916","0.0-16.0-0.49","5ec12ed7a66dbf01c7d740c1","650c16f0f2faf8d7a0d14c09","651c1c20a6ef7bed516d247e","null","null","<p style=""font-size: 60px; font-family: BACS"">CRdBdRdCc</p>","","","","","","","","",""
"html-keyboard-response","382","443917","0.0-16.0-0.50","5ec12ed7a66dbf01c7d740c1","650c16f0f2faf8d7a0d14c09","651c1c20a6ef7bed516d247e","null","null","<p style=""font-size: 60px; font-family: BACS"">CRdBdRdCc</p>","","","","","","","","",""
"html-keyboard-response","383","444917","0.0-16.0-0.51","5ec12ed7a66dbf01c7d740c1","650c16f0f2faf8d7a0d14c09","651c1c20a6ef7bed516d247e","null","null","<p style=""font-size: 60px; font-family: BACS"">CRdBdRdCc</p>","","","","","","","","",""
"html-keyboard-response","384","445919","0.0-16.0-0.52","5ec12ed7a66dbf01c7d740c1","650c16f0f2faf8d7a0d14c09","651c1c20a6ef7bed516d247e","null","null","<p style=""font-size: 60px; font-family: BACS"">CRdBdRdCc</p>","","","","","","","","",""
"html-keyboard-response","385","446924","0.0-16.0-0.53","5ec12ed7a66dbf01c7d740c1","650c16f0f2faf8d7a0d14c09","651c1c20a6ef7bed516d247e","null","null","<p style=""font-size: 60px; font-family: BACS"">CRdBdRdCc</p>","","","","","","","","",""
"html-keyboard-response","386","447925","0.0-16.0-0.54","5ec12ed7a66dbf01c7d740c1","650c16f0f2faf8d7a0d14c09","651c1c20a6ef7bed516d247e","null","null","<p style=""font-size: 60px; font-family: BACS"">CRdBdRdCc</p>","","","","","","","","",""
"html-keyboard-response","387","448927","0.0-16.0-0.55","5ec12ed7a66dbf01c7d740c1","650c16f0f2faf8d7a0d14c09","651c1c20a6ef7bed516d247e","null","null","<p style=""font-size: 60px; font-family: BACS"">CRdBdRdCc</p>","","","","","","","","",""
"html-keyboard-response","388","449929","0.0-16.0-0.56","5ec12ed7a66dbf01c7d740c1","650c16f0f2faf8d7a0d14c09","651c1c20a6ef7bed516d247e","null","null","<p style=""font-size: 60px; font-family: BACS"">CRdBdRdCc</p>","","","","","","","","",""
"html-keyboard-response","389","450930","0.0-16.0-0.57","5ec12ed7a66dbf01c7d740c1","650c16f0f2faf8d7a0d14c09","651c1c20a6ef7bed516d247e","null","null","<p style=""font-size: 60px; font-family: BACS"">CRdBdRdCc</p>","","","","","","","","",""
"html-keyboard-response","390","451930","0.0-16.0-0.58","5ec12ed7a66dbf01c7d740c1","650c16f0f2faf8d7a0d14c09","651c1c20a6ef7bed516d247e","null","null","<p style=""font-size: 60px; font-family: BACS"">CRdBdRdCc</p>","","","","","","","","",""
"html-keyboard-response","391","452931","0.0-16.0-0.59","5ec12ed7a66dbf01c7d740c1","650c16f0f2faf8d7a0d14c09","651c1c20a6ef7bed516d247e","null","null","<p style=""font-size: 60px; font-family: BACS"">CRdBdRdCc</p>","","","","","","","","",""
"html-keyboard-response","392","453932","0.0-16.0-0.60","5ec12ed7a66dbf01c7d740c1","650c16f0f2faf8d7a0d14c09","651c1c20a6ef7bed516d247e","null","null","<p style=""font-size: 60px; font-family: BACS"">CRdBdRdCc</p>","","","","","","","","",""
"html-keyboard-response","393","454933","0.0-16.0-0.61","5ec12ed7a66dbf01c7d740c1","650c16f0f2faf8d7a0d14c09","651c1c20a6ef7bed516d247e","null","null","<p style=""font-size: 60px; font-family: BACS"">CRdBdRdCc</p>","","","","","","","","",""
"html-keyboard-response","394","455934","0.0-16.0-0.62","5ec12ed7a66dbf01c7d740c1","650c16f0f2faf8d7a0d14c09","651c1c20a6ef7bed516d247e","null","null","<p style=""font-size: 60px; font-family: BACS"">CRdBdRdCc</p>","","","","","","","","",""
"html-keyboard-response","395","456936","0.0-16.0-0.63","5ec12ed7a66dbf01c7d740c1","650c16f0f2faf8d7a0d14c09","651c1c20a6ef7bed516d247e","null","null","<p style=""font-size: 60px; font-family: BACS"">CRdBdRdCc</p>","","","","","","","","",""
"html-keyboard-response","396","457936","0.0-16.0-0.64","5ec12ed7a66dbf01c7d740c1","650c16f0f2faf8d7a0d14c09","651c1c20a6ef7bed516d247e","null","null","<p style=""font-size: 60px; font-family: BACS"">CRdBdRdCc</p>","","","","","","","","",""
"html-keyboard-response","397","458953","0.0-16.0-0.65","5ec12ed7a66dbf01c7d740c1","650c16f0f2faf8d7a0d14c09","651c1c20a6ef7bed516d247e","null","null","<p style=""font-size: 60px; font-family: BACS"">CRdBdRdCc</p>","","","","","","","","",""
