"trial_type","trial_index","time_elapsed","internal_node_id","subject_id","study_id","session_id","rt","response","stimulus","success","item","task","correct_response","testing_condition","correct","target","confound","name","view_history"
"pavlovia","0","742","0.0-0.0","61533ead92c280c34cc22482","64e77d7b61f440b60e28659d","64eca3153e963b73562af35f","","","","","","","","","","","","",""
"survey-html-form","1","418811","0.0-1.0","61533ead92c280c34cc22482","64e77d7b61f440b60e28659d","64eca3153e963b73562af35f","418068","{""ID"":""61533ead92c280c34cc22482""}","","","","","","","","","","",""
"html-keyboard-response","2","435153","0.0-2.0","61533ead92c280c34cc22482","64e77d7b61f440b60e28659d","64eca3153e963b73562af35f","16340"," ","<p style=""font-size: 15px;"">Before beginning, we ask that you read the consent information and confirm your agreement to participate in the experiment.</p>
      <p style=""font-size: 15px;""> We ask that you remember that this is a research project and that your participation is entirely voluntary. You can stop your participation at any time, without needing to provide any explanation. The study we're asking you to participate in aims at examining how readers process written words. You will be engaged in a session of apprximately 20 minutes, followed by a brief questionnaire. You will have the opportunity to take a few breaks during the experiment. You will be paid £4 for your participation, corresponding to a rate of £8/hour. While this experiment looks at cognitive faculties, this experiment doesn't constitute clinical proof of eventual pathologies.</p>
      <p style=""font-size: 15px;"">All of the information collected thanks to yours and others' participation will be held in a secure password-protected server, and will not be shared with anyone not authorised to view it. Your personal information will be kept with an arbitrary participant ID. Thanks to this data anonymity process, any researcher analysing the data won't be able to track the information back to a specific participant. Therefore, this process will make identifying you impossibile, even when results from the study will be published in scientific reviews, presented at congresses, or at any other public forum. More generally, the collected data will be treated in accordance with the laws on privacy and conformity to the Legislative Degree n. 196 ""Code regarding the protection of personal data"" of the 30th of June 2003 and to the European Regulation 2016/670 (General Data Protection Regulation - GDPR). The Data Protection Officer is Avv. Valentina Carollo, who can be contacted at the following email addresses: <a href=""mailto:dpo@sissa.it"">dpo@sissa.it</a> or <a href=""mailto:rpd@sissa.it"">rpd@sissa.it</a> - PEC: <a href=""mailto:protocollo@pec.sissa.it"">protocollo@pec.sissa.it</a>.</p>
      <p style=""font-size: 15px;""> Before expressing your consent to participate, we would like to remind you again that in case you need explanations on any aspect of the experimental procedure, the researcher is at your disposition (<a href=""mailto:aliebelt@sissa.it"">aliebelt@sissa.it</a>, <a href=""mailto:davide.crepaldi@sissa.it"">davide.crepaldi@sissa.it</a>).</p>
      <p style=""font-size: 15px;"">If you would like to download the informed consent form, you can do so here: <a href=""BASL-Informed_Consent.pdf"" download>informed consent form</a>.</p>
      <p style=""font-size: 15px;"">We ask that you press the spacebar to proceed to the consent section.</p>","","","","","","","","","",""
"survey-html-form","3","443761","0.0-3.0","61533ead92c280c34cc22482","64e77d7b61f440b60e28659d","64eca3153e963b73562af35f","8607","{""consent1"":""YES"",""consent2"":""YES"",""consent3"":""YES"",""consent4"":""YES"",""consent5"":""YES"",""consent6"":""YES""}","","","","","","","","","","",""
"fullscreen","4","448837","0.0-4.0","61533ead92c280c34cc22482","64e77d7b61f440b60e28659d","64eca3153e963b73562af35f","","","","true","","","","","","","","",""
"html-keyboard-response","5","475431","0.0-5.0","61533ead92c280c34cc22482","64e77d7b61f440b60e28659d","64eca3153e963b73562af35f","26593"," ","<p>Welcome, and thank you very much for your time!</p>
      <p>In this experiment, you'll be a language expert who's been asked to take a look at words that Earth has received in its first communication with aliens. Your task, in this first part of the experiment, is to pay close attention to the words you'll be shown; later, world leaders will ask you questions on what you saw. The words will be shown to you quite quickly; it seems that the aliens were in a hurry :-)</p>
      <p>Press the spacebar to continue.<p>","","","","","","","","","",""
"html-keyboard-response","6","482219","0.0-6.0","61533ead92c280c34cc22482","64e77d7b61f440b60e28659d","64eca3153e963b73562af35f","6788"," ","<p>Here is an example of the words you'll see:</p>
      <img src='esempio.png' height='400px'>
      <p>When you're ready to begin, press the spacebar.</p></div>","","","","","","","","","",""
"html-keyboard-response","7","483230","0.0-7.0-0.0","61533ead92c280c34cc22482","64e77d7b61f440b60e28659d","64eca3153e963b73562af35f","null","null","<p style=""font-size: 60px; font-family: BACS"">LuNZvcb</p>","","","","","","","","","",""
"html-keyboard-response","8","484244","0.0-7.0-0.1","61533ead92c280c34cc22482","64e77d7b61f440b60e28659d","64eca3153e963b73562af35f","null","null","<p style=""font-size: 60px; font-family: BACS"">EdBbDbMR</p>","","","","","","","","","",""
"html-keyboard-response","9","485261","0.0-7.0-0.2","61533ead92c280c34cc22482","64e77d7b61f440b60e28659d","64eca3153e963b73562af35f","null","null","<p style=""font-size: 60px; font-family: BACS"">vmuLlAOUl</p>","","","","","","","","","",""
"html-keyboard-response","10","486270","0.0-7.0-0.3","61533ead92c280c34cc22482","64e77d7b61f440b60e28659d","64eca3153e963b73562af35f","null","null","<p style=""font-size: 60px; font-family: BACS"">CDEmYmKcD</p>","","","","","","","","","",""
"html-keyboard-response","11","487277","0.0-7.0-0.4","61533ead92c280c34cc22482","64e77d7b61f440b60e28659d","64eca3153e963b73562af35f","null","null","<p style=""font-size: 60px; font-family: BACS"">MDKPkhMD</p>","","","","","","","","","",""
"html-keyboard-response","12","488292","0.0-7.0-0.5","61533ead92c280c34cc22482","64e77d7b61f440b60e28659d","64eca3153e963b73562af35f","null","null","<p style=""font-size: 60px; font-family: BACS"">KDPAmKcD</p>","","","","","","","","","",""
"html-keyboard-response","13","489299","0.0-7.0-0.6","61533ead92c280c34cc22482","64e77d7b61f440b60e28659d","64eca3153e963b73562af35f","null","null","<p style=""font-size: 60px; font-family: BACS"">dRbDbkKE</p>","","","","","","","","","",""
"html-keyboard-response","14","490312","0.0-7.0-0.7","61533ead92c280c34cc22482","64e77d7b61f440b60e28659d","64eca3153e963b73562af35f","null","null","<p style=""font-size: 60px; font-family: BACS"">EMbDPkhMD</p>","","","","","","","","","",""
"html-keyboard-response","15","491325","0.0-7.0-0.8","61533ead92c280c34cc22482","64e77d7b61f440b60e28659d","64eca3153e963b73562af35f","null","null","<p style=""font-size: 60px; font-family: BACS"">AmQOYAOUl</p>","","","","","","","","","",""
"html-keyboard-response","16","492340","0.0-7.0-0.9","61533ead92c280c34cc22482","64e77d7b61f440b60e28659d","64eca3153e963b73562af35f","null","null","<p style=""font-size: 60px; font-family: BACS"">KDPAkKE</p>","","","","","","","","","",""
"html-keyboard-response","17","493342","0.0-7.0-0.10","61533ead92c280c34cc22482","64e77d7b61f440b60e28659d","64eca3153e963b73562af35f","null","null","<p style=""font-size: 60px; font-family: BACS"">JdOAYvcb</p>","","","","","","","","","",""
"html-keyboard-response","18","494350","0.0-7.0-0.11","61533ead92c280c34cc22482","64e77d7b61f440b60e28659d","64eca3153e963b73562af35f","null","null","<p style=""font-size: 60px; font-family: BACS"">dRbDbmKcD</p>","","","","","","","","","",""
"html-keyboard-response","19","495363","0.0-7.0-0.12","61533ead92c280c34cc22482","64e77d7b61f440b60e28659d","64eca3153e963b73562af35f","null","null","<p style=""font-size: 60px; font-family: BACS"">AJLrJZr</p>","","","","","","","","","",""
"html-keyboard-response","20","496365","0.0-7.0-0.13","61533ead92c280c34cc22482","64e77d7b61f440b60e28659d","64eca3153e963b73562af35f","null","null","<p style=""font-size: 60px; font-family: BACS"">tmAKmKcD</p>","","","","","","","","","",""
"html-keyboard-response","21","497379","0.0-7.0-0.14","61533ead92c280c34cc22482","64e77d7b61f440b60e28659d","64eca3153e963b73562af35f","null","null","<p style=""font-size: 60px; font-family: BACS"">LuNZcrdY</p>","","","","","","","","","",""
"html-keyboard-response","22","498392","0.0-7.0-0.15","61533ead92c280c34cc22482","64e77d7b61f440b60e28659d","64eca3153e963b73562af35f","null","null","<p style=""font-size: 60px; font-family: BACS"">vmuLlJZr</p>","","","","","","","","","",""
"html-keyboard-response","23","499402","0.0-7.0-0.16","61533ead92c280c34cc22482","64e77d7b61f440b60e28659d","64eca3153e963b73562af35f","null","null","<p style=""font-size: 60px; font-family: BACS"">CDEmYkKE</p>","","","","","","","","","",""
"html-keyboard-response","24","500409","0.0-7.0-0.17","61533ead92c280c34cc22482","64e77d7b61f440b60e28659d","64eca3153e963b73562af35f","null","null","<p style=""font-size: 60px; font-family: BACS"">tmAKkhMD</p>","","","","","","","","","",""
"html-keyboard-response","25","501424","0.0-7.0-0.18","61533ead92c280c34cc22482","64e77d7b61f440b60e28659d","64eca3153e963b73562af35f","null","null","<p style=""font-size: 60px; font-family: BACS"">JdOAYJZr</p>","","","","","","","","","",""
"html-keyboard-response","26","502429","0.0-7.0-0.19","61533ead92c280c34cc22482","64e77d7b61f440b60e28659d","64eca3153e963b73562af35f","null","null","<p style=""font-size: 60px; font-family: BACS"">PlEKkhMD</p>","","","","","","","","","",""
"html-keyboard-response","27","503440","0.0-7.0-0.20","61533ead92c280c34cc22482","64e77d7b61f440b60e28659d","64eca3153e963b73562af35f","null","null","<p style=""font-size: 60px; font-family: BACS"">AmQOYcrdY</p>","","","","","","","","","",""
"html-keyboard-response","28","504455","0.0-7.0-0.21","61533ead92c280c34cc22482","64e77d7b61f440b60e28659d","64eca3153e963b73562af35f","null","null","<p style=""font-size: 60px; font-family: BACS"">EdBbdRA</p>","","","","","","","","","",""
"html-keyboard-response","29","505456","0.0-7.0-0.22","61533ead92c280c34cc22482","64e77d7b61f440b60e28659d","64eca3153e963b73562af35f","null","null","<p style=""font-size: 60px; font-family: BACS"">JdOAYmZb</p>","","","","","","","","","",""
"html-keyboard-response","30","506466","0.0-7.0-0.23","61533ead92c280c34cc22482","64e77d7b61f440b60e28659d","64eca3153e963b73562af35f","null","null","<p style=""font-size: 60px; font-family: BACS"">lrZGvcb</p>","","","","","","","","","",""
"html-keyboard-response","31","507468","0.0-7.0-0.24","61533ead92c280c34cc22482","64e77d7b61f440b60e28659d","64eca3153e963b73562af35f","null","null","<p style=""font-size: 60px; font-family: BACS"">UAcduAOUl</p>","","","","","","","","","",""
"html-keyboard-response","32","508483","0.0-7.0-0.25","61533ead92c280c34cc22482","64e77d7b61f440b60e28659d","64eca3153e963b73562af35f","null","null","<p style=""font-size: 60px; font-family: BACS"">ukcYvcb</p>","","","","","","","","","",""
"html-keyboard-response","33","509498","0.0-7.0-0.26","61533ead92c280c34cc22482","64e77d7b61f440b60e28659d","64eca3153e963b73562af35f","null","null","<p style=""font-size: 60px; font-family: BACS"">AJLrmZb</p>","","","","","","","","","",""
"html-keyboard-response","34","510504","0.0-7.0-0.27","61533ead92c280c34cc22482","64e77d7b61f440b60e28659d","64eca3153e963b73562af35f","null","null","<p style=""font-size: 60px; font-family: BACS"">dRbDbDbMR</p>","","","","","","","","","",""
"html-keyboard-response","35","511509","0.0-7.0-0.28","61533ead92c280c34cc22482","64e77d7b61f440b60e28659d","64eca3153e963b73562af35f","null","null","<p style=""font-size: 60px; font-family: BACS"">lmbYJZr</p>","","","","","","","","","",""
"html-keyboard-response","36","512515","0.0-7.0-0.29","61533ead92c280c34cc22482","64e77d7b61f440b60e28659d","64eca3153e963b73562af35f","null","null","<p style=""font-size: 60px; font-family: BACS"">EdBbkhMD</p>","","","","","","","","","",""
"html-keyboard-response","37","513517","0.0-7.0-0.30","61533ead92c280c34cc22482","64e77d7b61f440b60e28659d","64eca3153e963b73562af35f","null","null","<p style=""font-size: 60px; font-family: BACS"">DRPkYkKE</p>","","","","","","","","","",""
"html-keyboard-response","38","514533","0.0-7.0-0.31","61533ead92c280c34cc22482","64e77d7b61f440b60e28659d","64eca3153e963b73562af35f","null","null","<p style=""font-size: 60px; font-family: BACS"">lmbYvcb</p>","","","","","","","","","",""
"html-keyboard-response","39","515535","0.0-7.0-0.32","61533ead92c280c34cc22482","64e77d7b61f440b60e28659d","64eca3153e963b73562af35f","null","null","<p style=""font-size: 60px; font-family: BACS"">NaAQdAOUl</p>","","","","","","","","","",""
"html-keyboard-response","40","516537","0.0-7.0-0.33","61533ead92c280c34cc22482","64e77d7b61f440b60e28659d","64eca3153e963b73562af35f","null","null","<p style=""font-size: 60px; font-family: BACS"">DRPkYDbMR</p>","","","","","","","","","",""
"html-keyboard-response","41","517540","0.0-7.0-0.34","61533ead92c280c34cc22482","64e77d7b61f440b60e28659d","64eca3153e963b73562af35f","null","null","<p style=""font-size: 60px; font-family: BACS"">lmbYmZb</p>","","","","","","","","","",""
"html-keyboard-response","42","518555","0.0-7.0-0.35","61533ead92c280c34cc22482","64e77d7b61f440b60e28659d","64eca3153e963b73562af35f","null","null","<p style=""font-size: 60px; font-family: BACS"">MDKPdRA</p>","","","","","","","","","",""
"html-keyboard-response","43","519569","0.0-7.0-0.36","61533ead92c280c34cc22482","64e77d7b61f440b60e28659d","64eca3153e963b73562af35f","null","null","<p style=""font-size: 60px; font-family: BACS"">CkBOPkKE</p>","","","","","","","","","",""
"html-keyboard-response","44","520583","0.0-7.0-0.37","61533ead92c280c34cc22482","64e77d7b61f440b60e28659d","64eca3153e963b73562af35f","null","null","<p style=""font-size: 60px; font-family: BACS"">UAcducrdY</p>","","","","","","","","","",""
"html-keyboard-response","45","521597","0.0-7.0-0.38","61533ead92c280c34cc22482","64e77d7b61f440b60e28659d","64eca3153e963b73562af35f","null","null","<p style=""font-size: 60px; font-family: BACS"">CkBOPmKcD</p>","","","","","","","","","",""
"html-keyboard-response","46","522601","0.0-7.0-0.39","61533ead92c280c34cc22482","64e77d7b61f440b60e28659d","64eca3153e963b73562af35f","null","null","<p style=""font-size: 60px; font-family: BACS"">UAcduvcb</p>","","","","","","","","","",""
"html-keyboard-response","47","523612","0.0-7.0-0.40","61533ead92c280c34cc22482","64e77d7b61f440b60e28659d","64eca3153e963b73562af35f","null","null","<p style=""font-size: 60px; font-family: BACS"">CkBOPdRA</p>","","","","","","","","","",""
"html-keyboard-response","48","524617","0.0-7.0-0.41","61533ead92c280c34cc22482","64e77d7b61f440b60e28659d","64eca3153e963b73562af35f","null","null","<p style=""font-size: 60px; font-family: BACS"">lrZGcrdY</p>","","","","","","","","","",""
"html-keyboard-response","49","525618","0.0-7.0-0.42","61533ead92c280c34cc22482","64e77d7b61f440b60e28659d","64eca3153e963b73562af35f","null","null","<p style=""font-size: 60px; font-family: BACS"">PlEKkKE</p>","","","","","","","","","",""
"html-keyboard-response","50","526621","0.0-7.0-0.43","61533ead92c280c34cc22482","64e77d7b61f440b60e28659d","64eca3153e963b73562af35f","null","null","<p style=""font-size: 60px; font-family: BACS"">vmuLlmZb</p>","","","","","","","","","",""
"html-keyboard-response","51","527623","0.0-7.0-0.44","61533ead92c280c34cc22482","64e77d7b61f440b60e28659d","64eca3153e963b73562af35f","null","null","<p style=""font-size: 60px; font-family: BACS"">dRbDbkhMD</p>","","","","","","","","","",""
"html-keyboard-response","52","528630","0.0-7.0-0.45","61533ead92c280c34cc22482","64e77d7b61f440b60e28659d","64eca3153e963b73562af35f","null","null","<p style=""font-size: 60px; font-family: BACS"">LuNZAOUl</p>","","","","","","","","","",""
"html-keyboard-response","53","529641","0.0-7.0-0.46","61533ead92c280c34cc22482","64e77d7b61f440b60e28659d","64eca3153e963b73562af35f","null","null","<p style=""font-size: 60px; font-family: BACS"">EMbDPDbMR</p>","","","","","","","","","",""
"html-keyboard-response","54","530655","0.0-7.0-0.47","61533ead92c280c34cc22482","64e77d7b61f440b60e28659d","64eca3153e963b73562af35f","null","null","<p style=""font-size: 60px; font-family: BACS"">tmAKkKE</p>","","","","","","","","","",""
"html-keyboard-response","55","531661","0.0-7.0-0.48","61533ead92c280c34cc22482","64e77d7b61f440b60e28659d","64eca3153e963b73562af35f","null","null","<p style=""font-size: 60px; font-family: BACS"">NaAQdJZr</p>","","","","","","","","","",""
"html-keyboard-response","56","532676","0.0-7.0-0.49","61533ead92c280c34cc22482","64e77d7b61f440b60e28659d","64eca3153e963b73562af35f","null","null","<p style=""font-size: 60px; font-family: BACS"">MDKPkKE</p>","","","","","","","","","",""
"html-keyboard-response","57","533687","0.0-7.0-0.50","61533ead92c280c34cc22482","64e77d7b61f440b60e28659d","64eca3153e963b73562af35f","null","null","<p style=""font-size: 60px; font-family: BACS"">ukcYmZb</p>","","","","","","","","","",""
"html-keyboard-response","58","534688","0.0-7.0-0.51","61533ead92c280c34cc22482","64e77d7b61f440b60e28659d","64eca3153e963b73562af35f","null","null","<p style=""font-size: 60px; font-family: BACS"">CkBOPDbMR</p>","","","","","","","","","",""
"html-keyboard-response","59","535702","0.0-7.0-0.52","61533ead92c280c34cc22482","64e77d7b61f440b60e28659d","64eca3153e963b73562af35f","null","null","<p style=""font-size: 60px; font-family: BACS"">EMbDPmKcD</p>","","","","","","","","","",""
"html-keyboard-response","60","536705","0.0-7.0-0.53","61533ead92c280c34cc22482","64e77d7b61f440b60e28659d","64eca3153e963b73562af35f","null","null","<p style=""font-size: 60px; font-family: BACS"">DRPkYkhMD</p>","","","","","","","","","",""
"html-keyboard-response","61","537708","0.0-7.0-0.54","61533ead92c280c34cc22482","64e77d7b61f440b60e28659d","64eca3153e963b73562af35f","null","null","<p style=""font-size: 60px; font-family: BACS"">PlEKDbMR</p>","","","","","","","","","",""
"html-keyboard-response","62","538715","0.0-7.0-0.55","61533ead92c280c34cc22482","64e77d7b61f440b60e28659d","64eca3153e963b73562af35f","null","null","<p style=""font-size: 60px; font-family: BACS"">NaAQdmZb</p>","","","","","","","","","",""
"html-keyboard-response","63","539716","0.0-7.0-0.56","61533ead92c280c34cc22482","64e77d7b61f440b60e28659d","64eca3153e963b73562af35f","null","null","<p style=""font-size: 60px; font-family: BACS"">DRPkYdRA</p>","","","","","","","","","",""
"html-keyboard-response","64","540732","0.0-7.0-0.57","61533ead92c280c34cc22482","64e77d7b61f440b60e28659d","64eca3153e963b73562af35f","null","null","<p style=""font-size: 60px; font-family: BACS"">AJLrcrdY</p>","","","","","","","","","",""
"html-keyboard-response","65","541733","0.0-7.0-0.58","61533ead92c280c34cc22482","64e77d7b61f440b60e28659d","64eca3153e963b73562af35f","null","null","<p style=""font-size: 60px; font-family: BACS"">JdOAYAOUl</p>","","","","","","","","","",""
"html-keyboard-response","66","542735","0.0-7.0-0.59","61533ead92c280c34cc22482","64e77d7b61f440b60e28659d","64eca3153e963b73562af35f","null","null","<p style=""font-size: 60px; font-family: BACS"">CDEmYDbMR</p>","","","","","","","","","",""
"html-keyboard-response","67","543750","0.0-7.0-0.60","61533ead92c280c34cc22482","64e77d7b61f440b60e28659d","64eca3153e963b73562af35f","null","null","<p style=""font-size: 60px; font-family: BACS"">EdBbmKcD</p>","","","","","","","","","",""
"html-keyboard-response","68","544760","0.0-7.0-0.61","61533ead92c280c34cc22482","64e77d7b61f440b60e28659d","64eca3153e963b73562af35f","null","null","<p style=""font-size: 60px; font-family: BACS"">ukcYcrdY</p>","","","","","","","","","",""
"html-keyboard-response","69","545766","0.0-7.0-0.62","61533ead92c280c34cc22482","64e77d7b61f440b60e28659d","64eca3153e963b73562af35f","null","null","<p style=""font-size: 60px; font-family: BACS"">tmAKdRA</p>","","","","","","","","","",""
"html-keyboard-response","70","546771","0.0-7.0-0.63","61533ead92c280c34cc22482","64e77d7b61f440b60e28659d","64eca3153e963b73562af35f","null","null","<p style=""font-size: 60px; font-family: BACS"">lrZGJZr</p>","","","","","","","","","",""
"html-keyboard-response","71","547781","0.0-7.0-0.64","61533ead92c280c34cc22482","64e77d7b61f440b60e28659d","64eca3153e963b73562af35f","null","null","<p style=""font-size: 60px; font-family: BACS"">EMbDPdRA</p>","","","","","","","","","",""
"html-keyboard-response","72","548785","0.0-7.0-0.65","61533ead92c280c34cc22482","64e77d7b61f440b60e28659d","64eca3153e963b73562af35f","null","null","<p style=""font-size: 60px; font-family: BACS"">UAcduJZr</p>","","","","","","","","","",""
"html-keyboard-response","73","549790","0.0-7.0-0.66","61533ead92c280c34cc22482","64e77d7b61f440b60e28659d","64eca3153e963b73562af35f","null","null","<p style=""font-size: 60px; font-family: BACS"">AmQOYvcb</p>","","","","","","","","","",""
"html-keyboard-response","74","550797","0.0-7.0-0.67","61533ead92c280c34cc22482","64e77d7b61f440b60e28659d","64eca3153e963b73562af35f","null","null","<p style=""font-size: 60px; font-family: BACS"">CDEmYdRA</p>","","","","","","","","","",""
"html-keyboard-response","75","551799","0.0-7.0-0.68","61533ead92c280c34cc22482","64e77d7b61f440b60e28659d","64eca3153e963b73562af35f","null","null","<p style=""font-size: 60px; font-family: BACS"">NaAQdcrdY</p>","","","","","","","","","",""
"html-keyboard-response","76","552805","0.0-7.0-0.69","61533ead92c280c34cc22482","64e77d7b61f440b60e28659d","64eca3153e963b73562af35f","null","null","<p style=""font-size: 60px; font-family: BACS"">AmQOYmZb</p>","","","","","","","","","",""
"html-keyboard-response","77","553810","0.0-7.0-0.70","61533ead92c280c34cc22482","64e77d7b61f440b60e28659d","64eca3153e963b73562af35f","null","null","<p style=""font-size: 60px; font-family: BACS"">ukcYAOUl</p>","","","","","","","","","",""
"html-keyboard-response","78","554811","0.0-7.0-0.71","61533ead92c280c34cc22482","64e77d7b61f440b60e28659d","64eca3153e963b73562af35f","null","null","<p style=""font-size: 60px; font-family: BACS"">vmuLlvcb</p>","","","","","","","","","",""
"html-keyboard-response","79","555812","0.0-7.0-0.72","61533ead92c280c34cc22482","64e77d7b61f440b60e28659d","64eca3153e963b73562af35f","null","null","<p style=""font-size: 60px; font-family: BACS"">KDPAkhMD</p>","","","","","","","","","",""
"html-keyboard-response","80","556827","0.0-7.0-0.73","61533ead92c280c34cc22482","64e77d7b61f440b60e28659d","64eca3153e963b73562af35f","null","null","<p style=""font-size: 60px; font-family: BACS"">LuNZJZr</p>","","","","","","","","","",""
"html-keyboard-response","81","557830","0.0-7.0-0.74","61533ead92c280c34cc22482","64e77d7b61f440b60e28659d","64eca3153e963b73562af35f","null","null","<p style=""font-size: 60px; font-family: BACS"">MDKPDbMR</p>","","","","","","","","","",""
"html-keyboard-response","82","558834","0.0-7.0-0.75","61533ead92c280c34cc22482","64e77d7b61f440b60e28659d","64eca3153e963b73562af35f","null","null","<p style=""font-size: 60px; font-family: BACS"">lmbYcrdY</p>","","","","","","","","","",""
"html-keyboard-response","83","559846","0.0-7.0-0.76","61533ead92c280c34cc22482","64e77d7b61f440b60e28659d","64eca3153e963b73562af35f","null","null","<p style=""font-size: 60px; font-family: BACS"">KDPAdRA</p>","","","","","","","","","",""
"html-keyboard-response","84","560850","0.0-7.0-0.77","61533ead92c280c34cc22482","64e77d7b61f440b60e28659d","64eca3153e963b73562af35f","null","null","<p style=""font-size: 60px; font-family: BACS"">lrZGmZb</p>","","","","","","","","","",""
"html-keyboard-response","85","561857","0.0-7.0-0.78","61533ead92c280c34cc22482","64e77d7b61f440b60e28659d","64eca3153e963b73562af35f","null","null","<p style=""font-size: 60px; font-family: BACS"">PlEKmKcD</p>","","","","","","","","","",""
"html-keyboard-response","86","562863","0.0-7.0-0.79","61533ead92c280c34cc22482","64e77d7b61f440b60e28659d","64eca3153e963b73562af35f","null","null","<p style=""font-size: 60px; font-family: BACS"">AJLrAOUl</p>","","","","","","","","","",""
"html-keyboard-response","87","567112","0.0-8.0","61533ead92c280c34cc22482","64e77d7b61f440b60e28659d","64eca3153e963b73562af35f","4248"," ","<p>Great, you've seen the first block of words. You may now take a short break.</p>
      <p>Press the spacebar when you're ready to continue.</p>","","","","","","","","","",""
"html-keyboard-response","88","568116","0.0-9.0-0.0","61533ead92c280c34cc22482","64e77d7b61f440b60e28659d","64eca3153e963b73562af35f","null","null","<p style=""font-size: 60px; font-family: BACS"">LuNZJZr</p>","","","","","","","","","",""
"html-keyboard-response","89","569118","0.0-9.0-0.1","61533ead92c280c34cc22482","64e77d7b61f440b60e28659d","64eca3153e963b73562af35f","null","null","<p style=""font-size: 60px; font-family: BACS"">vmuLlvcb</p>","","","","","","","","","",""
"html-keyboard-response","90","570133","0.0-9.0-0.2","61533ead92c280c34cc22482","64e77d7b61f440b60e28659d","64eca3153e963b73562af35f","null","null","<p style=""font-size: 60px; font-family: BACS"">UAcduJZr</p>","","","","","","","","","",""
"html-keyboard-response","91","571135","0.0-9.0-0.3","61533ead92c280c34cc22482","64e77d7b61f440b60e28659d","64eca3153e963b73562af35f","null","null","<p style=""font-size: 60px; font-family: BACS"">CDEmYmKcD</p>","","","","","","","","","",""
"html-keyboard-response","92","572139","0.0-9.0-0.4","61533ead92c280c34cc22482","64e77d7b61f440b60e28659d","64eca3153e963b73562af35f","null","null","<p style=""font-size: 60px; font-family: BACS"">PlEKkKE</p>","","","","","","","","","",""
"html-keyboard-response","93","573145","0.0-9.0-0.5","61533ead92c280c34cc22482","64e77d7b61f440b60e28659d","64eca3153e963b73562af35f","null","null","<p style=""font-size: 60px; font-family: BACS"">LuNZAOUl</p>","","","","","","","","","",""
"html-keyboard-response","94","574146","0.0-9.0-0.6","61533ead92c280c34cc22482","64e77d7b61f440b60e28659d","64eca3153e963b73562af35f","null","null","<p style=""font-size: 60px; font-family: BACS"">CkBOPkKE</p>","","","","","","","","","",""
"html-keyboard-response","95","575148","0.0-9.0-0.7","61533ead92c280c34cc22482","64e77d7b61f440b60e28659d","64eca3153e963b73562af35f","null","null","<p style=""font-size: 60px; font-family: BACS"">UAcduAOUl</p>","","","","","","","","","",""
"html-keyboard-response","96","576164","0.0-9.0-0.8","61533ead92c280c34cc22482","64e77d7b61f440b60e28659d","64eca3153e963b73562af35f","null","null","<p style=""font-size: 60px; font-family: BACS"">NaAQdJZr</p>","","","","","","","","","",""
"html-keyboard-response","97","577165","0.0-9.0-0.9","61533ead92c280c34cc22482","64e77d7b61f440b60e28659d","64eca3153e963b73562af35f","null","null","<p style=""font-size: 60px; font-family: BACS"">DRPkYdRA</p>","","","","","","","","","",""
"html-keyboard-response","98","578178","0.0-9.0-0.10","61533ead92c280c34cc22482","64e77d7b61f440b60e28659d","64eca3153e963b73562af35f","null","null","<p style=""font-size: 60px; font-family: BACS"">lrZGmZb</p>","","","","","","","","","",""
"html-keyboard-response","99","579194","0.0-9.0-0.11","61533ead92c280c34cc22482","64e77d7b61f440b60e28659d","64eca3153e963b73562af35f","null","null","<p style=""font-size: 60px; font-family: BACS"">tmAKkhMD</p>","","","","","","","","","",""
"html-keyboard-response","100","580199","0.0-9.0-0.12","61533ead92c280c34cc22482","64e77d7b61f440b60e28659d","64eca3153e963b73562af35f","null","null","<p style=""font-size: 60px; font-family: BACS"">DRPkYkKE</p>","","","","","","","","","",""
"html-keyboard-response","101","581202","0.0-9.0-0.13","61533ead92c280c34cc22482","64e77d7b61f440b60e28659d","64eca3153e963b73562af35f","null","null","<p style=""font-size: 60px; font-family: BACS"">AJLrAOUl</p>","","","","","","","","","",""
"html-keyboard-response","102","582204","0.0-9.0-0.14","61533ead92c280c34cc22482","64e77d7b61f440b60e28659d","64eca3153e963b73562af35f","null","null","<p style=""font-size: 60px; font-family: BACS"">JdOAYvcb</p>","","","","","","","","","",""
"html-keyboard-response","103","583218","0.0-9.0-0.15","61533ead92c280c34cc22482","64e77d7b61f440b60e28659d","64eca3153e963b73562af35f","null","null","<p style=""font-size: 60px; font-family: BACS"">AJLrcrdY</p>","","","","","","","","","",""
"html-keyboard-response","104","584235","0.0-9.0-0.16","61533ead92c280c34cc22482","64e77d7b61f440b60e28659d","64eca3153e963b73562af35f","null","null","<p style=""font-size: 60px; font-family: BACS"">PlEKmKcD</p>","","","","","","","","","",""
"html-keyboard-response","105","585245","0.0-9.0-0.17","61533ead92c280c34cc22482","64e77d7b61f440b60e28659d","64eca3153e963b73562af35f","null","null","<p style=""font-size: 60px; font-family: BACS"">dRbDbDbMR</p>","","","","","","","","","",""
"html-keyboard-response","106","586249","0.0-9.0-0.18","61533ead92c280c34cc22482","64e77d7b61f440b60e28659d","64eca3153e963b73562af35f","null","null","<p style=""font-size: 60px; font-family: BACS"">AmQOYvcb</p>","","","","","","","","","",""
"html-keyboard-response","107","587253","0.0-9.0-0.19","61533ead92c280c34cc22482","64e77d7b61f440b60e28659d","64eca3153e963b73562af35f","null","null","<p style=""font-size: 60px; font-family: BACS"">dRbDbmKcD</p>","","","","","","","","","",""
"html-keyboard-response","108","588255","0.0-9.0-0.20","61533ead92c280c34cc22482","64e77d7b61f440b60e28659d","64eca3153e963b73562af35f","null","null","<p style=""font-size: 60px; font-family: BACS"">KDPAdRA</p>","","","","","","","","","",""
"html-keyboard-response","109","589258","0.0-9.0-0.21","61533ead92c280c34cc22482","64e77d7b61f440b60e28659d","64eca3153e963b73562af35f","null","null","<p style=""font-size: 60px; font-family: BACS"">AmQOYcrdY</p>","","","","","","","","","",""
"html-keyboard-response","110","590264","0.0-9.0-0.22","61533ead92c280c34cc22482","64e77d7b61f440b60e28659d","64eca3153e963b73562af35f","null","null","<p style=""font-size: 60px; font-family: BACS"">PlEKDbMR</p>","","","","","","","","","",""
"html-keyboard-response","111","591265","0.0-9.0-0.23","61533ead92c280c34cc22482","64e77d7b61f440b60e28659d","64eca3153e963b73562af35f","null","null","<p style=""font-size: 60px; font-family: BACS"">EdBbkhMD</p>","","","","","","","","","",""
"html-keyboard-response","112","592268","0.0-9.0-0.24","61533ead92c280c34cc22482","64e77d7b61f440b60e28659d","64eca3153e963b73562af35f","null","null","<p style=""font-size: 60px; font-family: BACS"">CkBOPdRA</p>","","","","","","","","","",""
"html-keyboard-response","113","593273","0.0-9.0-0.25","61533ead92c280c34cc22482","64e77d7b61f440b60e28659d","64eca3153e963b73562af35f","null","null","<p style=""font-size: 60px; font-family: BACS"">EdBbmKcD</p>","","","","","","","","","",""
"html-keyboard-response","114","594277","0.0-9.0-0.26","61533ead92c280c34cc22482","64e77d7b61f440b60e28659d","64eca3153e963b73562af35f","null","null","<p style=""font-size: 60px; font-family: BACS"">NaAQdAOUl</p>","","","","","","","","","",""
"html-keyboard-response","115","595279","0.0-9.0-0.27","61533ead92c280c34cc22482","64e77d7b61f440b60e28659d","64eca3153e963b73562af35f","null","null","<p style=""font-size: 60px; font-family: BACS"">KDPAkhMD</p>","","","","","","","","","",""
"html-keyboard-response","116","596281","0.0-9.0-0.28","61533ead92c280c34cc22482","64e77d7b61f440b60e28659d","64eca3153e963b73562af35f","null","null","<p style=""font-size: 60px; font-family: BACS"">CkBOPDbMR</p>","","","","","","","","","",""
"html-keyboard-response","117","597288","0.0-9.0-0.29","61533ead92c280c34cc22482","64e77d7b61f440b60e28659d","64eca3153e963b73562af35f","null","null","<p style=""font-size: 60px; font-family: BACS"">lmbYmZb</p>","","","","","","","","","",""
"html-keyboard-response","118","598290","0.0-9.0-0.30","61533ead92c280c34cc22482","64e77d7b61f440b60e28659d","64eca3153e963b73562af35f","null","null","<p style=""font-size: 60px; font-family: BACS"">MDKPdRA</p>","","","","","","","","","",""
"html-keyboard-response","119","599292","0.0-9.0-0.31","61533ead92c280c34cc22482","64e77d7b61f440b60e28659d","64eca3153e963b73562af35f","null","null","<p style=""font-size: 60px; font-family: BACS"">JdOAYAOUl</p>","","","","","","","","","",""
"html-keyboard-response","120","600298","0.0-9.0-0.32","61533ead92c280c34cc22482","64e77d7b61f440b60e28659d","64eca3153e963b73562af35f","null","null","<p style=""font-size: 60px; font-family: BACS"">dRbDbkhMD</p>","","","","","","","","","",""
"html-keyboard-response","121","601303","0.0-9.0-0.33","61533ead92c280c34cc22482","64e77d7b61f440b60e28659d","64eca3153e963b73562af35f","null","null","<p style=""font-size: 60px; font-family: BACS"">vmuLlAOUl</p>","","","","","","","","","",""
"html-keyboard-response","122","602318","0.0-9.0-0.34","61533ead92c280c34cc22482","64e77d7b61f440b60e28659d","64eca3153e963b73562af35f","null","null","<p style=""font-size: 60px; font-family: BACS"">MDKPkhMD</p>","","","","","","","","","",""
"html-keyboard-response","123","603322","0.0-9.0-0.35","61533ead92c280c34cc22482","64e77d7b61f440b60e28659d","64eca3153e963b73562af35f","null","null","<p style=""font-size: 60px; font-family: BACS"">lrZGcrdY</p>","","","","","","","","","",""
"html-keyboard-response","124","604325","0.0-9.0-0.36","61533ead92c280c34cc22482","64e77d7b61f440b60e28659d","64eca3153e963b73562af35f","null","null","<p style=""font-size: 60px; font-family: BACS"">CDEmYkKE</p>","","","","","","","","","",""
"html-keyboard-response","125","605334","0.0-9.0-0.37","61533ead92c280c34cc22482","64e77d7b61f440b60e28659d","64eca3153e963b73562af35f","null","null","<p style=""font-size: 60px; font-family: BACS"">NaAQdcrdY</p>","","","","","","","","","",""
"html-keyboard-response","126","606350","0.0-9.0-0.38","61533ead92c280c34cc22482","64e77d7b61f440b60e28659d","64eca3153e963b73562af35f","null","null","<p style=""font-size: 60px; font-family: BACS"">tmAKdRA</p>","","","","","","","","","",""
"html-keyboard-response","127","607363","0.0-9.0-0.39","61533ead92c280c34cc22482","64e77d7b61f440b60e28659d","64eca3153e963b73562af35f","null","null","<p style=""font-size: 60px; font-family: BACS"">EMbDPmKcD</p>","","","","","","","","","",""
"html-keyboard-response","128","608365","0.0-9.0-0.40","61533ead92c280c34cc22482","64e77d7b61f440b60e28659d","64eca3153e963b73562af35f","null","null","<p style=""font-size: 60px; font-family: BACS"">UAcducrdY</p>","","","","","","","","","",""
"html-keyboard-response","129","609372","0.0-9.0-0.41","61533ead92c280c34cc22482","64e77d7b61f440b60e28659d","64eca3153e963b73562af35f","null","null","<p style=""font-size: 60px; font-family: BACS"">ukcYAOUl</p>","","","","","","","","","",""
"html-keyboard-response","130","610379","0.0-9.0-0.42","61533ead92c280c34cc22482","64e77d7b61f440b60e28659d","64eca3153e963b73562af35f","null","null","<p style=""font-size: 60px; font-family: BACS"">vmuLlmZb</p>","","","","","","","","","",""
"html-keyboard-response","131","611381","0.0-9.0-0.43","61533ead92c280c34cc22482","64e77d7b61f440b60e28659d","64eca3153e963b73562af35f","null","null","<p style=""font-size: 60px; font-family: BACS"">LuNZcrdY</p>","","","","","","","","","",""
"html-keyboard-response","132","612395","0.0-9.0-0.44","61533ead92c280c34cc22482","64e77d7b61f440b60e28659d","64eca3153e963b73562af35f","null","null","<p style=""font-size: 60px; font-family: BACS"">DRPkYDbMR</p>","","","","","","","","","",""
"html-keyboard-response","133","613397","0.0-9.0-0.45","61533ead92c280c34cc22482","64e77d7b61f440b60e28659d","64eca3153e963b73562af35f","null","null","<p style=""font-size: 60px; font-family: BACS"">EMbDPdRA</p>","","","","","","","","","",""
"html-keyboard-response","134","614399","0.0-9.0-0.46","61533ead92c280c34cc22482","64e77d7b61f440b60e28659d","64eca3153e963b73562af35f","null","null","<p style=""font-size: 60px; font-family: BACS"">MDKPDbMR</p>","","","","","","","","","",""
"html-keyboard-response","135","615406","0.0-9.0-0.47","61533ead92c280c34cc22482","64e77d7b61f440b60e28659d","64eca3153e963b73562af35f","null","null","<p style=""font-size: 60px; font-family: BACS"">lmbYvcb</p>","","","","","","","","","",""
"html-keyboard-response","136","616411","0.0-9.0-0.48","61533ead92c280c34cc22482","64e77d7b61f440b60e28659d","64eca3153e963b73562af35f","null","null","<p style=""font-size: 60px; font-family: BACS"">dRbDbkKE</p>","","","","","","","","","",""
"html-keyboard-response","137","617412","0.0-9.0-0.49","61533ead92c280c34cc22482","64e77d7b61f440b60e28659d","64eca3153e963b73562af35f","null","null","<p style=""font-size: 60px; font-family: BACS"">tmAKmKcD</p>","","","","","","","","","",""
"html-keyboard-response","138","618419","0.0-9.0-0.50","61533ead92c280c34cc22482","64e77d7b61f440b60e28659d","64eca3153e963b73562af35f","null","null","<p style=""font-size: 60px; font-family: BACS"">DRPkYkhMD</p>","","","","","","","","","",""
"html-keyboard-response","139","619425","0.0-9.0-0.51","61533ead92c280c34cc22482","64e77d7b61f440b60e28659d","64eca3153e963b73562af35f","null","null","<p style=""font-size: 60px; font-family: BACS"">tmAKkKE</p>","","","","","","","","","",""
"html-keyboard-response","140","620436","0.0-9.0-0.52","61533ead92c280c34cc22482","64e77d7b61f440b60e28659d","64eca3153e963b73562af35f","null","null","<p style=""font-size: 60px; font-family: BACS"">KDPAmKcD</p>","","","","","","","","","",""
"html-keyboard-response","141","621443","0.0-9.0-0.53","61533ead92c280c34cc22482","64e77d7b61f440b60e28659d","64eca3153e963b73562af35f","null","null","<p style=""font-size: 60px; font-family: BACS"">lmbYcrdY</p>","","","","","","","","","",""
"html-keyboard-response","142","622445","0.0-9.0-0.54","61533ead92c280c34cc22482","64e77d7b61f440b60e28659d","64eca3153e963b73562af35f","null","null","<p style=""font-size: 60px; font-family: BACS"">CkBOPmKcD</p>","","","","","","","","","",""
"html-keyboard-response","143","623458","0.0-9.0-0.55","61533ead92c280c34cc22482","64e77d7b61f440b60e28659d","64eca3153e963b73562af35f","null","null","<p style=""font-size: 60px; font-family: BACS"">KDPAkKE</p>","","","","","","","","","",""
"html-keyboard-response","144","624461","0.0-9.0-0.56","61533ead92c280c34cc22482","64e77d7b61f440b60e28659d","64eca3153e963b73562af35f","null","null","<p style=""font-size: 60px; font-family: BACS"">PlEKkhMD</p>","","","","","","","","","",""
"html-keyboard-response","145","625471","0.0-9.0-0.57","61533ead92c280c34cc22482","64e77d7b61f440b60e28659d","64eca3153e963b73562af35f","null","null","<p style=""font-size: 60px; font-family: BACS"">CDEmYDbMR</p>","","","","","","","","","",""
"html-keyboard-response","146","626483","0.0-9.0-0.58","61533ead92c280c34cc22482","64e77d7b61f440b60e28659d","64eca3153e963b73562af35f","null","null","<p style=""font-size: 60px; font-family: BACS"">EMbDPkhMD</p>","","","","","","","","","",""
"html-keyboard-response","147","627494","0.0-9.0-0.59","61533ead92c280c34cc22482","64e77d7b61f440b60e28659d","64eca3153e963b73562af35f","null","null","<p style=""font-size: 60px; font-family: BACS"">ukcYvcb</p>","","","","","","","","","",""
"html-keyboard-response","148","628502","0.0-9.0-0.60","61533ead92c280c34cc22482","64e77d7b61f440b60e28659d","64eca3153e963b73562af35f","null","null","<p style=""font-size: 60px; font-family: BACS"">vmuLlJZr</p>","","","","","","","","","",""
"html-keyboard-response","149","629504","0.0-9.0-0.61","61533ead92c280c34cc22482","64e77d7b61f440b60e28659d","64eca3153e963b73562af35f","null","null","<p style=""font-size: 60px; font-family: BACS"">ukcYmZb</p>","","","","","","","","","",""
"html-keyboard-response","150","630518","0.0-9.0-0.62","61533ead92c280c34cc22482","64e77d7b61f440b60e28659d","64eca3153e963b73562af35f","null","null","<p style=""font-size: 60px; font-family: BACS"">lmbYJZr</p>","","","","","","","","","",""
"html-keyboard-response","151","631520","0.0-9.0-0.63","61533ead92c280c34cc22482","64e77d7b61f440b60e28659d","64eca3153e963b73562af35f","null","null","<p style=""font-size: 60px; font-family: BACS"">MDKPkKE</p>","","","","","","","","","",""
"html-keyboard-response","152","632522","0.0-9.0-0.64","61533ead92c280c34cc22482","64e77d7b61f440b60e28659d","64eca3153e963b73562af35f","null","null","<p style=""font-size: 60px; font-family: BACS"">lrZGvcb</p>","","","","","","","","","",""
"html-keyboard-response","153","633529","0.0-9.0-0.65","61533ead92c280c34cc22482","64e77d7b61f440b60e28659d","64eca3153e963b73562af35f","null","null","<p style=""font-size: 60px; font-family: BACS"">AmQOYmZb</p>","","","","","","","","","",""
"html-keyboard-response","154","634540","0.0-9.0-0.66","61533ead92c280c34cc22482","64e77d7b61f440b60e28659d","64eca3153e963b73562af35f","null","null","<p style=""font-size: 60px; font-family: BACS"">CDEmYdRA</p>","","","","","","","","","",""
"html-keyboard-response","155","635542","0.0-9.0-0.67","61533ead92c280c34cc22482","64e77d7b61f440b60e28659d","64eca3153e963b73562af35f","null","null","<p style=""font-size: 60px; font-family: BACS"">EdBbDbMR</p>","","","","","","","","","",""
"html-keyboard-response","156","636546","0.0-9.0-0.68","61533ead92c280c34cc22482","64e77d7b61f440b60e28659d","64eca3153e963b73562af35f","null","null","<p style=""font-size: 60px; font-family: BACS"">ukcYcrdY</p>","","","","","","","","","",""
"html-keyboard-response","157","637551","0.0-9.0-0.69","61533ead92c280c34cc22482","64e77d7b61f440b60e28659d","64eca3153e963b73562af35f","null","null","<p style=""font-size: 60px; font-family: BACS"">UAcduvcb</p>","","","","","","","","","",""
"html-keyboard-response","158","638565","0.0-9.0-0.70","61533ead92c280c34cc22482","64e77d7b61f440b60e28659d","64eca3153e963b73562af35f","null","null","<p style=""font-size: 60px; font-family: BACS"">JdOAYJZr</p>","","","","","","","","","",""
"html-keyboard-response","159","639578","0.0-9.0-0.71","61533ead92c280c34cc22482","64e77d7b61f440b60e28659d","64eca3153e963b73562af35f","null","null","<p style=""font-size: 60px; font-family: BACS"">LuNZvcb</p>","","","","","","","","","",""
"html-keyboard-response","160","640592","0.0-9.0-0.72","61533ead92c280c34cc22482","64e77d7b61f440b60e28659d","64eca3153e963b73562af35f","null","null","<p style=""font-size: 60px; font-family: BACS"">NaAQdmZb</p>","","","","","","","","","",""
"html-keyboard-response","161","641603","0.0-9.0-0.73","61533ead92c280c34cc22482","64e77d7b61f440b60e28659d","64eca3153e963b73562af35f","null","null","<p style=""font-size: 60px; font-family: BACS"">AJLrJZr</p>","","","","","","","","","",""
"html-keyboard-response","162","642615","0.0-9.0-0.74","61533ead92c280c34cc22482","64e77d7b61f440b60e28659d","64eca3153e963b73562af35f","null","null","<p style=""font-size: 60px; font-family: BACS"">EdBbdRA</p>","","","","","","","","","",""
"html-keyboard-response","163","643628","0.0-9.0-0.75","61533ead92c280c34cc22482","64e77d7b61f440b60e28659d","64eca3153e963b73562af35f","null","null","<p style=""font-size: 60px; font-family: BACS"">AmQOYAOUl</p>","","","","","","","","","",""
"html-keyboard-response","164","644638","0.0-9.0-0.76","61533ead92c280c34cc22482","64e77d7b61f440b60e28659d","64eca3153e963b73562af35f","null","null","<p style=""font-size: 60px; font-family: BACS"">JdOAYmZb</p>","","","","","","","","","",""
"html-keyboard-response","165","645649","0.0-9.0-0.77","61533ead92c280c34cc22482","64e77d7b61f440b60e28659d","64eca3153e963b73562af35f","null","null","<p style=""font-size: 60px; font-family: BACS"">lrZGJZr</p>","","","","","","","","","",""
"html-keyboard-response","166","646659","0.0-9.0-0.78","61533ead92c280c34cc22482","64e77d7b61f440b60e28659d","64eca3153e963b73562af35f","null","null","<p style=""font-size: 60px; font-family: BACS"">AJLrmZb</p>","","","","","","","","","",""
"html-keyboard-response","167","647668","0.0-9.0-0.79","61533ead92c280c34cc22482","64e77d7b61f440b60e28659d","64eca3153e963b73562af35f","null","null","<p style=""font-size: 60px; font-family: BACS"">EMbDPDbMR</p>","","","","","","","","","",""
"html-keyboard-response","168","653379","0.0-10.0","61533ead92c280c34cc22482","64e77d7b61f440b60e28659d","64eca3153e963b73562af35f","5710"," ","<p>Great, you've seen the second block of words. You may now take a short break.</p>
      <p>Press the spacebar when you're ready to continue.</p>","","","","","","","","","",""
"html-keyboard-response","169","654394","0.0-11.0-0.0","61533ead92c280c34cc22482","64e77d7b61f440b60e28659d","64eca3153e963b73562af35f","null","null","<p style=""font-size: 60px; font-family: BACS"">ukcYcrdY</p>","","","","","","","","","",""
"html-keyboard-response","170","655395","0.0-11.0-0.1","61533ead92c280c34cc22482","64e77d7b61f440b60e28659d","64eca3153e963b73562af35f","null","null","<p style=""font-size: 60px; font-family: BACS"">MDKPDbMR</p>","","","","","","","","","",""
"html-keyboard-response","171","656405","0.0-11.0-0.2","61533ead92c280c34cc22482","64e77d7b61f440b60e28659d","64eca3153e963b73562af35f","null","null","<p style=""font-size: 60px; font-family: BACS"">KDPAmKcD</p>","","","","","","","","","",""
"html-keyboard-response","172","657419","0.0-11.0-0.3","61533ead92c280c34cc22482","64e77d7b61f440b60e28659d","64eca3153e963b73562af35f","null","null","<p style=""font-size: 60px; font-family: BACS"">tmAKkhMD</p>","","","","","","","","","",""
"html-keyboard-response","173","658434","0.0-11.0-0.4","61533ead92c280c34cc22482","64e77d7b61f440b60e28659d","64eca3153e963b73562af35f","null","null","<p style=""font-size: 60px; font-family: BACS"">JdOAYJZr</p>","","","","","","","","","",""
"html-keyboard-response","174","659451","0.0-11.0-0.5","61533ead92c280c34cc22482","64e77d7b61f440b60e28659d","64eca3153e963b73562af35f","null","null","<p style=""font-size: 60px; font-family: BACS"">dRbDbmKcD</p>","","","","","","","","","",""
"html-keyboard-response","175","660452","0.0-11.0-0.6","61533ead92c280c34cc22482","64e77d7b61f440b60e28659d","64eca3153e963b73562af35f","null","null","<p style=""font-size: 60px; font-family: BACS"">lrZGcrdY</p>","","","","","","","","","",""
"html-keyboard-response","176","661457","0.0-11.0-0.7","61533ead92c280c34cc22482","64e77d7b61f440b60e28659d","64eca3153e963b73562af35f","null","null","<p style=""font-size: 60px; font-family: BACS"">vmuLlvcb</p>","","","","","","","","","",""
"html-keyboard-response","177","662472","0.0-11.0-0.8","61533ead92c280c34cc22482","64e77d7b61f440b60e28659d","64eca3153e963b73562af35f","null","null","<p style=""font-size: 60px; font-family: BACS"">lmbYJZr</p>","","","","","","","","","",""
"html-keyboard-response","178","663475","0.0-11.0-0.9","61533ead92c280c34cc22482","64e77d7b61f440b60e28659d","64eca3153e963b73562af35f","null","null","<p style=""font-size: 60px; font-family: BACS"">UAcduAOUl</p>","","","","","","","","","",""
"html-keyboard-response","179","664482","0.0-11.0-0.10","61533ead92c280c34cc22482","64e77d7b61f440b60e28659d","64eca3153e963b73562af35f","null","null","<p style=""font-size: 60px; font-family: BACS"">CDEmYkKE</p>","","","","","","","","","",""
"html-keyboard-response","180","665486","0.0-11.0-0.11","61533ead92c280c34cc22482","64e77d7b61f440b60e28659d","64eca3153e963b73562af35f","null","null","<p style=""font-size: 60px; font-family: BACS"">tmAKmKcD</p>","","","","","","","","","",""
"html-keyboard-response","181","666496","0.0-11.0-0.12","61533ead92c280c34cc22482","64e77d7b61f440b60e28659d","64eca3153e963b73562af35f","null","null","<p style=""font-size: 60px; font-family: BACS"">KDPAkKE</p>","","","","","","","","","",""
"html-keyboard-response","182","667502","0.0-11.0-0.13","61533ead92c280c34cc22482","64e77d7b61f440b60e28659d","64eca3153e963b73562af35f","null","null","<p style=""font-size: 60px; font-family: BACS"">EMbDPkhMD</p>","","","","","","","","","",""
"html-keyboard-response","183","668506","0.0-11.0-0.14","61533ead92c280c34cc22482","64e77d7b61f440b60e28659d","64eca3153e963b73562af35f","null","null","<p style=""font-size: 60px; font-family: BACS"">lrZGmZb</p>","","","","","","","","","",""
"html-keyboard-response","184","669507","0.0-11.0-0.15","61533ead92c280c34cc22482","64e77d7b61f440b60e28659d","64eca3153e963b73562af35f","null","null","<p style=""font-size: 60px; font-family: BACS"">dRbDbkKE</p>","","","","","","","","","",""
"html-keyboard-response","185","670510","0.0-11.0-0.16","61533ead92c280c34cc22482","64e77d7b61f440b60e28659d","64eca3153e963b73562af35f","null","null","<p style=""font-size: 60px; font-family: BACS"">LuNZcrdY</p>","","","","","","","","","",""
"html-keyboard-response","186","671519","0.0-11.0-0.17","61533ead92c280c34cc22482","64e77d7b61f440b60e28659d","64eca3153e963b73562af35f","null","null","<p style=""font-size: 60px; font-family: BACS"">NaAQdJZr</p>","","","","","","","","","",""
"html-keyboard-response","187","672534","0.0-11.0-0.18","61533ead92c280c34cc22482","64e77d7b61f440b60e28659d","64eca3153e963b73562af35f","null","null","<p style=""font-size: 60px; font-family: BACS"">LuNZAOUl</p>","","","","","","","","","",""
"html-keyboard-response","188","673537","0.0-11.0-0.19","61533ead92c280c34cc22482","64e77d7b61f440b60e28659d","64eca3153e963b73562af35f","null","null","<p style=""font-size: 60px; font-family: BACS"">AmQOYcrdY</p>","","","","","","","","","",""
"html-keyboard-response","189","674540","0.0-11.0-0.20","61533ead92c280c34cc22482","64e77d7b61f440b60e28659d","64eca3153e963b73562af35f","null","null","<p style=""font-size: 60px; font-family: BACS"">EdBbdRA</p>","","","","","","","","","",""
"html-keyboard-response","190","675555","0.0-11.0-0.21","61533ead92c280c34cc22482","64e77d7b61f440b60e28659d","64eca3153e963b73562af35f","null","null","<p style=""font-size: 60px; font-family: BACS"">ukcYmZb</p>","","","","","","","","","",""
"html-keyboard-response","191","676558","0.0-11.0-0.22","61533ead92c280c34cc22482","64e77d7b61f440b60e28659d","64eca3153e963b73562af35f","null","null","<p style=""font-size: 60px; font-family: BACS"">CDEmYDbMR</p>","","","","","","","","","",""
"html-keyboard-response","192","677572","0.0-11.0-0.23","61533ead92c280c34cc22482","64e77d7b61f440b60e28659d","64eca3153e963b73562af35f","null","null","<p style=""font-size: 60px; font-family: BACS"">EMbDPdRA</p>","","","","","","","","","",""
"html-keyboard-response","193","678588","0.0-11.0-0.24","61533ead92c280c34cc22482","64e77d7b61f440b60e28659d","64eca3153e963b73562af35f","null","null","<p style=""font-size: 60px; font-family: BACS"">NaAQdmZb</p>","","","","","","","","","",""
"html-keyboard-response","194","679598","0.0-11.0-0.25","61533ead92c280c34cc22482","64e77d7b61f440b60e28659d","64eca3153e963b73562af35f","null","null","<p style=""font-size: 60px; font-family: BACS"">lmbYcrdY</p>","","","","","","","","","",""
"html-keyboard-response","195","680600","0.0-11.0-0.26","61533ead92c280c34cc22482","64e77d7b61f440b60e28659d","64eca3153e963b73562af35f","null","null","<p style=""font-size: 60px; font-family: BACS"">PlEKkhMD</p>","","","","","","","","","",""
"html-keyboard-response","196","681606","0.0-11.0-0.27","61533ead92c280c34cc22482","64e77d7b61f440b60e28659d","64eca3153e963b73562af35f","null","null","<p style=""font-size: 60px; font-family: BACS"">EMbDPmKcD</p>","","","","","","","","","",""
"html-keyboard-response","197","682622","0.0-11.0-0.28","61533ead92c280c34cc22482","64e77d7b61f440b60e28659d","64eca3153e963b73562af35f","null","null","<p style=""font-size: 60px; font-family: BACS"">vmuLlJZr</p>","","","","","","","","","",""
"html-keyboard-response","198","683634","0.0-11.0-0.29","61533ead92c280c34cc22482","64e77d7b61f440b60e28659d","64eca3153e963b73562af35f","null","null","<p style=""font-size: 60px; font-family: BACS"">ukcYAOUl</p>","","","","","","","","","",""
"html-keyboard-response","199","684648","0.0-11.0-0.30","61533ead92c280c34cc22482","64e77d7b61f440b60e28659d","64eca3153e963b73562af35f","null","null","<p style=""font-size: 60px; font-family: BACS"">NaAQdcrdY</p>","","","","","","","","","",""
"html-keyboard-response","200","685662","0.0-11.0-0.31","61533ead92c280c34cc22482","64e77d7b61f440b60e28659d","64eca3153e963b73562af35f","null","null","<p style=""font-size: 60px; font-family: BACS"">DRPkYkhMD</p>","","","","","","","","","",""
"html-keyboard-response","201","686676","0.0-11.0-0.32","61533ead92c280c34cc22482","64e77d7b61f440b60e28659d","64eca3153e963b73562af35f","null","null","<p style=""font-size: 60px; font-family: BACS"">dRbDbDbMR</p>","","","","","","","","","",""
"html-keyboard-response","202","687684","0.0-11.0-0.33","61533ead92c280c34cc22482","64e77d7b61f440b60e28659d","64eca3153e963b73562af35f","null","null","<p style=""font-size: 60px; font-family: BACS"">CkBOPkKE</p>","","","","","","","","","",""
"html-keyboard-response","203","688699","0.0-11.0-0.34","61533ead92c280c34cc22482","64e77d7b61f440b60e28659d","64eca3153e963b73562af35f","null","null","<p style=""font-size: 60px; font-family: BACS"">MDKPdRA</p>","","","","","","","","","",""
"html-keyboard-response","204","689700","0.0-11.0-0.35","61533ead92c280c34cc22482","64e77d7b61f440b60e28659d","64eca3153e963b73562af35f","null","null","<p style=""font-size: 60px; font-family: BACS"">LuNZJZr</p>","","","","","","","","","",""
"html-keyboard-response","205","690716","0.0-11.0-0.36","61533ead92c280c34cc22482","64e77d7b61f440b60e28659d","64eca3153e963b73562af35f","null","null","<p style=""font-size: 60px; font-family: BACS"">lmbYvcb</p>","","","","","","","","","",""
"html-keyboard-response","206","691728","0.0-11.0-0.37","61533ead92c280c34cc22482","64e77d7b61f440b60e28659d","64eca3153e963b73562af35f","null","null","<p style=""font-size: 60px; font-family: BACS"">DRPkYdRA</p>","","","","","","","","","",""
"html-keyboard-response","207","692744","0.0-11.0-0.38","61533ead92c280c34cc22482","64e77d7b61f440b60e28659d","64eca3153e963b73562af35f","null","null","<p style=""font-size: 60px; font-family: BACS"">EMbDPDbMR</p>","","","","","","","","","",""
"html-keyboard-response","208","693757","0.0-11.0-0.39","61533ead92c280c34cc22482","64e77d7b61f440b60e28659d","64eca3153e963b73562af35f","null","null","<p style=""font-size: 60px; font-family: BACS"">AJLrmZb</p>","","","","","","","","","",""
"html-keyboard-response","209","694767","0.0-11.0-0.40","61533ead92c280c34cc22482","64e77d7b61f440b60e28659d","64eca3153e963b73562af35f","null","null","<p style=""font-size: 60px; font-family: BACS"">LuNZvcb</p>","","","","","","","","","",""
"html-keyboard-response","210","695768","0.0-11.0-0.41","61533ead92c280c34cc22482","64e77d7b61f440b60e28659d","64eca3153e963b73562af35f","null","null","<p style=""font-size: 60px; font-family: BACS"">EdBbkhMD</p>","","","","","","","","","",""
"html-keyboard-response","211","696780","0.0-11.0-0.42","61533ead92c280c34cc22482","64e77d7b61f440b60e28659d","64eca3153e963b73562af35f","null","null","<p style=""font-size: 60px; font-family: BACS"">PlEKmKcD</p>","","","","","","","","","",""
"html-keyboard-response","212","697789","0.0-11.0-0.43","61533ead92c280c34cc22482","64e77d7b61f440b60e28659d","64eca3153e963b73562af35f","null","null","<p style=""font-size: 60px; font-family: BACS"">vmuLlmZb</p>","","","","","","","","","",""
"html-keyboard-response","213","698790","0.0-11.0-0.44","61533ead92c280c34cc22482","64e77d7b61f440b60e28659d","64eca3153e963b73562af35f","null","null","<p style=""font-size: 60px; font-family: BACS"">ukcYvcb</p>","","","","","","","","","",""
"html-keyboard-response","214","699799","0.0-11.0-0.45","61533ead92c280c34cc22482","64e77d7b61f440b60e28659d","64eca3153e963b73562af35f","null","null","<p style=""font-size: 60px; font-family: BACS"">AmQOYmZb</p>","","","","","","","","","",""
"html-keyboard-response","215","700812","0.0-11.0-0.46","61533ead92c280c34cc22482","64e77d7b61f440b60e28659d","64eca3153e963b73562af35f","null","null","<p style=""font-size: 60px; font-family: BACS"">MDKPkKE</p>","","","","","","","","","",""
"html-keyboard-response","216","701826","0.0-11.0-0.47","61533ead92c280c34cc22482","64e77d7b61f440b60e28659d","64eca3153e963b73562af35f","null","null","<p style=""font-size: 60px; font-family: BACS"">AmQOYAOUl</p>","","","","","","","","","",""
"html-keyboard-response","217","702843","0.0-11.0-0.48","61533ead92c280c34cc22482","64e77d7b61f440b60e28659d","64eca3153e963b73562af35f","null","null","<p style=""font-size: 60px; font-family: BACS"">UAcduJZr</p>","","","","","","","","","",""
"html-keyboard-response","218","703845","0.0-11.0-0.49","61533ead92c280c34cc22482","64e77d7b61f440b60e28659d","64eca3153e963b73562af35f","null","null","<p style=""font-size: 60px; font-family: BACS"">CDEmYmKcD</p>","","","","","","","","","",""
"html-keyboard-response","219","704859","0.0-11.0-0.50","61533ead92c280c34cc22482","64e77d7b61f440b60e28659d","64eca3153e963b73562af35f","null","null","<p style=""font-size: 60px; font-family: BACS"">dRbDbkhMD</p>","","","","","","","","","",""
"html-keyboard-response","220","705863","0.0-11.0-0.51","61533ead92c280c34cc22482","64e77d7b61f440b60e28659d","64eca3153e963b73562af35f","null","null","<p style=""font-size: 60px; font-family: BACS"">CDEmYdRA</p>","","","","","","","","","",""
"html-keyboard-response","221","706865","0.0-11.0-0.52","61533ead92c280c34cc22482","64e77d7b61f440b60e28659d","64eca3153e963b73562af35f","null","null","<p style=""font-size: 60px; font-family: BACS"">NaAQdAOUl</p>","","","","","","","","","",""
"html-keyboard-response","222","707879","0.0-11.0-0.53","61533ead92c280c34cc22482","64e77d7b61f440b60e28659d","64eca3153e963b73562af35f","null","null","<p style=""font-size: 60px; font-family: BACS"">lrZGvcb</p>","","","","","","","","","",""
"html-keyboard-response","223","708883","0.0-11.0-0.54","61533ead92c280c34cc22482","64e77d7b61f440b60e28659d","64eca3153e963b73562af35f","null","null","<p style=""font-size: 60px; font-family: BACS"">KDPAdRA</p>","","","","","","","","","",""
"html-keyboard-response","224","709886","0.0-11.0-0.55","61533ead92c280c34cc22482","64e77d7b61f440b60e28659d","64eca3153e963b73562af35f","null","null","<p style=""font-size: 60px; font-family: BACS"">AmQOYvcb</p>","","","","","","","","","",""
"html-keyboard-response","225","710887","0.0-11.0-0.56","61533ead92c280c34cc22482","64e77d7b61f440b60e28659d","64eca3153e963b73562af35f","null","null","<p style=""font-size: 60px; font-family: BACS"">lmbYmZb</p>","","","","","","","","","",""
"html-keyboard-response","226","711890","0.0-11.0-0.57","61533ead92c280c34cc22482","64e77d7b61f440b60e28659d","64eca3153e963b73562af35f","null","null","<p style=""font-size: 60px; font-family: BACS"">JdOAYvcb</p>","","","","","","","","","",""
"html-keyboard-response","227","712905","0.0-11.0-0.58","61533ead92c280c34cc22482","64e77d7b61f440b60e28659d","64eca3153e963b73562af35f","null","null","<p style=""font-size: 60px; font-family: BACS"">CkBOPdRA</p>","","","","","","","","","",""
"html-keyboard-response","228","713921","0.0-11.0-0.59","61533ead92c280c34cc22482","64e77d7b61f440b60e28659d","64eca3153e963b73562af35f","null","null","<p style=""font-size: 60px; font-family: BACS"">EdBbDbMR</p>","","","","","","","","","",""
"html-keyboard-response","229","714928","0.0-11.0-0.60","61533ead92c280c34cc22482","64e77d7b61f440b60e28659d","64eca3153e963b73562af35f","null","null","<p style=""font-size: 60px; font-family: BACS"">tmAKkKE</p>","","","","","","","","","",""
"html-keyboard-response","230","715933","0.0-11.0-0.61","61533ead92c280c34cc22482","64e77d7b61f440b60e28659d","64eca3153e963b73562af35f","null","null","<p style=""font-size: 60px; font-family: BACS"">UAcduvcb</p>","","","","","","","","","",""
"html-keyboard-response","231","716943","0.0-11.0-0.62","61533ead92c280c34cc22482","64e77d7b61f440b60e28659d","64eca3153e963b73562af35f","null","null","<p style=""font-size: 60px; font-family: BACS"">JdOAYmZb</p>","","","","","","","","","",""
"html-keyboard-response","232","717944","0.0-11.0-0.63","61533ead92c280c34cc22482","64e77d7b61f440b60e28659d","64eca3153e963b73562af35f","null","null","<p style=""font-size: 60px; font-family: BACS"">KDPAkhMD</p>","","","","","","","","","",""
"html-keyboard-response","233","718955","0.0-11.0-0.64","61533ead92c280c34cc22482","64e77d7b61f440b60e28659d","64eca3153e963b73562af35f","null","null","<p style=""font-size: 60px; font-family: BACS"">CkBOPDbMR</p>","","","","","","","","","",""
"html-keyboard-response","234","719963","0.0-11.0-0.65","61533ead92c280c34cc22482","64e77d7b61f440b60e28659d","64eca3153e963b73562af35f","null","null","<p style=""font-size: 60px; font-family: BACS"">UAcducrdY</p>","","","","","","","","","",""
"html-keyboard-response","235","720977","0.0-11.0-0.66","61533ead92c280c34cc22482","64e77d7b61f440b60e28659d","64eca3153e963b73562af35f","null","null","<p style=""font-size: 60px; font-family: BACS"">DRPkYDbMR</p>","","","","","","","","","",""
"html-keyboard-response","236","721985","0.0-11.0-0.67","61533ead92c280c34cc22482","64e77d7b61f440b60e28659d","64eca3153e963b73562af35f","null","null","<p style=""font-size: 60px; font-family: BACS"">CkBOPmKcD</p>","","","","","","","","","",""
"html-keyboard-response","237","722988","0.0-11.0-0.68","61533ead92c280c34cc22482","64e77d7b61f440b60e28659d","64eca3153e963b73562af35f","null","null","<p style=""font-size: 60px; font-family: BACS"">vmuLlAOUl</p>","","","","","","","","","",""
"html-keyboard-response","238","723990","0.0-11.0-0.69","61533ead92c280c34cc22482","64e77d7b61f440b60e28659d","64eca3153e963b73562af35f","null","null","<p style=""font-size: 60px; font-family: BACS"">AJLrcrdY</p>","","","","","","","","","",""
"html-keyboard-response","239","725003","0.0-11.0-0.70","61533ead92c280c34cc22482","64e77d7b61f440b60e28659d","64eca3153e963b73562af35f","null","null","<p style=""font-size: 60px; font-family: BACS"">tmAKdRA</p>","","","","","","","","","",""
"html-keyboard-response","240","726005","0.0-11.0-0.71","61533ead92c280c34cc22482","64e77d7b61f440b60e28659d","64eca3153e963b73562af35f","null","null","<p style=""font-size: 60px; font-family: BACS"">JdOAYAOUl</p>","","","","","","","","","",""
"html-keyboard-response","241","727011","0.0-11.0-0.72","61533ead92c280c34cc22482","64e77d7b61f440b60e28659d","64eca3153e963b73562af35f","null","null","<p style=""font-size: 60px; font-family: BACS"">AJLrJZr</p>","","","","","","","","","",""
"html-keyboard-response","242","728027","0.0-11.0-0.73","61533ead92c280c34cc22482","64e77d7b61f440b60e28659d","64eca3153e963b73562af35f","null","null","<p style=""font-size: 60px; font-family: BACS"">MDKPkhMD</p>","","","","","","","","","",""
"html-keyboard-response","243","729040","0.0-11.0-0.74","61533ead92c280c34cc22482","64e77d7b61f440b60e28659d","64eca3153e963b73562af35f","null","null","<p style=""font-size: 60px; font-family: BACS"">DRPkYkKE</p>","","","","","","","","","",""
"html-keyboard-response","244","730047","0.0-11.0-0.75","61533ead92c280c34cc22482","64e77d7b61f440b60e28659d","64eca3153e963b73562af35f","null","null","<p style=""font-size: 60px; font-family: BACS"">EdBbmKcD</p>","","","","","","","","","",""
"html-keyboard-response","245","731048","0.0-11.0-0.76","61533ead92c280c34cc22482","64e77d7b61f440b60e28659d","64eca3153e963b73562af35f","null","null","<p style=""font-size: 60px; font-family: BACS"">PlEKkKE</p>","","","","","","","","","",""
"html-keyboard-response","246","732056","0.0-11.0-0.77","61533ead92c280c34cc22482","64e77d7b61f440b60e28659d","64eca3153e963b73562af35f","null","null","<p style=""font-size: 60px; font-family: BACS"">lrZGJZr</p>","","","","","","","","","",""
"html-keyboard-response","247","733065","0.0-11.0-0.78","61533ead92c280c34cc22482","64e77d7b61f440b60e28659d","64eca3153e963b73562af35f","null","null","<p style=""font-size: 60px; font-family: BACS"">PlEKDbMR</p>","","","","","","","","","",""
"html-keyboard-response","248","734078","0.0-11.0-0.79","61533ead92c280c34cc22482","64e77d7b61f440b60e28659d","64eca3153e963b73562af35f","null","null","<p style=""font-size: 60px; font-family: BACS"">AJLrAOUl</p>","","","","","","","","","",""
"html-keyboard-response","249","739355","0.0-12.0","61533ead92c280c34cc22482","64e77d7b61f440b60e28659d","64eca3153e963b73562af35f","5276"," ","<p>Great, you've seen the third block of words. You may now take a short break.</p>
      <p>Press the spacebar when you're ready to continue.</p>","","","","","","","","","",""
"html-keyboard-response","250","740370","0.0-13.0-0.0","61533ead92c280c34cc22482","64e77d7b61f440b60e28659d","64eca3153e963b73562af35f","null","null","<p style=""font-size: 60px; font-family: BACS"">PlEKkKE</p>","","","","","","","","","",""
"html-keyboard-response","251","741375","0.0-13.0-0.1","61533ead92c280c34cc22482","64e77d7b61f440b60e28659d","64eca3153e963b73562af35f","null","null","<p style=""font-size: 60px; font-family: BACS"">CDEmYdRA</p>","","","","","","","","","",""
"html-keyboard-response","252","742388","0.0-13.0-0.2","61533ead92c280c34cc22482","64e77d7b61f440b60e28659d","64eca3153e963b73562af35f","null","null","<p style=""font-size: 60px; font-family: BACS"">UAcduvcb</p>","","","","","","","","","",""
"html-keyboard-response","253","743400","0.0-13.0-0.3","61533ead92c280c34cc22482","64e77d7b61f440b60e28659d","64eca3153e963b73562af35f","null","null","<p style=""font-size: 60px; font-family: BACS"">lrZGcrdY</p>","","","","","","","","","",""
"html-keyboard-response","254","744402","0.0-13.0-0.4","61533ead92c280c34cc22482","64e77d7b61f440b60e28659d","64eca3153e963b73562af35f","null","null","<p style=""font-size: 60px; font-family: BACS"">KDPAkKE</p>","","","","","","","","","",""
"html-keyboard-response","255","745414","0.0-13.0-0.5","61533ead92c280c34cc22482","64e77d7b61f440b60e28659d","64eca3153e963b73562af35f","null","null","<p style=""font-size: 60px; font-family: BACS"">PlEKDbMR</p>","","","","","","","","","",""
"html-keyboard-response","256","746429","0.0-13.0-0.6","61533ead92c280c34cc22482","64e77d7b61f440b60e28659d","64eca3153e963b73562af35f","null","null","<p style=""font-size: 60px; font-family: BACS"">lrZGmZb</p>","","","","","","","","","",""
"html-keyboard-response","257","747443","0.0-13.0-0.7","61533ead92c280c34cc22482","64e77d7b61f440b60e28659d","64eca3153e963b73562af35f","null","null","<p style=""font-size: 60px; font-family: BACS"">dRbDbkhMD</p>","","","","","","","","","",""
"html-keyboard-response","258","748459","0.0-13.0-0.8","61533ead92c280c34cc22482","64e77d7b61f440b60e28659d","64eca3153e963b73562af35f","null","null","<p style=""font-size: 60px; font-family: BACS"">CkBOPDbMR</p>","","","","","","","","","",""
"html-keyboard-response","259","749463","0.0-13.0-0.9","61533ead92c280c34cc22482","64e77d7b61f440b60e28659d","64eca3153e963b73562af35f","null","null","<p style=""font-size: 60px; font-family: BACS"">AJLrcrdY</p>","","","","","","","","","",""
"html-keyboard-response","260","750467","0.0-13.0-0.10","61533ead92c280c34cc22482","64e77d7b61f440b60e28659d","64eca3153e963b73562af35f","null","null","<p style=""font-size: 60px; font-family: BACS"">MDKPdRA</p>","","","","","","","","","",""
"html-keyboard-response","261","751473","0.0-13.0-0.11","61533ead92c280c34cc22482","64e77d7b61f440b60e28659d","64eca3153e963b73562af35f","null","null","<p style=""font-size: 60px; font-family: BACS"">EdBbDbMR</p>","","","","","","","","","",""
"html-keyboard-response","262","752476","0.0-13.0-0.12","61533ead92c280c34cc22482","64e77d7b61f440b60e28659d","64eca3153e963b73562af35f","null","null","<p style=""font-size: 60px; font-family: BACS"">ukcYvcb</p>","","","","","","","","","",""
"html-keyboard-response","263","753489","0.0-13.0-0.13","61533ead92c280c34cc22482","64e77d7b61f440b60e28659d","64eca3153e963b73562af35f","null","null","<p style=""font-size: 60px; font-family: BACS"">KDPAmKcD</p>","","","","","","","","","",""
"html-keyboard-response","264","754495","0.0-13.0-0.14","61533ead92c280c34cc22482","64e77d7b61f440b60e28659d","64eca3153e963b73562af35f","null","null","<p style=""font-size: 60px; font-family: BACS"">EMbDPDbMR</p>","","","","","","","","","",""
"html-keyboard-response","265","755497","0.0-13.0-0.15","61533ead92c280c34cc22482","64e77d7b61f440b60e28659d","64eca3153e963b73562af35f","null","null","<p style=""font-size: 60px; font-family: BACS"">NaAQdAOUl</p>","","","","","","","","","",""
"html-keyboard-response","266","756500","0.0-13.0-0.16","61533ead92c280c34cc22482","64e77d7b61f440b60e28659d","64eca3153e963b73562af35f","null","null","<p style=""font-size: 60px; font-family: BACS"">CkBOPdRA</p>","","","","","","","","","",""
"html-keyboard-response","267","757501","0.0-13.0-0.17","61533ead92c280c34cc22482","64e77d7b61f440b60e28659d","64eca3153e963b73562af35f","null","null","<p style=""font-size: 60px; font-family: BACS"">JdOAYmZb</p>","","","","","","","","","",""
"html-keyboard-response","268","758507","0.0-13.0-0.18","61533ead92c280c34cc22482","64e77d7b61f440b60e28659d","64eca3153e963b73562af35f","null","null","<p style=""font-size: 60px; font-family: BACS"">dRbDbmKcD</p>","","","","","","","","","",""
"html-keyboard-response","269","759520","0.0-13.0-0.19","61533ead92c280c34cc22482","64e77d7b61f440b60e28659d","64eca3153e963b73562af35f","null","null","<p style=""font-size: 60px; font-family: BACS"">JdOAYAOUl</p>","","","","","","","","","",""
"html-keyboard-response","270","760522","0.0-13.0-0.20","61533ead92c280c34cc22482","64e77d7b61f440b60e28659d","64eca3153e963b73562af35f","null","null","<p style=""font-size: 60px; font-family: BACS"">PlEKkhMD</p>","","","","","","","","","",""
"html-keyboard-response","271","761524","0.0-13.0-0.21","61533ead92c280c34cc22482","64e77d7b61f440b60e28659d","64eca3153e963b73562af35f","null","null","<p style=""font-size: 60px; font-family: BACS"">CkBOPkKE</p>","","","","","","","","","",""
"html-keyboard-response","272","762540","0.0-13.0-0.22","61533ead92c280c34cc22482","64e77d7b61f440b60e28659d","64eca3153e963b73562af35f","null","null","<p style=""font-size: 60px; font-family: BACS"">EMbDPdRA</p>","","","","","","","","","",""
"html-keyboard-response","273","763545","0.0-13.0-0.23","61533ead92c280c34cc22482","64e77d7b61f440b60e28659d","64eca3153e963b73562af35f","null","null","<p style=""font-size: 60px; font-family: BACS"">PlEKmKcD</p>","","","","","","","","","",""
"html-keyboard-response","274","764560","0.0-13.0-0.24","61533ead92c280c34cc22482","64e77d7b61f440b60e28659d","64eca3153e963b73562af35f","null","null","<p style=""font-size: 60px; font-family: BACS"">UAcduJZr</p>","","","","","","","","","",""
"html-keyboard-response","275","765565","0.0-13.0-0.25","61533ead92c280c34cc22482","64e77d7b61f440b60e28659d","64eca3153e963b73562af35f","null","null","<p style=""font-size: 60px; font-family: BACS"">EdBbkhMD</p>","","","","","","","","","",""
"html-keyboard-response","276","766569","0.0-13.0-0.26","61533ead92c280c34cc22482","64e77d7b61f440b60e28659d","64eca3153e963b73562af35f","null","null","<p style=""font-size: 60px; font-family: BACS"">ukcYAOUl</p>","","","","","","","","","",""
"html-keyboard-response","277","767584","0.0-13.0-0.27","61533ead92c280c34cc22482","64e77d7b61f440b60e28659d","64eca3153e963b73562af35f","null","null","<p style=""font-size: 60px; font-family: BACS"">tmAKdRA</p>","","","","","","","","","",""
"html-keyboard-response","278","768595","0.0-13.0-0.28","61533ead92c280c34cc22482","64e77d7b61f440b60e28659d","64eca3153e963b73562af35f","null","null","<p style=""font-size: 60px; font-family: BACS"">LuNZvcb</p>","","","","","","","","","",""
"html-keyboard-response","279","769601","0.0-13.0-0.29","61533ead92c280c34cc22482","64e77d7b61f440b60e28659d","64eca3153e963b73562af35f","null","null","<p style=""font-size: 60px; font-family: BACS"">JdOAYJZr</p>","","","","","","","","","",""
"html-keyboard-response","280","770603","0.0-13.0-0.30","61533ead92c280c34cc22482","64e77d7b61f440b60e28659d","64eca3153e963b73562af35f","null","null","<p style=""font-size: 60px; font-family: BACS"">EdBbmKcD</p>","","","","","","","","","",""
"html-keyboard-response","281","771609","0.0-13.0-0.31","61533ead92c280c34cc22482","64e77d7b61f440b60e28659d","64eca3153e963b73562af35f","null","null","<p style=""font-size: 60px; font-family: BACS"">AmQOYAOUl</p>","","","","","","","","","",""
"html-keyboard-response","282","772611","0.0-13.0-0.32","61533ead92c280c34cc22482","64e77d7b61f440b60e28659d","64eca3153e963b73562af35f","null","null","<p style=""font-size: 60px; font-family: BACS"">lmbYmZb</p>","","","","","","","","","",""
"html-keyboard-response","283","773615","0.0-13.0-0.33","61533ead92c280c34cc22482","64e77d7b61f440b60e28659d","64eca3153e963b73562af35f","null","null","<p style=""font-size: 60px; font-family: BACS"">CDEmYDbMR</p>","","","","","","","","","",""
"html-keyboard-response","284","774619","0.0-13.0-0.34","61533ead92c280c34cc22482","64e77d7b61f440b60e28659d","64eca3153e963b73562af35f","null","null","<p style=""font-size: 60px; font-family: BACS"">UAcduAOUl</p>","","","","","","","","","",""
"html-keyboard-response","285","775623","0.0-13.0-0.35","61533ead92c280c34cc22482","64e77d7b61f440b60e28659d","64eca3153e963b73562af35f","null","null","<p style=""font-size: 60px; font-family: BACS"">LuNZcrdY</p>","","","","","","","","","",""
"html-keyboard-response","286","776637","0.0-13.0-0.36","61533ead92c280c34cc22482","64e77d7b61f440b60e28659d","64eca3153e963b73562af35f","null","null","<p style=""font-size: 60px; font-family: BACS"">AmQOYvcb</p>","","","","","","","","","",""
"html-keyboard-response","287","777639","0.0-13.0-0.37","61533ead92c280c34cc22482","64e77d7b61f440b60e28659d","64eca3153e963b73562af35f","null","null","<p style=""font-size: 60px; font-family: BACS"">NaAQdcrdY</p>","","","","","","","","","",""
"html-keyboard-response","288","778645","0.0-13.0-0.38","61533ead92c280c34cc22482","64e77d7b61f440b60e28659d","64eca3153e963b73562af35f","null","null","<p style=""font-size: 60px; font-family: BACS"">CkBOPmKcD</p>","","","","","","","","","",""
"html-keyboard-response","289","779650","0.0-13.0-0.39","61533ead92c280c34cc22482","64e77d7b61f440b60e28659d","64eca3153e963b73562af35f","null","null","<p style=""font-size: 60px; font-family: BACS"">vmuLlvcb</p>","","","","","","","","","",""
"html-keyboard-response","290","780658","0.0-13.0-0.40","61533ead92c280c34cc22482","64e77d7b61f440b60e28659d","64eca3153e963b73562af35f","null","null","<p style=""font-size: 60px; font-family: BACS"">EdBbdRA</p>","","","","","","","","","",""
"html-keyboard-response","291","781667","0.0-13.0-0.41","61533ead92c280c34cc22482","64e77d7b61f440b60e28659d","64eca3153e963b73562af35f","null","null","<p style=""font-size: 60px; font-family: BACS"">MDKPkhMD</p>","","","","","","","","","",""
"html-keyboard-response","292","782682","0.0-13.0-0.42","61533ead92c280c34cc22482","64e77d7b61f440b60e28659d","64eca3153e963b73562af35f","null","null","<p style=""font-size: 60px; font-family: BACS"">AJLrAOUl</p>","","","","","","","","","",""
"html-keyboard-response","293","783686","0.0-13.0-0.43","61533ead92c280c34cc22482","64e77d7b61f440b60e28659d","64eca3153e963b73562af35f","null","null","<p style=""font-size: 60px; font-family: BACS"">NaAQdJZr</p>","","","","","","","","","",""
"html-keyboard-response","294","784692","0.0-13.0-0.44","61533ead92c280c34cc22482","64e77d7b61f440b60e28659d","64eca3153e963b73562af35f","null","null","<p style=""font-size: 60px; font-family: BACS"">DRPkYDbMR</p>","","","","","","","","","",""
"html-keyboard-response","295","785696","0.0-13.0-0.45","61533ead92c280c34cc22482","64e77d7b61f440b60e28659d","64eca3153e963b73562af35f","null","null","<p style=""font-size: 60px; font-family: BACS"">KDPAdRA</p>","","","","","","","","","",""
"html-keyboard-response","296","786703","0.0-13.0-0.46","61533ead92c280c34cc22482","64e77d7b61f440b60e28659d","64eca3153e963b73562af35f","null","null","<p style=""font-size: 60px; font-family: BACS"">UAcducrdY</p>","","","","","","","","","",""
"html-keyboard-response","297","787704","0.0-13.0-0.47","61533ead92c280c34cc22482","64e77d7b61f440b60e28659d","64eca3153e963b73562af35f","null","null","<p style=""font-size: 60px; font-family: BACS"">AmQOYmZb</p>","","","","","","","","","",""
"html-keyboard-response","298","788706","0.0-13.0-0.48","61533ead92c280c34cc22482","64e77d7b61f440b60e28659d","64eca3153e963b73562af35f","null","null","<p style=""font-size: 60px; font-family: BACS"">LuNZAOUl</p>","","","","","","","","","",""
"html-keyboard-response","299","789716","0.0-13.0-0.49","61533ead92c280c34cc22482","64e77d7b61f440b60e28659d","64eca3153e963b73562af35f","null","null","<p style=""font-size: 60px; font-family: BACS"">DRPkYkKE</p>","","","","","","","","","",""
"html-keyboard-response","300","790720","0.0-13.0-0.50","61533ead92c280c34cc22482","64e77d7b61f440b60e28659d","64eca3153e963b73562af35f","null","null","<p style=""font-size: 60px; font-family: BACS"">dRbDbDbMR</p>","","","","","","","","","",""
"html-keyboard-response","301","791734","0.0-13.0-0.51","61533ead92c280c34cc22482","64e77d7b61f440b60e28659d","64eca3153e963b73562af35f","null","null","<p style=""font-size: 60px; font-family: BACS"">lmbYJZr</p>","","","","","","","","","",""
"html-keyboard-response","302","792736","0.0-13.0-0.52","61533ead92c280c34cc22482","64e77d7b61f440b60e28659d","64eca3153e963b73562af35f","null","null","<p style=""font-size: 60px; font-family: BACS"">JdOAYvcb</p>","","","","","","","","","",""
"html-keyboard-response","303","793740","0.0-13.0-0.53","61533ead92c280c34cc22482","64e77d7b61f440b60e28659d","64eca3153e963b73562af35f","null","null","<p style=""font-size: 60px; font-family: BACS"">ukcYmZb</p>","","","","","","","","","",""
"html-keyboard-response","304","794741","0.0-13.0-0.54","61533ead92c280c34cc22482","64e77d7b61f440b60e28659d","64eca3153e963b73562af35f","null","null","<p style=""font-size: 60px; font-family: BACS"">MDKPDbMR</p>","","","","","","","","","",""
"html-keyboard-response","305","795741","0.0-13.0-0.55","61533ead92c280c34cc22482","64e77d7b61f440b60e28659d","64eca3153e963b73562af35f","null","null","<p style=""font-size: 60px; font-family: BACS"">ukcYcrdY</p>","","","","","","","","","",""
"html-keyboard-response","306","796756","0.0-13.0-0.56","61533ead92c280c34cc22482","64e77d7b61f440b60e28659d","64eca3153e963b73562af35f","null","null","<p style=""font-size: 60px; font-family: BACS"">EMbDPkhMD</p>","","","","","","","","","",""
"html-keyboard-response","307","797756","0.0-13.0-0.57","61533ead92c280c34cc22482","64e77d7b61f440b60e28659d","64eca3153e963b73562af35f","null","null","<p style=""font-size: 60px; font-family: BACS"">vmuLlAOUl</p>","","","","","","","","","",""
"html-keyboard-response","308","798771","0.0-13.0-0.58","61533ead92c280c34cc22482","64e77d7b61f440b60e28659d","64eca3153e963b73562af35f","null","null","<p style=""font-size: 60px; font-family: BACS"">AJLrmZb</p>","","","","","","","","","",""
"html-keyboard-response","309","799772","0.0-13.0-0.59","61533ead92c280c34cc22482","64e77d7b61f440b60e28659d","64eca3153e963b73562af35f","null","null","<p style=""font-size: 60px; font-family: BACS"">tmAKkhMD</p>","","","","","","","","","",""
"html-keyboard-response","310","800780","0.0-13.0-0.60","61533ead92c280c34cc22482","64e77d7b61f440b60e28659d","64eca3153e963b73562af35f","null","null","<p style=""font-size: 60px; font-family: BACS"">CDEmYmKcD</p>","","","","","","","","","",""
"html-keyboard-response","311","801787","0.0-13.0-0.61","61533ead92c280c34cc22482","64e77d7b61f440b60e28659d","64eca3153e963b73562af35f","null","null","<p style=""font-size: 60px; font-family: BACS"">vmuLlJZr</p>","","","","","","","","","",""
"html-keyboard-response","312","802801","0.0-13.0-0.62","61533ead92c280c34cc22482","64e77d7b61f440b60e28659d","64eca3153e963b73562af35f","null","null","<p style=""font-size: 60px; font-family: BACS"">tmAKmKcD</p>","","","","","","","","","",""
"html-keyboard-response","313","803803","0.0-13.0-0.63","61533ead92c280c34cc22482","64e77d7b61f440b60e28659d","64eca3153e963b73562af35f","null","null","<p style=""font-size: 60px; font-family: BACS"">AmQOYcrdY</p>","","","","","","","","","",""
"html-keyboard-response","314","804803","0.0-13.0-0.64","61533ead92c280c34cc22482","64e77d7b61f440b60e28659d","64eca3153e963b73562af35f","null","null","<p style=""font-size: 60px; font-family: BACS"">KDPAkhMD</p>","","","","","","","","","",""
"html-keyboard-response","315","805805","0.0-13.0-0.65","61533ead92c280c34cc22482","64e77d7b61f440b60e28659d","64eca3153e963b73562af35f","null","null","<p style=""font-size: 60px; font-family: BACS"">lrZGvcb</p>","","","","","","","","","",""
"html-keyboard-response","316","806806","0.0-13.0-0.66","61533ead92c280c34cc22482","64e77d7b61f440b60e28659d","64eca3153e963b73562af35f","null","null","<p style=""font-size: 60px; font-family: BACS"">EMbDPmKcD</p>","","","","","","","","","",""
"html-keyboard-response","317","807810","0.0-13.0-0.67","61533ead92c280c34cc22482","64e77d7b61f440b60e28659d","64eca3153e963b73562af35f","null","null","<p style=""font-size: 60px; font-family: BACS"">lrZGJZr</p>","","","","","","","","","",""
"html-keyboard-response","318","808825","0.0-13.0-0.68","61533ead92c280c34cc22482","64e77d7b61f440b60e28659d","64eca3153e963b73562af35f","null","null","<p style=""font-size: 60px; font-family: BACS"">dRbDbkKE</p>","","","","","","","","","",""
"html-keyboard-response","319","809838","0.0-13.0-0.69","61533ead92c280c34cc22482","64e77d7b61f440b60e28659d","64eca3153e963b73562af35f","null","null","<p style=""font-size: 60px; font-family: BACS"">LuNZJZr</p>","","","","","","","","","",""
"html-keyboard-response","320","810840","0.0-13.0-0.70","61533ead92c280c34cc22482","64e77d7b61f440b60e28659d","64eca3153e963b73562af35f","null","null","<p style=""font-size: 60px; font-family: BACS"">lmbYvcb</p>","","","","","","","","","",""
"html-keyboard-response","321","811841","0.0-13.0-0.71","61533ead92c280c34cc22482","64e77d7b61f440b60e28659d","64eca3153e963b73562af35f","null","null","<p style=""font-size: 60px; font-family: BACS"">CDEmYkKE</p>","","","","","","","","","",""
"html-keyboard-response","322","812853","0.0-13.0-0.72","61533ead92c280c34cc22482","64e77d7b61f440b60e28659d","64eca3153e963b73562af35f","null","null","<p style=""font-size: 60px; font-family: BACS"">NaAQdmZb</p>","","","","","","","","","",""
"html-keyboard-response","323","813862","0.0-13.0-0.73","61533ead92c280c34cc22482","64e77d7b61f440b60e28659d","64eca3153e963b73562af35f","null","null","<p style=""font-size: 60px; font-family: BACS"">lmbYcrdY</p>","","","","","","","","","",""
"html-keyboard-response","324","814867","0.0-13.0-0.74","61533ead92c280c34cc22482","64e77d7b61f440b60e28659d","64eca3153e963b73562af35f","null","null","<p style=""font-size: 60px; font-family: BACS"">DRPkYdRA</p>","","","","","","","","","",""
"html-keyboard-response","325","815869","0.0-13.0-0.75","61533ead92c280c34cc22482","64e77d7b61f440b60e28659d","64eca3153e963b73562af35f","null","null","<p style=""font-size: 60px; font-family: BACS"">vmuLlmZb</p>","","","","","","","","","",""
"html-keyboard-response","326","816881","0.0-13.0-0.76","61533ead92c280c34cc22482","64e77d7b61f440b60e28659d","64eca3153e963b73562af35f","null","null","<p style=""font-size: 60px; font-family: BACS"">MDKPkKE</p>","","","","","","","","","",""
"html-keyboard-response","327","817884","0.0-13.0-0.77","61533ead92c280c34cc22482","64e77d7b61f440b60e28659d","64eca3153e963b73562af35f","null","null","<p style=""font-size: 60px; font-family: BACS"">AJLrJZr</p>","","","","","","","","","",""
"html-keyboard-response","328","818891","0.0-13.0-0.78","61533ead92c280c34cc22482","64e77d7b61f440b60e28659d","64eca3153e963b73562af35f","null","null","<p style=""font-size: 60px; font-family: BACS"">tmAKkKE</p>","","","","","","","","","",""
"html-keyboard-response","329","819906","0.0-13.0-0.79","61533ead92c280c34cc22482","64e77d7b61f440b60e28659d","64eca3153e963b73562af35f","null","null","<p style=""font-size: 60px; font-family: BACS"">DRPkYkhMD</p>","","","","","","","","","",""
"html-keyboard-response","330","824053","0.0-14.0","61533ead92c280c34cc22482","64e77d7b61f440b60e28659d","64eca3153e963b73562af35f","4146"," ","<p>Great, you've seen the fourth block of words. You may now take a short break.</p>
      <p>Press the spacebar when you're ready to continue.</p>","","","","","","","","","",""
"html-keyboard-response","331","825062","0.0-15.0-0.0","61533ead92c280c34cc22482","64e77d7b61f440b60e28659d","64eca3153e963b73562af35f","null","null","<p style=""font-size: 60px; font-family: BACS"">AJLrAOUl</p>","","","","","","","","","",""
"html-keyboard-response","332","826067","0.0-15.0-0.1","61533ead92c280c34cc22482","64e77d7b61f440b60e28659d","64eca3153e963b73562af35f","null","null","<p style=""font-size: 60px; font-family: BACS"">AJLrAOUl</p>","","","","","","","","","",""
"html-keyboard-response","333","827075","0.0-15.0-0.2","61533ead92c280c34cc22482","64e77d7b61f440b60e28659d","64eca3153e963b73562af35f","null","null","<p style=""font-size: 60px; font-family: BACS"">AJLrAOUl</p>","","","","","","","","","",""
"html-keyboard-response","334","828091","0.0-15.0-0.3","61533ead92c280c34cc22482","64e77d7b61f440b60e28659d","64eca3153e963b73562af35f","null","null","<p style=""font-size: 60px; font-family: BACS"">AJLrAOUl</p>","","","","","","","","","",""
"html-keyboard-response","335","829092","0.0-15.0-0.4","61533ead92c280c34cc22482","64e77d7b61f440b60e28659d","64eca3153e963b73562af35f","null","null","<p style=""font-size: 60px; font-family: BACS"">AJLrAOUl</p>","","","","","","","","","",""
"html-keyboard-response","336","830105","0.0-15.0-0.5","61533ead92c280c34cc22482","64e77d7b61f440b60e28659d","64eca3153e963b73562af35f","null","null","<p style=""font-size: 60px; font-family: BACS"">AJLrAOUl</p>","","","","","","","","","",""
"html-keyboard-response","337","831111","0.0-15.0-0.6","61533ead92c280c34cc22482","64e77d7b61f440b60e28659d","64eca3153e963b73562af35f","null","null","<p style=""font-size: 60px; font-family: BACS"">AJLrAOUl</p>","","","","","","","","","",""
"html-keyboard-response","338","832125","0.0-15.0-0.7","61533ead92c280c34cc22482","64e77d7b61f440b60e28659d","64eca3153e963b73562af35f","null","null","<p style=""font-size: 60px; font-family: BACS"">AJLrAOUl</p>","","","","","","","","","",""
"html-keyboard-response","339","833130","0.0-15.0-0.8","61533ead92c280c34cc22482","64e77d7b61f440b60e28659d","64eca3153e963b73562af35f","null","null","<p style=""font-size: 60px; font-family: BACS"">AJLrAOUl</p>","","","","","","","","","",""
"html-keyboard-response","340","834131","0.0-15.0-0.9","61533ead92c280c34cc22482","64e77d7b61f440b60e28659d","64eca3153e963b73562af35f","null","null","<p style=""font-size: 60px; font-family: BACS"">AJLrAOUl</p>","","","","","","","","","",""
"html-keyboard-response","341","835142","0.0-15.0-0.10","61533ead92c280c34cc22482","64e77d7b61f440b60e28659d","64eca3153e963b73562af35f","null","null","<p style=""font-size: 60px; font-family: BACS"">AJLrAOUl</p>","","","","","","","","","",""
"html-keyboard-response","342","836158","0.0-15.0-0.11","61533ead92c280c34cc22482","64e77d7b61f440b60e28659d","64eca3153e963b73562af35f","null","null","<p style=""font-size: 60px; font-family: BACS"">AJLrAOUl</p>","","","","","","","","","",""
"html-keyboard-response","343","837172","0.0-15.0-0.12","61533ead92c280c34cc22482","64e77d7b61f440b60e28659d","64eca3153e963b73562af35f","null","null","<p style=""font-size: 60px; font-family: BACS"">AJLrAOUl</p>","","","","","","","","","",""
"html-keyboard-response","344","838186","0.0-15.0-0.13","61533ead92c280c34cc22482","64e77d7b61f440b60e28659d","64eca3153e963b73562af35f","null","null","<p style=""font-size: 60px; font-family: BACS"">AJLrAOUl</p>","","","","","","","","","",""
"html-keyboard-response","345","839188","0.0-15.0-0.14","61533ead92c280c34cc22482","64e77d7b61f440b60e28659d","64eca3153e963b73562af35f","null","null","<p style=""font-size: 60px; font-family: BACS"">AJLrAOUl</p>","","","","","","","","","",""
"html-keyboard-response","346","840198","0.0-15.0-0.15","61533ead92c280c34cc22482","64e77d7b61f440b60e28659d","64eca3153e963b73562af35f","null","null","<p style=""font-size: 60px; font-family: BACS"">AJLrAOUl</p>","","","","","","","","","",""
"html-keyboard-response","347","841199","0.0-15.0-0.16","61533ead92c280c34cc22482","64e77d7b61f440b60e28659d","64eca3153e963b73562af35f","null","null","<p style=""font-size: 60px; font-family: BACS"">AJLrAOUl</p>","","","","","","","","","",""
"html-keyboard-response","348","842204","0.0-15.0-0.17","61533ead92c280c34cc22482","64e77d7b61f440b60e28659d","64eca3153e963b73562af35f","null","null","<p style=""font-size: 60px; font-family: BACS"">AJLrAOUl</p>","","","","","","","","","",""
"html-keyboard-response","349","843211","0.0-15.0-0.18","61533ead92c280c34cc22482","64e77d7b61f440b60e28659d","64eca3153e963b73562af35f","null","null","<p style=""font-size: 60px; font-family: BACS"">AJLrAOUl</p>","","","","","","","","","",""
"html-keyboard-response","350","844219","0.0-15.0-0.19","61533ead92c280c34cc22482","64e77d7b61f440b60e28659d","64eca3153e963b73562af35f","null","null","<p style=""font-size: 60px; font-family: BACS"">AJLrAOUl</p>","","","","","","","","","",""
"html-keyboard-response","351","845225","0.0-15.0-0.20","61533ead92c280c34cc22482","64e77d7b61f440b60e28659d","64eca3153e963b73562af35f","null","null","<p style=""font-size: 60px; font-family: BACS"">AJLrAOUl</p>","","","","","","","","","",""
"html-keyboard-response","352","846232","0.0-15.0-0.21","61533ead92c280c34cc22482","64e77d7b61f440b60e28659d","64eca3153e963b73562af35f","null","null","<p style=""font-size: 60px; font-family: BACS"">AJLrAOUl</p>","","","","","","","","","",""
"html-keyboard-response","353","847234","0.0-15.0-0.22","61533ead92c280c34cc22482","64e77d7b61f440b60e28659d","64eca3153e963b73562af35f","null","null","<p style=""font-size: 60px; font-family: BACS"">AJLrAOUl</p>","","","","","","","","","",""
"html-keyboard-response","354","848248","0.0-15.0-0.23","61533ead92c280c34cc22482","64e77d7b61f440b60e28659d","64eca3153e963b73562af35f","null","null","<p style=""font-size: 60px; font-family: BACS"">AJLrAOUl</p>","","","","","","","","","",""
"html-keyboard-response","355","849262","0.0-15.0-0.24","61533ead92c280c34cc22482","64e77d7b61f440b60e28659d","64eca3153e963b73562af35f","null","null","<p style=""font-size: 60px; font-family: BACS"">AJLrAOUl</p>","","","","","","","","","",""
"html-keyboard-response","356","850266","0.0-15.0-0.25","61533ead92c280c34cc22482","64e77d7b61f440b60e28659d","64eca3153e963b73562af35f","null","null","<p style=""font-size: 60px; font-family: BACS"">AJLrAOUl</p>","","","","","","","","","",""
"html-keyboard-response","357","851280","0.0-15.0-0.26","61533ead92c280c34cc22482","64e77d7b61f440b60e28659d","64eca3153e963b73562af35f","null","null","<p style=""font-size: 60px; font-family: BACS"">AJLrAOUl</p>","","","","","","","","","",""
"html-keyboard-response","358","852294","0.0-15.0-0.27","61533ead92c280c34cc22482","64e77d7b61f440b60e28659d","64eca3153e963b73562af35f","null","null","<p style=""font-size: 60px; font-family: BACS"">AJLrAOUl</p>","","","","","","","","","",""
"html-keyboard-response","359","853295","0.0-15.0-0.28","61533ead92c280c34cc22482","64e77d7b61f440b60e28659d","64eca3153e963b73562af35f","null","null","<p style=""font-size: 60px; font-family: BACS"">AJLrAOUl</p>","","","","","","","","","",""
"html-keyboard-response","360","854296","0.0-15.0-0.29","61533ead92c280c34cc22482","64e77d7b61f440b60e28659d","64eca3153e963b73562af35f","null","null","<p style=""font-size: 60px; font-family: BACS"">AJLrAOUl</p>","","","","","","","","","",""
"html-keyboard-response","361","855301","0.0-15.0-0.30","61533ead92c280c34cc22482","64e77d7b61f440b60e28659d","64eca3153e963b73562af35f","null","null","<p style=""font-size: 60px; font-family: BACS"">AJLrAOUl</p>","","","","","","","","","",""
"html-keyboard-response","362","856303","0.0-15.0-0.31","61533ead92c280c34cc22482","64e77d7b61f440b60e28659d","64eca3153e963b73562af35f","null","null","<p style=""font-size: 60px; font-family: BACS"">AJLrAOUl</p>","","","","","","","","","",""
"html-keyboard-response","363","857317","0.0-15.0-0.32","61533ead92c280c34cc22482","64e77d7b61f440b60e28659d","64eca3153e963b73562af35f","null","null","<p style=""font-size: 60px; font-family: BACS"">AJLrAOUl</p>","","","","","","","","","",""
"html-keyboard-response","364","858325","0.0-15.0-0.33","61533ead92c280c34cc22482","64e77d7b61f440b60e28659d","64eca3153e963b73562af35f","null","null","<p style=""font-size: 60px; font-family: BACS"">AJLrAOUl</p>","","","","","","","","","",""
"html-keyboard-response","365","859339","0.0-15.0-0.34","61533ead92c280c34cc22482","64e77d7b61f440b60e28659d","64eca3153e963b73562af35f","null","null","<p style=""font-size: 60px; font-family: BACS"">AJLrAOUl</p>","","","","","","","","","",""
"html-keyboard-response","366","860354","0.0-15.0-0.35","61533ead92c280c34cc22482","64e77d7b61f440b60e28659d","64eca3153e963b73562af35f","null","null","<p style=""font-size: 60px; font-family: BACS"">AJLrAOUl</p>","","","","","","","","","",""
"html-keyboard-response","367","861366","0.0-15.0-0.36","61533ead92c280c34cc22482","64e77d7b61f440b60e28659d","64eca3153e963b73562af35f","null","null","<p style=""font-size: 60px; font-family: BACS"">AJLrAOUl</p>","","","","","","","","","",""
"html-keyboard-response","368","862380","0.0-15.0-0.37","61533ead92c280c34cc22482","64e77d7b61f440b60e28659d","64eca3153e963b73562af35f","null","null","<p style=""font-size: 60px; font-family: BACS"">AJLrAOUl</p>","","","","","","","","","",""
"html-keyboard-response","369","863384","0.0-15.0-0.38","61533ead92c280c34cc22482","64e77d7b61f440b60e28659d","64eca3153e963b73562af35f","null","null","<p style=""font-size: 60px; font-family: BACS"">AJLrAOUl</p>","","","","","","","","","",""
"html-keyboard-response","370","864385","0.0-15.0-0.39","61533ead92c280c34cc22482","64e77d7b61f440b60e28659d","64eca3153e963b73562af35f","null","null","<p style=""font-size: 60px; font-family: BACS"">AJLrAOUl</p>","","","","","","","","","",""
"html-keyboard-response","371","865395","0.0-15.0-0.40","61533ead92c280c34cc22482","64e77d7b61f440b60e28659d","64eca3153e963b73562af35f","null","null","<p style=""font-size: 60px; font-family: BACS"">AJLrAOUl</p>","","","","","","","","","",""
"html-keyboard-response","372","866408","0.0-15.0-0.41","61533ead92c280c34cc22482","64e77d7b61f440b60e28659d","64eca3153e963b73562af35f","null","null","<p style=""font-size: 60px; font-family: BACS"">AJLrAOUl</p>","","","","","","","","","",""
"html-keyboard-response","373","867419","0.0-15.0-0.42","61533ead92c280c34cc22482","64e77d7b61f440b60e28659d","64eca3153e963b73562af35f","null","null","<p style=""font-size: 60px; font-family: BACS"">AJLrAOUl</p>","","","","","","","","","",""
"html-keyboard-response","374","868424","0.0-15.0-0.43","61533ead92c280c34cc22482","64e77d7b61f440b60e28659d","64eca3153e963b73562af35f","null","null","<p style=""font-size: 60px; font-family: BACS"">AJLrAOUl</p>","","","","","","","","","",""
"html-keyboard-response","375","869425","0.0-15.0-0.44","61533ead92c280c34cc22482","64e77d7b61f440b60e28659d","64eca3153e963b73562af35f","null","null","<p style=""font-size: 60px; font-family: BACS"">AJLrAOUl</p>","","","","","","","","","",""
"html-keyboard-response","376","870439","0.0-15.0-0.45","61533ead92c280c34cc22482","64e77d7b61f440b60e28659d","64eca3153e963b73562af35f","null","null","<p style=""font-size: 60px; font-family: BACS"">AJLrAOUl</p>","","","","","","","","","",""
"html-keyboard-response","377","871454","0.0-15.0-0.46","61533ead92c280c34cc22482","64e77d7b61f440b60e28659d","64eca3153e963b73562af35f","null","null","<p style=""font-size: 60px; font-family: BACS"">AJLrAOUl</p>","","","","","","","","","",""
"html-keyboard-response","378","872458","0.0-15.0-0.47","61533ead92c280c34cc22482","64e77d7b61f440b60e28659d","64eca3153e963b73562af35f","null","null","<p style=""font-size: 60px; font-family: BACS"">AJLrAOUl</p>","","","","","","","","","",""
"html-keyboard-response","379","873472","0.0-15.0-0.48","61533ead92c280c34cc22482","64e77d7b61f440b60e28659d","64eca3153e963b73562af35f","null","null","<p style=""font-size: 60px; font-family: BACS"">AJLrAOUl</p>","","","","","","","","","",""
"html-keyboard-response","380","874474","0.0-15.0-0.49","61533ead92c280c34cc22482","64e77d7b61f440b60e28659d","64eca3153e963b73562af35f","null","null","<p style=""font-size: 60px; font-family: BACS"">AJLrAOUl</p>","","","","","","","","","",""
"html-keyboard-response","381","875481","0.0-15.0-0.50","61533ead92c280c34cc22482","64e77d7b61f440b60e28659d","64eca3153e963b73562af35f","null","null","<p style=""font-size: 60px; font-family: BACS"">AJLrAOUl</p>","","","","","","","","","",""
"html-keyboard-response","382","876488","0.0-15.0-0.51","61533ead92c280c34cc22482","64e77d7b61f440b60e28659d","64eca3153e963b73562af35f","null","null","<p style=""font-size: 60px; font-family: BACS"">AJLrAOUl</p>","","","","","","","","","",""
"html-keyboard-response","383","877489","0.0-15.0-0.52","61533ead92c280c34cc22482","64e77d7b61f440b60e28659d","64eca3153e963b73562af35f","null","null","<p style=""font-size: 60px; font-family: BACS"">AJLrAOUl</p>","","","","","","","","","",""
"html-keyboard-response","384","878501","0.0-15.0-0.53","61533ead92c280c34cc22482","64e77d7b61f440b60e28659d","64eca3153e963b73562af35f","null","null","<p style=""font-size: 60px; font-family: BACS"">AJLrAOUl</p>","","","","","","","","","",""
"html-keyboard-response","385","879511","0.0-15.0-0.54","61533ead92c280c34cc22482","64e77d7b61f440b60e28659d","64eca3153e963b73562af35f","null","null","<p style=""font-size: 60px; font-family: BACS"">AJLrAOUl</p>","","","","","","","","","",""
"html-keyboard-response","386","880524","0.0-15.0-0.55","61533ead92c280c34cc22482","64e77d7b61f440b60e28659d","64eca3153e963b73562af35f","null","null","<p style=""font-size: 60px; font-family: BACS"">AJLrAOUl</p>","","","","","","","","","",""
"html-keyboard-response","387","881538","0.0-15.0-0.56","61533ead92c280c34cc22482","64e77d7b61f440b60e28659d","64eca3153e963b73562af35f","null","null","<p style=""font-size: 60px; font-family: BACS"">AJLrAOUl</p>","","","","","","","","","",""
"html-keyboard-response","388","882549","0.0-15.0-0.57","61533ead92c280c34cc22482","64e77d7b61f440b60e28659d","64eca3153e963b73562af35f","null","null","<p style=""font-size: 60px; font-family: BACS"">AJLrAOUl</p>","","","","","","","","","",""
"html-keyboard-response","389","883552","0.0-15.0-0.58","61533ead92c280c34cc22482","64e77d7b61f440b60e28659d","64eca3153e963b73562af35f","null","null","<p style=""font-size: 60px; font-family: BACS"">AJLrAOUl</p>","","","","","","","","","",""
"html-keyboard-response","390","884553","0.0-15.0-0.59","61533ead92c280c34cc22482","64e77d7b61f440b60e28659d","64eca3153e963b73562af35f","null","null","<p style=""font-size: 60px; font-family: BACS"">AJLrAOUl</p>","","","","","","","","","",""
"html-keyboard-response","391","885556","0.0-15.0-0.60","61533ead92c280c34cc22482","64e77d7b61f440b60e28659d","64eca3153e963b73562af35f","null","null","<p style=""font-size: 60px; font-family: BACS"">AJLrAOUl</p>","","","","","","","","","",""
"html-keyboard-response","392","886564","0.0-15.0-0.61","61533ead92c280c34cc22482","64e77d7b61f440b60e28659d","64eca3153e963b73562af35f","null","null","<p style=""font-size: 60px; font-family: BACS"">AJLrAOUl</p>","","","","","","","","","",""
"html-keyboard-response","393","887567","0.0-15.0-0.62","61533ead92c280c34cc22482","64e77d7b61f440b60e28659d","64eca3153e963b73562af35f","null","null","<p style=""font-size: 60px; font-family: BACS"">AJLrAOUl</p>","","","","","","","","","",""
