"trial_type","trial_index","time_elapsed","internal_node_id","subject_id","study_id","session_id","rt","response","stimulus","success","item","task","correct_response","testing_condition","correct","target","confound","name"
"pavlovia","0","786","0.0-0.0","5f18a80367ef6b0bbc5f3720","650c16f0f2faf8d7a0d14c09","651c1c335a787e07d59a9088","","","","","","","","","","","",""
"survey-html-form","1","5707","0.0-1.0","5f18a80367ef6b0bbc5f3720","650c16f0f2faf8d7a0d14c09","651c1c335a787e07d59a9088","4919","{""ID"":""5f18a80367ef6b0bbc5f3720""}","","","","","","","","","",""
"html-keyboard-response","2","26729","0.0-2.0","5f18a80367ef6b0bbc5f3720","650c16f0f2faf8d7a0d14c09","651c1c335a787e07d59a9088","21021"," ","<p style=""font-size: 15px;"">Before beginning, we ask that you read the consent information and confirm your agreement to participate in the experiment.</p>
      <p style=""font-size: 15px;""> We ask that you remember that this is a research project and that your participation is entirely voluntary. You can stop your participation at any time, without needing to provide any explanation. The study we're asking you to participate in aims at examining how readers process written words. You will be engaged in a session of apprximately 20 minutes, followed by a brief questionnaire. You will have the opportunity to take a few breaks during the experiment. You will be paid £4 for your participation, corresponding to a rate of £8/hour. While this experiment looks at cognitive faculties, this experiment doesn't constitute clinical proof of eventual pathologies.</p>
      <p style=""font-size: 15px;"">All of the information collected thanks to yours and others' participation will be held in a secure password-protected server, and will not be shared with anyone not authorised to view it. Your personal information will be kept with an arbitrary participant ID. Thanks to this data anonymity process, any researcher analysing the data won't be able to track the information back to a specific participant. Therefore, this process will make identifying you impossibile, even when results from the study will be published in scientific reviews, presented at congresses, or at any other public forum. More generally, the collected data will be treated in accordance with the laws on privacy and conformity to the Legislative Degree n. 196 ""Code regarding the protection of personal data"" of the 30th of June 2003 and to the European Regulation 2016/670 (General Data Protection Regulation - GDPR). The Data Protection Officer is Avv. Valentina Carollo, who can be contacted at the following email addresses: <a href=""mailto:dpo@sissa.it"">dpo@sissa.it</a> or <a href=""mailto:rpd@sissa.it"">rpd@sissa.it</a> - PEC: <a href=""mailto:protocollo@pec.sissa.it"">protocollo@pec.sissa.it</a>.</p>
      <p style=""font-size: 15px;""> Before expressing your consent to participate, we would like to remind you again that in case you need explanations on any aspect of the experimental procedure, the researcher is at your disposition (<a href=""mailto:aliebelt@sissa.it"">aliebelt@sissa.it</a>, <a href=""mailto:davide.crepaldi@sissa.it"">davide.crepaldi@sissa.it</a>).</p>
      <p style=""font-size: 15px;"">If you would like to download the informed consent form, you can do so here: <a href=""BASL-Informed_Consent.pdf"" download>informed consent form</a>.</p>
      <p style=""font-size: 15px;"">We ask that you press the spacebar to proceed to the consent section.</p>","","","","","","","","",""
"survey-html-form","3","44765","0.0-3.0","5f18a80367ef6b0bbc5f3720","650c16f0f2faf8d7a0d14c09","651c1c335a787e07d59a9088","18036","{""consent1"":""YES"",""consent2"":""YES"",""consent3"":""YES"",""consent4"":""YES"",""consent5"":""YES"",""consent6"":""YES""}","","","","","","","","","",""
"fullscreen","4","51194","0.0-4.0","5f18a80367ef6b0bbc5f3720","650c16f0f2faf8d7a0d14c09","651c1c335a787e07d59a9088","","","","true","","","","","","","",""
"html-keyboard-response","5","69261","0.0-5.0","5f18a80367ef6b0bbc5f3720","650c16f0f2faf8d7a0d14c09","651c1c335a787e07d59a9088","18066"," ","<p>Welcome, and thank you very much for your time!</p>
      <p>In this experiment, you'll be a language expert who's been asked to take a look at words that Earth has received in its first communication with aliens. Your task, in this first part of the experiment, is to pay close attention to the words you'll be shown; later, world leaders will ask you questions on what you saw. The words will be shown to you quite quickly; it seems that the aliens were in a hurry :-)</p>
      <p>Press the spacebar to continue.<p>","","","","","","","","",""
"html-keyboard-response","6","69323","0.0-6.0","5f18a80367ef6b0bbc5f3720","650c16f0f2faf8d7a0d14c09","651c1c335a787e07d59a9088","null","null","<p style=""font-size: 120px; font-family: BACS""> </p>","","","","","","","","",""
"html-keyboard-response","7","77099","0.0-7.0","5f18a80367ef6b0bbc5f3720","650c16f0f2faf8d7a0d14c09","651c1c335a787e07d59a9088","7776"," ","<p>Here is an example of the words you'll see:</p>
      <img src='esempio.png' height='400px'>
      <p>When you're ready to begin, press the spacebar.</p></div>","","","","","","","","",""
"html-keyboard-response","8","78102","0.0-8.0-0.0","5f18a80367ef6b0bbc5f3720","650c16f0f2faf8d7a0d14c09","651c1c335a787e07d59a9088","null","null","<p style=""font-size: 60px; font-family: BACS"">OAblcQONk</p>","","","","","","","","",""
"html-keyboard-response","9","79110","0.0-8.0-0.1","5f18a80367ef6b0bbc5f3720","650c16f0f2faf8d7a0d14c09","651c1c335a787e07d59a9088","null","null","<p style=""font-size: 60px; font-family: BACS"">KAERMOdOP</p>","","","","","","","","",""
"html-keyboard-response","10","80124","0.0-8.0-0.2","5f18a80367ef6b0bbc5f3720","650c16f0f2faf8d7a0d14c09","651c1c335a787e07d59a9088","null","null","<p style=""font-size: 60px; font-family: BACS"">GNAcamZb</p>","","","","","","","","",""
"html-keyboard-response","11","81131","0.0-8.0-0.3","5f18a80367ef6b0bbc5f3720","650c16f0f2faf8d7a0d14c09","651c1c335a787e07d59a9088","null","null","<p style=""font-size: 60px; font-family: BACS"">hChYPTl</p>","","","","","","","","",""
"html-keyboard-response","12","82142","0.0-8.0-0.4","5f18a80367ef6b0bbc5f3720","650c16f0f2faf8d7a0d14c09","651c1c335a787e07d59a9088","null","null","<p style=""font-size: 60px; font-family: BACS"">NaAQdmZb</p>","","","","","","","","",""
"html-keyboard-response","13","83150","0.0-8.0-0.5","5f18a80367ef6b0bbc5f3720","650c16f0f2faf8d7a0d14c09","651c1c335a787e07d59a9088","null","null","<p style=""font-size: 60px; font-family: BACS"">RKYkTRkY</p>","","","","","","","","",""
"html-keyboard-response","14","84157","0.0-8.0-0.6","5f18a80367ef6b0bbc5f3720","650c16f0f2faf8d7a0d14c09","651c1c335a787e07d59a9088","null","null","<p style=""font-size: 60px; font-family: BACS"">btlckPTl</p>","","","","","","","","",""
"html-keyboard-response","15","85167","0.0-8.0-0.7","5f18a80367ef6b0bbc5f3720","650c16f0f2faf8d7a0d14c09","651c1c335a787e07d59a9088","null","null","<p style=""font-size: 60px; font-family: BACS"">lkAkmZb</p>","","","","","","","","",""
"html-keyboard-response","16","86176","0.0-8.0-0.8","5f18a80367ef6b0bbc5f3720","650c16f0f2faf8d7a0d14c09","651c1c335a787e07d59a9088","null","null","<p style=""font-size: 60px; font-family: BACS"">OAblcGUa</p>","","","","","","","","",""
"html-keyboard-response","17","87190","0.0-8.0-0.9","5f18a80367ef6b0bbc5f3720","650c16f0f2faf8d7a0d14c09","651c1c335a787e07d59a9088","null","null","<p style=""font-size: 60px; font-family: BACS"">lKdbcTRkY</p>","","","","","","","","",""
"html-keyboard-response","18","88196","0.0-8.0-0.10","5f18a80367ef6b0bbc5f3720","650c16f0f2faf8d7a0d14c09","651c1c335a787e07d59a9088","null","null","<p style=""font-size: 60px; font-family: BACS"">KElBmKcD</p>","","","","","","","","",""
"html-keyboard-response","19","89204","0.0-8.0-0.11","5f18a80367ef6b0bbc5f3720","650c16f0f2faf8d7a0d14c09","651c1c335a787e07d59a9088","null","null","<p style=""font-size: 60px; font-family: BACS"">ArQuQONk</p>","","","","","","","","",""
"html-keyboard-response","20","90212","0.0-8.0-0.12","5f18a80367ef6b0bbc5f3720","650c16f0f2faf8d7a0d14c09","651c1c335a787e07d59a9088","null","null","<p style=""font-size: 60px; font-family: BACS"">DBPhcTRkY</p>","","","","","","","","",""
"html-keyboard-response","21","91221","0.0-8.0-0.13","5f18a80367ef6b0bbc5f3720","650c16f0f2faf8d7a0d14c09","651c1c335a787e07d59a9088","null","null","<p style=""font-size: 60px; font-family: BACS"">OAblcYbN</p>","","","","","","","","",""
"html-keyboard-response","22","92233","0.0-8.0-0.14","5f18a80367ef6b0bbc5f3720","650c16f0f2faf8d7a0d14c09","651c1c335a787e07d59a9088","null","null","<p style=""font-size: 60px; font-family: BACS"">vblrGUa</p>","","","","","","","","",""
"html-keyboard-response","23","93235","0.0-8.0-0.15","5f18a80367ef6b0bbc5f3720","650c16f0f2faf8d7a0d14c09","651c1c335a787e07d59a9088","null","null","<p style=""font-size: 60px; font-family: BACS"">CYPcOdOP</p>","","","","","","","","",""
"html-keyboard-response","24","94246","0.0-8.0-0.16","5f18a80367ef6b0bbc5f3720","650c16f0f2faf8d7a0d14c09","651c1c335a787e07d59a9088","null","null","<p style=""font-size: 60px; font-family: BACS"">NaAQdNYZu</p>","","","","","","","","",""
"html-keyboard-response","25","95261","0.0-8.0-0.17","5f18a80367ef6b0bbc5f3720","650c16f0f2faf8d7a0d14c09","651c1c335a787e07d59a9088","null","null","<p style=""font-size: 60px; font-family: BACS"">tmtEMRdCc</p>","","","","","","","","",""
"html-keyboard-response","26","96273","0.0-8.0-0.18","5f18a80367ef6b0bbc5f3720","650c16f0f2faf8d7a0d14c09","651c1c335a787e07d59a9088","null","null","<p style=""font-size: 60px; font-family: BACS"">hChYTRkY</p>","","","","","","","","",""
"html-keyboard-response","27","97287","0.0-8.0-0.19","5f18a80367ef6b0bbc5f3720","650c16f0f2faf8d7a0d14c09","651c1c335a787e07d59a9088","null","null","<p style=""font-size: 60px; font-family: BACS"">RKYkRdCc</p>","","","","","","","","",""
"html-keyboard-response","28","98301","0.0-8.0-0.20","5f18a80367ef6b0bbc5f3720","650c16f0f2faf8d7a0d14c09","651c1c335a787e07d59a9088","null","null","<p style=""font-size: 60px; font-family: BACS"">KAERMmKcD</p>","","","","","","","","",""
"html-keyboard-response","29","99309","0.0-8.0-0.21","5f18a80367ef6b0bbc5f3720","650c16f0f2faf8d7a0d14c09","651c1c335a787e07d59a9088","null","null","<p style=""font-size: 60px; font-family: BACS"">kZUbQONk</p>","","","","","","","","",""
"html-keyboard-response","30","100316","0.0-8.0-0.22","5f18a80367ef6b0bbc5f3720","650c16f0f2faf8d7a0d14c09","651c1c335a787e07d59a9088","null","null","<p style=""font-size: 60px; font-family: BACS"">tmtEMmKcD</p>","","","","","","","","",""
"html-keyboard-response","31","101330","0.0-8.0-0.23","5f18a80367ef6b0bbc5f3720","650c16f0f2faf8d7a0d14c09","651c1c335a787e07d59a9088","null","null","<p style=""font-size: 60px; font-family: BACS"">KElBOdOP</p>","","","","","","","","",""
"html-keyboard-response","32","102346","0.0-8.0-0.24","5f18a80367ef6b0bbc5f3720","650c16f0f2faf8d7a0d14c09","651c1c335a787e07d59a9088","null","null","<p style=""font-size: 60px; font-family: BACS"">rkYLGUa</p>","","","","","","","","",""
"html-keyboard-response","33","103353","0.0-8.0-0.25","5f18a80367ef6b0bbc5f3720","650c16f0f2faf8d7a0d14c09","651c1c335a787e07d59a9088","null","null","<p style=""font-size: 60px; font-family: BACS"">hChYRdCc</p>","","","","","","","","",""
"html-keyboard-response","34","104359","0.0-8.0-0.26","5f18a80367ef6b0bbc5f3720","650c16f0f2faf8d7a0d14c09","651c1c335a787e07d59a9088","null","null","<p style=""font-size: 60px; font-family: BACS"">DBPhcPTl</p>","","","","","","","","",""
"html-keyboard-response","35","105366","0.0-8.0-0.27","5f18a80367ef6b0bbc5f3720","650c16f0f2faf8d7a0d14c09","651c1c335a787e07d59a9088","null","null","<p style=""font-size: 60px; font-family: BACS"">btlckRdCc</p>","","","","","","","","",""
"html-keyboard-response","36","106379","0.0-8.0-0.28","5f18a80367ef6b0bbc5f3720","650c16f0f2faf8d7a0d14c09","651c1c335a787e07d59a9088","null","null","<p style=""font-size: 60px; font-family: BACS"">KAERMPTl</p>","","","","","","","","",""
"html-keyboard-response","37","107388","0.0-8.0-0.29","5f18a80367ef6b0bbc5f3720","650c16f0f2faf8d7a0d14c09","651c1c335a787e07d59a9088","null","null","<p style=""font-size: 60px; font-family: BACS"">ArQuYbN</p>","","","","","","","","",""
"html-keyboard-response","38","108394","0.0-8.0-0.30","5f18a80367ef6b0bbc5f3720","650c16f0f2faf8d7a0d14c09","651c1c335a787e07d59a9088","null","null","<p style=""font-size: 60px; font-family: BACS"">btlckmKcD</p>","","","","","","","","",""
"html-keyboard-response","39","109406","0.0-8.0-0.31","5f18a80367ef6b0bbc5f3720","650c16f0f2faf8d7a0d14c09","651c1c335a787e07d59a9088","null","null","<p style=""font-size: 60px; font-family: BACS"">dClOCTRkY</p>","","","","","","","","",""
"html-keyboard-response","40","110415","0.0-8.0-0.32","5f18a80367ef6b0bbc5f3720","650c16f0f2faf8d7a0d14c09","651c1c335a787e07d59a9088","null","null","<p style=""font-size: 60px; font-family: BACS"">tmtEMOdOP</p>","","","","","","","","",""
"html-keyboard-response","41","111430","0.0-8.0-0.33","5f18a80367ef6b0bbc5f3720","650c16f0f2faf8d7a0d14c09","651c1c335a787e07d59a9088","null","null","<p style=""font-size: 60px; font-family: BACS"">CYPcTRkY</p>","","","","","","","","",""
"html-keyboard-response","42","112438","0.0-8.0-0.34","5f18a80367ef6b0bbc5f3720","650c16f0f2faf8d7a0d14c09","651c1c335a787e07d59a9088","null","null","<p style=""font-size: 60px; font-family: BACS"">vblrQONk</p>","","","","","","","","",""
"html-keyboard-response","43","113446","0.0-8.0-0.35","5f18a80367ef6b0bbc5f3720","650c16f0f2faf8d7a0d14c09","651c1c335a787e07d59a9088","null","null","<p style=""font-size: 60px; font-family: BACS"">dClOCmKcD</p>","","","","","","","","",""
"html-keyboard-response","44","114456","0.0-8.0-0.36","5f18a80367ef6b0bbc5f3720","650c16f0f2faf8d7a0d14c09","651c1c335a787e07d59a9088","null","null","<p style=""font-size: 60px; font-family: BACS"">kZUbNYZu</p>","","","","","","","","",""
"html-keyboard-response","45","115470","0.0-8.0-0.37","5f18a80367ef6b0bbc5f3720","650c16f0f2faf8d7a0d14c09","651c1c335a787e07d59a9088","null","null","<p style=""font-size: 60px; font-family: BACS"">NaAQdQONk</p>","","","","","","","","",""
"html-keyboard-response","46","116482","0.0-8.0-0.38","5f18a80367ef6b0bbc5f3720","650c16f0f2faf8d7a0d14c09","651c1c335a787e07d59a9088","null","null","<p style=""font-size: 60px; font-family: BACS"">aONdNYZu</p>","","","","","","","","",""
"html-keyboard-response","47","117489","0.0-8.0-0.39","5f18a80367ef6b0bbc5f3720","650c16f0f2faf8d7a0d14c09","651c1c335a787e07d59a9088","null","null","<p style=""font-size: 60px; font-family: BACS"">kZUbGUa</p>","","","","","","","","",""
"html-keyboard-response","48","118504","0.0-8.0-0.40","5f18a80367ef6b0bbc5f3720","650c16f0f2faf8d7a0d14c09","651c1c335a787e07d59a9088","null","null","<p style=""font-size: 60px; font-family: BACS"">rkYLYbN</p>","","","","","","","","",""
"html-keyboard-response","49","119506","0.0-8.0-0.41","5f18a80367ef6b0bbc5f3720","650c16f0f2faf8d7a0d14c09","651c1c335a787e07d59a9088","null","null","<p style=""font-size: 60px; font-family: BACS"">lkAkNYZu</p>","","","","","","","","",""
"html-keyboard-response","50","120507","0.0-8.0-0.42","5f18a80367ef6b0bbc5f3720","650c16f0f2faf8d7a0d14c09","651c1c335a787e07d59a9088","null","null","<p style=""font-size: 60px; font-family: BACS"">aONdmZb</p>","","","","","","","","",""
"html-keyboard-response","51","121519","0.0-8.0-0.43","5f18a80367ef6b0bbc5f3720","650c16f0f2faf8d7a0d14c09","651c1c335a787e07d59a9088","null","null","<p style=""font-size: 60px; font-family: BACS"">KElBRdCc</p>","","","","","","","","",""
"html-keyboard-response","52","122525","0.0-8.0-0.44","5f18a80367ef6b0bbc5f3720","650c16f0f2faf8d7a0d14c09","651c1c335a787e07d59a9088","null","null","<p style=""font-size: 60px; font-family: BACS"">LdrbvNYZu</p>","","","","","","","","",""
"html-keyboard-response","53","123533","0.0-8.0-0.45","5f18a80367ef6b0bbc5f3720","650c16f0f2faf8d7a0d14c09","651c1c335a787e07d59a9088","null","null","<p style=""font-size: 60px; font-family: BACS"">RKYkmKcD</p>","","","","","","","","",""
"html-keyboard-response","54","124543","0.0-8.0-0.46","5f18a80367ef6b0bbc5f3720","650c16f0f2faf8d7a0d14c09","651c1c335a787e07d59a9088","null","null","<p style=""font-size: 60px; font-family: BACS"">lKdbcRdCc</p>","","","","","","","","",""
"html-keyboard-response","55","125548","0.0-8.0-0.47","5f18a80367ef6b0bbc5f3720","650c16f0f2faf8d7a0d14c09","651c1c335a787e07d59a9088","null","null","<p style=""font-size: 60px; font-family: BACS"">vblrYbN</p>","","","","","","","","",""
"html-keyboard-response","56","126563","0.0-8.0-0.48","5f18a80367ef6b0bbc5f3720","650c16f0f2faf8d7a0d14c09","651c1c335a787e07d59a9088","null","null","<p style=""font-size: 60px; font-family: BACS"">GNAcaQONk</p>","","","","","","","","",""
"html-keyboard-response","57","127565","0.0-8.0-0.49","5f18a80367ef6b0bbc5f3720","650c16f0f2faf8d7a0d14c09","651c1c335a787e07d59a9088","null","null","<p style=""font-size: 60px; font-family: BACS"">lkAkYbN</p>","","","","","","","","",""
"html-keyboard-response","58","128569","0.0-8.0-0.50","5f18a80367ef6b0bbc5f3720","650c16f0f2faf8d7a0d14c09","651c1c335a787e07d59a9088","null","null","<p style=""font-size: 60px; font-family: BACS"">aONdGUa</p>","","","","","","","","",""
"html-keyboard-response","59","129573","0.0-8.0-0.51","5f18a80367ef6b0bbc5f3720","650c16f0f2faf8d7a0d14c09","651c1c335a787e07d59a9088","null","null","<p style=""font-size: 60px; font-family: BACS"">lKdbcPTl</p>","","","","","","","","",""
"html-keyboard-response","60","130581","0.0-8.0-0.52","5f18a80367ef6b0bbc5f3720","650c16f0f2faf8d7a0d14c09","651c1c335a787e07d59a9088","null","null","<p style=""font-size: 60px; font-family: BACS"">CYPcmKcD</p>","","","","","","","","",""
"html-keyboard-response","61","131592","0.0-8.0-0.53","5f18a80367ef6b0bbc5f3720","650c16f0f2faf8d7a0d14c09","651c1c335a787e07d59a9088","null","null","<p style=""font-size: 60px; font-family: BACS"">LdrbvQONk</p>","","","","","","","","",""
"html-keyboard-response","62","132604","0.0-8.0-0.54","5f18a80367ef6b0bbc5f3720","650c16f0f2faf8d7a0d14c09","651c1c335a787e07d59a9088","null","null","<p style=""font-size: 60px; font-family: BACS"">ArQuNYZu</p>","","","","","","","","",""
"html-keyboard-response","63","133606","0.0-8.0-0.55","5f18a80367ef6b0bbc5f3720","650c16f0f2faf8d7a0d14c09","651c1c335a787e07d59a9088","null","null","<p style=""font-size: 60px; font-family: BACS"">DBPhcRdCc</p>","","","","","","","","",""
"html-keyboard-response","64","134617","0.0-8.0-0.56","5f18a80367ef6b0bbc5f3720","650c16f0f2faf8d7a0d14c09","651c1c335a787e07d59a9088","null","null","<p style=""font-size: 60px; font-family: BACS"">KElBTRkY</p>","","","","","","","","",""
"html-keyboard-response","65","135620","0.0-8.0-0.57","5f18a80367ef6b0bbc5f3720","650c16f0f2faf8d7a0d14c09","651c1c335a787e07d59a9088","null","null","<p style=""font-size: 60px; font-family: BACS"">hChYOdOP</p>","","","","","","","","",""
"html-keyboard-response","66","136630","0.0-8.0-0.58","5f18a80367ef6b0bbc5f3720","650c16f0f2faf8d7a0d14c09","651c1c335a787e07d59a9088","null","null","<p style=""font-size: 60px; font-family: BACS"">LdrbvmZb</p>","","","","","","","","",""
"html-keyboard-response","67","137644","0.0-8.0-0.59","5f18a80367ef6b0bbc5f3720","650c16f0f2faf8d7a0d14c09","651c1c335a787e07d59a9088","null","null","<p style=""font-size: 60px; font-family: BACS"">GNAcaYbN</p>","","","","","","","","",""
"html-keyboard-response","68","138654","0.0-8.0-0.60","5f18a80367ef6b0bbc5f3720","650c16f0f2faf8d7a0d14c09","651c1c335a787e07d59a9088","null","null","<p style=""font-size: 60px; font-family: BACS"">btlckTRkY</p>","","","","","","","","",""
"html-keyboard-response","69","139655","0.0-8.0-0.61","5f18a80367ef6b0bbc5f3720","650c16f0f2faf8d7a0d14c09","651c1c335a787e07d59a9088","null","null","<p style=""font-size: 60px; font-family: BACS"">LdrbvYbN</p>","","","","","","","","",""
"html-keyboard-response","70","140666","0.0-8.0-0.62","5f18a80367ef6b0bbc5f3720","650c16f0f2faf8d7a0d14c09","651c1c335a787e07d59a9088","null","null","<p style=""font-size: 60px; font-family: BACS"">rkYLQONk</p>","","","","","","","","",""
"html-keyboard-response","71","141670","0.0-8.0-0.63","5f18a80367ef6b0bbc5f3720","650c16f0f2faf8d7a0d14c09","651c1c335a787e07d59a9088","null","null","<p style=""font-size: 60px; font-family: BACS"">aONdYbN</p>","","","","","","","","",""
"html-keyboard-response","72","142682","0.0-8.0-0.64","5f18a80367ef6b0bbc5f3720","650c16f0f2faf8d7a0d14c09","651c1c335a787e07d59a9088","null","null","<p style=""font-size: 60px; font-family: BACS"">GNAcaNYZu</p>","","","","","","","","",""
"html-keyboard-response","73","143691","0.0-8.0-0.65","5f18a80367ef6b0bbc5f3720","650c16f0f2faf8d7a0d14c09","651c1c335a787e07d59a9088","null","null","<p style=""font-size: 60px; font-family: BACS"">KAERMRdCc</p>","","","","","","","","",""
"html-keyboard-response","74","144694","0.0-8.0-0.66","5f18a80367ef6b0bbc5f3720","650c16f0f2faf8d7a0d14c09","651c1c335a787e07d59a9088","null","null","<p style=""font-size: 60px; font-family: BACS"">vblrmZb</p>","","","","","","","","",""
"html-keyboard-response","75","145702","0.0-8.0-0.67","5f18a80367ef6b0bbc5f3720","650c16f0f2faf8d7a0d14c09","651c1c335a787e07d59a9088","null","null","<p style=""font-size: 60px; font-family: BACS"">RKYkOdOP</p>","","","","","","","","",""
"html-keyboard-response","76","146709","0.0-8.0-0.68","5f18a80367ef6b0bbc5f3720","650c16f0f2faf8d7a0d14c09","651c1c335a787e07d59a9088","null","null","<p style=""font-size: 60px; font-family: BACS"">CYPcPTl</p>","","","","","","","","",""
"html-keyboard-response","77","147719","0.0-8.0-0.69","5f18a80367ef6b0bbc5f3720","650c16f0f2faf8d7a0d14c09","651c1c335a787e07d59a9088","null","null","<p style=""font-size: 60px; font-family: BACS"">lkAkGUa</p>","","","","","","","","",""
"html-keyboard-response","78","148731","0.0-8.0-0.70","5f18a80367ef6b0bbc5f3720","650c16f0f2faf8d7a0d14c09","651c1c335a787e07d59a9088","null","null","<p style=""font-size: 60px; font-family: BACS"">dClOCPTl</p>","","","","","","","","",""
"html-keyboard-response","79","149740","0.0-8.0-0.71","5f18a80367ef6b0bbc5f3720","650c16f0f2faf8d7a0d14c09","651c1c335a787e07d59a9088","null","null","<p style=""font-size: 60px; font-family: BACS"">DBPhcmKcD</p>","","","","","","","","",""
"html-keyboard-response","80","150747","0.0-8.0-0.72","5f18a80367ef6b0bbc5f3720","650c16f0f2faf8d7a0d14c09","651c1c335a787e07d59a9088","null","null","<p style=""font-size: 60px; font-family: BACS"">NaAQdGUa</p>","","","","","","","","",""
"html-keyboard-response","81","151751","0.0-8.0-0.73","5f18a80367ef6b0bbc5f3720","650c16f0f2faf8d7a0d14c09","651c1c335a787e07d59a9088","null","null","<p style=""font-size: 60px; font-family: BACS"">kZUbmZb</p>","","","","","","","","",""
"html-keyboard-response","82","152761","0.0-8.0-0.74","5f18a80367ef6b0bbc5f3720","650c16f0f2faf8d7a0d14c09","651c1c335a787e07d59a9088","null","null","<p style=""font-size: 60px; font-family: BACS"">dClOCOdOP</p>","","","","","","","","",""
"html-keyboard-response","83","153776","0.0-8.0-0.75","5f18a80367ef6b0bbc5f3720","650c16f0f2faf8d7a0d14c09","651c1c335a787e07d59a9088","null","null","<p style=""font-size: 60px; font-family: BACS"">rkYLNYZu</p>","","","","","","","","",""
"html-keyboard-response","84","154781","0.0-8.0-0.76","5f18a80367ef6b0bbc5f3720","650c16f0f2faf8d7a0d14c09","651c1c335a787e07d59a9088","null","null","<p style=""font-size: 60px; font-family: BACS"">ArQuGUa</p>","","","","","","","","",""
"html-keyboard-response","85","155784","0.0-8.0-0.77","5f18a80367ef6b0bbc5f3720","650c16f0f2faf8d7a0d14c09","651c1c335a787e07d59a9088","null","null","<p style=""font-size: 60px; font-family: BACS"">OAblcmZb</p>","","","","","","","","",""
"html-keyboard-response","86","156790","0.0-8.0-0.78","5f18a80367ef6b0bbc5f3720","650c16f0f2faf8d7a0d14c09","651c1c335a787e07d59a9088","null","null","<p style=""font-size: 60px; font-family: BACS"">lKdbcOdOP</p>","","","","","","","","",""
"html-keyboard-response","87","157816","0.0-8.0-0.79","5f18a80367ef6b0bbc5f3720","650c16f0f2faf8d7a0d14c09","651c1c335a787e07d59a9088","null","null","<p style=""font-size: 60px; font-family: BACS"">tmtEMPTl</p>","","","","","","","","",""
"html-keyboard-response","88","168031","0.0-9.0","5f18a80367ef6b0bbc5f3720","650c16f0f2faf8d7a0d14c09","651c1c335a787e07d59a9088","10215"," ","<p>Great, you've seen the first block of words. You may now take a short break.</p>
      <p>Press the spacebar when you're ready to continue.</p>","","","","","","","","",""
"html-keyboard-response","89","169041","0.0-10.0-0.0","5f18a80367ef6b0bbc5f3720","650c16f0f2faf8d7a0d14c09","651c1c335a787e07d59a9088","null","null","<p style=""font-size: 60px; font-family: BACS"">RKYkTRkY</p>","","","","","","","","",""
"html-keyboard-response","90","170050","0.0-10.0-0.1","5f18a80367ef6b0bbc5f3720","650c16f0f2faf8d7a0d14c09","651c1c335a787e07d59a9088","null","null","<p style=""font-size: 60px; font-family: BACS"">dClOCPTl</p>","","","","","","","","",""
"html-keyboard-response","91","171059","0.0-10.0-0.2","5f18a80367ef6b0bbc5f3720","650c16f0f2faf8d7a0d14c09","651c1c335a787e07d59a9088","null","null","<p style=""font-size: 60px; font-family: BACS"">RKYkOdOP</p>","","","","","","","","",""
"html-keyboard-response","92","172065","0.0-10.0-0.3","5f18a80367ef6b0bbc5f3720","650c16f0f2faf8d7a0d14c09","651c1c335a787e07d59a9088","null","null","<p style=""font-size: 60px; font-family: BACS"">OAblcmZb</p>","","","","","","","","",""
"html-keyboard-response","93","173078","0.0-10.0-0.4","5f18a80367ef6b0bbc5f3720","650c16f0f2faf8d7a0d14c09","651c1c335a787e07d59a9088","null","null","<p style=""font-size: 60px; font-family: BACS"">CYPcPTl</p>","","","","","","","","",""
"html-keyboard-response","94","174092","0.0-10.0-0.5","5f18a80367ef6b0bbc5f3720","650c16f0f2faf8d7a0d14c09","651c1c335a787e07d59a9088","null","null","<p style=""font-size: 60px; font-family: BACS"">vblrGUa</p>","","","","","","","","",""
"html-keyboard-response","95","175101","0.0-10.0-0.6","5f18a80367ef6b0bbc5f3720","650c16f0f2faf8d7a0d14c09","651c1c335a787e07d59a9088","null","null","<p style=""font-size: 60px; font-family: BACS"">CYPcmKcD</p>","","","","","","","","",""
"html-keyboard-response","96","176114","0.0-10.0-0.7","5f18a80367ef6b0bbc5f3720","650c16f0f2faf8d7a0d14c09","651c1c335a787e07d59a9088","null","null","<p style=""font-size: 60px; font-family: BACS"">LdrbvYbN</p>","","","","","","","","",""
"html-keyboard-response","97","177126","0.0-10.0-0.8","5f18a80367ef6b0bbc5f3720","650c16f0f2faf8d7a0d14c09","651c1c335a787e07d59a9088","null","null","<p style=""font-size: 60px; font-family: BACS"">KAERMRdCc</p>","","","","","","","","",""
"html-keyboard-response","98","178140","0.0-10.0-0.9","5f18a80367ef6b0bbc5f3720","650c16f0f2faf8d7a0d14c09","651c1c335a787e07d59a9088","null","null","<p style=""font-size: 60px; font-family: BACS"">dClOCmKcD</p>","","","","","","","","",""
"html-keyboard-response","99","179152","0.0-10.0-0.10","5f18a80367ef6b0bbc5f3720","650c16f0f2faf8d7a0d14c09","651c1c335a787e07d59a9088","null","null","<p style=""font-size: 60px; font-family: BACS"">lkAkYbN</p>","","","","","","","","",""
"html-keyboard-response","100","180160","0.0-10.0-0.11","5f18a80367ef6b0bbc5f3720","650c16f0f2faf8d7a0d14c09","651c1c335a787e07d59a9088","null","null","<p style=""font-size: 60px; font-family: BACS"">OAblcGUa</p>","","","","","","","","",""
"html-keyboard-response","101","181168","0.0-10.0-0.12","5f18a80367ef6b0bbc5f3720","650c16f0f2faf8d7a0d14c09","651c1c335a787e07d59a9088","null","null","<p style=""font-size: 60px; font-family: BACS"">DBPhcmKcD</p>","","","","","","","","",""
"html-keyboard-response","102","182177","0.0-10.0-0.13","5f18a80367ef6b0bbc5f3720","650c16f0f2faf8d7a0d14c09","651c1c335a787e07d59a9088","null","null","<p style=""font-size: 60px; font-family: BACS"">OAblcQONk</p>","","","","","","","","",""
"html-keyboard-response","103","183182","0.0-10.0-0.14","5f18a80367ef6b0bbc5f3720","650c16f0f2faf8d7a0d14c09","651c1c335a787e07d59a9088","null","null","<p style=""font-size: 60px; font-family: BACS"">LdrbvmZb</p>","","","","","","","","",""
"html-keyboard-response","104","184194","0.0-10.0-0.15","5f18a80367ef6b0bbc5f3720","650c16f0f2faf8d7a0d14c09","651c1c335a787e07d59a9088","null","null","<p style=""font-size: 60px; font-family: BACS"">tmtEMRdCc</p>","","","","","","","","",""
"html-keyboard-response","105","185204","0.0-10.0-0.16","5f18a80367ef6b0bbc5f3720","650c16f0f2faf8d7a0d14c09","651c1c335a787e07d59a9088","null","null","<p style=""font-size: 60px; font-family: BACS"">lKdbcPTl</p>","","","","","","","","",""
"html-keyboard-response","106","186219","0.0-10.0-0.17","5f18a80367ef6b0bbc5f3720","650c16f0f2faf8d7a0d14c09","651c1c335a787e07d59a9088","null","null","<p style=""font-size: 60px; font-family: BACS"">KAERMmKcD</p>","","","","","","","","",""
"html-keyboard-response","107","187229","0.0-10.0-0.18","5f18a80367ef6b0bbc5f3720","650c16f0f2faf8d7a0d14c09","651c1c335a787e07d59a9088","null","null","<p style=""font-size: 60px; font-family: BACS"">lkAkNYZu</p>","","","","","","","","",""
"html-keyboard-response","108","188233","0.0-10.0-0.19","5f18a80367ef6b0bbc5f3720","650c16f0f2faf8d7a0d14c09","651c1c335a787e07d59a9088","null","null","<p style=""font-size: 60px; font-family: BACS"">KElBRdCc</p>","","","","","","","","",""
"html-keyboard-response","109","189243","0.0-10.0-0.20","5f18a80367ef6b0bbc5f3720","650c16f0f2faf8d7a0d14c09","651c1c335a787e07d59a9088","null","null","<p style=""font-size: 60px; font-family: BACS"">rkYLQONk</p>","","","","","","","","",""
"html-keyboard-response","110","190248","0.0-10.0-0.21","5f18a80367ef6b0bbc5f3720","650c16f0f2faf8d7a0d14c09","651c1c335a787e07d59a9088","null","null","<p style=""font-size: 60px; font-family: BACS"">lKdbcOdOP</p>","","","","","","","","",""
"html-keyboard-response","111","191255","0.0-10.0-0.22","5f18a80367ef6b0bbc5f3720","650c16f0f2faf8d7a0d14c09","651c1c335a787e07d59a9088","null","null","<p style=""font-size: 60px; font-family: BACS"">LdrbvNYZu</p>","","","","","","","","",""
"html-keyboard-response","112","192261","0.0-10.0-0.23","5f18a80367ef6b0bbc5f3720","650c16f0f2faf8d7a0d14c09","651c1c335a787e07d59a9088","null","null","<p style=""font-size: 60px; font-family: BACS"">lkAkmZb</p>","","","","","","","","",""
"html-keyboard-response","113","193275","0.0-10.0-0.24","5f18a80367ef6b0bbc5f3720","650c16f0f2faf8d7a0d14c09","651c1c335a787e07d59a9088","null","null","<p style=""font-size: 60px; font-family: BACS"">tmtEMPTl</p>","","","","","","","","",""
"html-keyboard-response","114","194289","0.0-10.0-0.25","5f18a80367ef6b0bbc5f3720","650c16f0f2faf8d7a0d14c09","651c1c335a787e07d59a9088","null","null","<p style=""font-size: 60px; font-family: BACS"">aONdGUa</p>","","","","","","","","",""
"html-keyboard-response","115","195294","0.0-10.0-0.26","5f18a80367ef6b0bbc5f3720","650c16f0f2faf8d7a0d14c09","651c1c335a787e07d59a9088","null","null","<p style=""font-size: 60px; font-family: BACS"">btlckPTl</p>","","","","","","","","",""
"html-keyboard-response","116","196303","0.0-10.0-0.27","5f18a80367ef6b0bbc5f3720","650c16f0f2faf8d7a0d14c09","651c1c335a787e07d59a9088","null","null","<p style=""font-size: 60px; font-family: BACS"">ArQuNYZu</p>","","","","","","","","",""
"html-keyboard-response","117","197315","0.0-10.0-0.28","5f18a80367ef6b0bbc5f3720","650c16f0f2faf8d7a0d14c09","651c1c335a787e07d59a9088","null","null","<p style=""font-size: 60px; font-family: BACS"">KElBmKcD</p>","","","","","","","","",""
"html-keyboard-response","118","198322","0.0-10.0-0.29","5f18a80367ef6b0bbc5f3720","650c16f0f2faf8d7a0d14c09","651c1c335a787e07d59a9088","null","null","<p style=""font-size: 60px; font-family: BACS"">kZUbGUa</p>","","","","","","","","",""
"html-keyboard-response","119","199331","0.0-10.0-0.30","5f18a80367ef6b0bbc5f3720","650c16f0f2faf8d7a0d14c09","651c1c335a787e07d59a9088","null","null","<p style=""font-size: 60px; font-family: BACS"">dClOCTRkY</p>","","","","","","","","",""
"html-keyboard-response","120","200338","0.0-10.0-0.31","5f18a80367ef6b0bbc5f3720","650c16f0f2faf8d7a0d14c09","651c1c335a787e07d59a9088","null","null","<p style=""font-size: 60px; font-family: BACS"">GNAcamZb</p>","","","","","","","","",""
"html-keyboard-response","121","201345","0.0-10.0-0.32","5f18a80367ef6b0bbc5f3720","650c16f0f2faf8d7a0d14c09","651c1c335a787e07d59a9088","null","null","<p style=""font-size: 60px; font-family: BACS"">hChYRdCc</p>","","","","","","","","",""
"html-keyboard-response","122","202354","0.0-10.0-0.33","5f18a80367ef6b0bbc5f3720","650c16f0f2faf8d7a0d14c09","651c1c335a787e07d59a9088","null","null","<p style=""font-size: 60px; font-family: BACS"">RKYkmKcD</p>","","","","","","","","",""
"html-keyboard-response","123","203360","0.0-10.0-0.34","5f18a80367ef6b0bbc5f3720","650c16f0f2faf8d7a0d14c09","651c1c335a787e07d59a9088","null","null","<p style=""font-size: 60px; font-family: BACS"">LdrbvQONk</p>","","","","","","","","",""
"html-keyboard-response","124","204371","0.0-10.0-0.35","5f18a80367ef6b0bbc5f3720","650c16f0f2faf8d7a0d14c09","651c1c335a787e07d59a9088","null","null","<p style=""font-size: 60px; font-family: BACS"">kZUbmZb</p>","","","","","","","","",""
"html-keyboard-response","125","205377","0.0-10.0-0.36","5f18a80367ef6b0bbc5f3720","650c16f0f2faf8d7a0d14c09","651c1c335a787e07d59a9088","null","null","<p style=""font-size: 60px; font-family: BACS"">tmtEMOdOP</p>","","","","","","","","",""
"html-keyboard-response","126","206385","0.0-10.0-0.37","5f18a80367ef6b0bbc5f3720","650c16f0f2faf8d7a0d14c09","651c1c335a787e07d59a9088","null","null","<p style=""font-size: 60px; font-family: BACS"">ArQuGUa</p>","","","","","","","","",""
"html-keyboard-response","127","207392","0.0-10.0-0.38","5f18a80367ef6b0bbc5f3720","650c16f0f2faf8d7a0d14c09","651c1c335a787e07d59a9088","null","null","<p style=""font-size: 60px; font-family: BACS"">GNAcaYbN</p>","","","","","","","","",""
"html-keyboard-response","128","208404","0.0-10.0-0.39","5f18a80367ef6b0bbc5f3720","650c16f0f2faf8d7a0d14c09","651c1c335a787e07d59a9088","null","null","<p style=""font-size: 60px; font-family: BACS"">btlckmKcD</p>","","","","","","","","",""
"html-keyboard-response","129","209418","0.0-10.0-0.40","5f18a80367ef6b0bbc5f3720","650c16f0f2faf8d7a0d14c09","651c1c335a787e07d59a9088","null","null","<p style=""font-size: 60px; font-family: BACS"">rkYLGUa</p>","","","","","","","","",""
"html-keyboard-response","130","210424","0.0-10.0-0.41","5f18a80367ef6b0bbc5f3720","650c16f0f2faf8d7a0d14c09","651c1c335a787e07d59a9088","null","null","<p style=""font-size: 60px; font-family: BACS"">tmtEMmKcD</p>","","","","","","","","",""
"html-keyboard-response","131","211431","0.0-10.0-0.42","5f18a80367ef6b0bbc5f3720","650c16f0f2faf8d7a0d14c09","651c1c335a787e07d59a9088","null","null","<p style=""font-size: 60px; font-family: BACS"">lKdbcRdCc</p>","","","","","","","","",""
"html-keyboard-response","132","212435","0.0-10.0-0.43","5f18a80367ef6b0bbc5f3720","650c16f0f2faf8d7a0d14c09","651c1c335a787e07d59a9088","null","null","<p style=""font-size: 60px; font-family: BACS"">lkAkGUa</p>","","","","","","","","",""
"html-keyboard-response","133","213437","0.0-10.0-0.44","5f18a80367ef6b0bbc5f3720","650c16f0f2faf8d7a0d14c09","651c1c335a787e07d59a9088","null","null","<p style=""font-size: 60px; font-family: BACS"">CYPcOdOP</p>","","","","","","","","",""
"html-keyboard-response","134","214440","0.0-10.0-0.45","5f18a80367ef6b0bbc5f3720","650c16f0f2faf8d7a0d14c09","651c1c335a787e07d59a9088","null","null","<p style=""font-size: 60px; font-family: BACS"">btlckRdCc</p>","","","","","","","","",""
"html-keyboard-response","135","215443","0.0-10.0-0.46","5f18a80367ef6b0bbc5f3720","650c16f0f2faf8d7a0d14c09","651c1c335a787e07d59a9088","null","null","<p style=""font-size: 60px; font-family: BACS"">dClOCOdOP</p>","","","","","","","","",""
"html-keyboard-response","136","216455","0.0-10.0-0.47","5f18a80367ef6b0bbc5f3720","650c16f0f2faf8d7a0d14c09","651c1c335a787e07d59a9088","null","null","<p style=""font-size: 60px; font-family: BACS"">aONdYbN</p>","","","","","","","","",""
"html-keyboard-response","137","217471","0.0-10.0-0.48","5f18a80367ef6b0bbc5f3720","650c16f0f2faf8d7a0d14c09","651c1c335a787e07d59a9088","null","null","<p style=""font-size: 60px; font-family: BACS"">NaAQdmZb</p>","","","","","","","","",""
"html-keyboard-response","138","218474","0.0-10.0-0.49","5f18a80367ef6b0bbc5f3720","650c16f0f2faf8d7a0d14c09","651c1c335a787e07d59a9088","null","null","<p style=""font-size: 60px; font-family: BACS"">rkYLNYZu</p>","","","","","","","","",""
"html-keyboard-response","139","219485","0.0-10.0-0.50","5f18a80367ef6b0bbc5f3720","650c16f0f2faf8d7a0d14c09","651c1c335a787e07d59a9088","null","null","<p style=""font-size: 60px; font-family: BACS"">ArQuQONk</p>","","","","","","","","",""
"html-keyboard-response","140","220494","0.0-10.0-0.51","5f18a80367ef6b0bbc5f3720","650c16f0f2faf8d7a0d14c09","651c1c335a787e07d59a9088","null","null","<p style=""font-size: 60px; font-family: BACS"">RKYkRdCc</p>","","","","","","","","",""
"html-keyboard-response","141","221509","0.0-10.0-0.52","5f18a80367ef6b0bbc5f3720","650c16f0f2faf8d7a0d14c09","651c1c335a787e07d59a9088","null","null","<p style=""font-size: 60px; font-family: BACS"">vblrYbN</p>","","","","","","","","",""
"html-keyboard-response","142","222510","0.0-10.0-0.53","5f18a80367ef6b0bbc5f3720","650c16f0f2faf8d7a0d14c09","651c1c335a787e07d59a9088","null","null","<p style=""font-size: 60px; font-family: BACS"">CYPcTRkY</p>","","","","","","","","",""
"html-keyboard-response","143","223519","0.0-10.0-0.54","5f18a80367ef6b0bbc5f3720","650c16f0f2faf8d7a0d14c09","651c1c335a787e07d59a9088","null","null","<p style=""font-size: 60px; font-family: BACS"">OAblcYbN</p>","","","","","","","","",""
"html-keyboard-response","144","224522","0.0-10.0-0.55","5f18a80367ef6b0bbc5f3720","650c16f0f2faf8d7a0d14c09","651c1c335a787e07d59a9088","null","null","<p style=""font-size: 60px; font-family: BACS"">GNAcaNYZu</p>","","","","","","","","",""
"html-keyboard-response","145","225552","0.0-10.0-0.56","5f18a80367ef6b0bbc5f3720","650c16f0f2faf8d7a0d14c09","651c1c335a787e07d59a9088","null","null","<p style=""font-size: 60px; font-family: BACS"">DBPhcRdCc</p>","","","","","","","","",""
"html-keyboard-response","146","226565","0.0-10.0-0.57","5f18a80367ef6b0bbc5f3720","650c16f0f2faf8d7a0d14c09","651c1c335a787e07d59a9088","null","null","<p style=""font-size: 60px; font-family: BACS"">GNAcaQONk</p>","","","","","","","","",""
"html-keyboard-response","147","227570","0.0-10.0-0.58","5f18a80367ef6b0bbc5f3720","650c16f0f2faf8d7a0d14c09","651c1c335a787e07d59a9088","null","null","<p style=""font-size: 60px; font-family: BACS"">NaAQdGUa</p>","","","","","","","","",""
"html-keyboard-response","148","228578","0.0-10.0-0.59","5f18a80367ef6b0bbc5f3720","650c16f0f2faf8d7a0d14c09","651c1c335a787e07d59a9088","null","null","<p style=""font-size: 60px; font-family: BACS"">hChYTRkY</p>","","","","","","","","",""
"html-keyboard-response","149","229583","0.0-10.0-0.60","5f18a80367ef6b0bbc5f3720","650c16f0f2faf8d7a0d14c09","651c1c335a787e07d59a9088","null","null","<p style=""font-size: 60px; font-family: BACS"">vblrmZb</p>","","","","","","","","",""
"html-keyboard-response","150","230595","0.0-10.0-0.61","5f18a80367ef6b0bbc5f3720","650c16f0f2faf8d7a0d14c09","651c1c335a787e07d59a9088","null","null","<p style=""font-size: 60px; font-family: BACS"">lKdbcTRkY</p>","","","","","","","","",""
"html-keyboard-response","151","231606","0.0-10.0-0.62","5f18a80367ef6b0bbc5f3720","650c16f0f2faf8d7a0d14c09","651c1c335a787e07d59a9088","null","null","<p style=""font-size: 60px; font-family: BACS"">aONdNYZu</p>","","","","","","","","",""
"html-keyboard-response","152","232613","0.0-10.0-0.63","5f18a80367ef6b0bbc5f3720","650c16f0f2faf8d7a0d14c09","651c1c335a787e07d59a9088","null","null","<p style=""font-size: 60px; font-family: BACS"">rkYLYbN</p>","","","","","","","","",""
"html-keyboard-response","153","233620","0.0-10.0-0.64","5f18a80367ef6b0bbc5f3720","650c16f0f2faf8d7a0d14c09","651c1c335a787e07d59a9088","null","null","<p style=""font-size: 60px; font-family: BACS"">hChYPTl</p>","","","","","","","","",""
"html-keyboard-response","154","234632","0.0-10.0-0.65","5f18a80367ef6b0bbc5f3720","650c16f0f2faf8d7a0d14c09","651c1c335a787e07d59a9088","null","null","<p style=""font-size: 60px; font-family: BACS"">KAERMOdOP</p>","","","","","","","","",""
"html-keyboard-response","155","235636","0.0-10.0-0.66","5f18a80367ef6b0bbc5f3720","650c16f0f2faf8d7a0d14c09","651c1c335a787e07d59a9088","null","null","<p style=""font-size: 60px; font-family: BACS"">KElBTRkY</p>","","","","","","","","",""
"html-keyboard-response","156","236637","0.0-10.0-0.67","5f18a80367ef6b0bbc5f3720","650c16f0f2faf8d7a0d14c09","651c1c335a787e07d59a9088","null","null","<p style=""font-size: 60px; font-family: BACS"">aONdmZb</p>","","","","","","","","",""
"html-keyboard-response","157","237645","0.0-10.0-0.68","5f18a80367ef6b0bbc5f3720","650c16f0f2faf8d7a0d14c09","651c1c335a787e07d59a9088","null","null","<p style=""font-size: 60px; font-family: BACS"">btlckTRkY</p>","","","","","","","","",""
"html-keyboard-response","158","238657","0.0-10.0-0.69","5f18a80367ef6b0bbc5f3720","650c16f0f2faf8d7a0d14c09","651c1c335a787e07d59a9088","null","null","<p style=""font-size: 60px; font-family: BACS"">KElBOdOP</p>","","","","","","","","",""
"html-keyboard-response","159","239666","0.0-10.0-0.70","5f18a80367ef6b0bbc5f3720","650c16f0f2faf8d7a0d14c09","651c1c335a787e07d59a9088","null","null","<p style=""font-size: 60px; font-family: BACS"">ArQuYbN</p>","","","","","","","","",""
"html-keyboard-response","160","240679","0.0-10.0-0.71","5f18a80367ef6b0bbc5f3720","650c16f0f2faf8d7a0d14c09","651c1c335a787e07d59a9088","null","null","<p style=""font-size: 60px; font-family: BACS"">NaAQdQONk</p>","","","","","","","","",""
"html-keyboard-response","161","241690","0.0-10.0-0.72","5f18a80367ef6b0bbc5f3720","650c16f0f2faf8d7a0d14c09","651c1c335a787e07d59a9088","null","null","<p style=""font-size: 60px; font-family: BACS"">DBPhcTRkY</p>","","","","","","","","",""
"html-keyboard-response","162","242700","0.0-10.0-0.73","5f18a80367ef6b0bbc5f3720","650c16f0f2faf8d7a0d14c09","651c1c335a787e07d59a9088","null","null","<p style=""font-size: 60px; font-family: BACS"">vblrQONk</p>","","","","","","","","",""
"html-keyboard-response","163","243711","0.0-10.0-0.74","5f18a80367ef6b0bbc5f3720","650c16f0f2faf8d7a0d14c09","651c1c335a787e07d59a9088","null","null","<p style=""font-size: 60px; font-family: BACS"">hChYOdOP</p>","","","","","","","","",""
"html-keyboard-response","164","244716","0.0-10.0-0.75","5f18a80367ef6b0bbc5f3720","650c16f0f2faf8d7a0d14c09","651c1c335a787e07d59a9088","null","null","<p style=""font-size: 60px; font-family: BACS"">kZUbNYZu</p>","","","","","","","","",""
"html-keyboard-response","165","245731","0.0-10.0-0.76","5f18a80367ef6b0bbc5f3720","650c16f0f2faf8d7a0d14c09","651c1c335a787e07d59a9088","null","null","<p style=""font-size: 60px; font-family: BACS"">KAERMPTl</p>","","","","","","","","",""
"html-keyboard-response","166","246744","0.0-10.0-0.77","5f18a80367ef6b0bbc5f3720","650c16f0f2faf8d7a0d14c09","651c1c335a787e07d59a9088","null","null","<p style=""font-size: 60px; font-family: BACS"">kZUbQONk</p>","","","","","","","","",""
"html-keyboard-response","167","247757","0.0-10.0-0.78","5f18a80367ef6b0bbc5f3720","650c16f0f2faf8d7a0d14c09","651c1c335a787e07d59a9088","null","null","<p style=""font-size: 60px; font-family: BACS"">DBPhcPTl</p>","","","","","","","","",""
"html-keyboard-response","168","248770","0.0-10.0-0.79","5f18a80367ef6b0bbc5f3720","650c16f0f2faf8d7a0d14c09","651c1c335a787e07d59a9088","null","null","<p style=""font-size: 60px; font-family: BACS"">NaAQdNYZu</p>","","","","","","","","",""
"html-keyboard-response","169","273037","0.0-11.0","5f18a80367ef6b0bbc5f3720","650c16f0f2faf8d7a0d14c09","651c1c335a787e07d59a9088","24267"," ","<p>Great, you've seen the second block of words. You may now take a short break.</p>
      <p>Press the spacebar when you're ready to continue.</p>","","","","","","","","",""
"html-keyboard-response","170","274053","0.0-12.0-0.0","5f18a80367ef6b0bbc5f3720","650c16f0f2faf8d7a0d14c09","651c1c335a787e07d59a9088","null","null","<p style=""font-size: 60px; font-family: BACS"">hChYTRkY</p>","","","","","","","","",""
"html-keyboard-response","171","275061","0.0-12.0-0.1","5f18a80367ef6b0bbc5f3720","650c16f0f2faf8d7a0d14c09","651c1c335a787e07d59a9088","null","null","<p style=""font-size: 60px; font-family: BACS"">vblrmZb</p>","","","","","","","","",""
"html-keyboard-response","172","276072","0.0-12.0-0.2","5f18a80367ef6b0bbc5f3720","650c16f0f2faf8d7a0d14c09","651c1c335a787e07d59a9088","null","null","<p style=""font-size: 60px; font-family: BACS"">tmtEMRdCc</p>","","","","","","","","",""
"html-keyboard-response","173","277086","0.0-12.0-0.3","5f18a80367ef6b0bbc5f3720","650c16f0f2faf8d7a0d14c09","651c1c335a787e07d59a9088","null","null","<p style=""font-size: 60px; font-family: BACS"">hChYOdOP</p>","","","","","","","","",""
"html-keyboard-response","174","278094","0.0-12.0-0.4","5f18a80367ef6b0bbc5f3720","650c16f0f2faf8d7a0d14c09","651c1c335a787e07d59a9088","null","null","<p style=""font-size: 60px; font-family: BACS"">vblrQONk</p>","","","","","","","","",""
"html-keyboard-response","175","279110","0.0-12.0-0.5","5f18a80367ef6b0bbc5f3720","650c16f0f2faf8d7a0d14c09","651c1c335a787e07d59a9088","null","null","<p style=""font-size: 60px; font-family: BACS"">aONdYbN</p>","","","","","","","","",""
"html-keyboard-response","176","280117","0.0-12.0-0.6","5f18a80367ef6b0bbc5f3720","650c16f0f2faf8d7a0d14c09","651c1c335a787e07d59a9088","null","null","<p style=""font-size: 60px; font-family: BACS"">RKYkTRkY</p>","","","","","","","","",""
"html-keyboard-response","177","281132","0.0-12.0-0.7","5f18a80367ef6b0bbc5f3720","650c16f0f2faf8d7a0d14c09","651c1c335a787e07d59a9088","null","null","<p style=""font-size: 60px; font-family: BACS"">rkYLNYZu</p>","","","","","","","","",""
"html-keyboard-response","178","282142","0.0-12.0-0.8","5f18a80367ef6b0bbc5f3720","650c16f0f2faf8d7a0d14c09","651c1c335a787e07d59a9088","null","null","<p style=""font-size: 60px; font-family: BACS"">ArQuQONk</p>","","","","","","","","",""
"html-keyboard-response","179","283150","0.0-12.0-0.9","5f18a80367ef6b0bbc5f3720","650c16f0f2faf8d7a0d14c09","651c1c335a787e07d59a9088","null","null","<p style=""font-size: 60px; font-family: BACS"">GNAcaYbN</p>","","","","","","","","",""
"html-keyboard-response","180","284156","0.0-12.0-0.10","5f18a80367ef6b0bbc5f3720","650c16f0f2faf8d7a0d14c09","651c1c335a787e07d59a9088","null","null","<p style=""font-size: 60px; font-family: BACS"">LdrbvNYZu</p>","","","","","","","","",""
"html-keyboard-response","181","285166","0.0-12.0-0.11","5f18a80367ef6b0bbc5f3720","650c16f0f2faf8d7a0d14c09","651c1c335a787e07d59a9088","null","null","<p style=""font-size: 60px; font-family: BACS"">btlckPTl</p>","","","","","","","","",""
"html-keyboard-response","182","286174","0.0-12.0-0.12","5f18a80367ef6b0bbc5f3720","650c16f0f2faf8d7a0d14c09","651c1c335a787e07d59a9088","null","null","<p style=""font-size: 60px; font-family: BACS"">LdrbvYbN</p>","","","","","","","","",""
"html-keyboard-response","183","287186","0.0-12.0-0.13","5f18a80367ef6b0bbc5f3720","650c16f0f2faf8d7a0d14c09","651c1c335a787e07d59a9088","null","null","<p style=""font-size: 60px; font-family: BACS"">RKYkRdCc</p>","","","","","","","","",""
"html-keyboard-response","184","288201","0.0-12.0-0.14","5f18a80367ef6b0bbc5f3720","650c16f0f2faf8d7a0d14c09","651c1c335a787e07d59a9088","null","null","<p style=""font-size: 60px; font-family: BACS"">dClOCOdOP</p>","","","","","","","","",""
"html-keyboard-response","185","289214","0.0-12.0-0.15","5f18a80367ef6b0bbc5f3720","650c16f0f2faf8d7a0d14c09","651c1c335a787e07d59a9088","null","null","<p style=""font-size: 60px; font-family: BACS"">aONdmZb</p>","","","","","","","","",""
"html-keyboard-response","186","290225","0.0-12.0-0.16","5f18a80367ef6b0bbc5f3720","650c16f0f2faf8d7a0d14c09","651c1c335a787e07d59a9088","null","null","<p style=""font-size: 60px; font-family: BACS"">DBPhcmKcD</p>","","","","","","","","",""
"html-keyboard-response","187","291234","0.0-12.0-0.17","5f18a80367ef6b0bbc5f3720","650c16f0f2faf8d7a0d14c09","651c1c335a787e07d59a9088","null","null","<p style=""font-size: 60px; font-family: BACS"">kZUbNYZu</p>","","","","","","","","",""
"html-keyboard-response","188","292242","0.0-12.0-0.18","5f18a80367ef6b0bbc5f3720","650c16f0f2faf8d7a0d14c09","651c1c335a787e07d59a9088","null","null","<p style=""font-size: 60px; font-family: BACS"">NaAQdGUa</p>","","","","","","","","",""
"html-keyboard-response","189","293246","0.0-12.0-0.19","5f18a80367ef6b0bbc5f3720","650c16f0f2faf8d7a0d14c09","651c1c335a787e07d59a9088","null","null","<p style=""font-size: 60px; font-family: BACS"">dClOCmKcD</p>","","","","","","","","",""
"html-keyboard-response","190","294254","0.0-12.0-0.20","5f18a80367ef6b0bbc5f3720","650c16f0f2faf8d7a0d14c09","651c1c335a787e07d59a9088","null","null","<p style=""font-size: 60px; font-family: BACS"">NaAQdQONk</p>","","","","","","","","",""
"html-keyboard-response","191","295263","0.0-12.0-0.21","5f18a80367ef6b0bbc5f3720","650c16f0f2faf8d7a0d14c09","651c1c335a787e07d59a9088","null","null","<p style=""font-size: 60px; font-family: BACS"">OAblcYbN</p>","","","","","","","","",""
"html-keyboard-response","192","296270","0.0-12.0-0.22","5f18a80367ef6b0bbc5f3720","650c16f0f2faf8d7a0d14c09","651c1c335a787e07d59a9088","null","null","<p style=""font-size: 60px; font-family: BACS"">DBPhcRdCc</p>","","","","","","","","",""
"html-keyboard-response","193","297276","0.0-12.0-0.23","5f18a80367ef6b0bbc5f3720","650c16f0f2faf8d7a0d14c09","651c1c335a787e07d59a9088","null","null","<p style=""font-size: 60px; font-family: BACS"">CYPcTRkY</p>","","","","","","","","",""
"html-keyboard-response","194","298288","0.0-12.0-0.24","5f18a80367ef6b0bbc5f3720","650c16f0f2faf8d7a0d14c09","651c1c335a787e07d59a9088","null","null","<p style=""font-size: 60px; font-family: BACS"">hChYRdCc</p>","","","","","","","","",""
"html-keyboard-response","195","299301","0.0-12.0-0.25","5f18a80367ef6b0bbc5f3720","650c16f0f2faf8d7a0d14c09","651c1c335a787e07d59a9088","null","null","<p style=""font-size: 60px; font-family: BACS"">tmtEMmKcD</p>","","","","","","","","",""
"html-keyboard-response","196","300312","0.0-12.0-0.26","5f18a80367ef6b0bbc5f3720","650c16f0f2faf8d7a0d14c09","651c1c335a787e07d59a9088","null","null","<p style=""font-size: 60px; font-family: BACS"">OAblcQONk</p>","","","","","","","","",""
"html-keyboard-response","197","301319","0.0-12.0-0.27","5f18a80367ef6b0bbc5f3720","650c16f0f2faf8d7a0d14c09","651c1c335a787e07d59a9088","null","null","<p style=""font-size: 60px; font-family: BACS"">lKdbcTRkY</p>","","","","","","","","",""
"html-keyboard-response","198","302327","0.0-12.0-0.28","5f18a80367ef6b0bbc5f3720","650c16f0f2faf8d7a0d14c09","651c1c335a787e07d59a9088","null","null","<p style=""font-size: 60px; font-family: BACS"">CYPcmKcD</p>","","","","","","","","",""
"html-keyboard-response","199","303339","0.0-12.0-0.29","5f18a80367ef6b0bbc5f3720","650c16f0f2faf8d7a0d14c09","651c1c335a787e07d59a9088","null","null","<p style=""font-size: 60px; font-family: BACS"">hChYPTl</p>","","","","","","","","",""
"html-keyboard-response","200","304343","0.0-12.0-0.30","5f18a80367ef6b0bbc5f3720","650c16f0f2faf8d7a0d14c09","651c1c335a787e07d59a9088","null","null","<p style=""font-size: 60px; font-family: BACS"">tmtEMOdOP</p>","","","","","","","","",""
"html-keyboard-response","201","305354","0.0-12.0-0.31","5f18a80367ef6b0bbc5f3720","650c16f0f2faf8d7a0d14c09","651c1c335a787e07d59a9088","null","null","<p style=""font-size: 60px; font-family: BACS"">NaAQdmZb</p>","","","","","","","","",""
"html-keyboard-response","202","306358","0.0-12.0-0.32","5f18a80367ef6b0bbc5f3720","650c16f0f2faf8d7a0d14c09","651c1c335a787e07d59a9088","null","null","<p style=""font-size: 60px; font-family: BACS"">kZUbGUa</p>","","","","","","","","",""
"html-keyboard-response","203","307366","0.0-12.0-0.33","5f18a80367ef6b0bbc5f3720","650c16f0f2faf8d7a0d14c09","651c1c335a787e07d59a9088","null","null","<p style=""font-size: 60px; font-family: BACS"">ArQuYbN</p>","","","","","","","","",""
"html-keyboard-response","204","308371","0.0-12.0-0.34","5f18a80367ef6b0bbc5f3720","650c16f0f2faf8d7a0d14c09","651c1c335a787e07d59a9088","null","null","<p style=""font-size: 60px; font-family: BACS"">lKdbcPTl</p>","","","","","","","","",""
"html-keyboard-response","205","309382","0.0-12.0-0.35","5f18a80367ef6b0bbc5f3720","650c16f0f2faf8d7a0d14c09","651c1c335a787e07d59a9088","null","null","<p style=""font-size: 60px; font-family: BACS"">KAERMmKcD</p>","","","","","","","","",""
"html-keyboard-response","206","310393","0.0-12.0-0.36","5f18a80367ef6b0bbc5f3720","650c16f0f2faf8d7a0d14c09","651c1c335a787e07d59a9088","null","null","<p style=""font-size: 60px; font-family: BACS"">dClOCPTl</p>","","","","","","","","",""
"html-keyboard-response","207","311399","0.0-12.0-0.37","5f18a80367ef6b0bbc5f3720","650c16f0f2faf8d7a0d14c09","651c1c335a787e07d59a9088","null","null","<p style=""font-size: 60px; font-family: BACS"">vblrGUa</p>","","","","","","","","",""
"html-keyboard-response","208","312411","0.0-12.0-0.38","5f18a80367ef6b0bbc5f3720","650c16f0f2faf8d7a0d14c09","651c1c335a787e07d59a9088","null","null","<p style=""font-size: 60px; font-family: BACS"">lkAkmZb</p>","","","","","","","","",""
"html-keyboard-response","209","313426","0.0-12.0-0.39","5f18a80367ef6b0bbc5f3720","650c16f0f2faf8d7a0d14c09","651c1c335a787e07d59a9088","null","null","<p style=""font-size: 60px; font-family: BACS"">LdrbvQONk</p>","","","","","","","","",""
"html-keyboard-response","210","314430","0.0-12.0-0.40","5f18a80367ef6b0bbc5f3720","650c16f0f2faf8d7a0d14c09","651c1c335a787e07d59a9088","null","null","<p style=""font-size: 60px; font-family: BACS"">lkAkNYZu</p>","","","","","","","","",""
"html-keyboard-response","211","315435","0.0-12.0-0.41","5f18a80367ef6b0bbc5f3720","650c16f0f2faf8d7a0d14c09","651c1c335a787e07d59a9088","null","null","<p style=""font-size: 60px; font-family: BACS"">lKdbcRdCc</p>","","","","","","","","",""
"html-keyboard-response","212","316444","0.0-12.0-0.42","5f18a80367ef6b0bbc5f3720","650c16f0f2faf8d7a0d14c09","651c1c335a787e07d59a9088","null","null","<p style=""font-size: 60px; font-family: BACS"">KElBOdOP</p>","","","","","","","","",""
"html-keyboard-response","213","317451","0.0-12.0-0.43","5f18a80367ef6b0bbc5f3720","650c16f0f2faf8d7a0d14c09","651c1c335a787e07d59a9088","null","null","<p style=""font-size: 60px; font-family: BACS"">tmtEMPTl</p>","","","","","","","","",""
"html-keyboard-response","214","318460","0.0-12.0-0.44","5f18a80367ef6b0bbc5f3720","650c16f0f2faf8d7a0d14c09","651c1c335a787e07d59a9088","null","null","<p style=""font-size: 60px; font-family: BACS"">lKdbcOdOP</p>","","","","","","","","",""
"html-keyboard-response","215","319465","0.0-12.0-0.45","5f18a80367ef6b0bbc5f3720","650c16f0f2faf8d7a0d14c09","651c1c335a787e07d59a9088","null","null","<p style=""font-size: 60px; font-family: BACS"">kZUbQONk</p>","","","","","","","","",""
"html-keyboard-response","216","320478","0.0-12.0-0.46","5f18a80367ef6b0bbc5f3720","650c16f0f2faf8d7a0d14c09","651c1c335a787e07d59a9088","null","null","<p style=""font-size: 60px; font-family: BACS"">KElBTRkY</p>","","","","","","","","",""
"html-keyboard-response","217","321486","0.0-12.0-0.47","5f18a80367ef6b0bbc5f3720","650c16f0f2faf8d7a0d14c09","651c1c335a787e07d59a9088","null","null","<p style=""font-size: 60px; font-family: BACS"">aONdGUa</p>","","","","","","","","",""
"html-keyboard-response","218","322487","0.0-12.0-0.48","5f18a80367ef6b0bbc5f3720","650c16f0f2faf8d7a0d14c09","651c1c335a787e07d59a9088","null","null","<p style=""font-size: 60px; font-family: BACS"">btlckTRkY</p>","","","","","","","","",""
"html-keyboard-response","219","323499","0.0-12.0-0.49","5f18a80367ef6b0bbc5f3720","650c16f0f2faf8d7a0d14c09","651c1c335a787e07d59a9088","null","null","<p style=""font-size: 60px; font-family: BACS"">CYPcOdOP</p>","","","","","","","","",""
"html-keyboard-response","220","324511","0.0-12.0-0.50","5f18a80367ef6b0bbc5f3720","650c16f0f2faf8d7a0d14c09","651c1c335a787e07d59a9088","null","null","<p style=""font-size: 60px; font-family: BACS"">GNAcaQONk</p>","","","","","","","","",""
"html-keyboard-response","221","325516","0.0-12.0-0.51","5f18a80367ef6b0bbc5f3720","650c16f0f2faf8d7a0d14c09","651c1c335a787e07d59a9088","null","null","<p style=""font-size: 60px; font-family: BACS"">RKYkmKcD</p>","","","","","","","","",""
"html-keyboard-response","222","326519","0.0-12.0-0.52","5f18a80367ef6b0bbc5f3720","650c16f0f2faf8d7a0d14c09","651c1c335a787e07d59a9088","null","null","<p style=""font-size: 60px; font-family: BACS"">LdrbvmZb</p>","","","","","","","","",""
"html-keyboard-response","223","327532","0.0-12.0-0.53","5f18a80367ef6b0bbc5f3720","650c16f0f2faf8d7a0d14c09","651c1c335a787e07d59a9088","null","null","<p style=""font-size: 60px; font-family: BACS"">GNAcaNYZu</p>","","","","","","","","",""
"html-keyboard-response","224","328540","0.0-12.0-0.54","5f18a80367ef6b0bbc5f3720","650c16f0f2faf8d7a0d14c09","651c1c335a787e07d59a9088","null","null","<p style=""font-size: 60px; font-family: BACS"">DBPhcPTl</p>","","","","","","","","",""
"html-keyboard-response","225","329550","0.0-12.0-0.55","5f18a80367ef6b0bbc5f3720","650c16f0f2faf8d7a0d14c09","651c1c335a787e07d59a9088","null","null","<p style=""font-size: 60px; font-family: BACS"">rkYLGUa</p>","","","","","","","","",""
"html-keyboard-response","226","330561","0.0-12.0-0.56","5f18a80367ef6b0bbc5f3720","650c16f0f2faf8d7a0d14c09","651c1c335a787e07d59a9088","null","null","<p style=""font-size: 60px; font-family: BACS"">OAblcmZb</p>","","","","","","","","",""
"html-keyboard-response","227","331565","0.0-12.0-0.57","5f18a80367ef6b0bbc5f3720","650c16f0f2faf8d7a0d14c09","651c1c335a787e07d59a9088","null","null","<p style=""font-size: 60px; font-family: BACS"">rkYLQONk</p>","","","","","","","","",""
"html-keyboard-response","228","332567","0.0-12.0-0.58","5f18a80367ef6b0bbc5f3720","650c16f0f2faf8d7a0d14c09","651c1c335a787e07d59a9088","null","null","<p style=""font-size: 60px; font-family: BACS"">KAERMPTl</p>","","","","","","","","",""
"html-keyboard-response","229","333580","0.0-12.0-0.59","5f18a80367ef6b0bbc5f3720","650c16f0f2faf8d7a0d14c09","651c1c335a787e07d59a9088","null","null","<p style=""font-size: 60px; font-family: BACS"">lkAkGUa</p>","","","","","","","","",""
"html-keyboard-response","230","334584","0.0-12.0-0.60","5f18a80367ef6b0bbc5f3720","650c16f0f2faf8d7a0d14c09","651c1c335a787e07d59a9088","null","null","<p style=""font-size: 60px; font-family: BACS"">aONdNYZu</p>","","","","","","","","",""
"html-keyboard-response","231","335595","0.0-12.0-0.61","5f18a80367ef6b0bbc5f3720","650c16f0f2faf8d7a0d14c09","651c1c335a787e07d59a9088","null","null","<p style=""font-size: 60px; font-family: BACS"">ArQuGUa</p>","","","","","","","","",""
"html-keyboard-response","232","336609","0.0-12.0-0.62","5f18a80367ef6b0bbc5f3720","650c16f0f2faf8d7a0d14c09","651c1c335a787e07d59a9088","null","null","<p style=""font-size: 60px; font-family: BACS"">RKYkOdOP</p>","","","","","","","","",""
"html-keyboard-response","233","337616","0.0-12.0-0.63","5f18a80367ef6b0bbc5f3720","650c16f0f2faf8d7a0d14c09","651c1c335a787e07d59a9088","null","null","<p style=""font-size: 60px; font-family: BACS"">NaAQdNYZu</p>","","","","","","","","",""
"html-keyboard-response","234","338630","0.0-12.0-0.64","5f18a80367ef6b0bbc5f3720","650c16f0f2faf8d7a0d14c09","651c1c335a787e07d59a9088","null","null","<p style=""font-size: 60px; font-family: BACS"">btlckmKcD</p>","","","","","","","","",""
"html-keyboard-response","235","339633","0.0-12.0-0.65","5f18a80367ef6b0bbc5f3720","650c16f0f2faf8d7a0d14c09","651c1c335a787e07d59a9088","null","null","<p style=""font-size: 60px; font-family: BACS"">CYPcPTl</p>","","","","","","","","",""
"html-keyboard-response","236","340643","0.0-12.0-0.66","5f18a80367ef6b0bbc5f3720","650c16f0f2faf8d7a0d14c09","651c1c335a787e07d59a9088","null","null","<p style=""font-size: 60px; font-family: BACS"">vblrYbN</p>","","","","","","","","",""
"html-keyboard-response","237","341646","0.0-12.0-0.67","5f18a80367ef6b0bbc5f3720","650c16f0f2faf8d7a0d14c09","651c1c335a787e07d59a9088","null","null","<p style=""font-size: 60px; font-family: BACS"">KElBmKcD</p>","","","","","","","","",""
"html-keyboard-response","238","342651","0.0-12.0-0.68","5f18a80367ef6b0bbc5f3720","650c16f0f2faf8d7a0d14c09","651c1c335a787e07d59a9088","null","null","<p style=""font-size: 60px; font-family: BACS"">rkYLYbN</p>","","","","","","","","",""
"html-keyboard-response","239","343654","0.0-12.0-0.69","5f18a80367ef6b0bbc5f3720","650c16f0f2faf8d7a0d14c09","651c1c335a787e07d59a9088","null","null","<p style=""font-size: 60px; font-family: BACS"">KAERMRdCc</p>","","","","","","","","",""
"html-keyboard-response","240","344663","0.0-12.0-0.70","5f18a80367ef6b0bbc5f3720","650c16f0f2faf8d7a0d14c09","651c1c335a787e07d59a9088","null","null","<p style=""font-size: 60px; font-family: BACS"">kZUbmZb</p>","","","","","","","","",""
"html-keyboard-response","241","345679","0.0-12.0-0.71","5f18a80367ef6b0bbc5f3720","650c16f0f2faf8d7a0d14c09","651c1c335a787e07d59a9088","null","null","<p style=""font-size: 60px; font-family: BACS"">ArQuNYZu</p>","","","","","","","","",""
"html-keyboard-response","242","346695","0.0-12.0-0.72","5f18a80367ef6b0bbc5f3720","650c16f0f2faf8d7a0d14c09","651c1c335a787e07d59a9088","null","null","<p style=""font-size: 60px; font-family: BACS"">OAblcGUa</p>","","","","","","","","",""
"html-keyboard-response","243","347703","0.0-12.0-0.73","5f18a80367ef6b0bbc5f3720","650c16f0f2faf8d7a0d14c09","651c1c335a787e07d59a9088","null","null","<p style=""font-size: 60px; font-family: BACS"">KElBRdCc</p>","","","","","","","","",""
"html-keyboard-response","244","348716","0.0-12.0-0.74","5f18a80367ef6b0bbc5f3720","650c16f0f2faf8d7a0d14c09","651c1c335a787e07d59a9088","null","null","<p style=""font-size: 60px; font-family: BACS"">GNAcamZb</p>","","","","","","","","",""
"html-keyboard-response","245","349724","0.0-12.0-0.75","5f18a80367ef6b0bbc5f3720","650c16f0f2faf8d7a0d14c09","651c1c335a787e07d59a9088","null","null","<p style=""font-size: 60px; font-family: BACS"">btlckRdCc</p>","","","","","","","","",""
"html-keyboard-response","246","350735","0.0-12.0-0.76","5f18a80367ef6b0bbc5f3720","650c16f0f2faf8d7a0d14c09","651c1c335a787e07d59a9088","null","null","<p style=""font-size: 60px; font-family: BACS"">DBPhcTRkY</p>","","","","","","","","",""
"html-keyboard-response","247","351748","0.0-12.0-0.77","5f18a80367ef6b0bbc5f3720","650c16f0f2faf8d7a0d14c09","651c1c335a787e07d59a9088","null","null","<p style=""font-size: 60px; font-family: BACS"">KAERMOdOP</p>","","","","","","","","",""
"html-keyboard-response","248","352762","0.0-12.0-0.78","5f18a80367ef6b0bbc5f3720","650c16f0f2faf8d7a0d14c09","651c1c335a787e07d59a9088","null","null","<p style=""font-size: 60px; font-family: BACS"">dClOCTRkY</p>","","","","","","","","",""
"html-keyboard-response","249","353767","0.0-12.0-0.79","5f18a80367ef6b0bbc5f3720","650c16f0f2faf8d7a0d14c09","651c1c335a787e07d59a9088","null","null","<p style=""font-size: 60px; font-family: BACS"">lkAkYbN</p>","","","","","","","","",""
"html-keyboard-response","250","355945","0.0-13.0","5f18a80367ef6b0bbc5f3720","650c16f0f2faf8d7a0d14c09","651c1c335a787e07d59a9088","2178"," ","<p>Great, you've seen the third block of words. You may now take a short break.</p>
      <p>Press the spacebar when you're ready to continue.</p>","","","","","","","","",""
"html-keyboard-response","251","356946","0.0-14.0-0.0","5f18a80367ef6b0bbc5f3720","650c16f0f2faf8d7a0d14c09","651c1c335a787e07d59a9088","null","null","<p style=""font-size: 60px; font-family: BACS"">KElBRdCc</p>","","","","","","","","",""
"html-keyboard-response","252","357957","0.0-14.0-0.1","5f18a80367ef6b0bbc5f3720","650c16f0f2faf8d7a0d14c09","651c1c335a787e07d59a9088","null","null","<p style=""font-size: 60px; font-family: BACS"">rkYLNYZu</p>","","","","","","","","",""
"html-keyboard-response","253","358961","0.0-14.0-0.2","5f18a80367ef6b0bbc5f3720","650c16f0f2faf8d7a0d14c09","651c1c335a787e07d59a9088","null","null","<p style=""font-size: 60px; font-family: BACS"">aONdGUa</p>","","","","","","","","",""
"html-keyboard-response","254","359971","0.0-14.0-0.3","5f18a80367ef6b0bbc5f3720","650c16f0f2faf8d7a0d14c09","651c1c335a787e07d59a9088","null","null","<p style=""font-size: 60px; font-family: BACS"">tmtEMOdOP</p>","","","","","","","","",""
"html-keyboard-response","255","360974","0.0-14.0-0.4","5f18a80367ef6b0bbc5f3720","650c16f0f2faf8d7a0d14c09","651c1c335a787e07d59a9088","null","null","<p style=""font-size: 60px; font-family: BACS"">dClOCPTl</p>","","","","","","","","",""
"html-keyboard-response","256","361989","0.0-14.0-0.5","5f18a80367ef6b0bbc5f3720","650c16f0f2faf8d7a0d14c09","651c1c335a787e07d59a9088","null","null","<p style=""font-size: 60px; font-family: BACS"">vblrmZb</p>","","","","","","","","",""
"html-keyboard-response","257","362998","0.0-14.0-0.6","5f18a80367ef6b0bbc5f3720","650c16f0f2faf8d7a0d14c09","651c1c335a787e07d59a9088","null","null","<p style=""font-size: 60px; font-family: BACS"">lkAkNYZu</p>","","","","","","","","",""
"html-keyboard-response","258","364012","0.0-14.0-0.7","5f18a80367ef6b0bbc5f3720","650c16f0f2faf8d7a0d14c09","651c1c335a787e07d59a9088","null","null","<p style=""font-size: 60px; font-family: BACS"">kZUbmZb</p>","","","","","","","","",""
"html-keyboard-response","259","365024","0.0-14.0-0.8","5f18a80367ef6b0bbc5f3720","650c16f0f2faf8d7a0d14c09","651c1c335a787e07d59a9088","null","null","<p style=""font-size: 60px; font-family: BACS"">KElBTRkY</p>","","","","","","","","",""
"html-keyboard-response","260","366033","0.0-14.0-0.9","5f18a80367ef6b0bbc5f3720","650c16f0f2faf8d7a0d14c09","651c1c335a787e07d59a9088","null","null","<p style=""font-size: 60px; font-family: BACS"">NaAQdQONk</p>","","","","","","","","",""
"html-keyboard-response","261","367038","0.0-14.0-0.10","5f18a80367ef6b0bbc5f3720","650c16f0f2faf8d7a0d14c09","651c1c335a787e07d59a9088","null","null","<p style=""font-size: 60px; font-family: BACS"">CYPcPTl</p>","","","","","","","","",""
"html-keyboard-response","262","368048","0.0-14.0-0.11","5f18a80367ef6b0bbc5f3720","650c16f0f2faf8d7a0d14c09","651c1c335a787e07d59a9088","null","null","<p style=""font-size: 60px; font-family: BACS"">lkAkGUa</p>","","","","","","","","",""
"html-keyboard-response","263","369052","0.0-14.0-0.12","5f18a80367ef6b0bbc5f3720","650c16f0f2faf8d7a0d14c09","651c1c335a787e07d59a9088","null","null","<p style=""font-size: 60px; font-family: BACS"">aONdmZb</p>","","","","","","","","",""
"html-keyboard-response","264","370058","0.0-14.0-0.13","5f18a80367ef6b0bbc5f3720","650c16f0f2faf8d7a0d14c09","651c1c335a787e07d59a9088","null","null","<p style=""font-size: 60px; font-family: BACS"">tmtEMPTl</p>","","","","","","","","",""
"html-keyboard-response","265","371065","0.0-14.0-0.14","5f18a80367ef6b0bbc5f3720","650c16f0f2faf8d7a0d14c09","651c1c335a787e07d59a9088","null","null","<p style=""font-size: 60px; font-family: BACS"">DBPhcTRkY</p>","","","","","","","","",""
"html-keyboard-response","266","372074","0.0-14.0-0.15","5f18a80367ef6b0bbc5f3720","650c16f0f2faf8d7a0d14c09","651c1c335a787e07d59a9088","null","null","<p style=""font-size: 60px; font-family: BACS"">lkAkmZb</p>","","","","","","","","",""
"html-keyboard-response","267","373086","0.0-14.0-0.16","5f18a80367ef6b0bbc5f3720","650c16f0f2faf8d7a0d14c09","651c1c335a787e07d59a9088","null","null","<p style=""font-size: 60px; font-family: BACS"">lKdbcRdCc</p>","","","","","","","","",""
"html-keyboard-response","268","374098","0.0-14.0-0.17","5f18a80367ef6b0bbc5f3720","650c16f0f2faf8d7a0d14c09","651c1c335a787e07d59a9088","null","null","<p style=""font-size: 60px; font-family: BACS"">dClOCOdOP</p>","","","","","","","","",""
"html-keyboard-response","269","375111","0.0-14.0-0.18","5f18a80367ef6b0bbc5f3720","650c16f0f2faf8d7a0d14c09","651c1c335a787e07d59a9088","null","null","<p style=""font-size: 60px; font-family: BACS"">rkYLQONk</p>","","","","","","","","",""
"html-keyboard-response","270","376116","0.0-14.0-0.19","5f18a80367ef6b0bbc5f3720","650c16f0f2faf8d7a0d14c09","651c1c335a787e07d59a9088","null","null","<p style=""font-size: 60px; font-family: BACS"">CYPcOdOP</p>","","","","","","","","",""
"html-keyboard-response","271","377122","0.0-14.0-0.20","5f18a80367ef6b0bbc5f3720","650c16f0f2faf8d7a0d14c09","651c1c335a787e07d59a9088","null","null","<p style=""font-size: 60px; font-family: BACS"">RKYkTRkY</p>","","","","","","","","",""
"html-keyboard-response","272","378138","0.0-14.0-0.21","5f18a80367ef6b0bbc5f3720","650c16f0f2faf8d7a0d14c09","651c1c335a787e07d59a9088","null","null","<p style=""font-size: 60px; font-family: BACS"">hChYOdOP</p>","","","","","","","","",""
"html-keyboard-response","273","379149","0.0-14.0-0.22","5f18a80367ef6b0bbc5f3720","650c16f0f2faf8d7a0d14c09","651c1c335a787e07d59a9088","null","null","<p style=""font-size: 60px; font-family: BACS"">GNAcaNYZu</p>","","","","","","","","",""
"html-keyboard-response","274","380156","0.0-14.0-0.23","5f18a80367ef6b0bbc5f3720","650c16f0f2faf8d7a0d14c09","651c1c335a787e07d59a9088","null","null","<p style=""font-size: 60px; font-family: BACS"">KElBmKcD</p>","","","","","","","","",""
"html-keyboard-response","275","381159","0.0-14.0-0.24","5f18a80367ef6b0bbc5f3720","650c16f0f2faf8d7a0d14c09","651c1c335a787e07d59a9088","null","null","<p style=""font-size: 60px; font-family: BACS"">vblrGUa</p>","","","","","","","","",""
"html-keyboard-response","276","382172","0.0-14.0-0.25","5f18a80367ef6b0bbc5f3720","650c16f0f2faf8d7a0d14c09","651c1c335a787e07d59a9088","null","null","<p style=""font-size: 60px; font-family: BACS"">DBPhcRdCc</p>","","","","","","","","",""
"html-keyboard-response","277","383180","0.0-14.0-0.26","5f18a80367ef6b0bbc5f3720","650c16f0f2faf8d7a0d14c09","651c1c335a787e07d59a9088","null","null","<p style=""font-size: 60px; font-family: BACS"">GNAcaYbN</p>","","","","","","","","",""
"html-keyboard-response","278","384182","0.0-14.0-0.27","5f18a80367ef6b0bbc5f3720","650c16f0f2faf8d7a0d14c09","651c1c335a787e07d59a9088","null","null","<p style=""font-size: 60px; font-family: BACS"">dClOCTRkY</p>","","","","","","","","",""
"html-keyboard-response","279","385188","0.0-14.0-0.28","5f18a80367ef6b0bbc5f3720","650c16f0f2faf8d7a0d14c09","651c1c335a787e07d59a9088","null","null","<p style=""font-size: 60px; font-family: BACS"">KElBOdOP</p>","","","","","","","","",""
"html-keyboard-response","280","386191","0.0-14.0-0.29","5f18a80367ef6b0bbc5f3720","650c16f0f2faf8d7a0d14c09","651c1c335a787e07d59a9088","null","null","<p style=""font-size: 60px; font-family: BACS"">KAERMRdCc</p>","","","","","","","","",""
"html-keyboard-response","281","387198","0.0-14.0-0.30","5f18a80367ef6b0bbc5f3720","650c16f0f2faf8d7a0d14c09","651c1c335a787e07d59a9088","null","null","<p style=""font-size: 60px; font-family: BACS"">rkYLYbN</p>","","","","","","","","",""
"html-keyboard-response","282","388208","0.0-14.0-0.31","5f18a80367ef6b0bbc5f3720","650c16f0f2faf8d7a0d14c09","651c1c335a787e07d59a9088","null","null","<p style=""font-size: 60px; font-family: BACS"">CYPcmKcD</p>","","","","","","","","",""
"html-keyboard-response","283","389217","0.0-14.0-0.32","5f18a80367ef6b0bbc5f3720","650c16f0f2faf8d7a0d14c09","651c1c335a787e07d59a9088","null","null","<p style=""font-size: 60px; font-family: BACS"">ArQuYbN</p>","","","","","","","","",""
"html-keyboard-response","284","390221","0.0-14.0-0.33","5f18a80367ef6b0bbc5f3720","650c16f0f2faf8d7a0d14c09","651c1c335a787e07d59a9088","null","null","<p style=""font-size: 60px; font-family: BACS"">LdrbvmZb</p>","","","","","","","","",""
"html-keyboard-response","285","391232","0.0-14.0-0.34","5f18a80367ef6b0bbc5f3720","650c16f0f2faf8d7a0d14c09","651c1c335a787e07d59a9088","null","null","<p style=""font-size: 60px; font-family: BACS"">OAblcQONk</p>","","","","","","","","",""
"html-keyboard-response","286","392247","0.0-14.0-0.35","5f18a80367ef6b0bbc5f3720","650c16f0f2faf8d7a0d14c09","651c1c335a787e07d59a9088","null","null","<p style=""font-size: 60px; font-family: BACS"">lKdbcPTl</p>","","","","","","","","",""
"html-keyboard-response","287","393256","0.0-14.0-0.36","5f18a80367ef6b0bbc5f3720","650c16f0f2faf8d7a0d14c09","651c1c335a787e07d59a9088","null","null","<p style=""font-size: 60px; font-family: BACS"">LdrbvYbN</p>","","","","","","","","",""
"html-keyboard-response","288","394264","0.0-14.0-0.37","5f18a80367ef6b0bbc5f3720","650c16f0f2faf8d7a0d14c09","651c1c335a787e07d59a9088","null","null","<p style=""font-size: 60px; font-family: BACS"">tmtEMmKcD</p>","","","","","","","","",""
"html-keyboard-response","289","395271","0.0-14.0-0.38","5f18a80367ef6b0bbc5f3720","650c16f0f2faf8d7a0d14c09","651c1c335a787e07d59a9088","null","null","<p style=""font-size: 60px; font-family: BACS"">LdrbvQONk</p>","","","","","","","","",""
"html-keyboard-response","290","396279","0.0-14.0-0.39","5f18a80367ef6b0bbc5f3720","650c16f0f2faf8d7a0d14c09","651c1c335a787e07d59a9088","null","null","<p style=""font-size: 60px; font-family: BACS"">btlckRdCc</p>","","","","","","","","",""
"html-keyboard-response","291","397282","0.0-14.0-0.40","5f18a80367ef6b0bbc5f3720","650c16f0f2faf8d7a0d14c09","651c1c335a787e07d59a9088","null","null","<p style=""font-size: 60px; font-family: BACS"">DBPhcmKcD</p>","","","","","","","","",""
"html-keyboard-response","292","398290","0.0-14.0-0.41","5f18a80367ef6b0bbc5f3720","650c16f0f2faf8d7a0d14c09","651c1c335a787e07d59a9088","null","null","<p style=""font-size: 60px; font-family: BACS"">kZUbGUa</p>","","","","","","","","",""
"html-keyboard-response","293","399294","0.0-14.0-0.42","5f18a80367ef6b0bbc5f3720","650c16f0f2faf8d7a0d14c09","651c1c335a787e07d59a9088","null","null","<p style=""font-size: 60px; font-family: BACS"">hChYTRkY</p>","","","","","","","","",""
"html-keyboard-response","294","400301","0.0-14.0-0.43","5f18a80367ef6b0bbc5f3720","650c16f0f2faf8d7a0d14c09","651c1c335a787e07d59a9088","null","null","<p style=""font-size: 60px; font-family: BACS"">DBPhcPTl</p>","","","","","","","","",""
"html-keyboard-response","295","401307","0.0-14.0-0.44","5f18a80367ef6b0bbc5f3720","650c16f0f2faf8d7a0d14c09","651c1c335a787e07d59a9088","null","null","<p style=""font-size: 60px; font-family: BACS"">ArQuGUa</p>","","","","","","","","",""
"html-keyboard-response","296","402315","0.0-14.0-0.45","5f18a80367ef6b0bbc5f3720","650c16f0f2faf8d7a0d14c09","651c1c335a787e07d59a9088","null","null","<p style=""font-size: 60px; font-family: BACS"">vblrQONk</p>","","","","","","","","",""
"html-keyboard-response","297","403322","0.0-14.0-0.46","5f18a80367ef6b0bbc5f3720","650c16f0f2faf8d7a0d14c09","651c1c335a787e07d59a9088","null","null","<p style=""font-size: 60px; font-family: BACS"">btlckTRkY</p>","","","","","","","","",""
"html-keyboard-response","298","404325","0.0-14.0-0.47","5f18a80367ef6b0bbc5f3720","650c16f0f2faf8d7a0d14c09","651c1c335a787e07d59a9088","null","null","<p style=""font-size: 60px; font-family: BACS"">KAERMOdOP</p>","","","","","","","","",""
"html-keyboard-response","299","405331","0.0-14.0-0.48","5f18a80367ef6b0bbc5f3720","650c16f0f2faf8d7a0d14c09","651c1c335a787e07d59a9088","null","null","<p style=""font-size: 60px; font-family: BACS"">OAblcmZb</p>","","","","","","","","",""
"html-keyboard-response","300","406339","0.0-14.0-0.49","5f18a80367ef6b0bbc5f3720","650c16f0f2faf8d7a0d14c09","651c1c335a787e07d59a9088","null","null","<p style=""font-size: 60px; font-family: BACS"">GNAcaQONk</p>","","","","","","","","",""
"html-keyboard-response","301","407348","0.0-14.0-0.50","5f18a80367ef6b0bbc5f3720","650c16f0f2faf8d7a0d14c09","651c1c335a787e07d59a9088","null","null","<p style=""font-size: 60px; font-family: BACS"">NaAQdNYZu</p>","","","","","","","","",""
"html-keyboard-response","302","408355","0.0-14.0-0.51","5f18a80367ef6b0bbc5f3720","650c16f0f2faf8d7a0d14c09","651c1c335a787e07d59a9088","null","null","<p style=""font-size: 60px; font-family: BACS"">aONdYbN</p>","","","","","","","","",""
"html-keyboard-response","303","409368","0.0-14.0-0.52","5f18a80367ef6b0bbc5f3720","650c16f0f2faf8d7a0d14c09","651c1c335a787e07d59a9088","null","null","<p style=""font-size: 60px; font-family: BACS"">btlckmKcD</p>","","","","","","","","",""
"html-keyboard-response","304","410376","0.0-14.0-0.53","5f18a80367ef6b0bbc5f3720","650c16f0f2faf8d7a0d14c09","651c1c335a787e07d59a9088","null","null","<p style=""font-size: 60px; font-family: BACS"">RKYkOdOP</p>","","","","","","","","",""
"html-keyboard-response","305","411381","0.0-14.0-0.54","5f18a80367ef6b0bbc5f3720","650c16f0f2faf8d7a0d14c09","651c1c335a787e07d59a9088","null","null","<p style=""font-size: 60px; font-family: BACS"">OAblcYbN</p>","","","","","","","","",""
"html-keyboard-response","306","412387","0.0-14.0-0.55","5f18a80367ef6b0bbc5f3720","650c16f0f2faf8d7a0d14c09","651c1c335a787e07d59a9088","null","null","<p style=""font-size: 60px; font-family: BACS"">ArQuNYZu</p>","","","","","","","","",""
"html-keyboard-response","307","413399","0.0-14.0-0.56","5f18a80367ef6b0bbc5f3720","650c16f0f2faf8d7a0d14c09","651c1c335a787e07d59a9088","null","null","<p style=""font-size: 60px; font-family: BACS"">dClOCmKcD</p>","","","","","","","","",""
"html-keyboard-response","308","414409","0.0-14.0-0.57","5f18a80367ef6b0bbc5f3720","650c16f0f2faf8d7a0d14c09","651c1c335a787e07d59a9088","null","null","<p style=""font-size: 60px; font-family: BACS"">lkAkYbN</p>","","","","","","","","",""
"html-keyboard-response","309","415414","0.0-14.0-0.58","5f18a80367ef6b0bbc5f3720","650c16f0f2faf8d7a0d14c09","651c1c335a787e07d59a9088","null","null","<p style=""font-size: 60px; font-family: BACS"">btlckPTl</p>","","","","","","","","",""
"html-keyboard-response","310","416428","0.0-14.0-0.59","5f18a80367ef6b0bbc5f3720","650c16f0f2faf8d7a0d14c09","651c1c335a787e07d59a9088","null","null","<p style=""font-size: 60px; font-family: BACS"">ArQuQONk</p>","","","","","","","","",""
"html-keyboard-response","311","417433","0.0-14.0-0.60","5f18a80367ef6b0bbc5f3720","650c16f0f2faf8d7a0d14c09","651c1c335a787e07d59a9088","null","null","<p style=""font-size: 60px; font-family: BACS"">hChYPTl</p>","","","","","","","","",""
"html-keyboard-response","312","418442","0.0-14.0-0.61","5f18a80367ef6b0bbc5f3720","650c16f0f2faf8d7a0d14c09","651c1c335a787e07d59a9088","null","null","<p style=""font-size: 60px; font-family: BACS"">OAblcGUa</p>","","","","","","","","",""
"html-keyboard-response","313","419449","0.0-14.0-0.62","5f18a80367ef6b0bbc5f3720","650c16f0f2faf8d7a0d14c09","651c1c335a787e07d59a9088","null","null","<p style=""font-size: 60px; font-family: BACS"">KAERMmKcD</p>","","","","","","","","",""
"html-keyboard-response","314","420461","0.0-14.0-0.63","5f18a80367ef6b0bbc5f3720","650c16f0f2faf8d7a0d14c09","651c1c335a787e07d59a9088","null","null","<p style=""font-size: 60px; font-family: BACS"">kZUbNYZu</p>","","","","","","","","",""
"html-keyboard-response","315","421474","0.0-14.0-0.64","5f18a80367ef6b0bbc5f3720","650c16f0f2faf8d7a0d14c09","651c1c335a787e07d59a9088","null","null","<p style=""font-size: 60px; font-family: BACS"">RKYkmKcD</p>","","","","","","","","",""
"html-keyboard-response","316","422487","0.0-14.0-0.65","5f18a80367ef6b0bbc5f3720","650c16f0f2faf8d7a0d14c09","651c1c335a787e07d59a9088","null","null","<p style=""font-size: 60px; font-family: BACS"">LdrbvNYZu</p>","","","","","","","","",""
"html-keyboard-response","317","423492","0.0-14.0-0.66","5f18a80367ef6b0bbc5f3720","650c16f0f2faf8d7a0d14c09","651c1c335a787e07d59a9088","null","null","<p style=""font-size: 60px; font-family: BACS"">CYPcTRkY</p>","","","","","","","","",""
"html-keyboard-response","318","424501","0.0-14.0-0.67","5f18a80367ef6b0bbc5f3720","650c16f0f2faf8d7a0d14c09","651c1c335a787e07d59a9088","null","null","<p style=""font-size: 60px; font-family: BACS"">vblrYbN</p>","","","","","","","","",""
"html-keyboard-response","319","425507","0.0-14.0-0.68","5f18a80367ef6b0bbc5f3720","650c16f0f2faf8d7a0d14c09","651c1c335a787e07d59a9088","null","null","<p style=""font-size: 60px; font-family: BACS"">kZUbQONk</p>","","","","","","","","",""
"html-keyboard-response","320","426519","0.0-14.0-0.69","5f18a80367ef6b0bbc5f3720","650c16f0f2faf8d7a0d14c09","651c1c335a787e07d59a9088","null","null","<p style=""font-size: 60px; font-family: BACS"">hChYRdCc</p>","","","","","","","","",""
"html-keyboard-response","321","427523","0.0-14.0-0.70","5f18a80367ef6b0bbc5f3720","650c16f0f2faf8d7a0d14c09","651c1c335a787e07d59a9088","null","null","<p style=""font-size: 60px; font-family: BACS"">NaAQdGUa</p>","","","","","","","","",""
"html-keyboard-response","322","428535","0.0-14.0-0.71","5f18a80367ef6b0bbc5f3720","650c16f0f2faf8d7a0d14c09","651c1c335a787e07d59a9088","null","null","<p style=""font-size: 60px; font-family: BACS"">aONdNYZu</p>","","","","","","","","",""
"html-keyboard-response","323","429541","0.0-14.0-0.72","5f18a80367ef6b0bbc5f3720","650c16f0f2faf8d7a0d14c09","651c1c335a787e07d59a9088","null","null","<p style=""font-size: 60px; font-family: BACS"">tmtEMRdCc</p>","","","","","","","","",""
"html-keyboard-response","324","430551","0.0-14.0-0.73","5f18a80367ef6b0bbc5f3720","650c16f0f2faf8d7a0d14c09","651c1c335a787e07d59a9088","null","null","<p style=""font-size: 60px; font-family: BACS"">KAERMPTl</p>","","","","","","","","",""
"html-keyboard-response","325","431557","0.0-14.0-0.74","5f18a80367ef6b0bbc5f3720","650c16f0f2faf8d7a0d14c09","651c1c335a787e07d59a9088","null","null","<p style=""font-size: 60px; font-family: BACS"">lKdbcOdOP</p>","","","","","","","","",""
"html-keyboard-response","326","432566","0.0-14.0-0.75","5f18a80367ef6b0bbc5f3720","650c16f0f2faf8d7a0d14c09","651c1c335a787e07d59a9088","null","null","<p style=""font-size: 60px; font-family: BACS"">rkYLGUa</p>","","","","","","","","",""
"html-keyboard-response","327","433567","0.0-14.0-0.76","5f18a80367ef6b0bbc5f3720","650c16f0f2faf8d7a0d14c09","651c1c335a787e07d59a9088","null","null","<p style=""font-size: 60px; font-family: BACS"">NaAQdmZb</p>","","","","","","","","",""
"html-keyboard-response","328","434577","0.0-14.0-0.77","5f18a80367ef6b0bbc5f3720","650c16f0f2faf8d7a0d14c09","651c1c335a787e07d59a9088","null","null","<p style=""font-size: 60px; font-family: BACS"">lKdbcTRkY</p>","","","","","","","","",""
"html-keyboard-response","329","435591","0.0-14.0-0.78","5f18a80367ef6b0bbc5f3720","650c16f0f2faf8d7a0d14c09","651c1c335a787e07d59a9088","null","null","<p style=""font-size: 60px; font-family: BACS"">RKYkRdCc</p>","","","","","","","","",""
"html-keyboard-response","330","436603","0.0-14.0-0.79","5f18a80367ef6b0bbc5f3720","650c16f0f2faf8d7a0d14c09","651c1c335a787e07d59a9088","null","null","<p style=""font-size: 60px; font-family: BACS"">GNAcamZb</p>","","","","","","","","",""
"html-keyboard-response","331","439319","0.0-15.0","5f18a80367ef6b0bbc5f3720","650c16f0f2faf8d7a0d14c09","651c1c335a787e07d59a9088","2716"," ","<p>Great, you've seen the fourth block of words. You may now take a short break.</p>
      <p>Press the spacebar when you're ready to continue.</p>","","","","","","","","",""
"html-keyboard-response","332","440321","0.0-16.0-0.0","5f18a80367ef6b0bbc5f3720","650c16f0f2faf8d7a0d14c09","651c1c335a787e07d59a9088","null","null","<p style=""font-size: 60px; font-family: BACS"">tmtEMPTl</p>","","","","","","","","",""
"html-keyboard-response","333","441329","0.0-16.0-0.1","5f18a80367ef6b0bbc5f3720","650c16f0f2faf8d7a0d14c09","651c1c335a787e07d59a9088","null","null","<p style=""font-size: 60px; font-family: BACS"">tmtEMPTl</p>","","","","","","","","",""
"html-keyboard-response","334","442340","0.0-16.0-0.2","5f18a80367ef6b0bbc5f3720","650c16f0f2faf8d7a0d14c09","651c1c335a787e07d59a9088","null","null","<p style=""font-size: 60px; font-family: BACS"">tmtEMPTl</p>","","","","","","","","",""
"html-keyboard-response","335","443347","0.0-16.0-0.3","5f18a80367ef6b0bbc5f3720","650c16f0f2faf8d7a0d14c09","651c1c335a787e07d59a9088","null","null","<p style=""font-size: 60px; font-family: BACS"">tmtEMPTl</p>","","","","","","","","",""
"html-keyboard-response","336","444351","0.0-16.0-0.4","5f18a80367ef6b0bbc5f3720","650c16f0f2faf8d7a0d14c09","651c1c335a787e07d59a9088","null","null","<p style=""font-size: 60px; font-family: BACS"">tmtEMPTl</p>","","","","","","","","",""
"html-keyboard-response","337","445356","0.0-16.0-0.5","5f18a80367ef6b0bbc5f3720","650c16f0f2faf8d7a0d14c09","651c1c335a787e07d59a9088","null","null","<p style=""font-size: 60px; font-family: BACS"">tmtEMPTl</p>","","","","","","","","",""
"html-keyboard-response","338","446366","0.0-16.0-0.6","5f18a80367ef6b0bbc5f3720","650c16f0f2faf8d7a0d14c09","651c1c335a787e07d59a9088","null","null","<p style=""font-size: 60px; font-family: BACS"">tmtEMPTl</p>","","","","","","","","",""
"html-keyboard-response","339","447382","0.0-16.0-0.7","5f18a80367ef6b0bbc5f3720","650c16f0f2faf8d7a0d14c09","651c1c335a787e07d59a9088","null","null","<p style=""font-size: 60px; font-family: BACS"">tmtEMPTl</p>","","","","","","","","",""
"html-keyboard-response","340","448393","0.0-16.0-0.8","5f18a80367ef6b0bbc5f3720","650c16f0f2faf8d7a0d14c09","651c1c335a787e07d59a9088","null","null","<p style=""font-size: 60px; font-family: BACS"">tmtEMPTl</p>","","","","","","","","",""
"html-keyboard-response","341","449399","0.0-16.0-0.9","5f18a80367ef6b0bbc5f3720","650c16f0f2faf8d7a0d14c09","651c1c335a787e07d59a9088","null","null","<p style=""font-size: 60px; font-family: BACS"">tmtEMPTl</p>","","","","","","","","",""
"html-keyboard-response","342","450403","0.0-16.0-0.10","5f18a80367ef6b0bbc5f3720","650c16f0f2faf8d7a0d14c09","651c1c335a787e07d59a9088","null","null","<p style=""font-size: 60px; font-family: BACS"">tmtEMPTl</p>","","","","","","","","",""
"html-keyboard-response","343","451412","0.0-16.0-0.11","5f18a80367ef6b0bbc5f3720","650c16f0f2faf8d7a0d14c09","651c1c335a787e07d59a9088","null","null","<p style=""font-size: 60px; font-family: BACS"">tmtEMPTl</p>","","","","","","","","",""
"html-keyboard-response","344","452417","0.0-16.0-0.12","5f18a80367ef6b0bbc5f3720","650c16f0f2faf8d7a0d14c09","651c1c335a787e07d59a9088","null","null","<p style=""font-size: 60px; font-family: BACS"">tmtEMPTl</p>","","","","","","","","",""
"html-keyboard-response","345","453430","0.0-16.0-0.13","5f18a80367ef6b0bbc5f3720","650c16f0f2faf8d7a0d14c09","651c1c335a787e07d59a9088","null","null","<p style=""font-size: 60px; font-family: BACS"">tmtEMPTl</p>","","","","","","","","",""
"html-keyboard-response","346","454432","0.0-16.0-0.14","5f18a80367ef6b0bbc5f3720","650c16f0f2faf8d7a0d14c09","651c1c335a787e07d59a9088","null","null","<p style=""font-size: 60px; font-family: BACS"">tmtEMPTl</p>","","","","","","","","",""
"html-keyboard-response","347","455438","0.0-16.0-0.15","5f18a80367ef6b0bbc5f3720","650c16f0f2faf8d7a0d14c09","651c1c335a787e07d59a9088","null","null","<p style=""font-size: 60px; font-family: BACS"">tmtEMPTl</p>","","","","","","","","",""
"html-keyboard-response","348","456450","0.0-16.0-0.16","5f18a80367ef6b0bbc5f3720","650c16f0f2faf8d7a0d14c09","651c1c335a787e07d59a9088","null","null","<p style=""font-size: 60px; font-family: BACS"">tmtEMPTl</p>","","","","","","","","",""
"html-keyboard-response","349","457458","0.0-16.0-0.17","5f18a80367ef6b0bbc5f3720","650c16f0f2faf8d7a0d14c09","651c1c335a787e07d59a9088","null","null","<p style=""font-size: 60px; font-family: BACS"">tmtEMPTl</p>","","","","","","","","",""
"html-keyboard-response","350","458468","0.0-16.0-0.18","5f18a80367ef6b0bbc5f3720","650c16f0f2faf8d7a0d14c09","651c1c335a787e07d59a9088","null","null","<p style=""font-size: 60px; font-family: BACS"">tmtEMPTl</p>","","","","","","","","",""
"html-keyboard-response","351","459479","0.0-16.0-0.19","5f18a80367ef6b0bbc5f3720","650c16f0f2faf8d7a0d14c09","651c1c335a787e07d59a9088","null","null","<p style=""font-size: 60px; font-family: BACS"">tmtEMPTl</p>","","","","","","","","",""
"html-keyboard-response","352","460482","0.0-16.0-0.20","5f18a80367ef6b0bbc5f3720","650c16f0f2faf8d7a0d14c09","651c1c335a787e07d59a9088","null","null","<p style=""font-size: 60px; font-family: BACS"">tmtEMPTl</p>","","","","","","","","",""
"html-keyboard-response","353","461490","0.0-16.0-0.21","5f18a80367ef6b0bbc5f3720","650c16f0f2faf8d7a0d14c09","651c1c335a787e07d59a9088","null","null","<p style=""font-size: 60px; font-family: BACS"">tmtEMPTl</p>","","","","","","","","",""
"html-keyboard-response","354","462494","0.0-16.0-0.22","5f18a80367ef6b0bbc5f3720","650c16f0f2faf8d7a0d14c09","651c1c335a787e07d59a9088","null","null","<p style=""font-size: 60px; font-family: BACS"">tmtEMPTl</p>","","","","","","","","",""
"html-keyboard-response","355","463502","0.0-16.0-0.23","5f18a80367ef6b0bbc5f3720","650c16f0f2faf8d7a0d14c09","651c1c335a787e07d59a9088","null","null","<p style=""font-size: 60px; font-family: BACS"">tmtEMPTl</p>","","","","","","","","",""
"html-keyboard-response","356","464515","0.0-16.0-0.24","5f18a80367ef6b0bbc5f3720","650c16f0f2faf8d7a0d14c09","651c1c335a787e07d59a9088","null","null","<p style=""font-size: 60px; font-family: BACS"">tmtEMPTl</p>","","","","","","","","",""
"html-keyboard-response","357","465526","0.0-16.0-0.25","5f18a80367ef6b0bbc5f3720","650c16f0f2faf8d7a0d14c09","651c1c335a787e07d59a9088","null","null","<p style=""font-size: 60px; font-family: BACS"">tmtEMPTl</p>","","","","","","","","",""
"html-keyboard-response","358","466536","0.0-16.0-0.26","5f18a80367ef6b0bbc5f3720","650c16f0f2faf8d7a0d14c09","651c1c335a787e07d59a9088","null","null","<p style=""font-size: 60px; font-family: BACS"">tmtEMPTl</p>","","","","","","","","",""
"html-keyboard-response","359","467538","0.0-16.0-0.27","5f18a80367ef6b0bbc5f3720","650c16f0f2faf8d7a0d14c09","651c1c335a787e07d59a9088","null","null","<p style=""font-size: 60px; font-family: BACS"">tmtEMPTl</p>","","","","","","","","",""
"html-keyboard-response","360","468548","0.0-16.0-0.28","5f18a80367ef6b0bbc5f3720","650c16f0f2faf8d7a0d14c09","651c1c335a787e07d59a9088","null","null","<p style=""font-size: 60px; font-family: BACS"">tmtEMPTl</p>","","","","","","","","",""
"html-keyboard-response","361","469559","0.0-16.0-0.29","5f18a80367ef6b0bbc5f3720","650c16f0f2faf8d7a0d14c09","651c1c335a787e07d59a9088","null","null","<p style=""font-size: 60px; font-family: BACS"">tmtEMPTl</p>","","","","","","","","",""
"html-keyboard-response","362","470575","0.0-16.0-0.30","5f18a80367ef6b0bbc5f3720","650c16f0f2faf8d7a0d14c09","651c1c335a787e07d59a9088","null","null","<p style=""font-size: 60px; font-family: BACS"">tmtEMPTl</p>","","","","","","","","",""
"html-keyboard-response","363","471585","0.0-16.0-0.31","5f18a80367ef6b0bbc5f3720","650c16f0f2faf8d7a0d14c09","651c1c335a787e07d59a9088","null","null","<p style=""font-size: 60px; font-family: BACS"">tmtEMPTl</p>","","","","","","","","",""
"html-keyboard-response","364","472586","0.0-16.0-0.32","5f18a80367ef6b0bbc5f3720","650c16f0f2faf8d7a0d14c09","651c1c335a787e07d59a9088","null","null","<p style=""font-size: 60px; font-family: BACS"">tmtEMPTl</p>","","","","","","","","",""
"html-keyboard-response","365","473599","0.0-16.0-0.33","5f18a80367ef6b0bbc5f3720","650c16f0f2faf8d7a0d14c09","651c1c335a787e07d59a9088","null","null","<p style=""font-size: 60px; font-family: BACS"">tmtEMPTl</p>","","","","","","","","",""
"html-keyboard-response","366","474604","0.0-16.0-0.34","5f18a80367ef6b0bbc5f3720","650c16f0f2faf8d7a0d14c09","651c1c335a787e07d59a9088","null","null","<p style=""font-size: 60px; font-family: BACS"">tmtEMPTl</p>","","","","","","","","",""
"html-keyboard-response","367","475616","0.0-16.0-0.35","5f18a80367ef6b0bbc5f3720","650c16f0f2faf8d7a0d14c09","651c1c335a787e07d59a9088","null","null","<p style=""font-size: 60px; font-family: BACS"">tmtEMPTl</p>","","","","","","","","",""
"html-keyboard-response","368","476617","0.0-16.0-0.36","5f18a80367ef6b0bbc5f3720","650c16f0f2faf8d7a0d14c09","651c1c335a787e07d59a9088","null","null","<p style=""font-size: 60px; font-family: BACS"">tmtEMPTl</p>","","","","","","","","",""
"html-keyboard-response","369","477624","0.0-16.0-0.37","5f18a80367ef6b0bbc5f3720","650c16f0f2faf8d7a0d14c09","651c1c335a787e07d59a9088","null","null","<p style=""font-size: 60px; font-family: BACS"">tmtEMPTl</p>","","","","","","","","",""
"html-keyboard-response","370","478630","0.0-16.0-0.38","5f18a80367ef6b0bbc5f3720","650c16f0f2faf8d7a0d14c09","651c1c335a787e07d59a9088","null","null","<p style=""font-size: 60px; font-family: BACS"">tmtEMPTl</p>","","","","","","","","",""
"html-keyboard-response","371","479633","0.0-16.0-0.39","5f18a80367ef6b0bbc5f3720","650c16f0f2faf8d7a0d14c09","651c1c335a787e07d59a9088","null","null","<p style=""font-size: 60px; font-family: BACS"">tmtEMPTl</p>","","","","","","","","",""
"html-keyboard-response","372","480635","0.0-16.0-0.40","5f18a80367ef6b0bbc5f3720","650c16f0f2faf8d7a0d14c09","651c1c335a787e07d59a9088","null","null","<p style=""font-size: 60px; font-family: BACS"">tmtEMPTl</p>","","","","","","","","",""
"html-keyboard-response","373","481649","0.0-16.0-0.41","5f18a80367ef6b0bbc5f3720","650c16f0f2faf8d7a0d14c09","651c1c335a787e07d59a9088","null","null","<p style=""font-size: 60px; font-family: BACS"">tmtEMPTl</p>","","","","","","","","",""
"html-keyboard-response","374","482657","0.0-16.0-0.42","5f18a80367ef6b0bbc5f3720","650c16f0f2faf8d7a0d14c09","651c1c335a787e07d59a9088","null","null","<p style=""font-size: 60px; font-family: BACS"">tmtEMPTl</p>","","","","","","","","",""
"html-keyboard-response","375","483668","0.0-16.0-0.43","5f18a80367ef6b0bbc5f3720","650c16f0f2faf8d7a0d14c09","651c1c335a787e07d59a9088","null","null","<p style=""font-size: 60px; font-family: BACS"">tmtEMPTl</p>","","","","","","","","",""
"html-keyboard-response","376","484679","0.0-16.0-0.44","5f18a80367ef6b0bbc5f3720","650c16f0f2faf8d7a0d14c09","651c1c335a787e07d59a9088","null","null","<p style=""font-size: 60px; font-family: BACS"">tmtEMPTl</p>","","","","","","","","",""
"html-keyboard-response","377","485687","0.0-16.0-0.45","5f18a80367ef6b0bbc5f3720","650c16f0f2faf8d7a0d14c09","651c1c335a787e07d59a9088","null","null","<p style=""font-size: 60px; font-family: BACS"">tmtEMPTl</p>","","","","","","","","",""
"html-keyboard-response","378","486692","0.0-16.0-0.46","5f18a80367ef6b0bbc5f3720","650c16f0f2faf8d7a0d14c09","651c1c335a787e07d59a9088","null","null","<p style=""font-size: 60px; font-family: BACS"">tmtEMPTl</p>","","","","","","","","",""
"html-keyboard-response","379","487702","0.0-16.0-0.47","5f18a80367ef6b0bbc5f3720","650c16f0f2faf8d7a0d14c09","651c1c335a787e07d59a9088","null","null","<p style=""font-size: 60px; font-family: BACS"">tmtEMPTl</p>","","","","","","","","",""
"html-keyboard-response","380","488712","0.0-16.0-0.48","5f18a80367ef6b0bbc5f3720","650c16f0f2faf8d7a0d14c09","651c1c335a787e07d59a9088","null","null","<p style=""font-size: 60px; font-family: BACS"">tmtEMPTl</p>","","","","","","","","",""
"html-keyboard-response","381","489714","0.0-16.0-0.49","5f18a80367ef6b0bbc5f3720","650c16f0f2faf8d7a0d14c09","651c1c335a787e07d59a9088","null","null","<p style=""font-size: 60px; font-family: BACS"">tmtEMPTl</p>","","","","","","","","",""
"html-keyboard-response","382","490726","0.0-16.0-0.50","5f18a80367ef6b0bbc5f3720","650c16f0f2faf8d7a0d14c09","651c1c335a787e07d59a9088","null","null","<p style=""font-size: 60px; font-family: BACS"">tmtEMPTl</p>","","","","","","","","",""
"html-keyboard-response","383","491742","0.0-16.0-0.51","5f18a80367ef6b0bbc5f3720","650c16f0f2faf8d7a0d14c09","651c1c335a787e07d59a9088","null","null","<p style=""font-size: 60px; font-family: BACS"">tmtEMPTl</p>","","","","","","","","",""
"html-keyboard-response","384","492744","0.0-16.0-0.52","5f18a80367ef6b0bbc5f3720","650c16f0f2faf8d7a0d14c09","651c1c335a787e07d59a9088","null","null","<p style=""font-size: 60px; font-family: BACS"">tmtEMPTl</p>","","","","","","","","",""
"html-keyboard-response","385","493747","0.0-16.0-0.53","5f18a80367ef6b0bbc5f3720","650c16f0f2faf8d7a0d14c09","651c1c335a787e07d59a9088","null","null","<p style=""font-size: 60px; font-family: BACS"">tmtEMPTl</p>","","","","","","","","",""
"html-keyboard-response","386","494755","0.0-16.0-0.54","5f18a80367ef6b0bbc5f3720","650c16f0f2faf8d7a0d14c09","651c1c335a787e07d59a9088","null","null","<p style=""font-size: 60px; font-family: BACS"">tmtEMPTl</p>","","","","","","","","",""
"html-keyboard-response","387","495757","0.0-16.0-0.55","5f18a80367ef6b0bbc5f3720","650c16f0f2faf8d7a0d14c09","651c1c335a787e07d59a9088","null","null","<p style=""font-size: 60px; font-family: BACS"">tmtEMPTl</p>","","","","","","","","",""
"html-keyboard-response","388","496768","0.0-16.0-0.56","5f18a80367ef6b0bbc5f3720","650c16f0f2faf8d7a0d14c09","651c1c335a787e07d59a9088","null","null","<p style=""font-size: 60px; font-family: BACS"">tmtEMPTl</p>","","","","","","","","",""
"html-keyboard-response","389","497778","0.0-16.0-0.57","5f18a80367ef6b0bbc5f3720","650c16f0f2faf8d7a0d14c09","651c1c335a787e07d59a9088","null","null","<p style=""font-size: 60px; font-family: BACS"">tmtEMPTl</p>","","","","","","","","",""
"html-keyboard-response","390","498783","0.0-16.0-0.58","5f18a80367ef6b0bbc5f3720","650c16f0f2faf8d7a0d14c09","651c1c335a787e07d59a9088","null","null","<p style=""font-size: 60px; font-family: BACS"">tmtEMPTl</p>","","","","","","","","",""
"html-keyboard-response","391","499792","0.0-16.0-0.59","5f18a80367ef6b0bbc5f3720","650c16f0f2faf8d7a0d14c09","651c1c335a787e07d59a9088","null","null","<p style=""font-size: 60px; font-family: BACS"">tmtEMPTl</p>","","","","","","","","",""
"html-keyboard-response","392","500799","0.0-16.0-0.60","5f18a80367ef6b0bbc5f3720","650c16f0f2faf8d7a0d14c09","651c1c335a787e07d59a9088","null","null","<p style=""font-size: 60px; font-family: BACS"">tmtEMPTl</p>","","","","","","","","",""
"html-keyboard-response","393","501801","0.0-16.0-0.61","5f18a80367ef6b0bbc5f3720","650c16f0f2faf8d7a0d14c09","651c1c335a787e07d59a9088","null","null","<p style=""font-size: 60px; font-family: BACS"">tmtEMPTl</p>","","","","","","","","",""
"html-keyboard-response","394","502805","0.0-16.0-0.62","5f18a80367ef6b0bbc5f3720","650c16f0f2faf8d7a0d14c09","651c1c335a787e07d59a9088","null","null","<p style=""font-size: 60px; font-family: BACS"">tmtEMPTl</p>","","","","","","","","",""
"html-keyboard-response","395","503817","0.0-16.0-0.63","5f18a80367ef6b0bbc5f3720","650c16f0f2faf8d7a0d14c09","651c1c335a787e07d59a9088","null","null","<p style=""font-size: 60px; font-family: BACS"">tmtEMPTl</p>","","","","","","","","",""
"html-keyboard-response","396","504831","0.0-16.0-0.64","5f18a80367ef6b0bbc5f3720","650c16f0f2faf8d7a0d14c09","651c1c335a787e07d59a9088","null","null","<p style=""font-size: 60px; font-family: BACS"">tmtEMPTl</p>","","","","","","","","",""
"html-keyboard-response","397","505842","0.0-16.0-0.65","5f18a80367ef6b0bbc5f3720","650c16f0f2faf8d7a0d14c09","651c1c335a787e07d59a9088","null","null","<p style=""font-size: 60px; font-family: BACS"">tmtEMPTl</p>","","","","","","","","",""
"html-keyboard-response","398","506851","0.0-16.0-0.66","5f18a80367ef6b0bbc5f3720","650c16f0f2faf8d7a0d14c09","651c1c335a787e07d59a9088","null","null","<p style=""font-size: 60px; font-family: BACS"">tmtEMPTl</p>","","","","","","","","",""
