"trial_type","trial_index","time_elapsed","internal_node_id","subject_id","study_id","session_id","rt","response","stimulus","success","item","task","correct_response","testing_condition","correct","target","confound","name"
"pavlovia","0","3048","0.0-0.0","611e9c16e90a0d4c6f0d8df5","650c16f0f2faf8d7a0d14c09","651c1bcd8c21c8304b9a8491","","","","","","","","","","","",""
"survey-html-form","1","8229","0.0-1.0","611e9c16e90a0d4c6f0d8df5","650c16f0f2faf8d7a0d14c09","651c1bcd8c21c8304b9a8491","5178","{""ID"":""611e9c16e90a0d4c6f0d8df5""}","","","","","","","","","",""
"html-keyboard-response","2","34354","0.0-2.0","611e9c16e90a0d4c6f0d8df5","650c16f0f2faf8d7a0d14c09","651c1bcd8c21c8304b9a8491","26122"," ","<p style=""font-size: 15px;"">Before beginning, we ask that you read the consent information and confirm your agreement to participate in the experiment.</p>
      <p style=""font-size: 15px;""> We ask that you remember that this is a research project and that your participation is entirely voluntary. You can stop your participation at any time, without needing to provide any explanation. The study we're asking you to participate in aims at examining how readers process written words. You will be engaged in a session of apprximately 20 minutes, followed by a brief questionnaire. You will have the opportunity to take a few breaks during the experiment. You will be paid £4 for your participation, corresponding to a rate of £8/hour. While this experiment looks at cognitive faculties, this experiment doesn't constitute clinical proof of eventual pathologies.</p>
      <p style=""font-size: 15px;"">All of the information collected thanks to yours and others' participation will be held in a secure password-protected server, and will not be shared with anyone not authorised to view it. Your personal information will be kept with an arbitrary participant ID. Thanks to this data anonymity process, any researcher analysing the data won't be able to track the information back to a specific participant. Therefore, this process will make identifying you impossibile, even when results from the study will be published in scientific reviews, presented at congresses, or at any other public forum. More generally, the collected data will be treated in accordance with the laws on privacy and conformity to the Legislative Degree n. 196 ""Code regarding the protection of personal data"" of the 30th of June 2003 and to the European Regulation 2016/670 (General Data Protection Regulation - GDPR). The Data Protection Officer is Avv. Valentina Carollo, who can be contacted at the following email addresses: <a href=""mailto:dpo@sissa.it"">dpo@sissa.it</a> or <a href=""mailto:rpd@sissa.it"">rpd@sissa.it</a> - PEC: <a href=""mailto:protocollo@pec.sissa.it"">protocollo@pec.sissa.it</a>.</p>
      <p style=""font-size: 15px;""> Before expressing your consent to participate, we would like to remind you again that in case you need explanations on any aspect of the experimental procedure, the researcher is at your disposition (<a href=""mailto:aliebelt@sissa.it"">aliebelt@sissa.it</a>, <a href=""mailto:davide.crepaldi@sissa.it"">davide.crepaldi@sissa.it</a>).</p>
      <p style=""font-size: 15px;"">If you would like to download the informed consent form, you can do so here: <a href=""BASL-Informed_Consent.pdf"" download>informed consent form</a>.</p>
      <p style=""font-size: 15px;"">We ask that you press the spacebar to proceed to the consent section.</p>","","","","","","","","",""
"survey-html-form","3","69653","0.0-3.0","611e9c16e90a0d4c6f0d8df5","650c16f0f2faf8d7a0d14c09","651c1bcd8c21c8304b9a8491","35298","{""consent1"":""YES"",""consent2"":""YES"",""consent3"":""YES"",""consent4"":""YES"",""consent5"":""YES"",""consent6"":""YES""}","","","","","","","","","",""
"fullscreen","4","76953","0.0-4.0","611e9c16e90a0d4c6f0d8df5","650c16f0f2faf8d7a0d14c09","651c1bcd8c21c8304b9a8491","","","","true","","","","","","","",""
"html-keyboard-response","5","99035","0.0-5.0","611e9c16e90a0d4c6f0d8df5","650c16f0f2faf8d7a0d14c09","651c1bcd8c21c8304b9a8491","22093"," ","<p>Welcome, and thank you very much for your time!</p>
      <p>In this experiment, you'll be a language expert who's been asked to take a look at words that Earth has received in its first communication with aliens. Your task, in this first part of the experiment, is to pay close attention to the words you'll be shown; later, world leaders will ask you questions on what you saw. The words will be shown to you quite quickly; it seems that the aliens were in a hurry :-)</p>
      <p>Press the spacebar to continue.<p>","","","","","","","","",""
"html-keyboard-response","6","99087","0.0-6.0","611e9c16e90a0d4c6f0d8df5","650c16f0f2faf8d7a0d14c09","651c1bcd8c21c8304b9a8491","null","null","<p style=""font-size: 120px; font-family: BACS""> </p>","","","","","","","","",""
"html-keyboard-response","7","107207","0.0-7.0","611e9c16e90a0d4c6f0d8df5","650c16f0f2faf8d7a0d14c09","651c1bcd8c21c8304b9a8491","8119"," ","<p>Here is an example of the words you'll see:</p>
      <img src='esempio.png' height='400px'>
      <p>When you're ready to begin, press the spacebar.</p></div>","","","","","","","","",""
"html-keyboard-response","8","108223","0.0-8.0-0.0","611e9c16e90a0d4c6f0d8df5","650c16f0f2faf8d7a0d14c09","651c1bcd8c21c8304b9a8491","null","null","<p style=""font-size: 60px; font-family: BACS"">PlEKEAO</p>","","","","","","","","",""
"html-keyboard-response","9","109226","0.0-8.0-0.1","611e9c16e90a0d4c6f0d8df5","650c16f0f2faf8d7a0d14c09","651c1bcd8c21c8304b9a8491","null","null","<p style=""font-size: 60px; font-family: BACS"">OAmAdYBO</p>","","","","","","","","",""
"html-keyboard-response","10","110231","0.0-8.0-0.2","611e9c16e90a0d4c6f0d8df5","650c16f0f2faf8d7a0d14c09","651c1bcd8c21c8304b9a8491","null","null","<p style=""font-size: 60px; font-family: BACS"">udkmJUNa</p>","","","","","","","","",""
"html-keyboard-response","11","111233","0.0-8.0-0.3","611e9c16e90a0d4c6f0d8df5","650c16f0f2faf8d7a0d14c09","651c1bcd8c21c8304b9a8491","null","null","<p style=""font-size: 60px; font-family: BACS"">dOYmlbRC</p>","","","","","","","","",""
"html-keyboard-response","12","112237","0.0-8.0-0.4","611e9c16e90a0d4c6f0d8df5","650c16f0f2faf8d7a0d14c09","651c1bcd8c21c8304b9a8491","null","null","<p style=""font-size: 60px; font-family: BACS"">krGuUZu</p>","","","","","","","","",""
"html-keyboard-response","13","113240","0.0-8.0-0.5","611e9c16e90a0d4c6f0d8df5","650c16f0f2faf8d7a0d14c09","651c1bcd8c21c8304b9a8491","null","null","<p style=""font-size: 60px; font-family: BACS"">ZvalvAld</p>","","","","","","","","",""
"html-keyboard-response","14","114252","0.0-8.0-0.6","611e9c16e90a0d4c6f0d8df5","650c16f0f2faf8d7a0d14c09","651c1bcd8c21c8304b9a8491","null","null","<p style=""font-size: 60px; font-family: BACS"">tcYbdbRC</p>","","","","","","","","",""
"html-keyboard-response","15","115256","0.0-8.0-0.7","611e9c16e90a0d4c6f0d8df5","650c16f0f2faf8d7a0d14c09","651c1bcd8c21c8304b9a8491","null","null","<p style=""font-size: 60px; font-family: BACS"">hlkTOBT</p>","","","","","","","","",""
"html-keyboard-response","16","116258","0.0-8.0-0.8","611e9c16e90a0d4c6f0d8df5","650c16f0f2faf8d7a0d14c09","651c1bcd8c21c8304b9a8491","null","null","<p style=""font-size: 60px; font-family: BACS"">ZvalvUZu</p>","","","","","","","","",""
"html-keyboard-response","17","117261","0.0-8.0-0.9","611e9c16e90a0d4c6f0d8df5","650c16f0f2faf8d7a0d14c09","651c1bcd8c21c8304b9a8491","null","null","<p style=""font-size: 60px; font-family: BACS"">RdPtDOBT</p>","","","","","","","","",""
"html-keyboard-response","18","118263","0.0-8.0-0.10","611e9c16e90a0d4c6f0d8df5","650c16f0f2faf8d7a0d14c09","651c1bcd8c21c8304b9a8491","null","null","<p style=""font-size: 60px; font-family: BACS"">AJLrJUNa</p>","","","","","","","","",""
"html-keyboard-response","19","119267","0.0-8.0-0.11","611e9c16e90a0d4c6f0d8df5","650c16f0f2faf8d7a0d14c09","651c1bcd8c21c8304b9a8491","null","null","<p style=""font-size: 60px; font-family: BACS"">UYZlZUZu</p>","","","","","","","","",""
"html-keyboard-response","20","120270","0.0-8.0-0.12","611e9c16e90a0d4c6f0d8df5","650c16f0f2faf8d7a0d14c09","651c1bcd8c21c8304b9a8491","null","null","<p style=""font-size: 60px; font-family: BACS"">hlkTbRC</p>","","","","","","","","",""
"html-keyboard-response","21","121273","0.0-8.0-0.13","611e9c16e90a0d4c6f0d8df5","650c16f0f2faf8d7a0d14c09","651c1bcd8c21c8304b9a8491","null","null","<p style=""font-size: 60px; font-family: BACS"">tcYbdEAO</p>","","","","","","","","",""
"html-keyboard-response","22","122277","0.0-8.0-0.14","611e9c16e90a0d4c6f0d8df5","650c16f0f2faf8d7a0d14c09","651c1bcd8c21c8304b9a8491","null","null","<p style=""font-size: 60px; font-family: BACS"">LdQvLUOk</p>","","","","","","","","",""
"html-keyboard-response","23","123281","0.0-8.0-0.15","611e9c16e90a0d4c6f0d8df5","650c16f0f2faf8d7a0d14c09","651c1bcd8c21c8304b9a8491","null","null","<p style=""font-size: 60px; font-family: BACS"">hlkTOdOP</p>","","","","","","","","",""
"html-keyboard-response","24","124284","0.0-8.0-0.16","611e9c16e90a0d4c6f0d8df5","650c16f0f2faf8d7a0d14c09","651c1bcd8c21c8304b9a8491","null","null","<p style=""font-size: 60px; font-family: BACS"">lkAkJUNa</p>","","","","","","","","",""
"html-keyboard-response","25","125287","0.0-8.0-0.17","611e9c16e90a0d4c6f0d8df5","650c16f0f2faf8d7a0d14c09","651c1bcd8c21c8304b9a8491","null","null","<p style=""font-size: 60px; font-family: BACS"">RdPtDEAO</p>","","","","","","","","",""
"html-keyboard-response","26","126291","0.0-8.0-0.18","611e9c16e90a0d4c6f0d8df5","650c16f0f2faf8d7a0d14c09","651c1bcd8c21c8304b9a8491","null","null","<p style=""font-size: 60px; font-family: BACS"">AJLrUZu</p>","","","","","","","","",""
"html-keyboard-response","27","127296","0.0-8.0-0.19","611e9c16e90a0d4c6f0d8df5","650c16f0f2faf8d7a0d14c09","651c1bcd8c21c8304b9a8491","null","null","<p style=""font-size: 60px; font-family: BACS"">lkAkOQAr</p>","","","","","","","","",""
"html-keyboard-response","28","128297","0.0-8.0-0.20","611e9c16e90a0d4c6f0d8df5","650c16f0f2faf8d7a0d14c09","651c1bcd8c21c8304b9a8491","null","null","<p style=""font-size: 60px; font-family: BACS"">OdYPEAO</p>","","","","","","","","",""
"html-keyboard-response","29","129300","0.0-8.0-0.21","611e9c16e90a0d4c6f0d8df5","650c16f0f2faf8d7a0d14c09","651c1bcd8c21c8304b9a8491","null","null","<p style=""font-size: 60px; font-family: BACS"">dOYmlOBT</p>","","","","","","","","",""
"html-keyboard-response","30","130302","0.0-8.0-0.22","611e9c16e90a0d4c6f0d8df5","650c16f0f2faf8d7a0d14c09","651c1bcd8c21c8304b9a8491","null","null","<p style=""font-size: 60px; font-family: BACS"">udkmAld</p>","","","","","","","","",""
"html-keyboard-response","31","131305","0.0-8.0-0.23","611e9c16e90a0d4c6f0d8df5","650c16f0f2faf8d7a0d14c09","651c1bcd8c21c8304b9a8491","null","null","<p style=""font-size: 60px; font-family: BACS"">rGUAYOQAr</p>","","","","","","","","",""
"html-keyboard-response","32","132308","0.0-8.0-0.24","611e9c16e90a0d4c6f0d8df5","650c16f0f2faf8d7a0d14c09","651c1bcd8c21c8304b9a8491","null","null","<p style=""font-size: 60px; font-family: BACS"">UYZlZAld</p>","","","","","","","","",""
"html-keyboard-response","33","133312","0.0-8.0-0.25","611e9c16e90a0d4c6f0d8df5","650c16f0f2faf8d7a0d14c09","651c1bcd8c21c8304b9a8491","null","null","<p style=""font-size: 60px; font-family: BACS"">hmKPMYBO</p>","","","","","","","","",""
"html-keyboard-response","34","134316","0.0-8.0-0.26","611e9c16e90a0d4c6f0d8df5","650c16f0f2faf8d7a0d14c09","651c1bcd8c21c8304b9a8491","null","null","<p style=""font-size: 60px; font-family: BACS"">AJLrLUOk</p>","","","","","","","","",""
"html-keyboard-response","35","135320","0.0-8.0-0.27","611e9c16e90a0d4c6f0d8df5","650c16f0f2faf8d7a0d14c09","651c1bcd8c21c8304b9a8491","null","null","<p style=""font-size: 60px; font-family: BACS"">rGUAYAld</p>","","","","","","","","",""
"html-keyboard-response","36","136328","0.0-8.0-0.28","611e9c16e90a0d4c6f0d8df5","650c16f0f2faf8d7a0d14c09","651c1bcd8c21c8304b9a8491","null","null","<p style=""font-size: 60px; font-family: BACS"">EtMDMEAO</p>","","","","","","","","",""
"html-keyboard-response","37","137349","0.0-8.0-0.29","611e9c16e90a0d4c6f0d8df5","650c16f0f2faf8d7a0d14c09","651c1bcd8c21c8304b9a8491","null","null","<p style=""font-size: 60px; font-family: BACS"">LdQvOQAr</p>","","","","","","","","",""
"html-keyboard-response","38","138352","0.0-8.0-0.30","611e9c16e90a0d4c6f0d8df5","650c16f0f2faf8d7a0d14c09","651c1bcd8c21c8304b9a8491","null","null","<p style=""font-size: 60px; font-family: BACS"">TdmAEAO</p>","","","","","","","","",""
"html-keyboard-response","39","139356","0.0-8.0-0.31","611e9c16e90a0d4c6f0d8df5","650c16f0f2faf8d7a0d14c09","651c1bcd8c21c8304b9a8491","null","null","<p style=""font-size: 60px; font-family: BACS"">NulkAld</p>","","","","","","","","",""
"html-keyboard-response","40","140360","0.0-8.0-0.32","611e9c16e90a0d4c6f0d8df5","650c16f0f2faf8d7a0d14c09","651c1bcd8c21c8304b9a8491","null","null","<p style=""font-size: 60px; font-family: BACS"">RdPtDYBO</p>","","","","","","","","",""
"html-keyboard-response","41","141364","0.0-8.0-0.33","611e9c16e90a0d4c6f0d8df5","650c16f0f2faf8d7a0d14c09","651c1bcd8c21c8304b9a8491","null","null","<p style=""font-size: 60px; font-family: BACS"">LdQvUZu</p>","","","","","","","","",""
"html-keyboard-response","42","142370","0.0-8.0-0.34","611e9c16e90a0d4c6f0d8df5","650c16f0f2faf8d7a0d14c09","651c1bcd8c21c8304b9a8491","null","null","<p style=""font-size: 60px; font-family: BACS"">OdYPOdOP</p>","","","","","","","","",""
"html-keyboard-response","43","143372","0.0-8.0-0.35","611e9c16e90a0d4c6f0d8df5","650c16f0f2faf8d7a0d14c09","651c1bcd8c21c8304b9a8491","null","null","<p style=""font-size: 60px; font-family: BACS"">hlkTYBO</p>","","","","","","","","",""
"html-keyboard-response","44","144385","0.0-8.0-0.36","611e9c16e90a0d4c6f0d8df5","650c16f0f2faf8d7a0d14c09","651c1bcd8c21c8304b9a8491","null","null","<p style=""font-size: 60px; font-family: BACS"">OAmAdbRC</p>","","","","","","","","",""
"html-keyboard-response","45","145388","0.0-8.0-0.37","611e9c16e90a0d4c6f0d8df5","650c16f0f2faf8d7a0d14c09","651c1bcd8c21c8304b9a8491","null","null","<p style=""font-size: 60px; font-family: BACS"">OdYPYBO</p>","","","","","","","","",""
"html-keyboard-response","46","146390","0.0-8.0-0.38","611e9c16e90a0d4c6f0d8df5","650c16f0f2faf8d7a0d14c09","651c1bcd8c21c8304b9a8491","null","null","<p style=""font-size: 60px; font-family: BACS"">krGuAld</p>","","","","","","","","",""
"html-keyboard-response","47","147395","0.0-8.0-0.39","611e9c16e90a0d4c6f0d8df5","650c16f0f2faf8d7a0d14c09","651c1bcd8c21c8304b9a8491","null","null","<p style=""font-size: 60px; font-family: BACS"">dOYmlEAO</p>","","","","","","","","",""
"html-keyboard-response","48","148411","0.0-8.0-0.40","611e9c16e90a0d4c6f0d8df5","650c16f0f2faf8d7a0d14c09","651c1bcd8c21c8304b9a8491","null","null","<p style=""font-size: 60px; font-family: BACS"">rGUAYLUOk</p>","","","","","","","","",""
"html-keyboard-response","49","149414","0.0-8.0-0.41","611e9c16e90a0d4c6f0d8df5","650c16f0f2faf8d7a0d14c09","651c1bcd8c21c8304b9a8491","null","null","<p style=""font-size: 60px; font-family: BACS"">hmKPMOdOP</p>","","","","","","","","",""
"html-keyboard-response","50","150418","0.0-8.0-0.42","611e9c16e90a0d4c6f0d8df5","650c16f0f2faf8d7a0d14c09","651c1bcd8c21c8304b9a8491","null","null","<p style=""font-size: 60px; font-family: BACS"">ZvalvJUNa</p>","","","","","","","","",""
"html-keyboard-response","51","151430","0.0-8.0-0.43","611e9c16e90a0d4c6f0d8df5","650c16f0f2faf8d7a0d14c09","651c1bcd8c21c8304b9a8491","null","null","<p style=""font-size: 60px; font-family: BACS"">EtMDMbRC</p>","","","","","","","","",""
"html-keyboard-response","52","152449","0.0-8.0-0.44","611e9c16e90a0d4c6f0d8df5","650c16f0f2faf8d7a0d14c09","651c1bcd8c21c8304b9a8491","null","null","<p style=""font-size: 60px; font-family: BACS"">tcYbdOBT</p>","","","","","","","","",""
"html-keyboard-response","53","153452","0.0-8.0-0.45","611e9c16e90a0d4c6f0d8df5","650c16f0f2faf8d7a0d14c09","651c1bcd8c21c8304b9a8491","null","null","<p style=""font-size: 60px; font-family: BACS"">PlEKOdOP</p>","","","","","","","","",""
"html-keyboard-response","54","154455","0.0-8.0-0.46","611e9c16e90a0d4c6f0d8df5","650c16f0f2faf8d7a0d14c09","651c1bcd8c21c8304b9a8491","null","null","<p style=""font-size: 60px; font-family: BACS"">lkAkUZu</p>","","","","","","","","",""
"html-keyboard-response","55","155460","0.0-8.0-0.47","611e9c16e90a0d4c6f0d8df5","650c16f0f2faf8d7a0d14c09","651c1bcd8c21c8304b9a8491","null","null","<p style=""font-size: 60px; font-family: BACS"">dOYmlOdOP</p>","","","","","","","","",""
"html-keyboard-response","56","156464","0.0-8.0-0.48","611e9c16e90a0d4c6f0d8df5","650c16f0f2faf8d7a0d14c09","651c1bcd8c21c8304b9a8491","null","null","<p style=""font-size: 60px; font-family: BACS"">NulkJUNa</p>","","","","","","","","",""
"html-keyboard-response","57","157468","0.0-8.0-0.49","611e9c16e90a0d4c6f0d8df5","650c16f0f2faf8d7a0d14c09","651c1bcd8c21c8304b9a8491","null","null","<p style=""font-size: 60px; font-family: BACS"">udkmOQAr</p>","","","","","","","","",""
"html-keyboard-response","58","158471","0.0-8.0-0.50","611e9c16e90a0d4c6f0d8df5","650c16f0f2faf8d7a0d14c09","651c1bcd8c21c8304b9a8491","null","null","<p style=""font-size: 60px; font-family: BACS"">RdPtDOdOP</p>","","","","","","","","",""
"html-keyboard-response","59","159486","0.0-8.0-0.51","611e9c16e90a0d4c6f0d8df5","650c16f0f2faf8d7a0d14c09","651c1bcd8c21c8304b9a8491","null","null","<p style=""font-size: 60px; font-family: BACS"">YNrAmLUOk</p>","","","","","","","","",""
"html-keyboard-response","60","160489","0.0-8.0-0.52","611e9c16e90a0d4c6f0d8df5","650c16f0f2faf8d7a0d14c09","651c1bcd8c21c8304b9a8491","null","null","<p style=""font-size: 60px; font-family: BACS"">TdmAOBT</p>","","","","","","","","",""
"html-keyboard-response","61","161493","0.0-8.0-0.53","611e9c16e90a0d4c6f0d8df5","650c16f0f2faf8d7a0d14c09","651c1bcd8c21c8304b9a8491","null","null","<p style=""font-size: 60px; font-family: BACS"">YNrAmJUNa</p>","","","","","","","","",""
"html-keyboard-response","62","162496","0.0-8.0-0.54","611e9c16e90a0d4c6f0d8df5","650c16f0f2faf8d7a0d14c09","651c1bcd8c21c8304b9a8491","null","null","<p style=""font-size: 60px; font-family: BACS"">krGuOQAr</p>","","","","","","","","",""
"html-keyboard-response","63","163500","0.0-8.0-0.55","611e9c16e90a0d4c6f0d8df5","650c16f0f2faf8d7a0d14c09","651c1bcd8c21c8304b9a8491","null","null","<p style=""font-size: 60px; font-family: BACS"">hmKPMOBT</p>","","","","","","","","",""
"html-keyboard-response","64","164504","0.0-8.0-0.56","611e9c16e90a0d4c6f0d8df5","650c16f0f2faf8d7a0d14c09","651c1bcd8c21c8304b9a8491","null","null","<p style=""font-size: 60px; font-family: BACS"">AJLrAld</p>","","","","","","","","",""
"html-keyboard-response","65","165507","0.0-8.0-0.57","611e9c16e90a0d4c6f0d8df5","650c16f0f2faf8d7a0d14c09","651c1bcd8c21c8304b9a8491","null","null","<p style=""font-size: 60px; font-family: BACS"">OdYPbRC</p>","","","","","","","","",""
"html-keyboard-response","66","166511","0.0-8.0-0.58","611e9c16e90a0d4c6f0d8df5","650c16f0f2faf8d7a0d14c09","651c1bcd8c21c8304b9a8491","null","null","<p style=""font-size: 60px; font-family: BACS"">UYZlZLUOk</p>","","","","","","","","",""
"html-keyboard-response","67","167514","0.0-8.0-0.59","611e9c16e90a0d4c6f0d8df5","650c16f0f2faf8d7a0d14c09","651c1bcd8c21c8304b9a8491","null","null","<p style=""font-size: 60px; font-family: BACS"">EtMDMYBO</p>","","","","","","","","",""
"html-keyboard-response","68","168519","0.0-8.0-0.60","611e9c16e90a0d4c6f0d8df5","650c16f0f2faf8d7a0d14c09","651c1bcd8c21c8304b9a8491","null","null","<p style=""font-size: 60px; font-family: BACS"">NulkUZu</p>","","","","","","","","",""
"html-keyboard-response","69","169523","0.0-8.0-0.61","611e9c16e90a0d4c6f0d8df5","650c16f0f2faf8d7a0d14c09","651c1bcd8c21c8304b9a8491","null","null","<p style=""font-size: 60px; font-family: BACS"">YNrAmOQAr</p>","","","","","","","","",""
"html-keyboard-response","70","170527","0.0-8.0-0.62","611e9c16e90a0d4c6f0d8df5","650c16f0f2faf8d7a0d14c09","651c1bcd8c21c8304b9a8491","null","null","<p style=""font-size: 60px; font-family: BACS"">udkmLUOk</p>","","","","","","","","",""
"html-keyboard-response","71","171530","0.0-8.0-0.63","611e9c16e90a0d4c6f0d8df5","650c16f0f2faf8d7a0d14c09","651c1bcd8c21c8304b9a8491","null","null","<p style=""font-size: 60px; font-family: BACS"">TdmAOdOP</p>","","","","","","","","",""
"html-keyboard-response","72","172533","0.0-8.0-0.64","611e9c16e90a0d4c6f0d8df5","650c16f0f2faf8d7a0d14c09","651c1bcd8c21c8304b9a8491","null","null","<p style=""font-size: 60px; font-family: BACS"">krGuJUNa</p>","","","","","","","","",""
"html-keyboard-response","73","173535","0.0-8.0-0.65","611e9c16e90a0d4c6f0d8df5","650c16f0f2faf8d7a0d14c09","651c1bcd8c21c8304b9a8491","null","null","<p style=""font-size: 60px; font-family: BACS"">EtMDMOBT</p>","","","","","","","","",""
"html-keyboard-response","74","174539","0.0-8.0-0.66","611e9c16e90a0d4c6f0d8df5","650c16f0f2faf8d7a0d14c09","651c1bcd8c21c8304b9a8491","null","null","<p style=""font-size: 60px; font-family: BACS"">hmKPMbRC</p>","","","","","","","","",""
"html-keyboard-response","75","175544","0.0-8.0-0.67","611e9c16e90a0d4c6f0d8df5","650c16f0f2faf8d7a0d14c09","651c1bcd8c21c8304b9a8491","null","null","<p style=""font-size: 60px; font-family: BACS"">YNrAmAld</p>","","","","","","","","",""
"html-keyboard-response","76","176547","0.0-8.0-0.68","611e9c16e90a0d4c6f0d8df5","650c16f0f2faf8d7a0d14c09","651c1bcd8c21c8304b9a8491","null","null","<p style=""font-size: 60px; font-family: BACS"">NulkOQAr</p>","","","","","","","","",""
"html-keyboard-response","77","177550","0.0-8.0-0.69","611e9c16e90a0d4c6f0d8df5","650c16f0f2faf8d7a0d14c09","651c1bcd8c21c8304b9a8491","null","null","<p style=""font-size: 60px; font-family: BACS"">rGUAYUZu</p>","","","","","","","","",""
"html-keyboard-response","78","178567","0.0-8.0-0.70","611e9c16e90a0d4c6f0d8df5","650c16f0f2faf8d7a0d14c09","651c1bcd8c21c8304b9a8491","null","null","<p style=""font-size: 60px; font-family: BACS"">OAmAdEAO</p>","","","","","","","","",""
"html-keyboard-response","79","179570","0.0-8.0-0.71","611e9c16e90a0d4c6f0d8df5","650c16f0f2faf8d7a0d14c09","651c1bcd8c21c8304b9a8491","null","null","<p style=""font-size: 60px; font-family: BACS"">LdQvJUNa</p>","","","","","","","","",""
"html-keyboard-response","80","180573","0.0-8.0-0.72","611e9c16e90a0d4c6f0d8df5","650c16f0f2faf8d7a0d14c09","651c1bcd8c21c8304b9a8491","null","null","<p style=""font-size: 60px; font-family: BACS"">TdmAbRC</p>","","","","","","","","",""
"html-keyboard-response","81","181577","0.0-8.0-0.73","611e9c16e90a0d4c6f0d8df5","650c16f0f2faf8d7a0d14c09","651c1bcd8c21c8304b9a8491","null","null","<p style=""font-size: 60px; font-family: BACS"">PlEKOBT</p>","","","","","","","","",""
"html-keyboard-response","82","182580","0.0-8.0-0.74","611e9c16e90a0d4c6f0d8df5","650c16f0f2faf8d7a0d14c09","651c1bcd8c21c8304b9a8491","null","null","<p style=""font-size: 60px; font-family: BACS"">lkAkLUOk</p>","","","","","","","","",""
"html-keyboard-response","83","183584","0.0-8.0-0.75","611e9c16e90a0d4c6f0d8df5","650c16f0f2faf8d7a0d14c09","651c1bcd8c21c8304b9a8491","null","null","<p style=""font-size: 60px; font-family: BACS"">tcYbdYBO</p>","","","","","","","","",""
"html-keyboard-response","84","184587","0.0-8.0-0.76","611e9c16e90a0d4c6f0d8df5","650c16f0f2faf8d7a0d14c09","651c1bcd8c21c8304b9a8491","null","null","<p style=""font-size: 60px; font-family: BACS"">UYZlZOQAr</p>","","","","","","","","",""
"html-keyboard-response","85","185606","0.0-8.0-0.77","611e9c16e90a0d4c6f0d8df5","650c16f0f2faf8d7a0d14c09","651c1bcd8c21c8304b9a8491","null","null","<p style=""font-size: 60px; font-family: BACS"">PlEKYBO</p>","","","","","","","","",""
"html-keyboard-response","86","186609","0.0-8.0-0.78","611e9c16e90a0d4c6f0d8df5","650c16f0f2faf8d7a0d14c09","651c1bcd8c21c8304b9a8491","null","null","<p style=""font-size: 60px; font-family: BACS"">ZvalvLUOk</p>","","","","","","","","",""
"html-keyboard-response","87","187612","0.0-8.0-0.79","611e9c16e90a0d4c6f0d8df5","650c16f0f2faf8d7a0d14c09","651c1bcd8c21c8304b9a8491","null","null","<p style=""font-size: 60px; font-family: BACS"">OAmAdOdOP</p>","","","","","","","","",""
"html-keyboard-response","88","206518","0.0-9.0","611e9c16e90a0d4c6f0d8df5","650c16f0f2faf8d7a0d14c09","651c1bcd8c21c8304b9a8491","18905"," ","<p>Great, you've seen the first block of words. You may now take a short break.</p>
      <p>Press the spacebar when you're ready to continue.</p>","","","","","","","","",""
"html-keyboard-response","89","207538","0.0-10.0-0.0","611e9c16e90a0d4c6f0d8df5","650c16f0f2faf8d7a0d14c09","651c1bcd8c21c8304b9a8491","null","null","<p style=""font-size: 60px; font-family: BACS"">hlkTYBO</p>","","","","","","","","",""
"html-keyboard-response","90","208542","0.0-10.0-0.1","611e9c16e90a0d4c6f0d8df5","650c16f0f2faf8d7a0d14c09","651c1bcd8c21c8304b9a8491","null","null","<p style=""font-size: 60px; font-family: BACS"">ZvalvJUNa</p>","","","","","","","","",""
"html-keyboard-response","91","209544","0.0-10.0-0.2","611e9c16e90a0d4c6f0d8df5","650c16f0f2faf8d7a0d14c09","651c1bcd8c21c8304b9a8491","null","null","<p style=""font-size: 60px; font-family: BACS"">LdQvOQAr</p>","","","","","","","","",""
"html-keyboard-response","92","210549","0.0-10.0-0.3","611e9c16e90a0d4c6f0d8df5","650c16f0f2faf8d7a0d14c09","651c1bcd8c21c8304b9a8491","null","null","<p style=""font-size: 60px; font-family: BACS"">tcYbdYBO</p>","","","","","","","","",""
"html-keyboard-response","93","211552","0.0-10.0-0.4","611e9c16e90a0d4c6f0d8df5","650c16f0f2faf8d7a0d14c09","651c1bcd8c21c8304b9a8491","null","null","<p style=""font-size: 60px; font-family: BACS"">PlEKOdOP</p>","","","","","","","","",""
"html-keyboard-response","94","212555","0.0-10.0-0.5","611e9c16e90a0d4c6f0d8df5","650c16f0f2faf8d7a0d14c09","651c1bcd8c21c8304b9a8491","null","null","<p style=""font-size: 60px; font-family: BACS"">NulkOQAr</p>","","","","","","","","",""
"html-keyboard-response","95","213560","0.0-10.0-0.6","611e9c16e90a0d4c6f0d8df5","650c16f0f2faf8d7a0d14c09","651c1bcd8c21c8304b9a8491","null","null","<p style=""font-size: 60px; font-family: BACS"">AJLrLUOk</p>","","","","","","","","",""
"html-keyboard-response","96","214563","0.0-10.0-0.7","611e9c16e90a0d4c6f0d8df5","650c16f0f2faf8d7a0d14c09","651c1bcd8c21c8304b9a8491","null","null","<p style=""font-size: 60px; font-family: BACS"">ZvalvUZu</p>","","","","","","","","",""
"html-keyboard-response","97","215565","0.0-10.0-0.8","611e9c16e90a0d4c6f0d8df5","650c16f0f2faf8d7a0d14c09","651c1bcd8c21c8304b9a8491","null","null","<p style=""font-size: 60px; font-family: BACS"">RdPtDOdOP</p>","","","","","","","","",""
"html-keyboard-response","98","216568","0.0-10.0-0.9","611e9c16e90a0d4c6f0d8df5","650c16f0f2faf8d7a0d14c09","651c1bcd8c21c8304b9a8491","null","null","<p style=""font-size: 60px; font-family: BACS"">YNrAmJUNa</p>","","","","","","","","",""
"html-keyboard-response","99","217572","0.0-10.0-0.10","611e9c16e90a0d4c6f0d8df5","650c16f0f2faf8d7a0d14c09","651c1bcd8c21c8304b9a8491","null","null","<p style=""font-size: 60px; font-family: BACS"">ZvalvLUOk</p>","","","","","","","","",""
"html-keyboard-response","100","218577","0.0-10.0-0.11","611e9c16e90a0d4c6f0d8df5","650c16f0f2faf8d7a0d14c09","651c1bcd8c21c8304b9a8491","null","null","<p style=""font-size: 60px; font-family: BACS"">PlEKOBT</p>","","","","","","","","",""
"html-keyboard-response","101","219580","0.0-10.0-0.12","611e9c16e90a0d4c6f0d8df5","650c16f0f2faf8d7a0d14c09","651c1bcd8c21c8304b9a8491","null","null","<p style=""font-size: 60px; font-family: BACS"">NulkUZu</p>","","","","","","","","",""
"html-keyboard-response","102","220585","0.0-10.0-0.13","611e9c16e90a0d4c6f0d8df5","650c16f0f2faf8d7a0d14c09","651c1bcd8c21c8304b9a8491","null","null","<p style=""font-size: 60px; font-family: BACS"">tcYbdbRC</p>","","","","","","","","",""
"html-keyboard-response","103","221589","0.0-10.0-0.14","611e9c16e90a0d4c6f0d8df5","650c16f0f2faf8d7a0d14c09","651c1bcd8c21c8304b9a8491","null","null","<p style=""font-size: 60px; font-family: BACS"">dOYmlOdOP</p>","","","","","","","","",""
"html-keyboard-response","104","222593","0.0-10.0-0.15","611e9c16e90a0d4c6f0d8df5","650c16f0f2faf8d7a0d14c09","651c1bcd8c21c8304b9a8491","null","null","<p style=""font-size: 60px; font-family: BACS"">PlEKYBO</p>","","","","","","","","",""
"html-keyboard-response","105","223596","0.0-10.0-0.16","611e9c16e90a0d4c6f0d8df5","650c16f0f2faf8d7a0d14c09","651c1bcd8c21c8304b9a8491","null","null","<p style=""font-size: 60px; font-family: BACS"">hmKPMOBT</p>","","","","","","","","",""
"html-keyboard-response","106","224600","0.0-10.0-0.17","611e9c16e90a0d4c6f0d8df5","650c16f0f2faf8d7a0d14c09","651c1bcd8c21c8304b9a8491","null","null","<p style=""font-size: 60px; font-family: BACS"">tcYbdEAO</p>","","","","","","","","",""
"html-keyboard-response","107","225611","0.0-10.0-0.18","611e9c16e90a0d4c6f0d8df5","650c16f0f2faf8d7a0d14c09","651c1bcd8c21c8304b9a8491","null","null","<p style=""font-size: 60px; font-family: BACS"">UYZlZUZu</p>","","","","","","","","",""
"html-keyboard-response","108","226615","0.0-10.0-0.19","611e9c16e90a0d4c6f0d8df5","650c16f0f2faf8d7a0d14c09","651c1bcd8c21c8304b9a8491","null","null","<p style=""font-size: 60px; font-family: BACS"">OdYPOdOP</p>","","","","","","","","",""
"html-keyboard-response","109","227619","0.0-10.0-0.20","611e9c16e90a0d4c6f0d8df5","650c16f0f2faf8d7a0d14c09","651c1bcd8c21c8304b9a8491","null","null","<p style=""font-size: 60px; font-family: BACS"">EtMDMEAO</p>","","","","","","","","",""
"html-keyboard-response","110","228622","0.0-10.0-0.21","611e9c16e90a0d4c6f0d8df5","650c16f0f2faf8d7a0d14c09","651c1bcd8c21c8304b9a8491","null","null","<p style=""font-size: 60px; font-family: BACS"">udkmLUOk</p>","","","","","","","","",""
"html-keyboard-response","111","229625","0.0-10.0-0.22","611e9c16e90a0d4c6f0d8df5","650c16f0f2faf8d7a0d14c09","651c1bcd8c21c8304b9a8491","null","null","<p style=""font-size: 60px; font-family: BACS"">rGUAYAld</p>","","","","","","","","",""
"html-keyboard-response","112","230628","0.0-10.0-0.23","611e9c16e90a0d4c6f0d8df5","650c16f0f2faf8d7a0d14c09","651c1bcd8c21c8304b9a8491","null","null","<p style=""font-size: 60px; font-family: BACS"">OAmAdEAO</p>","","","","","","","","",""
"html-keyboard-response","113","231631","0.0-10.0-0.24","611e9c16e90a0d4c6f0d8df5","650c16f0f2faf8d7a0d14c09","651c1bcd8c21c8304b9a8491","null","null","<p style=""font-size: 60px; font-family: BACS"">tcYbdOBT</p>","","","","","","","","",""
"html-keyboard-response","114","232635","0.0-10.0-0.25","611e9c16e90a0d4c6f0d8df5","650c16f0f2faf8d7a0d14c09","651c1bcd8c21c8304b9a8491","null","null","<p style=""font-size: 60px; font-family: BACS"">OdYPYBO</p>","","","","","","","","",""
"html-keyboard-response","115","233639","0.0-10.0-0.26","611e9c16e90a0d4c6f0d8df5","650c16f0f2faf8d7a0d14c09","651c1bcd8c21c8304b9a8491","null","null","<p style=""font-size: 60px; font-family: BACS"">YNrAmAld</p>","","","","","","","","",""
"html-keyboard-response","116","234641","0.0-10.0-0.27","611e9c16e90a0d4c6f0d8df5","650c16f0f2faf8d7a0d14c09","651c1bcd8c21c8304b9a8491","null","null","<p style=""font-size: 60px; font-family: BACS"">rGUAYOQAr</p>","","","","","","","","",""
"html-keyboard-response","117","235642","0.0-10.0-0.28","611e9c16e90a0d4c6f0d8df5","650c16f0f2faf8d7a0d14c09","651c1bcd8c21c8304b9a8491","null","null","<p style=""font-size: 60px; font-family: BACS"">OdYPbRC</p>","","","","","","","","",""
"html-keyboard-response","118","236647","0.0-10.0-0.29","611e9c16e90a0d4c6f0d8df5","650c16f0f2faf8d7a0d14c09","651c1bcd8c21c8304b9a8491","null","null","<p style=""font-size: 60px; font-family: BACS"">lkAkOQAr</p>","","","","","","","","",""
"html-keyboard-response","119","237650","0.0-10.0-0.30","611e9c16e90a0d4c6f0d8df5","650c16f0f2faf8d7a0d14c09","651c1bcd8c21c8304b9a8491","null","null","<p style=""font-size: 60px; font-family: BACS"">dOYmlOBT</p>","","","","","","","","",""
"html-keyboard-response","120","238654","0.0-10.0-0.31","611e9c16e90a0d4c6f0d8df5","650c16f0f2faf8d7a0d14c09","651c1bcd8c21c8304b9a8491","null","null","<p style=""font-size: 60px; font-family: BACS"">lkAkUZu</p>","","","","","","","","",""
"html-keyboard-response","121","239656","0.0-10.0-0.32","611e9c16e90a0d4c6f0d8df5","650c16f0f2faf8d7a0d14c09","651c1bcd8c21c8304b9a8491","null","null","<p style=""font-size: 60px; font-family: BACS"">hmKPMbRC</p>","","","","","","","","",""
"html-keyboard-response","122","240661","0.0-10.0-0.33","611e9c16e90a0d4c6f0d8df5","650c16f0f2faf8d7a0d14c09","651c1bcd8c21c8304b9a8491","null","null","<p style=""font-size: 60px; font-family: BACS"">AJLrUZu</p>","","","","","","","","",""
"html-keyboard-response","123","241666","0.0-10.0-0.34","611e9c16e90a0d4c6f0d8df5","650c16f0f2faf8d7a0d14c09","651c1bcd8c21c8304b9a8491","null","null","<p style=""font-size: 60px; font-family: BACS"">RdPtDOBT</p>","","","","","","","","",""
"html-keyboard-response","124","242688","0.0-10.0-0.35","611e9c16e90a0d4c6f0d8df5","650c16f0f2faf8d7a0d14c09","651c1bcd8c21c8304b9a8491","null","null","<p style=""font-size: 60px; font-family: BACS"">EtMDMYBO</p>","","","","","","","","",""
"html-keyboard-response","125","243691","0.0-10.0-0.36","611e9c16e90a0d4c6f0d8df5","650c16f0f2faf8d7a0d14c09","651c1bcd8c21c8304b9a8491","null","null","<p style=""font-size: 60px; font-family: BACS"">NulkAld</p>","","","","","","","","",""
"html-keyboard-response","126","244694","0.0-10.0-0.37","611e9c16e90a0d4c6f0d8df5","650c16f0f2faf8d7a0d14c09","651c1bcd8c21c8304b9a8491","null","null","<p style=""font-size: 60px; font-family: BACS"">AJLrJUNa</p>","","","","","","","","",""
"html-keyboard-response","127","245698","0.0-10.0-0.38","611e9c16e90a0d4c6f0d8df5","650c16f0f2faf8d7a0d14c09","651c1bcd8c21c8304b9a8491","null","null","<p style=""font-size: 60px; font-family: BACS"">krGuAld</p>","","","","","","","","",""
"html-keyboard-response","128","246703","0.0-10.0-0.39","611e9c16e90a0d4c6f0d8df5","650c16f0f2faf8d7a0d14c09","651c1bcd8c21c8304b9a8491","null","null","<p style=""font-size: 60px; font-family: BACS"">RdPtDEAO</p>","","","","","","","","",""
"html-keyboard-response","129","247707","0.0-10.0-0.40","611e9c16e90a0d4c6f0d8df5","650c16f0f2faf8d7a0d14c09","651c1bcd8c21c8304b9a8491","null","null","<p style=""font-size: 60px; font-family: BACS"">UYZlZOQAr</p>","","","","","","","","",""
"html-keyboard-response","130","248709","0.0-10.0-0.41","611e9c16e90a0d4c6f0d8df5","650c16f0f2faf8d7a0d14c09","651c1bcd8c21c8304b9a8491","null","null","<p style=""font-size: 60px; font-family: BACS"">EtMDMOBT</p>","","","","","","","","",""
"html-keyboard-response","131","249713","0.0-10.0-0.42","611e9c16e90a0d4c6f0d8df5","650c16f0f2faf8d7a0d14c09","651c1bcd8c21c8304b9a8491","null","null","<p style=""font-size: 60px; font-family: BACS"">LdQvUZu</p>","","","","","","","","",""
"html-keyboard-response","132","250716","0.0-10.0-0.43","611e9c16e90a0d4c6f0d8df5","650c16f0f2faf8d7a0d14c09","651c1bcd8c21c8304b9a8491","null","null","<p style=""font-size: 60px; font-family: BACS"">OAmAdYBO</p>","","","","","","","","",""
"html-keyboard-response","133","251732","0.0-10.0-0.44","611e9c16e90a0d4c6f0d8df5","650c16f0f2faf8d7a0d14c09","651c1bcd8c21c8304b9a8491","null","null","<p style=""font-size: 60px; font-family: BACS"">udkmJUNa</p>","","","","","","","","",""
"html-keyboard-response","134","252735","0.0-10.0-0.45","611e9c16e90a0d4c6f0d8df5","650c16f0f2faf8d7a0d14c09","651c1bcd8c21c8304b9a8491","null","null","<p style=""font-size: 60px; font-family: BACS"">hlkTbRC</p>","","","","","","","","",""
"html-keyboard-response","135","253737","0.0-10.0-0.46","611e9c16e90a0d4c6f0d8df5","650c16f0f2faf8d7a0d14c09","651c1bcd8c21c8304b9a8491","null","null","<p style=""font-size: 60px; font-family: BACS"">udkmAld</p>","","","","","","","","",""
"html-keyboard-response","136","254740","0.0-10.0-0.47","611e9c16e90a0d4c6f0d8df5","650c16f0f2faf8d7a0d14c09","651c1bcd8c21c8304b9a8491","null","null","<p style=""font-size: 60px; font-family: BACS"">TdmAOdOP</p>","","","","","","","","",""
"html-keyboard-response","137","255752","0.0-10.0-0.48","611e9c16e90a0d4c6f0d8df5","650c16f0f2faf8d7a0d14c09","651c1bcd8c21c8304b9a8491","null","null","<p style=""font-size: 60px; font-family: BACS"">ZvalvAld</p>","","","","","","","","",""
"html-keyboard-response","138","256767","0.0-10.0-0.49","611e9c16e90a0d4c6f0d8df5","650c16f0f2faf8d7a0d14c09","651c1bcd8c21c8304b9a8491","null","null","<p style=""font-size: 60px; font-family: BACS"">dOYmlEAO</p>","","","","","","","","",""
"html-keyboard-response","139","257771","0.0-10.0-0.50","611e9c16e90a0d4c6f0d8df5","650c16f0f2faf8d7a0d14c09","651c1bcd8c21c8304b9a8491","null","null","<p style=""font-size: 60px; font-family: BACS"">lkAkLUOk</p>","","","","","","","","",""
"html-keyboard-response","140","258774","0.0-10.0-0.51","611e9c16e90a0d4c6f0d8df5","650c16f0f2faf8d7a0d14c09","651c1bcd8c21c8304b9a8491","null","null","<p style=""font-size: 60px; font-family: BACS"">OdYPEAO</p>","","","","","","","","",""
"html-keyboard-response","141","259778","0.0-10.0-0.52","611e9c16e90a0d4c6f0d8df5","650c16f0f2faf8d7a0d14c09","651c1bcd8c21c8304b9a8491","null","null","<p style=""font-size: 60px; font-family: BACS"">OAmAdbRC</p>","","","","","","","","",""
"html-keyboard-response","142","260780","0.0-10.0-0.53","611e9c16e90a0d4c6f0d8df5","650c16f0f2faf8d7a0d14c09","651c1bcd8c21c8304b9a8491","null","null","<p style=""font-size: 60px; font-family: BACS"">TdmAEAO</p>","","","","","","","","",""
"html-keyboard-response","143","261788","0.0-10.0-0.54","611e9c16e90a0d4c6f0d8df5","650c16f0f2faf8d7a0d14c09","651c1bcd8c21c8304b9a8491","null","null","<p style=""font-size: 60px; font-family: BACS"">rGUAYLUOk</p>","","","","","","","","",""
"html-keyboard-response","144","262808","0.0-10.0-0.55","611e9c16e90a0d4c6f0d8df5","650c16f0f2faf8d7a0d14c09","651c1bcd8c21c8304b9a8491","null","null","<p style=""font-size: 60px; font-family: BACS"">lkAkJUNa</p>","","","","","","","","",""
"html-keyboard-response","145","263810","0.0-10.0-0.56","611e9c16e90a0d4c6f0d8df5","650c16f0f2faf8d7a0d14c09","651c1bcd8c21c8304b9a8491","null","null","<p style=""font-size: 60px; font-family: BACS"">TdmAbRC</p>","","","","","","","","",""
"html-keyboard-response","146","264813","0.0-10.0-0.57","611e9c16e90a0d4c6f0d8df5","650c16f0f2faf8d7a0d14c09","651c1bcd8c21c8304b9a8491","null","null","<p style=""font-size: 60px; font-family: BACS"">hmKPMYBO</p>","","","","","","","","",""
"html-keyboard-response","147","265816","0.0-10.0-0.58","611e9c16e90a0d4c6f0d8df5","650c16f0f2faf8d7a0d14c09","651c1bcd8c21c8304b9a8491","null","null","<p style=""font-size: 60px; font-family: BACS"">LdQvJUNa</p>","","","","","","","","",""
"html-keyboard-response","148","266819","0.0-10.0-0.59","611e9c16e90a0d4c6f0d8df5","650c16f0f2faf8d7a0d14c09","651c1bcd8c21c8304b9a8491","null","null","<p style=""font-size: 60px; font-family: BACS"">udkmOQAr</p>","","","","","","","","",""
"html-keyboard-response","149","267822","0.0-10.0-0.60","611e9c16e90a0d4c6f0d8df5","650c16f0f2faf8d7a0d14c09","651c1bcd8c21c8304b9a8491","null","null","<p style=""font-size: 60px; font-family: BACS"">TdmAOBT</p>","","","","","","","","",""
"html-keyboard-response","150","268825","0.0-10.0-0.61","611e9c16e90a0d4c6f0d8df5","650c16f0f2faf8d7a0d14c09","651c1bcd8c21c8304b9a8491","null","null","<p style=""font-size: 60px; font-family: BACS"">OAmAdOdOP</p>","","","","","","","","",""
"html-keyboard-response","151","269827","0.0-10.0-0.62","611e9c16e90a0d4c6f0d8df5","650c16f0f2faf8d7a0d14c09","651c1bcd8c21c8304b9a8491","null","null","<p style=""font-size: 60px; font-family: BACS"">EtMDMbRC</p>","","","","","","","","",""
"html-keyboard-response","152","270831","0.0-10.0-0.63","611e9c16e90a0d4c6f0d8df5","650c16f0f2faf8d7a0d14c09","651c1bcd8c21c8304b9a8491","null","null","<p style=""font-size: 60px; font-family: BACS"">rGUAYUZu</p>","","","","","","","","",""
"html-keyboard-response","153","271848","0.0-10.0-0.64","611e9c16e90a0d4c6f0d8df5","650c16f0f2faf8d7a0d14c09","651c1bcd8c21c8304b9a8491","null","null","<p style=""font-size: 60px; font-family: BACS"">krGuJUNa</p>","","","","","","","","",""
"html-keyboard-response","154","272853","0.0-10.0-0.65","611e9c16e90a0d4c6f0d8df5","650c16f0f2faf8d7a0d14c09","651c1bcd8c21c8304b9a8491","null","null","<p style=""font-size: 60px; font-family: BACS"">YNrAmOQAr</p>","","","","","","","","",""
"html-keyboard-response","155","273857","0.0-10.0-0.66","611e9c16e90a0d4c6f0d8df5","650c16f0f2faf8d7a0d14c09","651c1bcd8c21c8304b9a8491","null","null","<p style=""font-size: 60px; font-family: BACS"">AJLrAld</p>","","","","","","","","",""
"html-keyboard-response","156","274861","0.0-10.0-0.67","611e9c16e90a0d4c6f0d8df5","650c16f0f2faf8d7a0d14c09","651c1bcd8c21c8304b9a8491","null","null","<p style=""font-size: 60px; font-family: BACS"">hlkTOBT</p>","","","","","","","","",""
"html-keyboard-response","157","275864","0.0-10.0-0.68","611e9c16e90a0d4c6f0d8df5","650c16f0f2faf8d7a0d14c09","651c1bcd8c21c8304b9a8491","null","null","<p style=""font-size: 60px; font-family: BACS"">dOYmlbRC</p>","","","","","","","","",""
"html-keyboard-response","158","276868","0.0-10.0-0.69","611e9c16e90a0d4c6f0d8df5","650c16f0f2faf8d7a0d14c09","651c1bcd8c21c8304b9a8491","null","null","<p style=""font-size: 60px; font-family: BACS"">RdPtDYBO</p>","","","","","","","","",""
"html-keyboard-response","159","277871","0.0-10.0-0.70","611e9c16e90a0d4c6f0d8df5","650c16f0f2faf8d7a0d14c09","651c1bcd8c21c8304b9a8491","null","null","<p style=""font-size: 60px; font-family: BACS"">krGuOQAr</p>","","","","","","","","",""
"html-keyboard-response","160","278875","0.0-10.0-0.71","611e9c16e90a0d4c6f0d8df5","650c16f0f2faf8d7a0d14c09","651c1bcd8c21c8304b9a8491","null","null","<p style=""font-size: 60px; font-family: BACS"">UYZlZLUOk</p>","","","","","","","","",""
"html-keyboard-response","161","279878","0.0-10.0-0.72","611e9c16e90a0d4c6f0d8df5","650c16f0f2faf8d7a0d14c09","651c1bcd8c21c8304b9a8491","null","null","<p style=""font-size: 60px; font-family: BACS"">hlkTOdOP</p>","","","","","","","","",""
"html-keyboard-response","162","280883","0.0-10.0-0.73","611e9c16e90a0d4c6f0d8df5","650c16f0f2faf8d7a0d14c09","651c1bcd8c21c8304b9a8491","null","null","<p style=""font-size: 60px; font-family: BACS"">YNrAmLUOk</p>","","","","","","","","",""
"html-keyboard-response","163","281887","0.0-10.0-0.74","611e9c16e90a0d4c6f0d8df5","650c16f0f2faf8d7a0d14c09","651c1bcd8c21c8304b9a8491","null","null","<p style=""font-size: 60px; font-family: BACS"">PlEKEAO</p>","","","","","","","","",""
"html-keyboard-response","164","282890","0.0-10.0-0.75","611e9c16e90a0d4c6f0d8df5","650c16f0f2faf8d7a0d14c09","651c1bcd8c21c8304b9a8491","null","null","<p style=""font-size: 60px; font-family: BACS"">hmKPMOdOP</p>","","","","","","","","",""
"html-keyboard-response","165","283893","0.0-10.0-0.76","611e9c16e90a0d4c6f0d8df5","650c16f0f2faf8d7a0d14c09","651c1bcd8c21c8304b9a8491","null","null","<p style=""font-size: 60px; font-family: BACS"">UYZlZAld</p>","","","","","","","","",""
"html-keyboard-response","166","284895","0.0-10.0-0.77","611e9c16e90a0d4c6f0d8df5","650c16f0f2faf8d7a0d14c09","651c1bcd8c21c8304b9a8491","null","null","<p style=""font-size: 60px; font-family: BACS"">krGuUZu</p>","","","","","","","","",""
"html-keyboard-response","167","285899","0.0-10.0-0.78","611e9c16e90a0d4c6f0d8df5","650c16f0f2faf8d7a0d14c09","651c1bcd8c21c8304b9a8491","null","null","<p style=""font-size: 60px; font-family: BACS"">LdQvLUOk</p>","","","","","","","","",""
"html-keyboard-response","168","286903","0.0-10.0-0.79","611e9c16e90a0d4c6f0d8df5","650c16f0f2faf8d7a0d14c09","651c1bcd8c21c8304b9a8491","null","null","<p style=""font-size: 60px; font-family: BACS"">NulkJUNa</p>","","","","","","","","",""
"html-keyboard-response","169","293428","0.0-11.0","611e9c16e90a0d4c6f0d8df5","650c16f0f2faf8d7a0d14c09","651c1bcd8c21c8304b9a8491","6523"," ","<p>Great, you've seen the second block of words. You may now take a short break.</p>
      <p>Press the spacebar when you're ready to continue.</p>","","","","","","","","",""
"html-keyboard-response","170","294448","0.0-12.0-0.0","611e9c16e90a0d4c6f0d8df5","650c16f0f2faf8d7a0d14c09","651c1bcd8c21c8304b9a8491","null","null","<p style=""font-size: 60px; font-family: BACS"">OAmAdOdOP</p>","","","","","","","","",""
"html-keyboard-response","171","295452","0.0-12.0-0.1","611e9c16e90a0d4c6f0d8df5","650c16f0f2faf8d7a0d14c09","651c1bcd8c21c8304b9a8491","null","null","<p style=""font-size: 60px; font-family: BACS"">hmKPMbRC</p>","","","","","","","","",""
"html-keyboard-response","172","296456","0.0-12.0-0.2","611e9c16e90a0d4c6f0d8df5","650c16f0f2faf8d7a0d14c09","651c1bcd8c21c8304b9a8491","null","null","<p style=""font-size: 60px; font-family: BACS"">LdQvOQAr</p>","","","","","","","","",""
"html-keyboard-response","173","297460","0.0-12.0-0.3","611e9c16e90a0d4c6f0d8df5","650c16f0f2faf8d7a0d14c09","651c1bcd8c21c8304b9a8491","null","null","<p style=""font-size: 60px; font-family: BACS"">hlkTOBT</p>","","","","","","","","",""
"html-keyboard-response","174","298462","0.0-12.0-0.4","611e9c16e90a0d4c6f0d8df5","650c16f0f2faf8d7a0d14c09","651c1bcd8c21c8304b9a8491","null","null","<p style=""font-size: 60px; font-family: BACS"">hmKPMOdOP</p>","","","","","","","","",""
"html-keyboard-response","175","299465","0.0-12.0-0.5","611e9c16e90a0d4c6f0d8df5","650c16f0f2faf8d7a0d14c09","651c1bcd8c21c8304b9a8491","null","null","<p style=""font-size: 60px; font-family: BACS"">udkmAld</p>","","","","","","","","",""
"html-keyboard-response","176","300467","0.0-12.0-0.6","611e9c16e90a0d4c6f0d8df5","650c16f0f2faf8d7a0d14c09","651c1bcd8c21c8304b9a8491","null","null","<p style=""font-size: 60px; font-family: BACS"">TdmAbRC</p>","","","","","","","","",""
"html-keyboard-response","177","301473","0.0-12.0-0.7","611e9c16e90a0d4c6f0d8df5","650c16f0f2faf8d7a0d14c09","651c1bcd8c21c8304b9a8491","null","null","<p style=""font-size: 60px; font-family: BACS"">OAmAdYBO</p>","","","","","","","","",""
"html-keyboard-response","178","302494","0.0-12.0-0.8","611e9c16e90a0d4c6f0d8df5","650c16f0f2faf8d7a0d14c09","651c1bcd8c21c8304b9a8491","null","null","<p style=""font-size: 60px; font-family: BACS"">AJLrLUOk</p>","","","","","","","","",""
"html-keyboard-response","179","303513","0.0-12.0-0.9","611e9c16e90a0d4c6f0d8df5","650c16f0f2faf8d7a0d14c09","651c1bcd8c21c8304b9a8491","null","null","<p style=""font-size: 60px; font-family: BACS"">udkmOQAr</p>","","","","","","","","",""
"html-keyboard-response","180","304520","0.0-12.0-0.10","611e9c16e90a0d4c6f0d8df5","650c16f0f2faf8d7a0d14c09","651c1bcd8c21c8304b9a8491","null","null","<p style=""font-size: 60px; font-family: BACS"">AJLrAld</p>","","","","","","","","",""
"html-keyboard-response","181","305530","0.0-12.0-0.11","611e9c16e90a0d4c6f0d8df5","650c16f0f2faf8d7a0d14c09","651c1bcd8c21c8304b9a8491","null","null","<p style=""font-size: 60px; font-family: BACS"">tcYbdYBO</p>","","","","","","","","",""
"html-keyboard-response","182","306535","0.0-12.0-0.12","611e9c16e90a0d4c6f0d8df5","650c16f0f2faf8d7a0d14c09","651c1bcd8c21c8304b9a8491","null","null","<p style=""font-size: 60px; font-family: BACS"">AJLrUZu</p>","","","","","","","","",""
"html-keyboard-response","183","307539","0.0-12.0-0.13","611e9c16e90a0d4c6f0d8df5","650c16f0f2faf8d7a0d14c09","651c1bcd8c21c8304b9a8491","null","null","<p style=""font-size: 60px; font-family: BACS"">lkAkLUOk</p>","","","","","","","","",""
"html-keyboard-response","184","308545","0.0-12.0-0.14","611e9c16e90a0d4c6f0d8df5","650c16f0f2faf8d7a0d14c09","651c1bcd8c21c8304b9a8491","null","null","<p style=""font-size: 60px; font-family: BACS"">TdmAEAO</p>","","","","","","","","",""
"html-keyboard-response","185","309566","0.0-12.0-0.15","611e9c16e90a0d4c6f0d8df5","650c16f0f2faf8d7a0d14c09","651c1bcd8c21c8304b9a8491","null","null","<p style=""font-size: 60px; font-family: BACS"">RdPtDOBT</p>","","","","","","","","",""
"html-keyboard-response","186","310570","0.0-12.0-0.16","611e9c16e90a0d4c6f0d8df5","650c16f0f2faf8d7a0d14c09","651c1bcd8c21c8304b9a8491","null","null","<p style=""font-size: 60px; font-family: BACS"">tcYbdEAO</p>","","","","","","","","",""
"html-keyboard-response","187","311573","0.0-12.0-0.17","611e9c16e90a0d4c6f0d8df5","650c16f0f2faf8d7a0d14c09","651c1bcd8c21c8304b9a8491","null","null","<p style=""font-size: 60px; font-family: BACS"">krGuJUNa</p>","","","","","","","","",""
"html-keyboard-response","188","312576","0.0-12.0-0.18","611e9c16e90a0d4c6f0d8df5","650c16f0f2faf8d7a0d14c09","651c1bcd8c21c8304b9a8491","null","null","<p style=""font-size: 60px; font-family: BACS"">ZvalvAld</p>","","","","","","","","",""
"html-keyboard-response","189","313579","0.0-12.0-0.19","611e9c16e90a0d4c6f0d8df5","650c16f0f2faf8d7a0d14c09","651c1bcd8c21c8304b9a8491","null","null","<p style=""font-size: 60px; font-family: BACS"">UYZlZOQAr</p>","","","","","","","","",""
"html-keyboard-response","190","314582","0.0-12.0-0.20","611e9c16e90a0d4c6f0d8df5","650c16f0f2faf8d7a0d14c09","651c1bcd8c21c8304b9a8491","null","null","<p style=""font-size: 60px; font-family: BACS"">udkmJUNa</p>","","","","","","","","",""
"html-keyboard-response","191","315588","0.0-12.0-0.21","611e9c16e90a0d4c6f0d8df5","650c16f0f2faf8d7a0d14c09","651c1bcd8c21c8304b9a8491","null","null","<p style=""font-size: 60px; font-family: BACS"">UYZlZUZu</p>","","","","","","","","",""
"html-keyboard-response","192","316590","0.0-12.0-0.22","611e9c16e90a0d4c6f0d8df5","650c16f0f2faf8d7a0d14c09","651c1bcd8c21c8304b9a8491","null","null","<p style=""font-size: 60px; font-family: BACS"">hlkTbRC</p>","","","","","","","","",""
"html-keyboard-response","193","317593","0.0-12.0-0.23","611e9c16e90a0d4c6f0d8df5","650c16f0f2faf8d7a0d14c09","651c1bcd8c21c8304b9a8491","null","null","<p style=""font-size: 60px; font-family: BACS"">krGuUZu</p>","","","","","","","","",""
"html-keyboard-response","194","318596","0.0-12.0-0.24","611e9c16e90a0d4c6f0d8df5","650c16f0f2faf8d7a0d14c09","651c1bcd8c21c8304b9a8491","null","null","<p style=""font-size: 60px; font-family: BACS"">ZvalvJUNa</p>","","","","","","","","",""
"html-keyboard-response","195","319600","0.0-12.0-0.25","611e9c16e90a0d4c6f0d8df5","650c16f0f2faf8d7a0d14c09","651c1bcd8c21c8304b9a8491","null","null","<p style=""font-size: 60px; font-family: BACS"">OdYPYBO</p>","","","","","","","","",""
"html-keyboard-response","196","320602","0.0-12.0-0.26","611e9c16e90a0d4c6f0d8df5","650c16f0f2faf8d7a0d14c09","651c1bcd8c21c8304b9a8491","null","null","<p style=""font-size: 60px; font-family: BACS"">RdPtDOdOP</p>","","","","","","","","",""
"html-keyboard-response","197","321604","0.0-12.0-0.27","611e9c16e90a0d4c6f0d8df5","650c16f0f2faf8d7a0d14c09","651c1bcd8c21c8304b9a8491","null","null","<p style=""font-size: 60px; font-family: BACS"">krGuOQAr</p>","","","","","","","","",""
"html-keyboard-response","198","322607","0.0-12.0-0.28","611e9c16e90a0d4c6f0d8df5","650c16f0f2faf8d7a0d14c09","651c1bcd8c21c8304b9a8491","null","null","<p style=""font-size: 60px; font-family: BACS"">OAmAdbRC</p>","","","","","","","","",""
"html-keyboard-response","199","323611","0.0-12.0-0.29","611e9c16e90a0d4c6f0d8df5","650c16f0f2faf8d7a0d14c09","651c1bcd8c21c8304b9a8491","null","null","<p style=""font-size: 60px; font-family: BACS"">YNrAmAld</p>","","","","","","","","",""
"html-keyboard-response","200","324613","0.0-12.0-0.30","611e9c16e90a0d4c6f0d8df5","650c16f0f2faf8d7a0d14c09","651c1bcd8c21c8304b9a8491","null","null","<p style=""font-size: 60px; font-family: BACS"">LdQvLUOk</p>","","","","","","","","",""
"html-keyboard-response","201","325615","0.0-12.0-0.31","611e9c16e90a0d4c6f0d8df5","650c16f0f2faf8d7a0d14c09","651c1bcd8c21c8304b9a8491","null","null","<p style=""font-size: 60px; font-family: BACS"">dOYmlOBT</p>","","","","","","","","",""
"html-keyboard-response","202","326615","0.0-12.0-0.32","611e9c16e90a0d4c6f0d8df5","650c16f0f2faf8d7a0d14c09","651c1bcd8c21c8304b9a8491","null","null","<p style=""font-size: 60px; font-family: BACS"">OdYPEAO</p>","","","","","","","","",""
"html-keyboard-response","203","327619","0.0-12.0-0.33","611e9c16e90a0d4c6f0d8df5","650c16f0f2faf8d7a0d14c09","651c1bcd8c21c8304b9a8491","null","null","<p style=""font-size: 60px; font-family: BACS"">LdQvUZu</p>","","","","","","","","",""
"html-keyboard-response","204","328621","0.0-12.0-0.34","611e9c16e90a0d4c6f0d8df5","650c16f0f2faf8d7a0d14c09","651c1bcd8c21c8304b9a8491","null","null","<p style=""font-size: 60px; font-family: BACS"">PlEKEAO</p>","","","","","","","","",""
"html-keyboard-response","205","329624","0.0-12.0-0.35","611e9c16e90a0d4c6f0d8df5","650c16f0f2faf8d7a0d14c09","651c1bcd8c21c8304b9a8491","null","null","<p style=""font-size: 60px; font-family: BACS"">YNrAmJUNa</p>","","","","","","","","",""
"html-keyboard-response","206","330638","0.0-12.0-0.36","611e9c16e90a0d4c6f0d8df5","650c16f0f2faf8d7a0d14c09","651c1bcd8c21c8304b9a8491","null","null","<p style=""font-size: 60px; font-family: BACS"">ZvalvLUOk</p>","","","","","","","","",""
"html-keyboard-response","207","331639","0.0-12.0-0.37","611e9c16e90a0d4c6f0d8df5","650c16f0f2faf8d7a0d14c09","651c1bcd8c21c8304b9a8491","null","null","<p style=""font-size: 60px; font-family: BACS"">EtMDMOBT</p>","","","","","","","","",""
"html-keyboard-response","208","332642","0.0-12.0-0.38","611e9c16e90a0d4c6f0d8df5","650c16f0f2faf8d7a0d14c09","651c1bcd8c21c8304b9a8491","null","null","<p style=""font-size: 60px; font-family: BACS"">NulkOQAr</p>","","","","","","","","",""
"html-keyboard-response","209","333646","0.0-12.0-0.39","611e9c16e90a0d4c6f0d8df5","650c16f0f2faf8d7a0d14c09","651c1bcd8c21c8304b9a8491","null","null","<p style=""font-size: 60px; font-family: BACS"">TdmAOBT</p>","","","","","","","","",""
"html-keyboard-response","210","334650","0.0-12.0-0.40","611e9c16e90a0d4c6f0d8df5","650c16f0f2faf8d7a0d14c09","651c1bcd8c21c8304b9a8491","null","null","<p style=""font-size: 60px; font-family: BACS"">YNrAmOQAr</p>","","","","","","","","",""
"html-keyboard-response","211","335653","0.0-12.0-0.41","611e9c16e90a0d4c6f0d8df5","650c16f0f2faf8d7a0d14c09","651c1bcd8c21c8304b9a8491","null","null","<p style=""font-size: 60px; font-family: BACS"">EtMDMYBO</p>","","","","","","","","",""
"html-keyboard-response","212","336669","0.0-12.0-0.42","611e9c16e90a0d4c6f0d8df5","650c16f0f2faf8d7a0d14c09","651c1bcd8c21c8304b9a8491","null","null","<p style=""font-size: 60px; font-family: BACS"">OdYPOdOP</p>","","","","","","","","",""
"html-keyboard-response","213","337673","0.0-12.0-0.43","611e9c16e90a0d4c6f0d8df5","650c16f0f2faf8d7a0d14c09","651c1bcd8c21c8304b9a8491","null","null","<p style=""font-size: 60px; font-family: BACS"">hlkTYBO</p>","","","","","","","","",""
"html-keyboard-response","214","338675","0.0-12.0-0.44","611e9c16e90a0d4c6f0d8df5","650c16f0f2faf8d7a0d14c09","651c1bcd8c21c8304b9a8491","null","null","<p style=""font-size: 60px; font-family: BACS"">ZvalvUZu</p>","","","","","","","","",""
"html-keyboard-response","215","339678","0.0-12.0-0.45","611e9c16e90a0d4c6f0d8df5","650c16f0f2faf8d7a0d14c09","651c1bcd8c21c8304b9a8491","null","null","<p style=""font-size: 60px; font-family: BACS"">UYZlZLUOk</p>","","","","","","","","",""
"html-keyboard-response","216","340682","0.0-12.0-0.46","611e9c16e90a0d4c6f0d8df5","650c16f0f2faf8d7a0d14c09","651c1bcd8c21c8304b9a8491","null","null","<p style=""font-size: 60px; font-family: BACS"">lkAkUZu</p>","","","","","","","","",""
"html-keyboard-response","217","341684","0.0-12.0-0.47","611e9c16e90a0d4c6f0d8df5","650c16f0f2faf8d7a0d14c09","651c1bcd8c21c8304b9a8491","null","null","<p style=""font-size: 60px; font-family: BACS"">OAmAdEAO</p>","","","","","","","","",""
"html-keyboard-response","218","342688","0.0-12.0-0.48","611e9c16e90a0d4c6f0d8df5","650c16f0f2faf8d7a0d14c09","651c1bcd8c21c8304b9a8491","null","null","<p style=""font-size: 60px; font-family: BACS"">AJLrJUNa</p>","","","","","","","","",""
"html-keyboard-response","219","343692","0.0-12.0-0.49","611e9c16e90a0d4c6f0d8df5","650c16f0f2faf8d7a0d14c09","651c1bcd8c21c8304b9a8491","null","null","<p style=""font-size: 60px; font-family: BACS"">rGUAYAld</p>","","","","","","","","",""
"html-keyboard-response","220","344693","0.0-12.0-0.50","611e9c16e90a0d4c6f0d8df5","650c16f0f2faf8d7a0d14c09","651c1bcd8c21c8304b9a8491","null","null","<p style=""font-size: 60px; font-family: BACS"">lkAkOQAr</p>","","","","","","","","",""
"html-keyboard-response","221","345696","0.0-12.0-0.51","611e9c16e90a0d4c6f0d8df5","650c16f0f2faf8d7a0d14c09","651c1bcd8c21c8304b9a8491","null","null","<p style=""font-size: 60px; font-family: BACS"">dOYmlOdOP</p>","","","","","","","","",""
"html-keyboard-response","222","346698","0.0-12.0-0.52","611e9c16e90a0d4c6f0d8df5","650c16f0f2faf8d7a0d14c09","651c1bcd8c21c8304b9a8491","null","null","<p style=""font-size: 60px; font-family: BACS"">krGuAld</p>","","","","","","","","",""
"html-keyboard-response","223","347701","0.0-12.0-0.53","611e9c16e90a0d4c6f0d8df5","650c16f0f2faf8d7a0d14c09","651c1bcd8c21c8304b9a8491","null","null","<p style=""font-size: 60px; font-family: BACS"">NulkUZu</p>","","","","","","","","",""
"html-keyboard-response","224","348704","0.0-12.0-0.54","611e9c16e90a0d4c6f0d8df5","650c16f0f2faf8d7a0d14c09","651c1bcd8c21c8304b9a8491","null","null","<p style=""font-size: 60px; font-family: BACS"">EtMDMEAO</p>","","","","","","","","",""
"html-keyboard-response","225","349709","0.0-12.0-0.55","611e9c16e90a0d4c6f0d8df5","650c16f0f2faf8d7a0d14c09","651c1bcd8c21c8304b9a8491","null","null","<p style=""font-size: 60px; font-family: BACS"">dOYmlbRC</p>","","","","","","","","",""
"html-keyboard-response","226","350720","0.0-12.0-0.56","611e9c16e90a0d4c6f0d8df5","650c16f0f2faf8d7a0d14c09","651c1bcd8c21c8304b9a8491","null","null","<p style=""font-size: 60px; font-family: BACS"">UYZlZAld</p>","","","","","","","","",""
"html-keyboard-response","227","351724","0.0-12.0-0.57","611e9c16e90a0d4c6f0d8df5","650c16f0f2faf8d7a0d14c09","651c1bcd8c21c8304b9a8491","null","null","<p style=""font-size: 60px; font-family: BACS"">EtMDMbRC</p>","","","","","","","","",""
"html-keyboard-response","228","352727","0.0-12.0-0.58","611e9c16e90a0d4c6f0d8df5","650c16f0f2faf8d7a0d14c09","651c1bcd8c21c8304b9a8491","null","null","<p style=""font-size: 60px; font-family: BACS"">dOYmlEAO</p>","","","","","","","","",""
"html-keyboard-response","229","353731","0.0-12.0-0.59","611e9c16e90a0d4c6f0d8df5","650c16f0f2faf8d7a0d14c09","651c1bcd8c21c8304b9a8491","null","null","<p style=""font-size: 60px; font-family: BACS"">hlkTOdOP</p>","","","","","","","","",""
"html-keyboard-response","230","354734","0.0-12.0-0.60","611e9c16e90a0d4c6f0d8df5","650c16f0f2faf8d7a0d14c09","651c1bcd8c21c8304b9a8491","null","null","<p style=""font-size: 60px; font-family: BACS"">RdPtDEAO</p>","","","","","","","","",""
"html-keyboard-response","231","355738","0.0-12.0-0.61","611e9c16e90a0d4c6f0d8df5","650c16f0f2faf8d7a0d14c09","651c1bcd8c21c8304b9a8491","null","null","<p style=""font-size: 60px; font-family: BACS"">OdYPbRC</p>","","","","","","","","",""
"html-keyboard-response","232","356740","0.0-12.0-0.62","611e9c16e90a0d4c6f0d8df5","650c16f0f2faf8d7a0d14c09","651c1bcd8c21c8304b9a8491","null","null","<p style=""font-size: 60px; font-family: BACS"">YNrAmLUOk</p>","","","","","","","","",""
"html-keyboard-response","233","357743","0.0-12.0-0.63","611e9c16e90a0d4c6f0d8df5","650c16f0f2faf8d7a0d14c09","651c1bcd8c21c8304b9a8491","null","null","<p style=""font-size: 60px; font-family: BACS"">tcYbdOBT</p>","","","","","","","","",""
"html-keyboard-response","234","358746","0.0-12.0-0.64","611e9c16e90a0d4c6f0d8df5","650c16f0f2faf8d7a0d14c09","651c1bcd8c21c8304b9a8491","null","null","<p style=""font-size: 60px; font-family: BACS"">hmKPMYBO</p>","","","","","","","","",""
"html-keyboard-response","235","359750","0.0-12.0-0.65","611e9c16e90a0d4c6f0d8df5","650c16f0f2faf8d7a0d14c09","651c1bcd8c21c8304b9a8491","null","null","<p style=""font-size: 60px; font-family: BACS"">NulkJUNa</p>","","","","","","","","",""
"html-keyboard-response","236","360755","0.0-12.0-0.66","611e9c16e90a0d4c6f0d8df5","650c16f0f2faf8d7a0d14c09","651c1bcd8c21c8304b9a8491","null","null","<p style=""font-size: 60px; font-family: BACS"">RdPtDYBO</p>","","","","","","","","",""
"html-keyboard-response","237","361757","0.0-12.0-0.67","611e9c16e90a0d4c6f0d8df5","650c16f0f2faf8d7a0d14c09","651c1bcd8c21c8304b9a8491","null","null","<p style=""font-size: 60px; font-family: BACS"">udkmLUOk</p>","","","","","","","","",""
"html-keyboard-response","238","362762","0.0-12.0-0.68","611e9c16e90a0d4c6f0d8df5","650c16f0f2faf8d7a0d14c09","651c1bcd8c21c8304b9a8491","null","null","<p style=""font-size: 60px; font-family: BACS"">hmKPMOBT</p>","","","","","","","","",""
"html-keyboard-response","239","363766","0.0-12.0-0.69","611e9c16e90a0d4c6f0d8df5","650c16f0f2faf8d7a0d14c09","651c1bcd8c21c8304b9a8491","null","null","<p style=""font-size: 60px; font-family: BACS"">lkAkJUNa</p>","","","","","","","","",""
"html-keyboard-response","240","364770","0.0-12.0-0.70","611e9c16e90a0d4c6f0d8df5","650c16f0f2faf8d7a0d14c09","651c1bcd8c21c8304b9a8491","null","null","<p style=""font-size: 60px; font-family: BACS"">tcYbdbRC</p>","","","","","","","","",""
"html-keyboard-response","241","365773","0.0-12.0-0.71","611e9c16e90a0d4c6f0d8df5","650c16f0f2faf8d7a0d14c09","651c1bcd8c21c8304b9a8491","null","null","<p style=""font-size: 60px; font-family: BACS"">NulkAld</p>","","","","","","","","",""
"html-keyboard-response","242","366776","0.0-12.0-0.72","611e9c16e90a0d4c6f0d8df5","650c16f0f2faf8d7a0d14c09","651c1bcd8c21c8304b9a8491","null","null","<p style=""font-size: 60px; font-family: BACS"">PlEKOdOP</p>","","","","","","","","",""
"html-keyboard-response","243","367780","0.0-12.0-0.73","611e9c16e90a0d4c6f0d8df5","650c16f0f2faf8d7a0d14c09","651c1bcd8c21c8304b9a8491","null","null","<p style=""font-size: 60px; font-family: BACS"">rGUAYLUOk</p>","","","","","","","","",""
"html-keyboard-response","244","368787","0.0-12.0-0.74","611e9c16e90a0d4c6f0d8df5","650c16f0f2faf8d7a0d14c09","651c1bcd8c21c8304b9a8491","null","null","<p style=""font-size: 60px; font-family: BACS"">PlEKOBT</p>","","","","","","","","",""
"html-keyboard-response","245","369797","0.0-12.0-0.75","611e9c16e90a0d4c6f0d8df5","650c16f0f2faf8d7a0d14c09","651c1bcd8c21c8304b9a8491","null","null","<p style=""font-size: 60px; font-family: BACS"">rGUAYUZu</p>","","","","","","","","",""
"html-keyboard-response","246","370810","0.0-12.0-0.76","611e9c16e90a0d4c6f0d8df5","650c16f0f2faf8d7a0d14c09","651c1bcd8c21c8304b9a8491","null","null","<p style=""font-size: 60px; font-family: BACS"">LdQvJUNa</p>","","","","","","","","",""
"html-keyboard-response","247","371818","0.0-12.0-0.77","611e9c16e90a0d4c6f0d8df5","650c16f0f2faf8d7a0d14c09","651c1bcd8c21c8304b9a8491","null","null","<p style=""font-size: 60px; font-family: BACS"">rGUAYOQAr</p>","","","","","","","","",""
"html-keyboard-response","248","372833","0.0-12.0-0.78","611e9c16e90a0d4c6f0d8df5","650c16f0f2faf8d7a0d14c09","651c1bcd8c21c8304b9a8491","null","null","<p style=""font-size: 60px; font-family: BACS"">TdmAOdOP</p>","","","","","","","","",""
"html-keyboard-response","249","373840","0.0-12.0-0.79","611e9c16e90a0d4c6f0d8df5","650c16f0f2faf8d7a0d14c09","651c1bcd8c21c8304b9a8491","null","null","<p style=""font-size: 60px; font-family: BACS"">PlEKYBO</p>","","","","","","","","",""
"html-keyboard-response","250","441124","0.0-13.0","611e9c16e90a0d4c6f0d8df5","650c16f0f2faf8d7a0d14c09","651c1bcd8c21c8304b9a8491","67293"," ","<p>Great, you've seen the third block of words. You may now take a short break.</p>
      <p>Press the spacebar when you're ready to continue.</p>","","","","","","","","",""
"html-keyboard-response","251","442133","0.0-14.0-0.0","611e9c16e90a0d4c6f0d8df5","650c16f0f2faf8d7a0d14c09","651c1bcd8c21c8304b9a8491","null","null","<p style=""font-size: 60px; font-family: BACS"">rGUAYOQAr</p>","","","","","","","","",""
"html-keyboard-response","252","443141","0.0-14.0-0.1","611e9c16e90a0d4c6f0d8df5","650c16f0f2faf8d7a0d14c09","651c1bcd8c21c8304b9a8491","null","null","<p style=""font-size: 60px; font-family: BACS"">AJLrLUOk</p>","","","","","","","","",""
"html-keyboard-response","253","444144","0.0-14.0-0.2","611e9c16e90a0d4c6f0d8df5","650c16f0f2faf8d7a0d14c09","651c1bcd8c21c8304b9a8491","null","null","<p style=""font-size: 60px; font-family: BACS"">YNrAmJUNa</p>","","","","","","","","",""
"html-keyboard-response","254","445149","0.0-14.0-0.3","611e9c16e90a0d4c6f0d8df5","650c16f0f2faf8d7a0d14c09","651c1bcd8c21c8304b9a8491","null","null","<p style=""font-size: 60px; font-family: BACS"">krGuAld</p>","","","","","","","","",""
"html-keyboard-response","255","446153","0.0-14.0-0.4","611e9c16e90a0d4c6f0d8df5","650c16f0f2faf8d7a0d14c09","651c1bcd8c21c8304b9a8491","null","null","<p style=""font-size: 60px; font-family: BACS"">PlEKOBT</p>","","","","","","","","",""
"html-keyboard-response","256","447155","0.0-14.0-0.5","611e9c16e90a0d4c6f0d8df5","650c16f0f2faf8d7a0d14c09","651c1bcd8c21c8304b9a8491","null","null","<p style=""font-size: 60px; font-family: BACS"">OAmAdYBO</p>","","","","","","","","",""
"html-keyboard-response","257","448158","0.0-14.0-0.6","611e9c16e90a0d4c6f0d8df5","650c16f0f2faf8d7a0d14c09","651c1bcd8c21c8304b9a8491","null","null","<p style=""font-size: 60px; font-family: BACS"">dOYmlEAO</p>","","","","","","","","",""
"html-keyboard-response","258","449162","0.0-14.0-0.7","611e9c16e90a0d4c6f0d8df5","650c16f0f2faf8d7a0d14c09","651c1bcd8c21c8304b9a8491","null","null","<p style=""font-size: 60px; font-family: BACS"">hmKPMbRC</p>","","","","","","","","",""
"html-keyboard-response","259","450164","0.0-14.0-0.8","611e9c16e90a0d4c6f0d8df5","650c16f0f2faf8d7a0d14c09","651c1bcd8c21c8304b9a8491","null","null","<p style=""font-size: 60px; font-family: BACS"">NulkJUNa</p>","","","","","","","","",""
"html-keyboard-response","260","451167","0.0-14.0-0.9","611e9c16e90a0d4c6f0d8df5","650c16f0f2faf8d7a0d14c09","651c1bcd8c21c8304b9a8491","null","null","<p style=""font-size: 60px; font-family: BACS"">LdQvOQAr</p>","","","","","","","","",""
"html-keyboard-response","261","452170","0.0-14.0-0.10","611e9c16e90a0d4c6f0d8df5","650c16f0f2faf8d7a0d14c09","651c1bcd8c21c8304b9a8491","null","null","<p style=""font-size: 60px; font-family: BACS"">hlkTYBO</p>","","","","","","","","",""
"html-keyboard-response","262","453172","0.0-14.0-0.11","611e9c16e90a0d4c6f0d8df5","650c16f0f2faf8d7a0d14c09","651c1bcd8c21c8304b9a8491","null","null","<p style=""font-size: 60px; font-family: BACS"">RdPtDOdOP</p>","","","","","","","","",""
"html-keyboard-response","263","454175","0.0-14.0-0.12","611e9c16e90a0d4c6f0d8df5","650c16f0f2faf8d7a0d14c09","651c1bcd8c21c8304b9a8491","null","null","<p style=""font-size: 60px; font-family: BACS"">YNrAmOQAr</p>","","","","","","","","",""
"html-keyboard-response","264","455179","0.0-14.0-0.13","611e9c16e90a0d4c6f0d8df5","650c16f0f2faf8d7a0d14c09","651c1bcd8c21c8304b9a8491","null","null","<p style=""font-size: 60px; font-family: BACS"">EtMDMEAO</p>","","","","","","","","",""
"html-keyboard-response","265","456184","0.0-14.0-0.14","611e9c16e90a0d4c6f0d8df5","650c16f0f2faf8d7a0d14c09","651c1bcd8c21c8304b9a8491","null","null","<p style=""font-size: 60px; font-family: BACS"">udkmAld</p>","","","","","","","","",""
"html-keyboard-response","266","457200","0.0-14.0-0.15","611e9c16e90a0d4c6f0d8df5","650c16f0f2faf8d7a0d14c09","651c1bcd8c21c8304b9a8491","null","null","<p style=""font-size: 60px; font-family: BACS"">hmKPMOdOP</p>","","","","","","","","",""
"html-keyboard-response","267","458202","0.0-14.0-0.16","611e9c16e90a0d4c6f0d8df5","650c16f0f2faf8d7a0d14c09","651c1bcd8c21c8304b9a8491","null","null","<p style=""font-size: 60px; font-family: BACS"">dOYmlOBT</p>","","","","","","","","",""
"html-keyboard-response","268","459205","0.0-14.0-0.17","611e9c16e90a0d4c6f0d8df5","650c16f0f2faf8d7a0d14c09","651c1bcd8c21c8304b9a8491","null","null","<p style=""font-size: 60px; font-family: BACS"">NulkUZu</p>","","","","","","","","",""
"html-keyboard-response","269","460209","0.0-14.0-0.18","611e9c16e90a0d4c6f0d8df5","650c16f0f2faf8d7a0d14c09","651c1bcd8c21c8304b9a8491","null","null","<p style=""font-size: 60px; font-family: BACS"">EtMDMOBT</p>","","","","","","","","",""
"html-keyboard-response","270","461212","0.0-14.0-0.19","611e9c16e90a0d4c6f0d8df5","650c16f0f2faf8d7a0d14c09","651c1bcd8c21c8304b9a8491","null","null","<p style=""font-size: 60px; font-family: BACS"">OAmAdbRC</p>","","","","","","","","",""
"html-keyboard-response","271","462215","0.0-14.0-0.20","611e9c16e90a0d4c6f0d8df5","650c16f0f2faf8d7a0d14c09","651c1bcd8c21c8304b9a8491","null","null","<p style=""font-size: 60px; font-family: BACS"">tcYbdYBO</p>","","","","","","","","",""
"html-keyboard-response","272","463218","0.0-14.0-0.21","611e9c16e90a0d4c6f0d8df5","650c16f0f2faf8d7a0d14c09","651c1bcd8c21c8304b9a8491","null","null","<p style=""font-size: 60px; font-family: BACS"">TdmAOBT</p>","","","","","","","","",""
"html-keyboard-response","273","464222","0.0-14.0-0.22","611e9c16e90a0d4c6f0d8df5","650c16f0f2faf8d7a0d14c09","651c1bcd8c21c8304b9a8491","null","null","<p style=""font-size: 60px; font-family: BACS"">RdPtDYBO</p>","","","","","","","","",""
"html-keyboard-response","274","465225","0.0-14.0-0.23","611e9c16e90a0d4c6f0d8df5","650c16f0f2faf8d7a0d14c09","651c1bcd8c21c8304b9a8491","null","null","<p style=""font-size: 60px; font-family: BACS"">OdYPOdOP</p>","","","","","","","","",""
"html-keyboard-response","275","466228","0.0-14.0-0.24","611e9c16e90a0d4c6f0d8df5","650c16f0f2faf8d7a0d14c09","651c1bcd8c21c8304b9a8491","null","null","<p style=""font-size: 60px; font-family: BACS"">LdQvLUOk</p>","","","","","","","","",""
"html-keyboard-response","276","467236","0.0-14.0-0.25","611e9c16e90a0d4c6f0d8df5","650c16f0f2faf8d7a0d14c09","651c1bcd8c21c8304b9a8491","null","null","<p style=""font-size: 60px; font-family: BACS"">hlkTOBT</p>","","","","","","","","",""
"html-keyboard-response","277","468243","0.0-14.0-0.26","611e9c16e90a0d4c6f0d8df5","650c16f0f2faf8d7a0d14c09","651c1bcd8c21c8304b9a8491","null","null","<p style=""font-size: 60px; font-family: BACS"">UYZlZUZu</p>","","","","","","","","",""
"html-keyboard-response","278","469260","0.0-14.0-0.27","611e9c16e90a0d4c6f0d8df5","650c16f0f2faf8d7a0d14c09","651c1bcd8c21c8304b9a8491","null","null","<p style=""font-size: 60px; font-family: BACS"">OdYPEAO</p>","","","","","","","","",""
"html-keyboard-response","279","470264","0.0-14.0-0.28","611e9c16e90a0d4c6f0d8df5","650c16f0f2faf8d7a0d14c09","651c1bcd8c21c8304b9a8491","null","null","<p style=""font-size: 60px; font-family: BACS"">rGUAYLUOk</p>","","","","","","","","",""
"html-keyboard-response","280","471268","0.0-14.0-0.29","611e9c16e90a0d4c6f0d8df5","650c16f0f2faf8d7a0d14c09","651c1bcd8c21c8304b9a8491","null","null","<p style=""font-size: 60px; font-family: BACS"">NulkAld</p>","","","","","","","","",""
"html-keyboard-response","281","472283","0.0-14.0-0.30","611e9c16e90a0d4c6f0d8df5","650c16f0f2faf8d7a0d14c09","651c1bcd8c21c8304b9a8491","null","null","<p style=""font-size: 60px; font-family: BACS"">ZvalvUZu</p>","","","","","","","","",""
"html-keyboard-response","282","473285","0.0-14.0-0.31","611e9c16e90a0d4c6f0d8df5","650c16f0f2faf8d7a0d14c09","651c1bcd8c21c8304b9a8491","null","null","<p style=""font-size: 60px; font-family: BACS"">EtMDMbRC</p>","","","","","","","","",""
"html-keyboard-response","283","474287","0.0-14.0-0.32","611e9c16e90a0d4c6f0d8df5","650c16f0f2faf8d7a0d14c09","651c1bcd8c21c8304b9a8491","null","null","<p style=""font-size: 60px; font-family: BACS"">hmKPMYBO</p>","","","","","","","","",""
"html-keyboard-response","284","475292","0.0-14.0-0.33","611e9c16e90a0d4c6f0d8df5","650c16f0f2faf8d7a0d14c09","651c1bcd8c21c8304b9a8491","null","null","<p style=""font-size: 60px; font-family: BACS"">lkAkLUOk</p>","","","","","","","","",""
"html-keyboard-response","285","476295","0.0-14.0-0.34","611e9c16e90a0d4c6f0d8df5","650c16f0f2faf8d7a0d14c09","651c1bcd8c21c8304b9a8491","null","null","<p style=""font-size: 60px; font-family: BACS"">RdPtDEAO</p>","","","","","","","","",""
"html-keyboard-response","286","477298","0.0-14.0-0.35","611e9c16e90a0d4c6f0d8df5","650c16f0f2faf8d7a0d14c09","651c1bcd8c21c8304b9a8491","null","null","<p style=""font-size: 60px; font-family: BACS"">UYZlZOQAr</p>","","","","","","","","",""
"html-keyboard-response","287","478300","0.0-14.0-0.36","611e9c16e90a0d4c6f0d8df5","650c16f0f2faf8d7a0d14c09","651c1bcd8c21c8304b9a8491","null","null","<p style=""font-size: 60px; font-family: BACS"">RdPtDOBT</p>","","","","","","","","",""
"html-keyboard-response","288","479302","0.0-14.0-0.37","611e9c16e90a0d4c6f0d8df5","650c16f0f2faf8d7a0d14c09","651c1bcd8c21c8304b9a8491","null","null","<p style=""font-size: 60px; font-family: BACS"">ZvalvJUNa</p>","","","","","","","","",""
"html-keyboard-response","289","480305","0.0-14.0-0.38","611e9c16e90a0d4c6f0d8df5","650c16f0f2faf8d7a0d14c09","651c1bcd8c21c8304b9a8491","null","null","<p style=""font-size: 60px; font-family: BACS"">AJLrAld</p>","","","","","","","","",""
"html-keyboard-response","290","481310","0.0-14.0-0.39","611e9c16e90a0d4c6f0d8df5","650c16f0f2faf8d7a0d14c09","651c1bcd8c21c8304b9a8491","null","null","<p style=""font-size: 60px; font-family: BACS"">ZvalvLUOk</p>","","","","","","","","",""
"html-keyboard-response","291","482313","0.0-14.0-0.40","611e9c16e90a0d4c6f0d8df5","650c16f0f2faf8d7a0d14c09","651c1bcd8c21c8304b9a8491","null","null","<p style=""font-size: 60px; font-family: BACS"">UYZlZAld</p>","","","","","","","","",""
"html-keyboard-response","292","483317","0.0-14.0-0.41","611e9c16e90a0d4c6f0d8df5","650c16f0f2faf8d7a0d14c09","651c1bcd8c21c8304b9a8491","null","null","<p style=""font-size: 60px; font-family: BACS"">PlEKYBO</p>","","","","","","","","",""
"html-keyboard-response","293","484320","0.0-14.0-0.42","611e9c16e90a0d4c6f0d8df5","650c16f0f2faf8d7a0d14c09","651c1bcd8c21c8304b9a8491","null","null","<p style=""font-size: 60px; font-family: BACS"">YNrAmAld</p>","","","","","","","","",""
"html-keyboard-response","294","485322","0.0-14.0-0.43","611e9c16e90a0d4c6f0d8df5","650c16f0f2faf8d7a0d14c09","651c1bcd8c21c8304b9a8491","null","null","<p style=""font-size: 60px; font-family: BACS"">tcYbdbRC</p>","","","","","","","","",""
"html-keyboard-response","295","486326","0.0-14.0-0.44","611e9c16e90a0d4c6f0d8df5","650c16f0f2faf8d7a0d14c09","651c1bcd8c21c8304b9a8491","null","null","<p style=""font-size: 60px; font-family: BACS"">krGuOQAr</p>","","","","","","","","",""
"html-keyboard-response","296","487328","0.0-14.0-0.45","611e9c16e90a0d4c6f0d8df5","650c16f0f2faf8d7a0d14c09","651c1bcd8c21c8304b9a8491","null","null","<p style=""font-size: 60px; font-family: BACS"">PlEKOdOP</p>","","","","","","","","",""
"html-keyboard-response","297","488332","0.0-14.0-0.46","611e9c16e90a0d4c6f0d8df5","650c16f0f2faf8d7a0d14c09","651c1bcd8c21c8304b9a8491","null","null","<p style=""font-size: 60px; font-family: BACS"">UYZlZLUOk</p>","","","","","","","","",""
"html-keyboard-response","298","489336","0.0-14.0-0.47","611e9c16e90a0d4c6f0d8df5","650c16f0f2faf8d7a0d14c09","651c1bcd8c21c8304b9a8491","null","null","<p style=""font-size: 60px; font-family: BACS"">AJLrUZu</p>","","","","","","","","",""
"html-keyboard-response","299","490337","0.0-14.0-0.48","611e9c16e90a0d4c6f0d8df5","650c16f0f2faf8d7a0d14c09","651c1bcd8c21c8304b9a8491","null","null","<p style=""font-size: 60px; font-family: BACS"">TdmAEAO</p>","","","","","","","","",""
"html-keyboard-response","300","491340","0.0-14.0-0.49","611e9c16e90a0d4c6f0d8df5","650c16f0f2faf8d7a0d14c09","651c1bcd8c21c8304b9a8491","null","null","<p style=""font-size: 60px; font-family: BACS"">hlkTOdOP</p>","","","","","","","","",""
"html-keyboard-response","301","492343","0.0-14.0-0.50","611e9c16e90a0d4c6f0d8df5","650c16f0f2faf8d7a0d14c09","651c1bcd8c21c8304b9a8491","null","null","<p style=""font-size: 60px; font-family: BACS"">TdmAbRC</p>","","","","","","","","",""
"html-keyboard-response","302","493346","0.0-14.0-0.51","611e9c16e90a0d4c6f0d8df5","650c16f0f2faf8d7a0d14c09","651c1bcd8c21c8304b9a8491","null","null","<p style=""font-size: 60px; font-family: BACS"">NulkOQAr</p>","","","","","","","","",""
"html-keyboard-response","303","494348","0.0-14.0-0.52","611e9c16e90a0d4c6f0d8df5","650c16f0f2faf8d7a0d14c09","651c1bcd8c21c8304b9a8491","null","null","<p style=""font-size: 60px; font-family: BACS"">dOYmlOdOP</p>","","","","","","","","",""
"html-keyboard-response","304","495352","0.0-14.0-0.53","611e9c16e90a0d4c6f0d8df5","650c16f0f2faf8d7a0d14c09","651c1bcd8c21c8304b9a8491","null","null","<p style=""font-size: 60px; font-family: BACS"">tcYbdEAO</p>","","","","","","","","",""
"html-keyboard-response","305","496355","0.0-14.0-0.54","611e9c16e90a0d4c6f0d8df5","650c16f0f2faf8d7a0d14c09","651c1bcd8c21c8304b9a8491","null","null","<p style=""font-size: 60px; font-family: BACS"">udkmLUOk</p>","","","","","","","","",""
"html-keyboard-response","306","497360","0.0-14.0-0.55","611e9c16e90a0d4c6f0d8df5","650c16f0f2faf8d7a0d14c09","651c1bcd8c21c8304b9a8491","null","null","<p style=""font-size: 60px; font-family: BACS"">OAmAdEAO</p>","","","","","","","","",""
"html-keyboard-response","307","498363","0.0-14.0-0.56","611e9c16e90a0d4c6f0d8df5","650c16f0f2faf8d7a0d14c09","651c1bcd8c21c8304b9a8491","null","null","<p style=""font-size: 60px; font-family: BACS"">lkAkOQAr</p>","","","","","","","","",""
"html-keyboard-response","308","499365","0.0-14.0-0.57","611e9c16e90a0d4c6f0d8df5","650c16f0f2faf8d7a0d14c09","651c1bcd8c21c8304b9a8491","null","null","<p style=""font-size: 60px; font-family: BACS"">rGUAYAld</p>","","","","","","","","",""
"html-keyboard-response","309","500368","0.0-14.0-0.58","611e9c16e90a0d4c6f0d8df5","650c16f0f2faf8d7a0d14c09","651c1bcd8c21c8304b9a8491","null","null","<p style=""font-size: 60px; font-family: BACS"">lkAkUZu</p>","","","","","","","","",""
"html-keyboard-response","310","501383","0.0-14.0-0.59","611e9c16e90a0d4c6f0d8df5","650c16f0f2faf8d7a0d14c09","651c1bcd8c21c8304b9a8491","null","null","<p style=""font-size: 60px; font-family: BACS"">OAmAdOdOP</p>","","","","","","","","",""
"html-keyboard-response","311","502388","0.0-14.0-0.60","611e9c16e90a0d4c6f0d8df5","650c16f0f2faf8d7a0d14c09","651c1bcd8c21c8304b9a8491","null","null","<p style=""font-size: 60px; font-family: BACS"">LdQvJUNa</p>","","","","","","","","",""
"html-keyboard-response","312","503391","0.0-14.0-0.61","611e9c16e90a0d4c6f0d8df5","650c16f0f2faf8d7a0d14c09","651c1bcd8c21c8304b9a8491","null","null","<p style=""font-size: 60px; font-family: BACS"">OdYPYBO</p>","","","","","","","","",""
"html-keyboard-response","313","504394","0.0-14.0-0.62","611e9c16e90a0d4c6f0d8df5","650c16f0f2faf8d7a0d14c09","651c1bcd8c21c8304b9a8491","null","null","<p style=""font-size: 60px; font-family: BACS"">dOYmlbRC</p>","","","","","","","","",""
"html-keyboard-response","314","505397","0.0-14.0-0.63","611e9c16e90a0d4c6f0d8df5","650c16f0f2faf8d7a0d14c09","651c1bcd8c21c8304b9a8491","null","null","<p style=""font-size: 60px; font-family: BACS"">ZvalvAld</p>","","","","","","","","",""
"html-keyboard-response","315","506401","0.0-14.0-0.64","611e9c16e90a0d4c6f0d8df5","650c16f0f2faf8d7a0d14c09","651c1bcd8c21c8304b9a8491","null","null","<p style=""font-size: 60px; font-family: BACS"">lkAkJUNa</p>","","","","","","","","",""
"html-keyboard-response","316","507406","0.0-14.0-0.65","611e9c16e90a0d4c6f0d8df5","650c16f0f2faf8d7a0d14c09","651c1bcd8c21c8304b9a8491","null","null","<p style=""font-size: 60px; font-family: BACS"">hmKPMOBT</p>","","","","","","","","",""
"html-keyboard-response","317","508408","0.0-14.0-0.66","611e9c16e90a0d4c6f0d8df5","650c16f0f2faf8d7a0d14c09","651c1bcd8c21c8304b9a8491","null","null","<p style=""font-size: 60px; font-family: BACS"">OdYPbRC</p>","","","","","","","","",""
"html-keyboard-response","318","509411","0.0-14.0-0.67","611e9c16e90a0d4c6f0d8df5","650c16f0f2faf8d7a0d14c09","651c1bcd8c21c8304b9a8491","null","null","<p style=""font-size: 60px; font-family: BACS"">krGuJUNa</p>","","","","","","","","",""
"html-keyboard-response","319","510415","0.0-14.0-0.68","611e9c16e90a0d4c6f0d8df5","650c16f0f2faf8d7a0d14c09","651c1bcd8c21c8304b9a8491","null","null","<p style=""font-size: 60px; font-family: BACS"">udkmOQAr</p>","","","","","","","","",""
"html-keyboard-response","320","511423","0.0-14.0-0.69","611e9c16e90a0d4c6f0d8df5","650c16f0f2faf8d7a0d14c09","651c1bcd8c21c8304b9a8491","null","null","<p style=""font-size: 60px; font-family: BACS"">PlEKEAO</p>","","","","","","","","",""
"html-keyboard-response","321","512432","0.0-14.0-0.70","611e9c16e90a0d4c6f0d8df5","650c16f0f2faf8d7a0d14c09","651c1bcd8c21c8304b9a8491","null","null","<p style=""font-size: 60px; font-family: BACS"">rGUAYUZu</p>","","","","","","","","",""
"html-keyboard-response","322","513433","0.0-14.0-0.71","611e9c16e90a0d4c6f0d8df5","650c16f0f2faf8d7a0d14c09","651c1bcd8c21c8304b9a8491","null","null","<p style=""font-size: 60px; font-family: BACS"">TdmAOdOP</p>","","","","","","","","",""
"html-keyboard-response","323","514436","0.0-14.0-0.72","611e9c16e90a0d4c6f0d8df5","650c16f0f2faf8d7a0d14c09","651c1bcd8c21c8304b9a8491","null","null","<p style=""font-size: 60px; font-family: BACS"">hlkTbRC</p>","","","","","","","","",""
"html-keyboard-response","324","515440","0.0-14.0-0.73","611e9c16e90a0d4c6f0d8df5","650c16f0f2faf8d7a0d14c09","651c1bcd8c21c8304b9a8491","null","null","<p style=""font-size: 60px; font-family: BACS"">AJLrJUNa</p>","","","","","","","","",""
"html-keyboard-response","325","516456","0.0-14.0-0.74","611e9c16e90a0d4c6f0d8df5","650c16f0f2faf8d7a0d14c09","651c1bcd8c21c8304b9a8491","null","null","<p style=""font-size: 60px; font-family: BACS"">krGuUZu</p>","","","","","","","","",""
"html-keyboard-response","326","517473","0.0-14.0-0.75","611e9c16e90a0d4c6f0d8df5","650c16f0f2faf8d7a0d14c09","651c1bcd8c21c8304b9a8491","null","null","<p style=""font-size: 60px; font-family: BACS"">YNrAmLUOk</p>","","","","","","","","",""
"html-keyboard-response","327","518476","0.0-14.0-0.76","611e9c16e90a0d4c6f0d8df5","650c16f0f2faf8d7a0d14c09","651c1bcd8c21c8304b9a8491","null","null","<p style=""font-size: 60px; font-family: BACS"">udkmJUNa</p>","","","","","","","","",""
"html-keyboard-response","328","519479","0.0-14.0-0.77","611e9c16e90a0d4c6f0d8df5","650c16f0f2faf8d7a0d14c09","651c1bcd8c21c8304b9a8491","null","null","<p style=""font-size: 60px; font-family: BACS"">tcYbdOBT</p>","","","","","","","","",""
"html-keyboard-response","329","520481","0.0-14.0-0.78","611e9c16e90a0d4c6f0d8df5","650c16f0f2faf8d7a0d14c09","651c1bcd8c21c8304b9a8491","null","null","<p style=""font-size: 60px; font-family: BACS"">LdQvUZu</p>","","","","","","","","",""
"html-keyboard-response","330","521487","0.0-14.0-0.79","611e9c16e90a0d4c6f0d8df5","650c16f0f2faf8d7a0d14c09","651c1bcd8c21c8304b9a8491","null","null","<p style=""font-size: 60px; font-family: BACS"">EtMDMYBO</p>","","","","","","","","",""
"html-keyboard-response","331","529249","0.0-15.0","611e9c16e90a0d4c6f0d8df5","650c16f0f2faf8d7a0d14c09","651c1bcd8c21c8304b9a8491","7761"," ","<p>Great, you've seen the fourth block of words. You may now take a short break.</p>
      <p>Press the spacebar when you're ready to continue.</p>","","","","","","","","",""
"html-keyboard-response","332","530264","0.0-16.0-0.0","611e9c16e90a0d4c6f0d8df5","650c16f0f2faf8d7a0d14c09","651c1bcd8c21c8304b9a8491","null","null","<p style=""font-size: 60px; font-family: BACS"">OAmAdOdOP</p>","","","","","","","","",""
"html-keyboard-response","333","531268","0.0-16.0-0.1","611e9c16e90a0d4c6f0d8df5","650c16f0f2faf8d7a0d14c09","651c1bcd8c21c8304b9a8491","null","null","<p style=""font-size: 60px; font-family: BACS"">OAmAdOdOP</p>","","","","","","","","",""
"html-keyboard-response","334","532285","0.0-16.0-0.2","611e9c16e90a0d4c6f0d8df5","650c16f0f2faf8d7a0d14c09","651c1bcd8c21c8304b9a8491","null","null","<p style=""font-size: 60px; font-family: BACS"">OAmAdOdOP</p>","","","","","","","","",""
"html-keyboard-response","335","533290","0.0-16.0-0.3","611e9c16e90a0d4c6f0d8df5","650c16f0f2faf8d7a0d14c09","651c1bcd8c21c8304b9a8491","null","null","<p style=""font-size: 60px; font-family: BACS"">OAmAdOdOP</p>","","","","","","","","",""
"html-keyboard-response","336","534293","0.0-16.0-0.4","611e9c16e90a0d4c6f0d8df5","650c16f0f2faf8d7a0d14c09","651c1bcd8c21c8304b9a8491","null","null","<p style=""font-size: 60px; font-family: BACS"">OAmAdOdOP</p>","","","","","","","","",""
"html-keyboard-response","337","535296","0.0-16.0-0.5","611e9c16e90a0d4c6f0d8df5","650c16f0f2faf8d7a0d14c09","651c1bcd8c21c8304b9a8491","null","null","<p style=""font-size: 60px; font-family: BACS"">OAmAdOdOP</p>","","","","","","","","",""
"html-keyboard-response","338","536299","0.0-16.0-0.6","611e9c16e90a0d4c6f0d8df5","650c16f0f2faf8d7a0d14c09","651c1bcd8c21c8304b9a8491","null","null","<p style=""font-size: 60px; font-family: BACS"">OAmAdOdOP</p>","","","","","","","","",""
"html-keyboard-response","339","537303","0.0-16.0-0.7","611e9c16e90a0d4c6f0d8df5","650c16f0f2faf8d7a0d14c09","651c1bcd8c21c8304b9a8491","null","null","<p style=""font-size: 60px; font-family: BACS"">OAmAdOdOP</p>","","","","","","","","",""
"html-keyboard-response","340","538306","0.0-16.0-0.8","611e9c16e90a0d4c6f0d8df5","650c16f0f2faf8d7a0d14c09","651c1bcd8c21c8304b9a8491","null","null","<p style=""font-size: 60px; font-family: BACS"">OAmAdOdOP</p>","","","","","","","","",""
"html-keyboard-response","341","539309","0.0-16.0-0.9","611e9c16e90a0d4c6f0d8df5","650c16f0f2faf8d7a0d14c09","651c1bcd8c21c8304b9a8491","null","null","<p style=""font-size: 60px; font-family: BACS"">OAmAdOdOP</p>","","","","","","","","",""
"html-keyboard-response","342","540317","0.0-16.0-0.10","611e9c16e90a0d4c6f0d8df5","650c16f0f2faf8d7a0d14c09","651c1bcd8c21c8304b9a8491","null","null","<p style=""font-size: 60px; font-family: BACS"">OAmAdOdOP</p>","","","","","","","","",""
"html-keyboard-response","343","541320","0.0-16.0-0.11","611e9c16e90a0d4c6f0d8df5","650c16f0f2faf8d7a0d14c09","651c1bcd8c21c8304b9a8491","null","null","<p style=""font-size: 60px; font-family: BACS"">OAmAdOdOP</p>","","","","","","","","",""
"html-keyboard-response","344","542325","0.0-16.0-0.12","611e9c16e90a0d4c6f0d8df5","650c16f0f2faf8d7a0d14c09","651c1bcd8c21c8304b9a8491","null","null","<p style=""font-size: 60px; font-family: BACS"">OAmAdOdOP</p>","","","","","","","","",""
"html-keyboard-response","345","543341","0.0-16.0-0.13","611e9c16e90a0d4c6f0d8df5","650c16f0f2faf8d7a0d14c09","651c1bcd8c21c8304b9a8491","null","null","<p style=""font-size: 60px; font-family: BACS"">OAmAdOdOP</p>","","","","","","","","",""
"html-keyboard-response","346","544347","0.0-16.0-0.14","611e9c16e90a0d4c6f0d8df5","650c16f0f2faf8d7a0d14c09","651c1bcd8c21c8304b9a8491","null","null","<p style=""font-size: 60px; font-family: BACS"">OAmAdOdOP</p>","","","","","","","","",""
"html-keyboard-response","347","545362","0.0-16.0-0.15","611e9c16e90a0d4c6f0d8df5","650c16f0f2faf8d7a0d14c09","651c1bcd8c21c8304b9a8491","null","null","<p style=""font-size: 60px; font-family: BACS"">OAmAdOdOP</p>","","","","","","","","",""
"html-keyboard-response","348","546369","0.0-16.0-0.16","611e9c16e90a0d4c6f0d8df5","650c16f0f2faf8d7a0d14c09","651c1bcd8c21c8304b9a8491","null","null","<p style=""font-size: 60px; font-family: BACS"">OAmAdOdOP</p>","","","","","","","","",""
"html-keyboard-response","349","547371","0.0-16.0-0.17","611e9c16e90a0d4c6f0d8df5","650c16f0f2faf8d7a0d14c09","651c1bcd8c21c8304b9a8491","null","null","<p style=""font-size: 60px; font-family: BACS"">OAmAdOdOP</p>","","","","","","","","",""
"html-keyboard-response","350","548393","0.0-16.0-0.18","611e9c16e90a0d4c6f0d8df5","650c16f0f2faf8d7a0d14c09","651c1bcd8c21c8304b9a8491","null","null","<p style=""font-size: 60px; font-family: BACS"">OAmAdOdOP</p>","","","","","","","","",""
"html-keyboard-response","351","549397","0.0-16.0-0.19","611e9c16e90a0d4c6f0d8df5","650c16f0f2faf8d7a0d14c09","651c1bcd8c21c8304b9a8491","null","null","<p style=""font-size: 60px; font-family: BACS"">OAmAdOdOP</p>","","","","","","","","",""
"html-keyboard-response","352","550401","0.0-16.0-0.20","611e9c16e90a0d4c6f0d8df5","650c16f0f2faf8d7a0d14c09","651c1bcd8c21c8304b9a8491","null","null","<p style=""font-size: 60px; font-family: BACS"">OAmAdOdOP</p>","","","","","","","","",""
"html-keyboard-response","353","551407","0.0-16.0-0.21","611e9c16e90a0d4c6f0d8df5","650c16f0f2faf8d7a0d14c09","651c1bcd8c21c8304b9a8491","null","null","<p style=""font-size: 60px; font-family: BACS"">OAmAdOdOP</p>","","","","","","","","",""
"html-keyboard-response","354","552411","0.0-16.0-0.22","611e9c16e90a0d4c6f0d8df5","650c16f0f2faf8d7a0d14c09","651c1bcd8c21c8304b9a8491","null","null","<p style=""font-size: 60px; font-family: BACS"">OAmAdOdOP</p>","","","","","","","","",""
"html-keyboard-response","355","553413","0.0-16.0-0.23","611e9c16e90a0d4c6f0d8df5","650c16f0f2faf8d7a0d14c09","651c1bcd8c21c8304b9a8491","null","null","<p style=""font-size: 60px; font-family: BACS"">OAmAdOdOP</p>","","","","","","","","",""
"html-keyboard-response","356","554417","0.0-16.0-0.24","611e9c16e90a0d4c6f0d8df5","650c16f0f2faf8d7a0d14c09","651c1bcd8c21c8304b9a8491","null","null","<p style=""font-size: 60px; font-family: BACS"">OAmAdOdOP</p>","","","","","","","","",""
"html-keyboard-response","357","555421","0.0-16.0-0.25","611e9c16e90a0d4c6f0d8df5","650c16f0f2faf8d7a0d14c09","651c1bcd8c21c8304b9a8491","null","null","<p style=""font-size: 60px; font-family: BACS"">OAmAdOdOP</p>","","","","","","","","",""
"html-keyboard-response","358","556424","0.0-16.0-0.26","611e9c16e90a0d4c6f0d8df5","650c16f0f2faf8d7a0d14c09","651c1bcd8c21c8304b9a8491","null","null","<p style=""font-size: 60px; font-family: BACS"">OAmAdOdOP</p>","","","","","","","","",""
"html-keyboard-response","359","557429","0.0-16.0-0.27","611e9c16e90a0d4c6f0d8df5","650c16f0f2faf8d7a0d14c09","651c1bcd8c21c8304b9a8491","null","null","<p style=""font-size: 60px; font-family: BACS"">OAmAdOdOP</p>","","","","","","","","",""
"html-keyboard-response","360","558432","0.0-16.0-0.28","611e9c16e90a0d4c6f0d8df5","650c16f0f2faf8d7a0d14c09","651c1bcd8c21c8304b9a8491","null","null","<p style=""font-size: 60px; font-family: BACS"">OAmAdOdOP</p>","","","","","","","","",""
"html-keyboard-response","361","559437","0.0-16.0-0.29","611e9c16e90a0d4c6f0d8df5","650c16f0f2faf8d7a0d14c09","651c1bcd8c21c8304b9a8491","null","null","<p style=""font-size: 60px; font-family: BACS"">OAmAdOdOP</p>","","","","","","","","",""
"html-keyboard-response","362","560441","0.0-16.0-0.30","611e9c16e90a0d4c6f0d8df5","650c16f0f2faf8d7a0d14c09","651c1bcd8c21c8304b9a8491","null","null","<p style=""font-size: 60px; font-family: BACS"">OAmAdOdOP</p>","","","","","","","","",""
"html-keyboard-response","363","561445","0.0-16.0-0.31","611e9c16e90a0d4c6f0d8df5","650c16f0f2faf8d7a0d14c09","651c1bcd8c21c8304b9a8491","null","null","<p style=""font-size: 60px; font-family: BACS"">OAmAdOdOP</p>","","","","","","","","",""
"html-keyboard-response","364","562449","0.0-16.0-0.32","611e9c16e90a0d4c6f0d8df5","650c16f0f2faf8d7a0d14c09","651c1bcd8c21c8304b9a8491","null","null","<p style=""font-size: 60px; font-family: BACS"">OAmAdOdOP</p>","","","","","","","","",""
"html-keyboard-response","365","563452","0.0-16.0-0.33","611e9c16e90a0d4c6f0d8df5","650c16f0f2faf8d7a0d14c09","651c1bcd8c21c8304b9a8491","null","null","<p style=""font-size: 60px; font-family: BACS"">OAmAdOdOP</p>","","","","","","","","",""
"html-keyboard-response","366","564455","0.0-16.0-0.34","611e9c16e90a0d4c6f0d8df5","650c16f0f2faf8d7a0d14c09","651c1bcd8c21c8304b9a8491","null","null","<p style=""font-size: 60px; font-family: BACS"">OAmAdOdOP</p>","","","","","","","","",""
"html-keyboard-response","367","565460","0.0-16.0-0.35","611e9c16e90a0d4c6f0d8df5","650c16f0f2faf8d7a0d14c09","651c1bcd8c21c8304b9a8491","null","null","<p style=""font-size: 60px; font-family: BACS"">OAmAdOdOP</p>","","","","","","","","",""
"html-keyboard-response","368","566462","0.0-16.0-0.36","611e9c16e90a0d4c6f0d8df5","650c16f0f2faf8d7a0d14c09","651c1bcd8c21c8304b9a8491","null","null","<p style=""font-size: 60px; font-family: BACS"">OAmAdOdOP</p>","","","","","","","","",""
"html-keyboard-response","369","567466","0.0-16.0-0.37","611e9c16e90a0d4c6f0d8df5","650c16f0f2faf8d7a0d14c09","651c1bcd8c21c8304b9a8491","null","null","<p style=""font-size: 60px; font-family: BACS"">OAmAdOdOP</p>","","","","","","","","",""
"html-keyboard-response","370","568469","0.0-16.0-0.38","611e9c16e90a0d4c6f0d8df5","650c16f0f2faf8d7a0d14c09","651c1bcd8c21c8304b9a8491","null","null","<p style=""font-size: 60px; font-family: BACS"">OAmAdOdOP</p>","","","","","","","","",""
"html-keyboard-response","371","569486","0.0-16.0-0.39","611e9c16e90a0d4c6f0d8df5","650c16f0f2faf8d7a0d14c09","651c1bcd8c21c8304b9a8491","null","null","<p style=""font-size: 60px; font-family: BACS"">OAmAdOdOP</p>","","","","","","","","",""
"html-keyboard-response","372","570489","0.0-16.0-0.40","611e9c16e90a0d4c6f0d8df5","650c16f0f2faf8d7a0d14c09","651c1bcd8c21c8304b9a8491","null","null","<p style=""font-size: 60px; font-family: BACS"">OAmAdOdOP</p>","","","","","","","","",""
"html-keyboard-response","373","571493","0.0-16.0-0.41","611e9c16e90a0d4c6f0d8df5","650c16f0f2faf8d7a0d14c09","651c1bcd8c21c8304b9a8491","null","null","<p style=""font-size: 60px; font-family: BACS"">OAmAdOdOP</p>","","","","","","","","",""
"html-keyboard-response","374","572496","0.0-16.0-0.42","611e9c16e90a0d4c6f0d8df5","650c16f0f2faf8d7a0d14c09","651c1bcd8c21c8304b9a8491","null","null","<p style=""font-size: 60px; font-family: BACS"">OAmAdOdOP</p>","","","","","","","","",""
"html-keyboard-response","375","573501","0.0-16.0-0.43","611e9c16e90a0d4c6f0d8df5","650c16f0f2faf8d7a0d14c09","651c1bcd8c21c8304b9a8491","null","null","<p style=""font-size: 60px; font-family: BACS"">OAmAdOdOP</p>","","","","","","","","",""
"html-keyboard-response","376","574504","0.0-16.0-0.44","611e9c16e90a0d4c6f0d8df5","650c16f0f2faf8d7a0d14c09","651c1bcd8c21c8304b9a8491","null","null","<p style=""font-size: 60px; font-family: BACS"">OAmAdOdOP</p>","","","","","","","","",""
"html-keyboard-response","377","575508","0.0-16.0-0.45","611e9c16e90a0d4c6f0d8df5","650c16f0f2faf8d7a0d14c09","651c1bcd8c21c8304b9a8491","null","null","<p style=""font-size: 60px; font-family: BACS"">OAmAdOdOP</p>","","","","","","","","",""
"html-keyboard-response","378","576512","0.0-16.0-0.46","611e9c16e90a0d4c6f0d8df5","650c16f0f2faf8d7a0d14c09","651c1bcd8c21c8304b9a8491","null","null","<p style=""font-size: 60px; font-family: BACS"">OAmAdOdOP</p>","","","","","","","","",""
"html-keyboard-response","379","577518","0.0-16.0-0.47","611e9c16e90a0d4c6f0d8df5","650c16f0f2faf8d7a0d14c09","651c1bcd8c21c8304b9a8491","null","null","<p style=""font-size: 60px; font-family: BACS"">OAmAdOdOP</p>","","","","","","","","",""
"html-keyboard-response","380","578520","0.0-16.0-0.48","611e9c16e90a0d4c6f0d8df5","650c16f0f2faf8d7a0d14c09","651c1bcd8c21c8304b9a8491","null","null","<p style=""font-size: 60px; font-family: BACS"">OAmAdOdOP</p>","","","","","","","","",""
"html-keyboard-response","381","579523","0.0-16.0-0.49","611e9c16e90a0d4c6f0d8df5","650c16f0f2faf8d7a0d14c09","651c1bcd8c21c8304b9a8491","null","null","<p style=""font-size: 60px; font-family: BACS"">OAmAdOdOP</p>","","","","","","","","",""
"html-keyboard-response","382","580527","0.0-16.0-0.50","611e9c16e90a0d4c6f0d8df5","650c16f0f2faf8d7a0d14c09","651c1bcd8c21c8304b9a8491","null","null","<p style=""font-size: 60px; font-family: BACS"">OAmAdOdOP</p>","","","","","","","","",""
"html-keyboard-response","383","581530","0.0-16.0-0.51","611e9c16e90a0d4c6f0d8df5","650c16f0f2faf8d7a0d14c09","651c1bcd8c21c8304b9a8491","null","null","<p style=""font-size: 60px; font-family: BACS"">OAmAdOdOP</p>","","","","","","","","",""
"html-keyboard-response","384","582534","0.0-16.0-0.52","611e9c16e90a0d4c6f0d8df5","650c16f0f2faf8d7a0d14c09","651c1bcd8c21c8304b9a8491","null","null","<p style=""font-size: 60px; font-family: BACS"">OAmAdOdOP</p>","","","","","","","","",""
"html-keyboard-response","385","583539","0.0-16.0-0.53","611e9c16e90a0d4c6f0d8df5","650c16f0f2faf8d7a0d14c09","651c1bcd8c21c8304b9a8491","null","null","<p style=""font-size: 60px; font-family: BACS"">OAmAdOdOP</p>","","","","","","","","",""
"html-keyboard-response","386","584555","0.0-16.0-0.54","611e9c16e90a0d4c6f0d8df5","650c16f0f2faf8d7a0d14c09","651c1bcd8c21c8304b9a8491","null","null","<p style=""font-size: 60px; font-family: BACS"">OAmAdOdOP</p>","","","","","","","","",""
"html-keyboard-response","387","585560","0.0-16.0-0.55","611e9c16e90a0d4c6f0d8df5","650c16f0f2faf8d7a0d14c09","651c1bcd8c21c8304b9a8491","null","null","<p style=""font-size: 60px; font-family: BACS"">OAmAdOdOP</p>","","","","","","","","",""
"html-keyboard-response","388","586563","0.0-16.0-0.56","611e9c16e90a0d4c6f0d8df5","650c16f0f2faf8d7a0d14c09","651c1bcd8c21c8304b9a8491","null","null","<p style=""font-size: 60px; font-family: BACS"">OAmAdOdOP</p>","","","","","","","","",""
"html-keyboard-response","389","587567","0.0-16.0-0.57","611e9c16e90a0d4c6f0d8df5","650c16f0f2faf8d7a0d14c09","651c1bcd8c21c8304b9a8491","null","null","<p style=""font-size: 60px; font-family: BACS"">OAmAdOdOP</p>","","","","","","","","",""
"html-keyboard-response","390","588570","0.0-16.0-0.58","611e9c16e90a0d4c6f0d8df5","650c16f0f2faf8d7a0d14c09","651c1bcd8c21c8304b9a8491","null","null","<p style=""font-size: 60px; font-family: BACS"">OAmAdOdOP</p>","","","","","","","","",""
"html-keyboard-response","391","589574","0.0-16.0-0.59","611e9c16e90a0d4c6f0d8df5","650c16f0f2faf8d7a0d14c09","651c1bcd8c21c8304b9a8491","null","null","<p style=""font-size: 60px; font-family: BACS"">OAmAdOdOP</p>","","","","","","","","",""
"html-keyboard-response","392","590577","0.0-16.0-0.60","611e9c16e90a0d4c6f0d8df5","650c16f0f2faf8d7a0d14c09","651c1bcd8c21c8304b9a8491","null","null","<p style=""font-size: 60px; font-family: BACS"">OAmAdOdOP</p>","","","","","","","","",""
"html-keyboard-response","393","591581","0.0-16.0-0.61","611e9c16e90a0d4c6f0d8df5","650c16f0f2faf8d7a0d14c09","651c1bcd8c21c8304b9a8491","null","null","<p style=""font-size: 60px; font-family: BACS"">OAmAdOdOP</p>","","","","","","","","",""
"html-keyboard-response","394","592582","0.0-16.0-0.62","611e9c16e90a0d4c6f0d8df5","650c16f0f2faf8d7a0d14c09","651c1bcd8c21c8304b9a8491","null","null","<p style=""font-size: 60px; font-family: BACS"">OAmAdOdOP</p>","","","","","","","","",""
"html-keyboard-response","395","593589","0.0-16.0-0.63","611e9c16e90a0d4c6f0d8df5","650c16f0f2faf8d7a0d14c09","651c1bcd8c21c8304b9a8491","null","null","<p style=""font-size: 60px; font-family: BACS"">OAmAdOdOP</p>","","","","","","","","",""
"html-keyboard-response","396","594592","0.0-16.0-0.64","611e9c16e90a0d4c6f0d8df5","650c16f0f2faf8d7a0d14c09","651c1bcd8c21c8304b9a8491","null","null","<p style=""font-size: 60px; font-family: BACS"">OAmAdOdOP</p>","","","","","","","","",""
"html-keyboard-response","397","595596","0.0-16.0-0.65","611e9c16e90a0d4c6f0d8df5","650c16f0f2faf8d7a0d14c09","651c1bcd8c21c8304b9a8491","null","null","<p style=""font-size: 60px; font-family: BACS"">OAmAdOdOP</p>","","","","","","","","",""
"html-keyboard-response","398","596597","0.0-16.0-0.66","611e9c16e90a0d4c6f0d8df5","650c16f0f2faf8d7a0d14c09","651c1bcd8c21c8304b9a8491","null","null","<p style=""font-size: 60px; font-family: BACS"">OAmAdOdOP</p>","","","","","","","","",""
