"trial_type","trial_index","time_elapsed","internal_node_id","subject_id","study_id","session_id","rt","response","stimulus","success","item","task","correct_response","testing_condition","correct","target","confound","name","view_history"
"pavlovia","0","958","0.0-0.0","610958b8473c7b96e4bd207d","650c16f0f2faf8d7a0d14c09","651c1ae8cc2be51dd84eb22d","","","","","","","","","","","","",""
"survey-html-form","1","10974","0.0-1.0","610958b8473c7b96e4bd207d","650c16f0f2faf8d7a0d14c09","651c1ae8cc2be51dd84eb22d","10016","{""ID"":""https://run.pavlovia.org/aliebeltsissa/affixproject/?PROLIFIC_PID=610958b8473c7b96e4bd207d&STUDY_ID=650c16f0f2faf8d7a0d14c09&SESSION_ID=651c1ae8cc2be51dd84eb22d""}","","","","","","","","","","",""
"html-keyboard-response","2","81462","0.0-2.0","610958b8473c7b96e4bd207d","650c16f0f2faf8d7a0d14c09","651c1ae8cc2be51dd84eb22d","70487"," ","<p style=""font-size: 15px;"">Before beginning, we ask that you read the consent information and confirm your agreement to participate in the experiment.</p>
      <p style=""font-size: 15px;""> We ask that you remember that this is a research project and that your participation is entirely voluntary. You can stop your participation at any time, without needing to provide any explanation. The study we're asking you to participate in aims at examining how readers process written words. You will be engaged in a session of apprximately 20 minutes, followed by a brief questionnaire. You will have the opportunity to take a few breaks during the experiment. You will be paid £4 for your participation, corresponding to a rate of £8/hour. While this experiment looks at cognitive faculties, this experiment doesn't constitute clinical proof of eventual pathologies.</p>
      <p style=""font-size: 15px;"">All of the information collected thanks to yours and others' participation will be held in a secure password-protected server, and will not be shared with anyone not authorised to view it. Your personal information will be kept with an arbitrary participant ID. Thanks to this data anonymity process, any researcher analysing the data won't be able to track the information back to a specific participant. Therefore, this process will make identifying you impossibile, even when results from the study will be published in scientific reviews, presented at congresses, or at any other public forum. More generally, the collected data will be treated in accordance with the laws on privacy and conformity to the Legislative Degree n. 196 ""Code regarding the protection of personal data"" of the 30th of June 2003 and to the European Regulation 2016/670 (General Data Protection Regulation - GDPR). The Data Protection Officer is Avv. Valentina Carollo, who can be contacted at the following email addresses: <a href=""mailto:dpo@sissa.it"">dpo@sissa.it</a> or <a href=""mailto:rpd@sissa.it"">rpd@sissa.it</a> - PEC: <a href=""mailto:protocollo@pec.sissa.it"">protocollo@pec.sissa.it</a>.</p>
      <p style=""font-size: 15px;""> Before expressing your consent to participate, we would like to remind you again that in case you need explanations on any aspect of the experimental procedure, the researcher is at your disposition (<a href=""mailto:aliebelt@sissa.it"">aliebelt@sissa.it</a>, <a href=""mailto:davide.crepaldi@sissa.it"">davide.crepaldi@sissa.it</a>).</p>
      <p style=""font-size: 15px;"">If you would like to download the informed consent form, you can do so here: <a href=""BASL-Informed_Consent.pdf"" download>informed consent form</a>.</p>
      <p style=""font-size: 15px;"">We ask that you press the spacebar to proceed to the consent section.</p>","","","","","","","","","",""
"survey-html-form","3","116407","0.0-3.0","610958b8473c7b96e4bd207d","650c16f0f2faf8d7a0d14c09","651c1ae8cc2be51dd84eb22d","34944","{""consent1"":""YES"",""consent2"":""YES"",""consent3"":""YES"",""consent4"":""YES"",""consent5"":""YES"",""consent6"":""YES""}","","","","","","","","","","",""
"fullscreen","4","125054","0.0-4.0","610958b8473c7b96e4bd207d","650c16f0f2faf8d7a0d14c09","651c1ae8cc2be51dd84eb22d","","","","true","","","","","","","","",""
"html-keyboard-response","5","151772","0.0-5.0","610958b8473c7b96e4bd207d","650c16f0f2faf8d7a0d14c09","651c1ae8cc2be51dd84eb22d","26718"," ","<p>Welcome, and thank you very much for your time!</p>
      <p>In this experiment, you'll be a language expert who's been asked to take a look at words that Earth has received in its first communication with aliens. Your task, in this first part of the experiment, is to pay close attention to the words you'll be shown; later, world leaders will ask you questions on what you saw. The words will be shown to you quite quickly; it seems that the aliens were in a hurry :-)</p>
      <p>Press the spacebar to continue.<p>","","","","","","","","","",""
"html-keyboard-response","6","151829","0.0-6.0","610958b8473c7b96e4bd207d","650c16f0f2faf8d7a0d14c09","651c1ae8cc2be51dd84eb22d","null","null","<p style=""font-size: 120px; font-family: BACS""> </p>","","","","","","","","","",""
"html-keyboard-response","7","156815","0.0-7.0","610958b8473c7b96e4bd207d","650c16f0f2faf8d7a0d14c09","651c1ae8cc2be51dd84eb22d","4985"," ","<p>Here is an example of the words you'll see:</p>
      <img src='esempio.png' height='400px'>
      <p>When you're ready to begin, press the spacebar.</p></div>","","","","","","","","","",""
"html-keyboard-response","8","157819","0.0-8.0-0.0","610958b8473c7b96e4bd207d","650c16f0f2faf8d7a0d14c09","651c1ae8cc2be51dd84eb22d","null","null","<p style=""font-size: 60px; font-family: BACS"">rvUbZckv</p>","","","","","","","","","",""
"html-keyboard-response","9","158831","0.0-8.0-0.1","610958b8473c7b96e4bd207d","650c16f0f2faf8d7a0d14c09","651c1ae8cc2be51dd84eb22d","null","null","<p style=""font-size: 60px; font-family: BACS"">lGZvAvdk</p>","","","","","","","","","",""
"html-keyboard-response","10","159844","0.0-8.0-0.2","610958b8473c7b96e4bd207d","650c16f0f2faf8d7a0d14c09","651c1ae8cc2be51dd84eb22d","null","null","<p style=""font-size: 60px; font-family: BACS"">kcOYABb</p>","","","","","","","","","",""
"html-keyboard-response","11","160859","0.0-8.0-0.3","610958b8473c7b96e4bd207d","650c16f0f2faf8d7a0d14c09","651c1ae8cc2be51dd84eb22d","null","null","<p style=""font-size: 60px; font-family: BACS"">TEBKcMRl</p>","","","","","","","","","",""
"html-keyboard-response","12","161868","0.0-8.0-0.4","610958b8473c7b96e4bd207d","650c16f0f2faf8d7a0d14c09","651c1ae8cc2be51dd84eb22d","null","null","<p style=""font-size: 60px; font-family: BACS"">adYrcrAJu</p>","","","","","","","","","",""
"html-keyboard-response","13","162877","0.0-8.0-0.5","610958b8473c7b96e4bd207d","650c16f0f2faf8d7a0d14c09","651c1ae8cc2be51dd84eb22d","null","null","<p style=""font-size: 60px; font-family: BACS"">NaAQdZckv</p>","","","","","","","","","",""
"html-keyboard-response","14","163892","0.0-8.0-0.6","610958b8473c7b96e4bd207d","650c16f0f2faf8d7a0d14c09","651c1ae8cc2be51dd84eb22d","null","null","<p style=""font-size: 60px; font-family: BACS"">vQdOGUa</p>","","","","","","","","","",""
"html-keyboard-response","15","164904","0.0-8.0-0.7","610958b8473c7b96e4bd207d","650c16f0f2faf8d7a0d14c09","651c1ae8cc2be51dd84eb22d","null","null","<p style=""font-size: 60px; font-family: BACS"">PCMPKBCAd</p>","","","","","","","","","",""
"html-keyboard-response","16","165920","0.0-8.0-0.8","610958b8473c7b96e4bd207d","650c16f0f2faf8d7a0d14c09","651c1ae8cc2be51dd84eb22d","null","null","<p style=""font-size: 60px; font-family: BACS"">tmtEMABb</p>","","","","","","","","","",""
"html-keyboard-response","17","166930","0.0-8.0-0.9","610958b8473c7b96e4bd207d","650c16f0f2faf8d7a0d14c09","651c1ae8cc2be51dd84eb22d","null","null","<p style=""font-size: 60px; font-family: BACS"">RCcEAPT</p>","","","","","","","","","",""
"html-keyboard-response","18","167939","0.0-8.0-0.10","610958b8473c7b96e4bd207d","650c16f0f2faf8d7a0d14c09","651c1ae8cc2be51dd84eb22d","null","null","<p style=""font-size: 60px; font-family: BACS"">lGZvZckv</p>","","","","","","","","","",""
"html-keyboard-response","19","168954","0.0-8.0-0.11","610958b8473c7b96e4bd207d","650c16f0f2faf8d7a0d14c09","651c1ae8cc2be51dd84eb22d","null","null","<p style=""font-size: 60px; font-family: BACS"">EhbtBbM</p>","","","","","","","","","",""
"html-keyboard-response","20","169962","0.0-8.0-0.12","610958b8473c7b96e4bd207d","650c16f0f2faf8d7a0d14c09","651c1ae8cc2be51dd84eb22d","null","null","<p style=""font-size: 60px; font-family: BACS"">AlNUGUa</p>","","","","","","","","","",""
"html-keyboard-response","21","170968","0.0-8.0-0.13","610958b8473c7b96e4bd207d","650c16f0f2faf8d7a0d14c09","651c1ae8cc2be51dd84eb22d","null","null","<p style=""font-size: 60px; font-family: BACS"">AdDbABb</p>","","","","","","","","","",""
"html-keyboard-response","22","171974","0.0-8.0-0.14","610958b8473c7b96e4bd207d","650c16f0f2faf8d7a0d14c09","651c1ae8cc2be51dd84eb22d","null","null","<p style=""font-size: 60px; font-family: BACS"">rvUbkYL</p>","","","","","","","","","",""
"html-keyboard-response","23","172982","0.0-8.0-0.15","610958b8473c7b96e4bd207d","650c16f0f2faf8d7a0d14c09","651c1ae8cc2be51dd84eb22d","null","null","<p style=""font-size: 60px; font-family: BACS"">ZdNmUZckv</p>","","","","","","","","","",""
"html-keyboard-response","24","173990","0.0-8.0-0.16","610958b8473c7b96e4bd207d","650c16f0f2faf8d7a0d14c09","651c1ae8cc2be51dd84eb22d","null","null","<p style=""font-size: 60px; font-family: BACS"">tmtEMBbM</p>","","","","","","","","","",""
"html-keyboard-response","25","174999","0.0-8.0-0.17","610958b8473c7b96e4bd207d","650c16f0f2faf8d7a0d14c09","651c1ae8cc2be51dd84eb22d","null","null","<p style=""font-size: 60px; font-family: BACS"">TEBKABb</p>","","","","","","","","","",""
"html-keyboard-response","26","176013","0.0-8.0-0.18","610958b8473c7b96e4bd207d","650c16f0f2faf8d7a0d14c09","651c1ae8cc2be51dd84eb22d","null","null","<p style=""font-size: 60px; font-family: BACS"">EhbtBCAd</p>","","","","","","","","","",""
"html-keyboard-response","27","177020","0.0-8.0-0.19","610958b8473c7b96e4bd207d","650c16f0f2faf8d7a0d14c09","651c1ae8cc2be51dd84eb22d","null","null","<p style=""font-size: 60px; font-family: BACS"">AlNUrAJu</p>","","","","","","","","","",""
"html-keyboard-response","28","178035","0.0-8.0-0.20","610958b8473c7b96e4bd207d","650c16f0f2faf8d7a0d14c09","651c1ae8cc2be51dd84eb22d","null","null","<p style=""font-size: 60px; font-family: BACS"">adYrcGUa</p>","","","","","","","","","",""
"html-keyboard-response","29","179041","0.0-8.0-0.21","610958b8473c7b96e4bd207d","650c16f0f2faf8d7a0d14c09","651c1ae8cc2be51dd84eb22d","null","null","<p style=""font-size: 60px; font-family: BACS"">NaAQdkYL</p>","","","","","","","","","",""
"html-keyboard-response","30","180049","0.0-8.0-0.22","610958b8473c7b96e4bd207d","650c16f0f2faf8d7a0d14c09","651c1ae8cc2be51dd84eb22d","null","null","<p style=""font-size: 60px; font-family: BACS"">NLQGmrAJu</p>","","","","","","","","","",""
"html-keyboard-response","31","181062","0.0-8.0-0.23","610958b8473c7b96e4bd207d","650c16f0f2faf8d7a0d14c09","651c1ae8cc2be51dd84eb22d","null","null","<p style=""font-size: 60px; font-family: BACS"">rvUbGUa</p>","","","","","","","","","",""
"html-keyboard-response","32","182070","0.0-8.0-0.24","610958b8473c7b96e4bd207d","650c16f0f2faf8d7a0d14c09","651c1ae8cc2be51dd84eb22d","null","null","<p style=""font-size: 60px; font-family: BACS"">RCcEBbM</p>","","","","","","","","","",""
"html-keyboard-response","33","183084","0.0-8.0-0.25","610958b8473c7b96e4bd207d","650c16f0f2faf8d7a0d14c09","651c1ae8cc2be51dd84eb22d","null","null","<p style=""font-size: 60px; font-family: BACS"">NLQGmGUa</p>","","","","","","","","","",""
"html-keyboard-response","34","184098","0.0-8.0-0.26","610958b8473c7b96e4bd207d","650c16f0f2faf8d7a0d14c09","651c1ae8cc2be51dd84eb22d","null","null","<p style=""font-size: 60px; font-family: BACS"">kcOYBbM</p>","","","","","","","","","",""
"html-keyboard-response","35","185110","0.0-8.0-0.27","610958b8473c7b96e4bd207d","650c16f0f2faf8d7a0d14c09","651c1ae8cc2be51dd84eb22d","null","null","<p style=""font-size: 60px; font-family: BACS"">adYrcAvdk</p>","","","","","","","","","",""
"html-keyboard-response","36","186122","0.0-8.0-0.28","610958b8473c7b96e4bd207d","650c16f0f2faf8d7a0d14c09","651c1ae8cc2be51dd84eb22d","null","null","<p style=""font-size: 60px; font-family: BACS"">cRElDBCAd</p>","","","","","","","","","",""
"html-keyboard-response","37","187127","0.0-8.0-0.29","610958b8473c7b96e4bd207d","650c16f0f2faf8d7a0d14c09","651c1ae8cc2be51dd84eb22d","null","null","<p style=""font-size: 60px; font-family: BACS"">AlQaQrAJu</p>","","","","","","","","","",""
"html-keyboard-response","38","188138","0.0-8.0-0.30","610958b8473c7b96e4bd207d","650c16f0f2faf8d7a0d14c09","651c1ae8cc2be51dd84eb22d","null","null","<p style=""font-size: 60px; font-family: BACS"">KdARBCAd</p>","","","","","","","","","",""
"html-keyboard-response","39","189149","0.0-8.0-0.31","610958b8473c7b96e4bd207d","650c16f0f2faf8d7a0d14c09","651c1ae8cc2be51dd84eb22d","null","null","<p style=""font-size: 60px; font-family: BACS"">TEBKBbM</p>","","","","","","","","","",""
"html-keyboard-response","40","190156","0.0-8.0-0.32","610958b8473c7b96e4bd207d","650c16f0f2faf8d7a0d14c09","651c1ae8cc2be51dd84eb22d","null","null","<p style=""font-size: 60px; font-family: BACS"">rvUbrAJu</p>","","","","","","","","","",""
"html-keyboard-response","41","191163","0.0-8.0-0.33","610958b8473c7b96e4bd207d","650c16f0f2faf8d7a0d14c09","651c1ae8cc2be51dd84eb22d","null","null","<p style=""font-size: 60px; font-family: BACS"">cRElDBbM</p>","","","","","","","","","",""
"html-keyboard-response","42","192176","0.0-8.0-0.34","610958b8473c7b96e4bd207d","650c16f0f2faf8d7a0d14c09","651c1ae8cc2be51dd84eb22d","null","null","<p style=""font-size: 60px; font-family: BACS"">adYrcZckv</p>","","","","","","","","","",""
"html-keyboard-response","43","193187","0.0-8.0-0.35","610958b8473c7b96e4bd207d","650c16f0f2faf8d7a0d14c09","651c1ae8cc2be51dd84eb22d","null","null","<p style=""font-size: 60px; font-family: BACS"">ZdNmUkYL</p>","","","","","","","","","",""
"html-keyboard-response","44","194196","0.0-8.0-0.36","610958b8473c7b96e4bd207d","650c16f0f2faf8d7a0d14c09","651c1ae8cc2be51dd84eb22d","null","null","<p style=""font-size: 60px; font-family: BACS"">rckOAvdk</p>","","","","","","","","","",""
"html-keyboard-response","45","195207","0.0-8.0-0.37","610958b8473c7b96e4bd207d","650c16f0f2faf8d7a0d14c09","651c1ae8cc2be51dd84eb22d","null","null","<p style=""font-size: 60px; font-family: BACS"">PCMPKAPT</p>","","","","","","","","","",""
"html-keyboard-response","46","196219","0.0-8.0-0.38","610958b8473c7b96e4bd207d","650c16f0f2faf8d7a0d14c09","651c1ae8cc2be51dd84eb22d","null","null","<p style=""font-size: 60px; font-family: BACS"">hChYABb</p>","","","","","","","","","",""
"html-keyboard-response","47","197229","0.0-8.0-0.39","610958b8473c7b96e4bd207d","650c16f0f2faf8d7a0d14c09","651c1ae8cc2be51dd84eb22d","null","null","<p style=""font-size: 60px; font-family: BACS"">AlNUAvdk</p>","","","","","","","","","",""
"html-keyboard-response","48","198244","0.0-8.0-0.40","610958b8473c7b96e4bd207d","650c16f0f2faf8d7a0d14c09","651c1ae8cc2be51dd84eb22d","null","null","<p style=""font-size: 60px; font-family: BACS"">AdDbcMRl</p>","","","","","","","","","",""
"html-keyboard-response","49","199251","0.0-8.0-0.41","610958b8473c7b96e4bd207d","650c16f0f2faf8d7a0d14c09","651c1ae8cc2be51dd84eb22d","null","null","<p style=""font-size: 60px; font-family: BACS"">AlQaQGUa</p>","","","","","","","","","",""
"html-keyboard-response","50","200264","0.0-8.0-0.42","610958b8473c7b96e4bd207d","650c16f0f2faf8d7a0d14c09","651c1ae8cc2be51dd84eb22d","null","null","<p style=""font-size: 60px; font-family: BACS"">cRElDAPT</p>","","","","","","","","","",""
"html-keyboard-response","51","201271","0.0-8.0-0.43","610958b8473c7b96e4bd207d","650c16f0f2faf8d7a0d14c09","651c1ae8cc2be51dd84eb22d","null","null","<p style=""font-size: 60px; font-family: BACS"">vQdOkYL</p>","","","","","","","","","",""
"html-keyboard-response","52","202287","0.0-8.0-0.44","610958b8473c7b96e4bd207d","650c16f0f2faf8d7a0d14c09","651c1ae8cc2be51dd84eb22d","null","null","<p style=""font-size: 60px; font-family: BACS"">ZdNmUGUa</p>","","","","","","","","","",""
"html-keyboard-response","53","203295","0.0-8.0-0.45","610958b8473c7b96e4bd207d","650c16f0f2faf8d7a0d14c09","651c1ae8cc2be51dd84eb22d","null","null","<p style=""font-size: 60px; font-family: BACS"">NaAQdrAJu</p>","","","","","","","","","",""
"html-keyboard-response","54","204297","0.0-8.0-0.46","610958b8473c7b96e4bd207d","650c16f0f2faf8d7a0d14c09","651c1ae8cc2be51dd84eb22d","null","null","<p style=""font-size: 60px; font-family: BACS"">EhbtcMRl</p>","","","","","","","","","",""
"html-keyboard-response","55","205303","0.0-8.0-0.47","610958b8473c7b96e4bd207d","650c16f0f2faf8d7a0d14c09","651c1ae8cc2be51dd84eb22d","null","null","<p style=""font-size: 60px; font-family: BACS"">rckOkYL</p>","","","","","","","","","",""
"html-keyboard-response","56","206308","0.0-8.0-0.48","610958b8473c7b96e4bd207d","650c16f0f2faf8d7a0d14c09","651c1ae8cc2be51dd84eb22d","null","null","<p style=""font-size: 60px; font-family: BACS"">vQdOAvdk</p>","","","","","","","","","",""
"html-keyboard-response","57","207321","0.0-8.0-0.49","610958b8473c7b96e4bd207d","650c16f0f2faf8d7a0d14c09","651c1ae8cc2be51dd84eb22d","null","null","<p style=""font-size: 60px; font-family: BACS"">hChYcMRl</p>","","","","","","","","","",""
"html-keyboard-response","58","208335","0.0-8.0-0.50","610958b8473c7b96e4bd207d","650c16f0f2faf8d7a0d14c09","651c1ae8cc2be51dd84eb22d","null","null","<p style=""font-size: 60px; font-family: BACS"">NLQGmAvdk</p>","","","","","","","","","",""
"html-keyboard-response","59","209347","0.0-8.0-0.51","610958b8473c7b96e4bd207d","650c16f0f2faf8d7a0d14c09","651c1ae8cc2be51dd84eb22d","null","null","<p style=""font-size: 60px; font-family: BACS"">PCMPKcMRl</p>","","","","","","","","","",""
"html-keyboard-response","60","210356","0.0-8.0-0.52","610958b8473c7b96e4bd207d","650c16f0f2faf8d7a0d14c09","651c1ae8cc2be51dd84eb22d","null","null","<p style=""font-size: 60px; font-family: BACS"">NLQGmZckv</p>","","","","","","","","","",""
"html-keyboard-response","61","211369","0.0-8.0-0.53","610958b8473c7b96e4bd207d","650c16f0f2faf8d7a0d14c09","651c1ae8cc2be51dd84eb22d","null","null","<p style=""font-size: 60px; font-family: BACS"">NaAQdAvdk</p>","","","","","","","","","",""
"html-keyboard-response","62","212385","0.0-8.0-0.54","610958b8473c7b96e4bd207d","650c16f0f2faf8d7a0d14c09","651c1ae8cc2be51dd84eb22d","null","null","<p style=""font-size: 60px; font-family: BACS"">RCcEBCAd</p>","","","","","","","","","",""
"html-keyboard-response","63","213385","0.0-8.0-0.55","610958b8473c7b96e4bd207d","650c16f0f2faf8d7a0d14c09","651c1ae8cc2be51dd84eb22d","null","null","<p style=""font-size: 60px; font-family: BACS"">AdDbAPT</p>","","","","","","","","","",""
"html-keyboard-response","64","214400","0.0-8.0-0.56","610958b8473c7b96e4bd207d","650c16f0f2faf8d7a0d14c09","651c1ae8cc2be51dd84eb22d","null","null","<p style=""font-size: 60px; font-family: BACS"">AlQaQZckv</p>","","","","","","","","","",""
"html-keyboard-response","65","215405","0.0-8.0-0.57","610958b8473c7b96e4bd207d","650c16f0f2faf8d7a0d14c09","651c1ae8cc2be51dd84eb22d","null","null","<p style=""font-size: 60px; font-family: BACS"">TEBKAPT</p>","","","","","","","","","",""
"html-keyboard-response","66","216411","0.0-8.0-0.58","610958b8473c7b96e4bd207d","650c16f0f2faf8d7a0d14c09","651c1ae8cc2be51dd84eb22d","null","null","<p style=""font-size: 60px; font-family: BACS"">AlQaQkYL</p>","","","","","","","","","",""
"html-keyboard-response","67","217421","0.0-8.0-0.59","610958b8473c7b96e4bd207d","650c16f0f2faf8d7a0d14c09","651c1ae8cc2be51dd84eb22d","null","null","<p style=""font-size: 60px; font-family: BACS"">KdARcMRl</p>","","","","","","","","","",""
"html-keyboard-response","68","218430","0.0-8.0-0.60","610958b8473c7b96e4bd207d","650c16f0f2faf8d7a0d14c09","651c1ae8cc2be51dd84eb22d","null","null","<p style=""font-size: 60px; font-family: BACS"">cRElDABb</p>","","","","","","","","","",""
"html-keyboard-response","69","219443","0.0-8.0-0.61","610958b8473c7b96e4bd207d","650c16f0f2faf8d7a0d14c09","651c1ae8cc2be51dd84eb22d","null","null","<p style=""font-size: 60px; font-family: BACS"">hChYBbM</p>","","","","","","","","","",""
"html-keyboard-response","70","220459","0.0-8.0-0.62","610958b8473c7b96e4bd207d","650c16f0f2faf8d7a0d14c09","651c1ae8cc2be51dd84eb22d","null","null","<p style=""font-size: 60px; font-family: BACS"">AlNUkYL</p>","","","","","","","","","",""
"html-keyboard-response","71","221465","0.0-8.0-0.63","610958b8473c7b96e4bd207d","650c16f0f2faf8d7a0d14c09","651c1ae8cc2be51dd84eb22d","null","null","<p style=""font-size: 60px; font-family: BACS"">rckOZckv</p>","","","","","","","","","",""
"html-keyboard-response","72","222475","0.0-8.0-0.64","610958b8473c7b96e4bd207d","650c16f0f2faf8d7a0d14c09","651c1ae8cc2be51dd84eb22d","null","null","<p style=""font-size: 60px; font-family: BACS"">kcOYAPT</p>","","","","","","","","","",""
"html-keyboard-response","73","223487","0.0-8.0-0.65","610958b8473c7b96e4bd207d","650c16f0f2faf8d7a0d14c09","651c1ae8cc2be51dd84eb22d","null","null","<p style=""font-size: 60px; font-family: BACS"">rckOrAJu</p>","","","","","","","","","",""
"html-keyboard-response","74","224500","0.0-8.0-0.66","610958b8473c7b96e4bd207d","650c16f0f2faf8d7a0d14c09","651c1ae8cc2be51dd84eb22d","null","null","<p style=""font-size: 60px; font-family: BACS"">RCcEcMRl</p>","","","","","","","","","",""
"html-keyboard-response","75","225516","0.0-8.0-0.67","610958b8473c7b96e4bd207d","650c16f0f2faf8d7a0d14c09","651c1ae8cc2be51dd84eb22d","null","null","<p style=""font-size: 60px; font-family: BACS"">ZdNmUAvdk</p>","","","","","","","","","",""
"html-keyboard-response","76","226521","0.0-8.0-0.68","610958b8473c7b96e4bd207d","650c16f0f2faf8d7a0d14c09","651c1ae8cc2be51dd84eb22d","null","null","<p style=""font-size: 60px; font-family: BACS"">kcOYBCAd</p>","","","","","","","","","",""
"html-keyboard-response","77","227523","0.0-8.0-0.69","610958b8473c7b96e4bd207d","650c16f0f2faf8d7a0d14c09","651c1ae8cc2be51dd84eb22d","null","null","<p style=""font-size: 60px; font-family: BACS"">tmtEMcMRl</p>","","","","","","","","","",""
"html-keyboard-response","78","228525","0.0-8.0-0.70","610958b8473c7b96e4bd207d","650c16f0f2faf8d7a0d14c09","651c1ae8cc2be51dd84eb22d","null","null","<p style=""font-size: 60px; font-family: BACS"">KdARABb</p>","","","","","","","","","",""
"html-keyboard-response","79","229538","0.0-8.0-0.71","610958b8473c7b96e4bd207d","650c16f0f2faf8d7a0d14c09","651c1ae8cc2be51dd84eb22d","null","null","<p style=""font-size: 60px; font-family: BACS"">AdDbBCAd</p>","","","","","","","","","",""
"html-keyboard-response","80","230545","0.0-8.0-0.72","610958b8473c7b96e4bd207d","650c16f0f2faf8d7a0d14c09","651c1ae8cc2be51dd84eb22d","null","null","<p style=""font-size: 60px; font-family: BACS"">vQdOrAJu</p>","","","","","","","","","",""
"html-keyboard-response","81","231559","0.0-8.0-0.73","610958b8473c7b96e4bd207d","650c16f0f2faf8d7a0d14c09","651c1ae8cc2be51dd84eb22d","null","null","<p style=""font-size: 60px; font-family: BACS"">hChYAPT</p>","","","","","","","","","",""
"html-keyboard-response","82","232568","0.0-8.0-0.74","610958b8473c7b96e4bd207d","650c16f0f2faf8d7a0d14c09","651c1ae8cc2be51dd84eb22d","null","null","<p style=""font-size: 60px; font-family: BACS"">tmtEMBCAd</p>","","","","","","","","","",""
"html-keyboard-response","83","233578","0.0-8.0-0.75","610958b8473c7b96e4bd207d","650c16f0f2faf8d7a0d14c09","651c1ae8cc2be51dd84eb22d","null","null","<p style=""font-size: 60px; font-family: BACS"">lGZvGUa</p>","","","","","","","","","",""
"html-keyboard-response","84","234590","0.0-8.0-0.76","610958b8473c7b96e4bd207d","650c16f0f2faf8d7a0d14c09","651c1ae8cc2be51dd84eb22d","null","null","<p style=""font-size: 60px; font-family: BACS"">KdARAPT</p>","","","","","","","","","",""
"html-keyboard-response","85","235595","0.0-8.0-0.77","610958b8473c7b96e4bd207d","650c16f0f2faf8d7a0d14c09","651c1ae8cc2be51dd84eb22d","null","null","<p style=""font-size: 60px; font-family: BACS"">lGZvkYL</p>","","","","","","","","","",""
"html-keyboard-response","86","236608","0.0-8.0-0.78","610958b8473c7b96e4bd207d","650c16f0f2faf8d7a0d14c09","651c1ae8cc2be51dd84eb22d","null","null","<p style=""font-size: 60px; font-family: BACS"">EhbtABb</p>","","","","","","","","","",""
"html-keyboard-response","87","237619","0.0-8.0-0.79","610958b8473c7b96e4bd207d","650c16f0f2faf8d7a0d14c09","651c1ae8cc2be51dd84eb22d","null","null","<p style=""font-size: 60px; font-family: BACS"">PCMPKBbM</p>","","","","","","","","","",""
"html-keyboard-response","88","242582","0.0-9.0","610958b8473c7b96e4bd207d","650c16f0f2faf8d7a0d14c09","651c1ae8cc2be51dd84eb22d","4963"," ","<p>Great, you've seen the first block of words. You may now take a short break.</p>
      <p>Press the spacebar when you're ready to continue.</p>","","","","","","","","","",""
"html-keyboard-response","89","243596","0.0-10.0-0.0","610958b8473c7b96e4bd207d","650c16f0f2faf8d7a0d14c09","651c1ae8cc2be51dd84eb22d","null","null","<p style=""font-size: 60px; font-family: BACS"">lGZvkYL</p>","","","","","","","","","",""
"html-keyboard-response","90","244604","0.0-10.0-0.1","610958b8473c7b96e4bd207d","650c16f0f2faf8d7a0d14c09","651c1ae8cc2be51dd84eb22d","null","null","<p style=""font-size: 60px; font-family: BACS"">ZdNmUZckv</p>","","","","","","","","","",""
"html-keyboard-response","91","245617","0.0-10.0-0.2","610958b8473c7b96e4bd207d","650c16f0f2faf8d7a0d14c09","651c1ae8cc2be51dd84eb22d","null","null","<p style=""font-size: 60px; font-family: BACS"">AdDbcMRl</p>","","","","","","","","","",""
"html-keyboard-response","92","246627","0.0-10.0-0.3","610958b8473c7b96e4bd207d","650c16f0f2faf8d7a0d14c09","651c1ae8cc2be51dd84eb22d","null","null","<p style=""font-size: 60px; font-family: BACS"">kcOYAPT</p>","","","","","","","","","",""
"html-keyboard-response","93","247639","0.0-10.0-0.4","610958b8473c7b96e4bd207d","650c16f0f2faf8d7a0d14c09","651c1ae8cc2be51dd84eb22d","null","null","<p style=""font-size: 60px; font-family: BACS"">tmtEMcMRl</p>","","","","","","","","","",""
"html-keyboard-response","94","248647","0.0-10.0-0.5","610958b8473c7b96e4bd207d","650c16f0f2faf8d7a0d14c09","651c1ae8cc2be51dd84eb22d","null","null","<p style=""font-size: 60px; font-family: BACS"">AlQaQZckv</p>","","","","","","","","","",""
"html-keyboard-response","95","249651","0.0-10.0-0.6","610958b8473c7b96e4bd207d","650c16f0f2faf8d7a0d14c09","651c1ae8cc2be51dd84eb22d","null","null","<p style=""font-size: 60px; font-family: BACS"">ZdNmUAvdk</p>","","","","","","","","","",""
"html-keyboard-response","96","250662","0.0-10.0-0.7","610958b8473c7b96e4bd207d","650c16f0f2faf8d7a0d14c09","651c1ae8cc2be51dd84eb22d","null","null","<p style=""font-size: 60px; font-family: BACS"">KdARBCAd</p>","","","","","","","","","",""
"html-keyboard-response","97","251672","0.0-10.0-0.8","610958b8473c7b96e4bd207d","650c16f0f2faf8d7a0d14c09","651c1ae8cc2be51dd84eb22d","null","null","<p style=""font-size: 60px; font-family: BACS"">NLQGmrAJu</p>","","","","","","","","","",""
"html-keyboard-response","98","252676","0.0-10.0-0.9","610958b8473c7b96e4bd207d","650c16f0f2faf8d7a0d14c09","651c1ae8cc2be51dd84eb22d","null","null","<p style=""font-size: 60px; font-family: BACS"">kcOYBCAd</p>","","","","","","","","","",""
"html-keyboard-response","99","253680","0.0-10.0-0.10","610958b8473c7b96e4bd207d","650c16f0f2faf8d7a0d14c09","651c1ae8cc2be51dd84eb22d","null","null","<p style=""font-size: 60px; font-family: BACS"">NLQGmZckv</p>","","","","","","","","","",""
"html-keyboard-response","100","254692","0.0-10.0-0.11","610958b8473c7b96e4bd207d","650c16f0f2faf8d7a0d14c09","651c1ae8cc2be51dd84eb22d","null","null","<p style=""font-size: 60px; font-family: BACS"">rvUbkYL</p>","","","","","","","","","",""
"html-keyboard-response","101","255693","0.0-10.0-0.12","610958b8473c7b96e4bd207d","650c16f0f2faf8d7a0d14c09","651c1ae8cc2be51dd84eb22d","null","null","<p style=""font-size: 60px; font-family: BACS"">TEBKABb</p>","","","","","","","","","",""
"html-keyboard-response","102","256694","0.0-10.0-0.13","610958b8473c7b96e4bd207d","650c16f0f2faf8d7a0d14c09","651c1ae8cc2be51dd84eb22d","null","null","<p style=""font-size: 60px; font-family: BACS"">AlNUAvdk</p>","","","","","","","","","",""
"html-keyboard-response","103","257707","0.0-10.0-0.14","610958b8473c7b96e4bd207d","650c16f0f2faf8d7a0d14c09","651c1ae8cc2be51dd84eb22d","null","null","<p style=""font-size: 60px; font-family: BACS"">hChYAPT</p>","","","","","","","","","",""
"html-keyboard-response","104","258721","0.0-10.0-0.15","610958b8473c7b96e4bd207d","650c16f0f2faf8d7a0d14c09","651c1ae8cc2be51dd84eb22d","null","null","<p style=""font-size: 60px; font-family: BACS"">adYrcrAJu</p>","","","","","","","","","",""
"html-keyboard-response","105","259735","0.0-10.0-0.16","610958b8473c7b96e4bd207d","650c16f0f2faf8d7a0d14c09","651c1ae8cc2be51dd84eb22d","null","null","<p style=""font-size: 60px; font-family: BACS"">KdARAPT</p>","","","","","","","","","",""
"html-keyboard-response","106","260746","0.0-10.0-0.17","610958b8473c7b96e4bd207d","650c16f0f2faf8d7a0d14c09","651c1ae8cc2be51dd84eb22d","null","null","<p style=""font-size: 60px; font-family: BACS"">adYrcGUa</p>","","","","","","","","","",""
"html-keyboard-response","107","261758","0.0-10.0-0.18","610958b8473c7b96e4bd207d","650c16f0f2faf8d7a0d14c09","651c1ae8cc2be51dd84eb22d","null","null","<p style=""font-size: 60px; font-family: BACS"">TEBKBbM</p>","","","","","","","","","",""
"html-keyboard-response","108","262774","0.0-10.0-0.19","610958b8473c7b96e4bd207d","650c16f0f2faf8d7a0d14c09","651c1ae8cc2be51dd84eb22d","null","null","<p style=""font-size: 60px; font-family: BACS"">AlNUrAJu</p>","","","","","","","","","",""
"html-keyboard-response","109","263789","0.0-10.0-0.20","610958b8473c7b96e4bd207d","650c16f0f2faf8d7a0d14c09","651c1ae8cc2be51dd84eb22d","null","null","<p style=""font-size: 60px; font-family: BACS"">hChYcMRl</p>","","","","","","","","","",""
"html-keyboard-response","110","264802","0.0-10.0-0.21","610958b8473c7b96e4bd207d","650c16f0f2faf8d7a0d14c09","651c1ae8cc2be51dd84eb22d","null","null","<p style=""font-size: 60px; font-family: BACS"">NaAQdkYL</p>","","","","","","","","","",""
"html-keyboard-response","111","265811","0.0-10.0-0.22","610958b8473c7b96e4bd207d","650c16f0f2faf8d7a0d14c09","651c1ae8cc2be51dd84eb22d","null","null","<p style=""font-size: 60px; font-family: BACS"">hChYABb</p>","","","","","","","","","",""
"html-keyboard-response","112","266821","0.0-10.0-0.23","610958b8473c7b96e4bd207d","650c16f0f2faf8d7a0d14c09","651c1ae8cc2be51dd84eb22d","null","null","<p style=""font-size: 60px; font-family: BACS"">cRElDAPT</p>","","","","","","","","","",""
"html-keyboard-response","113","267831","0.0-10.0-0.24","610958b8473c7b96e4bd207d","650c16f0f2faf8d7a0d14c09","651c1ae8cc2be51dd84eb22d","null","null","<p style=""font-size: 60px; font-family: BACS"">RCcEBCAd</p>","","","","","","","","","",""
"html-keyboard-response","114","268839","0.0-10.0-0.25","610958b8473c7b96e4bd207d","650c16f0f2faf8d7a0d14c09","651c1ae8cc2be51dd84eb22d","null","null","<p style=""font-size: 60px; font-family: BACS"">adYrcAvdk</p>","","","","","","","","","",""
"html-keyboard-response","115","269846","0.0-10.0-0.26","610958b8473c7b96e4bd207d","650c16f0f2faf8d7a0d14c09","651c1ae8cc2be51dd84eb22d","null","null","<p style=""font-size: 60px; font-family: BACS"">AlQaQrAJu</p>","","","","","","","","","",""
"html-keyboard-response","116","270858","0.0-10.0-0.27","610958b8473c7b96e4bd207d","650c16f0f2faf8d7a0d14c09","651c1ae8cc2be51dd84eb22d","null","null","<p style=""font-size: 60px; font-family: BACS"">rckOZckv</p>","","","","","","","","","",""
"html-keyboard-response","117","271873","0.0-10.0-0.28","610958b8473c7b96e4bd207d","650c16f0f2faf8d7a0d14c09","651c1ae8cc2be51dd84eb22d","null","null","<p style=""font-size: 60px; font-family: BACS"">cRElDBbM</p>","","","","","","","","","",""
"html-keyboard-response","118","272874","0.0-10.0-0.29","610958b8473c7b96e4bd207d","650c16f0f2faf8d7a0d14c09","651c1ae8cc2be51dd84eb22d","null","null","<p style=""font-size: 60px; font-family: BACS"">AlQaQGUa</p>","","","","","","","","","",""
"html-keyboard-response","119","273875","0.0-10.0-0.30","610958b8473c7b96e4bd207d","650c16f0f2faf8d7a0d14c09","651c1ae8cc2be51dd84eb22d","null","null","<p style=""font-size: 60px; font-family: BACS"">NaAQdrAJu</p>","","","","","","","","","",""
"html-keyboard-response","120","274885","0.0-10.0-0.31","610958b8473c7b96e4bd207d","650c16f0f2faf8d7a0d14c09","651c1ae8cc2be51dd84eb22d","null","null","<p style=""font-size: 60px; font-family: BACS"">hChYBbM</p>","","","","","","","","","",""
"html-keyboard-response","121","275897","0.0-10.0-0.32","610958b8473c7b96e4bd207d","650c16f0f2faf8d7a0d14c09","651c1ae8cc2be51dd84eb22d","null","null","<p style=""font-size: 60px; font-family: BACS"">RCcEAPT</p>","","","","","","","","","",""
"html-keyboard-response","122","276910","0.0-10.0-0.33","610958b8473c7b96e4bd207d","650c16f0f2faf8d7a0d14c09","651c1ae8cc2be51dd84eb22d","null","null","<p style=""font-size: 60px; font-family: BACS"">PCMPKcMRl</p>","","","","","","","","","",""
"html-keyboard-response","123","277922","0.0-10.0-0.34","610958b8473c7b96e4bd207d","650c16f0f2faf8d7a0d14c09","651c1ae8cc2be51dd84eb22d","null","null","<p style=""font-size: 60px; font-family: BACS"">rckOrAJu</p>","","","","","","","","","",""
"html-keyboard-response","124","278932","0.0-10.0-0.35","610958b8473c7b96e4bd207d","650c16f0f2faf8d7a0d14c09","651c1ae8cc2be51dd84eb22d","null","null","<p style=""font-size: 60px; font-family: BACS"">NaAQdZckv</p>","","","","","","","","","",""
"html-keyboard-response","125","279948","0.0-10.0-0.36","610958b8473c7b96e4bd207d","650c16f0f2faf8d7a0d14c09","651c1ae8cc2be51dd84eb22d","null","null","<p style=""font-size: 60px; font-family: BACS"">tmtEMABb</p>","","","","","","","","","",""
"html-keyboard-response","126","280956","0.0-10.0-0.37","610958b8473c7b96e4bd207d","650c16f0f2faf8d7a0d14c09","651c1ae8cc2be51dd84eb22d","null","null","<p style=""font-size: 60px; font-family: BACS"">vQdOGUa</p>","","","","","","","","","",""
"html-keyboard-response","127","281961","0.0-10.0-0.38","610958b8473c7b96e4bd207d","650c16f0f2faf8d7a0d14c09","651c1ae8cc2be51dd84eb22d","null","null","<p style=""font-size: 60px; font-family: BACS"">AdDbBCAd</p>","","","","","","","","","",""
"html-keyboard-response","128","282973","0.0-10.0-0.39","610958b8473c7b96e4bd207d","650c16f0f2faf8d7a0d14c09","651c1ae8cc2be51dd84eb22d","null","null","<p style=""font-size: 60px; font-family: BACS"">lGZvAvdk</p>","","","","","","","","","",""
"html-keyboard-response","129","283981","0.0-10.0-0.40","610958b8473c7b96e4bd207d","650c16f0f2faf8d7a0d14c09","651c1ae8cc2be51dd84eb22d","null","null","<p style=""font-size: 60px; font-family: BACS"">rckOkYL</p>","","","","","","","","","",""
"html-keyboard-response","130","284991","0.0-10.0-0.41","610958b8473c7b96e4bd207d","650c16f0f2faf8d7a0d14c09","651c1ae8cc2be51dd84eb22d","null","null","<p style=""font-size: 60px; font-family: BACS"">RCcEcMRl</p>","","","","","","","","","",""
"html-keyboard-response","131","285992","0.0-10.0-0.42","610958b8473c7b96e4bd207d","650c16f0f2faf8d7a0d14c09","651c1ae8cc2be51dd84eb22d","null","null","<p style=""font-size: 60px; font-family: BACS"">AlNUkYL</p>","","","","","","","","","",""
"html-keyboard-response","132","287003","0.0-10.0-0.43","610958b8473c7b96e4bd207d","650c16f0f2faf8d7a0d14c09","651c1ae8cc2be51dd84eb22d","null","null","<p style=""font-size: 60px; font-family: BACS"">TEBKAPT</p>","","","","","","","","","",""
"html-keyboard-response","133","288017","0.0-10.0-0.44","610958b8473c7b96e4bd207d","650c16f0f2faf8d7a0d14c09","651c1ae8cc2be51dd84eb22d","null","null","<p style=""font-size: 60px; font-family: BACS"">KdARABb</p>","","","","","","","","","",""
"html-keyboard-response","134","289030","0.0-10.0-0.45","610958b8473c7b96e4bd207d","650c16f0f2faf8d7a0d14c09","651c1ae8cc2be51dd84eb22d","null","null","<p style=""font-size: 60px; font-family: BACS"">TEBKcMRl</p>","","","","","","","","","",""
"html-keyboard-response","135","290039","0.0-10.0-0.46","610958b8473c7b96e4bd207d","650c16f0f2faf8d7a0d14c09","651c1ae8cc2be51dd84eb22d","null","null","<p style=""font-size: 60px; font-family: BACS"">EhbtBbM</p>","","","","","","","","","",""
"html-keyboard-response","136","291048","0.0-10.0-0.47","610958b8473c7b96e4bd207d","650c16f0f2faf8d7a0d14c09","651c1ae8cc2be51dd84eb22d","null","null","<p style=""font-size: 60px; font-family: BACS"">rvUbZckv</p>","","","","","","","","","",""
"html-keyboard-response","137","292062","0.0-10.0-0.48","610958b8473c7b96e4bd207d","650c16f0f2faf8d7a0d14c09","651c1ae8cc2be51dd84eb22d","null","null","<p style=""font-size: 60px; font-family: BACS"">NaAQdAvdk</p>","","","","","","","","","",""
"html-keyboard-response","138","293078","0.0-10.0-0.49","610958b8473c7b96e4bd207d","650c16f0f2faf8d7a0d14c09","651c1ae8cc2be51dd84eb22d","null","null","<p style=""font-size: 60px; font-family: BACS"">NLQGmGUa</p>","","","","","","","","","",""
"html-keyboard-response","139","294089","0.0-10.0-0.50","610958b8473c7b96e4bd207d","650c16f0f2faf8d7a0d14c09","651c1ae8cc2be51dd84eb22d","null","null","<p style=""font-size: 60px; font-family: BACS"">lGZvZckv</p>","","","","","","","","","",""
"html-keyboard-response","140","295100","0.0-10.0-0.51","610958b8473c7b96e4bd207d","650c16f0f2faf8d7a0d14c09","651c1ae8cc2be51dd84eb22d","null","null","<p style=""font-size: 60px; font-family: BACS"">cRElDABb</p>","","","","","","","","","",""
"html-keyboard-response","141","296110","0.0-10.0-0.52","610958b8473c7b96e4bd207d","650c16f0f2faf8d7a0d14c09","651c1ae8cc2be51dd84eb22d","null","null","<p style=""font-size: 60px; font-family: BACS"">rckOAvdk</p>","","","","","","","","","",""
"html-keyboard-response","142","297123","0.0-10.0-0.53","610958b8473c7b96e4bd207d","650c16f0f2faf8d7a0d14c09","651c1ae8cc2be51dd84eb22d","null","null","<p style=""font-size: 60px; font-family: BACS"">vQdOrAJu</p>","","","","","","","","","",""
"html-keyboard-response","143","298133","0.0-10.0-0.54","610958b8473c7b96e4bd207d","650c16f0f2faf8d7a0d14c09","651c1ae8cc2be51dd84eb22d","null","null","<p style=""font-size: 60px; font-family: BACS"">tmtEMBbM</p>","","","","","","","","","",""
"html-keyboard-response","144","299142","0.0-10.0-0.55","610958b8473c7b96e4bd207d","650c16f0f2faf8d7a0d14c09","651c1ae8cc2be51dd84eb22d","null","null","<p style=""font-size: 60px; font-family: BACS"">adYrcZckv</p>","","","","","","","","","",""
"html-keyboard-response","145","300156","0.0-10.0-0.56","610958b8473c7b96e4bd207d","650c16f0f2faf8d7a0d14c09","651c1ae8cc2be51dd84eb22d","null","null","<p style=""font-size: 60px; font-family: BACS"">EhbtBCAd</p>","","","","","","","","","",""
"html-keyboard-response","146","301167","0.0-10.0-0.57","610958b8473c7b96e4bd207d","650c16f0f2faf8d7a0d14c09","651c1ae8cc2be51dd84eb22d","null","null","<p style=""font-size: 60px; font-family: BACS"">AdDbABb</p>","","","","","","","","","",""
"html-keyboard-response","147","302173","0.0-10.0-0.58","610958b8473c7b96e4bd207d","650c16f0f2faf8d7a0d14c09","651c1ae8cc2be51dd84eb22d","null","null","<p style=""font-size: 60px; font-family: BACS"">EhbtcMRl</p>","","","","","","","","","",""
"html-keyboard-response","148","303182","0.0-10.0-0.59","610958b8473c7b96e4bd207d","650c16f0f2faf8d7a0d14c09","651c1ae8cc2be51dd84eb22d","null","null","<p style=""font-size: 60px; font-family: BACS"">lGZvGUa</p>","","","","","","","","","",""
"html-keyboard-response","149","304188","0.0-10.0-0.60","610958b8473c7b96e4bd207d","650c16f0f2faf8d7a0d14c09","651c1ae8cc2be51dd84eb22d","null","null","<p style=""font-size: 60px; font-family: BACS"">kcOYBbM</p>","","","","","","","","","",""
"html-keyboard-response","150","305199","0.0-10.0-0.61","610958b8473c7b96e4bd207d","650c16f0f2faf8d7a0d14c09","651c1ae8cc2be51dd84eb22d","null","null","<p style=""font-size: 60px; font-family: BACS"">vQdOAvdk</p>","","","","","","","","","",""
"html-keyboard-response","151","306210","0.0-10.0-0.62","610958b8473c7b96e4bd207d","650c16f0f2faf8d7a0d14c09","651c1ae8cc2be51dd84eb22d","null","null","<p style=""font-size: 60px; font-family: BACS"">AdDbAPT</p>","","","","","","","","","",""
"html-keyboard-response","152","307212","0.0-10.0-0.63","610958b8473c7b96e4bd207d","650c16f0f2faf8d7a0d14c09","651c1ae8cc2be51dd84eb22d","null","null","<p style=""font-size: 60px; font-family: BACS"">kcOYABb</p>","","","","","","","","","",""
"html-keyboard-response","153","308222","0.0-10.0-0.64","610958b8473c7b96e4bd207d","650c16f0f2faf8d7a0d14c09","651c1ae8cc2be51dd84eb22d","null","null","<p style=""font-size: 60px; font-family: BACS"">AlQaQkYL</p>","","","","","","","","","",""
"html-keyboard-response","154","309230","0.0-10.0-0.65","610958b8473c7b96e4bd207d","650c16f0f2faf8d7a0d14c09","651c1ae8cc2be51dd84eb22d","null","null","<p style=""font-size: 60px; font-family: BACS"">KdARcMRl</p>","","","","","","","","","",""
"html-keyboard-response","155","310242","0.0-10.0-0.66","610958b8473c7b96e4bd207d","650c16f0f2faf8d7a0d14c09","651c1ae8cc2be51dd84eb22d","null","null","<p style=""font-size: 60px; font-family: BACS"">PCMPKBCAd</p>","","","","","","","","","",""
"html-keyboard-response","156","311245","0.0-10.0-0.67","610958b8473c7b96e4bd207d","650c16f0f2faf8d7a0d14c09","651c1ae8cc2be51dd84eb22d","null","null","<p style=""font-size: 60px; font-family: BACS"">NLQGmAvdk</p>","","","","","","","","","",""
"html-keyboard-response","157","312256","0.0-10.0-0.68","610958b8473c7b96e4bd207d","650c16f0f2faf8d7a0d14c09","651c1ae8cc2be51dd84eb22d","null","null","<p style=""font-size: 60px; font-family: BACS"">ZdNmUkYL</p>","","","","","","","","","",""
"html-keyboard-response","158","313270","0.0-10.0-0.69","610958b8473c7b96e4bd207d","650c16f0f2faf8d7a0d14c09","651c1ae8cc2be51dd84eb22d","null","null","<p style=""font-size: 60px; font-family: BACS"">tmtEMBCAd</p>","","","","","","","","","",""
"html-keyboard-response","159","314285","0.0-10.0-0.70","610958b8473c7b96e4bd207d","650c16f0f2faf8d7a0d14c09","651c1ae8cc2be51dd84eb22d","null","null","<p style=""font-size: 60px; font-family: BACS"">EhbtABb</p>","","","","","","","","","",""
"html-keyboard-response","160","315296","0.0-10.0-0.71","610958b8473c7b96e4bd207d","650c16f0f2faf8d7a0d14c09","651c1ae8cc2be51dd84eb22d","null","null","<p style=""font-size: 60px; font-family: BACS"">cRElDBCAd</p>","","","","","","","","","",""
"html-keyboard-response","161","316304","0.0-10.0-0.72","610958b8473c7b96e4bd207d","650c16f0f2faf8d7a0d14c09","651c1ae8cc2be51dd84eb22d","null","null","<p style=""font-size: 60px; font-family: BACS"">vQdOkYL</p>","","","","","","","","","",""
"html-keyboard-response","162","317314","0.0-10.0-0.73","610958b8473c7b96e4bd207d","650c16f0f2faf8d7a0d14c09","651c1ae8cc2be51dd84eb22d","null","null","<p style=""font-size: 60px; font-family: BACS"">rvUbGUa</p>","","","","","","","","","",""
"html-keyboard-response","163","318325","0.0-10.0-0.74","610958b8473c7b96e4bd207d","650c16f0f2faf8d7a0d14c09","651c1ae8cc2be51dd84eb22d","null","null","<p style=""font-size: 60px; font-family: BACS"">PCMPKBbM</p>","","","","","","","","","",""
"html-keyboard-response","164","319339","0.0-10.0-0.75","610958b8473c7b96e4bd207d","650c16f0f2faf8d7a0d14c09","651c1ae8cc2be51dd84eb22d","null","null","<p style=""font-size: 60px; font-family: BACS"">ZdNmUGUa</p>","","","","","","","","","",""
"html-keyboard-response","165","320352","0.0-10.0-0.76","610958b8473c7b96e4bd207d","650c16f0f2faf8d7a0d14c09","651c1ae8cc2be51dd84eb22d","null","null","<p style=""font-size: 60px; font-family: BACS"">PCMPKAPT</p>","","","","","","","","","",""
"html-keyboard-response","166","321364","0.0-10.0-0.77","610958b8473c7b96e4bd207d","650c16f0f2faf8d7a0d14c09","651c1ae8cc2be51dd84eb22d","null","null","<p style=""font-size: 60px; font-family: BACS"">RCcEBbM</p>","","","","","","","","","",""
"html-keyboard-response","167","322376","0.0-10.0-0.78","610958b8473c7b96e4bd207d","650c16f0f2faf8d7a0d14c09","651c1ae8cc2be51dd84eb22d","null","null","<p style=""font-size: 60px; font-family: BACS"">rvUbrAJu</p>","","","","","","","","","",""
"html-keyboard-response","168","323391","0.0-10.0-0.79","610958b8473c7b96e4bd207d","650c16f0f2faf8d7a0d14c09","651c1ae8cc2be51dd84eb22d","null","null","<p style=""font-size: 60px; font-family: BACS"">AlNUGUa</p>","","","","","","","","","",""
"html-keyboard-response","169","334730","0.0-11.0","610958b8473c7b96e4bd207d","650c16f0f2faf8d7a0d14c09","651c1ae8cc2be51dd84eb22d","11339"," ","<p>Great, you've seen the second block of words. You may now take a short break.</p>
      <p>Press the spacebar when you're ready to continue.</p>","","","","","","","","","",""
"html-keyboard-response","170","335745","0.0-12.0-0.0","610958b8473c7b96e4bd207d","650c16f0f2faf8d7a0d14c09","651c1ae8cc2be51dd84eb22d","null","null","<p style=""font-size: 60px; font-family: BACS"">TEBKAPT</p>","","","","","","","","","",""
"html-keyboard-response","171","336760","0.0-12.0-0.1","610958b8473c7b96e4bd207d","650c16f0f2faf8d7a0d14c09","651c1ae8cc2be51dd84eb22d","null","null","<p style=""font-size: 60px; font-family: BACS"">lGZvZckv</p>","","","","","","","","","",""
"html-keyboard-response","172","337775","0.0-12.0-0.2","610958b8473c7b96e4bd207d","650c16f0f2faf8d7a0d14c09","651c1ae8cc2be51dd84eb22d","null","null","<p style=""font-size: 60px; font-family: BACS"">EhbtcMRl</p>","","","","","","","","","",""
"html-keyboard-response","173","338790","0.0-12.0-0.3","610958b8473c7b96e4bd207d","650c16f0f2faf8d7a0d14c09","651c1ae8cc2be51dd84eb22d","null","null","<p style=""font-size: 60px; font-family: BACS"">ZdNmUGUa</p>","","","","","","","","","",""
"html-keyboard-response","174","339803","0.0-12.0-0.4","610958b8473c7b96e4bd207d","650c16f0f2faf8d7a0d14c09","651c1ae8cc2be51dd84eb22d","null","null","<p style=""font-size: 60px; font-family: BACS"">tmtEMABb</p>","","","","","","","","","",""
"html-keyboard-response","175","340808","0.0-12.0-0.5","610958b8473c7b96e4bd207d","650c16f0f2faf8d7a0d14c09","651c1ae8cc2be51dd84eb22d","null","null","<p style=""font-size: 60px; font-family: BACS"">AdDbcMRl</p>","","","","","","","","","",""
"html-keyboard-response","176","341813","0.0-12.0-0.6","610958b8473c7b96e4bd207d","650c16f0f2faf8d7a0d14c09","651c1ae8cc2be51dd84eb22d","null","null","<p style=""font-size: 60px; font-family: BACS"">KdARAPT</p>","","","","","","","","","",""
"html-keyboard-response","177","342816","0.0-12.0-0.7","610958b8473c7b96e4bd207d","650c16f0f2faf8d7a0d14c09","651c1ae8cc2be51dd84eb22d","null","null","<p style=""font-size: 60px; font-family: BACS"">AlQaQGUa</p>","","","","","","","","","",""
"html-keyboard-response","178","343827","0.0-12.0-0.8","610958b8473c7b96e4bd207d","650c16f0f2faf8d7a0d14c09","651c1ae8cc2be51dd84eb22d","null","null","<p style=""font-size: 60px; font-family: BACS"">vQdOrAJu</p>","","","","","","","","","",""
"html-keyboard-response","179","344834","0.0-12.0-0.9","610958b8473c7b96e4bd207d","650c16f0f2faf8d7a0d14c09","651c1ae8cc2be51dd84eb22d","null","null","<p style=""font-size: 60px; font-family: BACS"">NLQGmAvdk</p>","","","","","","","","","",""
"html-keyboard-response","180","345841","0.0-12.0-0.10","610958b8473c7b96e4bd207d","650c16f0f2faf8d7a0d14c09","651c1ae8cc2be51dd84eb22d","null","null","<p style=""font-size: 60px; font-family: BACS"">hChYBbM</p>","","","","","","","","","",""
"html-keyboard-response","181","346850","0.0-12.0-0.11","610958b8473c7b96e4bd207d","650c16f0f2faf8d7a0d14c09","651c1ae8cc2be51dd84eb22d","null","null","<p style=""font-size: 60px; font-family: BACS"">cRElDAPT</p>","","","","","","","","","",""
"html-keyboard-response","182","347856","0.0-12.0-0.12","610958b8473c7b96e4bd207d","650c16f0f2faf8d7a0d14c09","651c1ae8cc2be51dd84eb22d","null","null","<p style=""font-size: 60px; font-family: BACS"">PCMPKBbM</p>","","","","","","","","","",""
"html-keyboard-response","183","348871","0.0-12.0-0.13","610958b8473c7b96e4bd207d","650c16f0f2faf8d7a0d14c09","651c1ae8cc2be51dd84eb22d","null","null","<p style=""font-size: 60px; font-family: BACS"">NaAQdAvdk</p>","","","","","","","","","",""
"html-keyboard-response","184","349886","0.0-12.0-0.14","610958b8473c7b96e4bd207d","650c16f0f2faf8d7a0d14c09","651c1ae8cc2be51dd84eb22d","null","null","<p style=""font-size: 60px; font-family: BACS"">tmtEMBCAd</p>","","","","","","","","","",""
"html-keyboard-response","185","350886","0.0-12.0-0.15","610958b8473c7b96e4bd207d","650c16f0f2faf8d7a0d14c09","651c1ae8cc2be51dd84eb22d","null","null","<p style=""font-size: 60px; font-family: BACS"">rckOrAJu</p>","","","","","","","","","",""
"html-keyboard-response","186","351900","0.0-12.0-0.16","610958b8473c7b96e4bd207d","650c16f0f2faf8d7a0d14c09","651c1ae8cc2be51dd84eb22d","null","null","<p style=""font-size: 60px; font-family: BACS"">lGZvAvdk</p>","","","","","","","","","",""
"html-keyboard-response","187","352911","0.0-12.0-0.17","610958b8473c7b96e4bd207d","650c16f0f2faf8d7a0d14c09","651c1ae8cc2be51dd84eb22d","null","null","<p style=""font-size: 60px; font-family: BACS"">cRElDBCAd</p>","","","","","","","","","",""
"html-keyboard-response","188","353913","0.0-12.0-0.18","610958b8473c7b96e4bd207d","650c16f0f2faf8d7a0d14c09","651c1ae8cc2be51dd84eb22d","null","null","<p style=""font-size: 60px; font-family: BACS"">vQdOAvdk</p>","","","","","","","","","",""
"html-keyboard-response","189","354926","0.0-12.0-0.19","610958b8473c7b96e4bd207d","650c16f0f2faf8d7a0d14c09","651c1ae8cc2be51dd84eb22d","null","null","<p style=""font-size: 60px; font-family: BACS"">NaAQdrAJu</p>","","","","","","","","","",""
"html-keyboard-response","190","355938","0.0-12.0-0.20","610958b8473c7b96e4bd207d","650c16f0f2faf8d7a0d14c09","651c1ae8cc2be51dd84eb22d","null","null","<p style=""font-size: 60px; font-family: BACS"">hChYABb</p>","","","","","","","","","",""
"html-keyboard-response","191","356952","0.0-12.0-0.21","610958b8473c7b96e4bd207d","650c16f0f2faf8d7a0d14c09","651c1ae8cc2be51dd84eb22d","null","null","<p style=""font-size: 60px; font-family: BACS"">rvUbZckv</p>","","","","","","","","","",""
"html-keyboard-response","192","357966","0.0-12.0-0.22","610958b8473c7b96e4bd207d","650c16f0f2faf8d7a0d14c09","651c1ae8cc2be51dd84eb22d","null","null","<p style=""font-size: 60px; font-family: BACS"">TEBKABb</p>","","","","","","","","","",""
"html-keyboard-response","193","358979","0.0-12.0-0.23","610958b8473c7b96e4bd207d","650c16f0f2faf8d7a0d14c09","651c1ae8cc2be51dd84eb22d","null","null","<p style=""font-size: 60px; font-family: BACS"">AlQaQkYL</p>","","","","","","","","","",""
"html-keyboard-response","194","359991","0.0-12.0-0.24","610958b8473c7b96e4bd207d","650c16f0f2faf8d7a0d14c09","651c1ae8cc2be51dd84eb22d","null","null","<p style=""font-size: 60px; font-family: BACS"">adYrcAvdk</p>","","","","","","","","","",""
"html-keyboard-response","195","361003","0.0-12.0-0.25","610958b8473c7b96e4bd207d","650c16f0f2faf8d7a0d14c09","651c1ae8cc2be51dd84eb22d","null","null","<p style=""font-size: 60px; font-family: BACS"">PCMPKAPT</p>","","","","","","","","","",""
"html-keyboard-response","196","362011","0.0-12.0-0.26","610958b8473c7b96e4bd207d","650c16f0f2faf8d7a0d14c09","651c1ae8cc2be51dd84eb22d","null","null","<p style=""font-size: 60px; font-family: BACS"">AlQaQZckv</p>","","","","","","","","","",""
"html-keyboard-response","197","363022","0.0-12.0-0.27","610958b8473c7b96e4bd207d","650c16f0f2faf8d7a0d14c09","651c1ae8cc2be51dd84eb22d","null","null","<p style=""font-size: 60px; font-family: BACS"">hChYcMRl</p>","","","","","","","","","",""
"html-keyboard-response","198","364030","0.0-12.0-0.28","610958b8473c7b96e4bd207d","650c16f0f2faf8d7a0d14c09","651c1ae8cc2be51dd84eb22d","null","null","<p style=""font-size: 60px; font-family: BACS"">RCcEAPT</p>","","","","","","","","","",""
"html-keyboard-response","199","365045","0.0-12.0-0.29","610958b8473c7b96e4bd207d","650c16f0f2faf8d7a0d14c09","651c1ae8cc2be51dd84eb22d","null","null","<p style=""font-size: 60px; font-family: BACS"">EhbtBCAd</p>","","","","","","","","","",""
"html-keyboard-response","200","366057","0.0-12.0-0.30","610958b8473c7b96e4bd207d","650c16f0f2faf8d7a0d14c09","651c1ae8cc2be51dd84eb22d","null","null","<p style=""font-size: 60px; font-family: BACS"">NaAQdkYL</p>","","","","","","","","","",""
"html-keyboard-response","201","367068","0.0-12.0-0.31","610958b8473c7b96e4bd207d","650c16f0f2faf8d7a0d14c09","651c1ae8cc2be51dd84eb22d","null","null","<p style=""font-size: 60px; font-family: BACS"">rvUbGUa</p>","","","","","","","","","",""
"html-keyboard-response","202","368081","0.0-12.0-0.32","610958b8473c7b96e4bd207d","650c16f0f2faf8d7a0d14c09","651c1ae8cc2be51dd84eb22d","null","null","<p style=""font-size: 60px; font-family: BACS"">adYrcZckv</p>","","","","","","","","","",""
"html-keyboard-response","203","369082","0.0-12.0-0.33","610958b8473c7b96e4bd207d","650c16f0f2faf8d7a0d14c09","651c1ae8cc2be51dd84eb22d","null","null","<p style=""font-size: 60px; font-family: BACS"">rckOAvdk</p>","","","","","","","","","",""
"html-keyboard-response","204","370089","0.0-12.0-0.34","610958b8473c7b96e4bd207d","650c16f0f2faf8d7a0d14c09","651c1ae8cc2be51dd84eb22d","null","null","<p style=""font-size: 60px; font-family: BACS"">RCcEBbM</p>","","","","","","","","","",""
"html-keyboard-response","205","371094","0.0-12.0-0.35","610958b8473c7b96e4bd207d","650c16f0f2faf8d7a0d14c09","651c1ae8cc2be51dd84eb22d","null","null","<p style=""font-size: 60px; font-family: BACS"">vQdOGUa</p>","","","","","","","","","",""
"html-keyboard-response","206","372106","0.0-12.0-0.36","610958b8473c7b96e4bd207d","650c16f0f2faf8d7a0d14c09","651c1ae8cc2be51dd84eb22d","null","null","<p style=""font-size: 60px; font-family: BACS"">PCMPKBCAd</p>","","","","","","","","","",""
"html-keyboard-response","207","373116","0.0-12.0-0.37","610958b8473c7b96e4bd207d","650c16f0f2faf8d7a0d14c09","651c1ae8cc2be51dd84eb22d","null","null","<p style=""font-size: 60px; font-family: BACS"">NaAQdZckv</p>","","","","","","","","","",""
"html-keyboard-response","208","374126","0.0-12.0-0.38","610958b8473c7b96e4bd207d","650c16f0f2faf8d7a0d14c09","651c1ae8cc2be51dd84eb22d","null","null","<p style=""font-size: 60px; font-family: BACS"">RCcEBCAd</p>","","","","","","","","","",""
"html-keyboard-response","209","375135","0.0-12.0-0.39","610958b8473c7b96e4bd207d","650c16f0f2faf8d7a0d14c09","651c1ae8cc2be51dd84eb22d","null","null","<p style=""font-size: 60px; font-family: BACS"">kcOYAPT</p>","","","","","","","","","",""
"html-keyboard-response","210","376149","0.0-12.0-0.40","610958b8473c7b96e4bd207d","650c16f0f2faf8d7a0d14c09","651c1ae8cc2be51dd84eb22d","null","null","<p style=""font-size: 60px; font-family: BACS"">lGZvkYL</p>","","","","","","","","","",""
"html-keyboard-response","211","377155","0.0-12.0-0.41","610958b8473c7b96e4bd207d","650c16f0f2faf8d7a0d14c09","651c1ae8cc2be51dd84eb22d","null","null","<p style=""font-size: 60px; font-family: BACS"">rckOZckv</p>","","","","","","","","","",""
"html-keyboard-response","212","378165","0.0-12.0-0.42","610958b8473c7b96e4bd207d","650c16f0f2faf8d7a0d14c09","651c1ae8cc2be51dd84eb22d","null","null","<p style=""font-size: 60px; font-family: BACS"">cRElDBbM</p>","","","","","","","","","",""
"html-keyboard-response","213","379180","0.0-12.0-0.43","610958b8473c7b96e4bd207d","650c16f0f2faf8d7a0d14c09","651c1ae8cc2be51dd84eb22d","null","null","<p style=""font-size: 60px; font-family: BACS"">NLQGmrAJu</p>","","","","","","","","","",""
"html-keyboard-response","214","380190","0.0-12.0-0.44","610958b8473c7b96e4bd207d","650c16f0f2faf8d7a0d14c09","651c1ae8cc2be51dd84eb22d","null","null","<p style=""font-size: 60px; font-family: BACS"">KdARcMRl</p>","","","","","","","","","",""
"html-keyboard-response","215","381200","0.0-12.0-0.45","610958b8473c7b96e4bd207d","650c16f0f2faf8d7a0d14c09","651c1ae8cc2be51dd84eb22d","null","null","<p style=""font-size: 60px; font-family: BACS"">AlNUrAJu</p>","","","","","","","","","",""
"html-keyboard-response","216","382201","0.0-12.0-0.46","610958b8473c7b96e4bd207d","650c16f0f2faf8d7a0d14c09","651c1ae8cc2be51dd84eb22d","null","null","<p style=""font-size: 60px; font-family: BACS"">TEBKcMRl</p>","","","","","","","","","",""
"html-keyboard-response","217","383214","0.0-12.0-0.47","610958b8473c7b96e4bd207d","650c16f0f2faf8d7a0d14c09","651c1ae8cc2be51dd84eb22d","null","null","<p style=""font-size: 60px; font-family: BACS"">AdDbBCAd</p>","","","","","","","","","",""
"html-keyboard-response","218","384226","0.0-12.0-0.48","610958b8473c7b96e4bd207d","650c16f0f2faf8d7a0d14c09","651c1ae8cc2be51dd84eb22d","null","null","<p style=""font-size: 60px; font-family: BACS"">rvUbkYL</p>","","","","","","","","","",""
"html-keyboard-response","219","385236","0.0-12.0-0.49","610958b8473c7b96e4bd207d","650c16f0f2faf8d7a0d14c09","651c1ae8cc2be51dd84eb22d","null","null","<p style=""font-size: 60px; font-family: BACS"">adYrcGUa</p>","","","","","","","","","",""
"html-keyboard-response","220","386245","0.0-12.0-0.50","610958b8473c7b96e4bd207d","650c16f0f2faf8d7a0d14c09","651c1ae8cc2be51dd84eb22d","null","null","<p style=""font-size: 60px; font-family: BACS"">ZdNmUZckv</p>","","","","","","","","","",""
"html-keyboard-response","221","387251","0.0-12.0-0.51","610958b8473c7b96e4bd207d","650c16f0f2faf8d7a0d14c09","651c1ae8cc2be51dd84eb22d","null","null","<p style=""font-size: 60px; font-family: BACS"">AlNUAvdk</p>","","","","","","","","","",""
"html-keyboard-response","222","388257","0.0-12.0-0.52","610958b8473c7b96e4bd207d","650c16f0f2faf8d7a0d14c09","651c1ae8cc2be51dd84eb22d","null","null","<p style=""font-size: 60px; font-family: BACS"">TEBKBbM</p>","","","","","","","","","",""
"html-keyboard-response","223","389263","0.0-12.0-0.53","610958b8473c7b96e4bd207d","650c16f0f2faf8d7a0d14c09","651c1ae8cc2be51dd84eb22d","null","null","<p style=""font-size: 60px; font-family: BACS"">kcOYBCAd</p>","","","","","","","","","",""
"html-keyboard-response","224","390277","0.0-12.0-0.54","610958b8473c7b96e4bd207d","650c16f0f2faf8d7a0d14c09","651c1ae8cc2be51dd84eb22d","null","null","<p style=""font-size: 60px; font-family: BACS"">rckOkYL</p>","","","","","","","","","",""
"html-keyboard-response","225","391284","0.0-12.0-0.55","610958b8473c7b96e4bd207d","650c16f0f2faf8d7a0d14c09","651c1ae8cc2be51dd84eb22d","null","null","<p style=""font-size: 60px; font-family: BACS"">KdARBCAd</p>","","","","","","","","","",""
"html-keyboard-response","226","392288","0.0-12.0-0.56","610958b8473c7b96e4bd207d","650c16f0f2faf8d7a0d14c09","651c1ae8cc2be51dd84eb22d","null","null","<p style=""font-size: 60px; font-family: BACS"">hChYAPT</p>","","","","","","","","","",""
"html-keyboard-response","227","393294","0.0-12.0-0.57","610958b8473c7b96e4bd207d","650c16f0f2faf8d7a0d14c09","651c1ae8cc2be51dd84eb22d","null","null","<p style=""font-size: 60px; font-family: BACS"">rvUbrAJu</p>","","","","","","","","","",""
"html-keyboard-response","228","394308","0.0-12.0-0.58","610958b8473c7b96e4bd207d","650c16f0f2faf8d7a0d14c09","651c1ae8cc2be51dd84eb22d","null","null","<p style=""font-size: 60px; font-family: BACS"">RCcEcMRl</p>","","","","","","","","","",""
"html-keyboard-response","229","395317","0.0-12.0-0.59","610958b8473c7b96e4bd207d","650c16f0f2faf8d7a0d14c09","651c1ae8cc2be51dd84eb22d","null","null","<p style=""font-size: 60px; font-family: BACS"">AlNUkYL</p>","","","","","","","","","",""
"html-keyboard-response","230","396325","0.0-12.0-0.60","610958b8473c7b96e4bd207d","650c16f0f2faf8d7a0d14c09","651c1ae8cc2be51dd84eb22d","null","null","<p style=""font-size: 60px; font-family: BACS"">adYrcrAJu</p>","","","","","","","","","",""
"html-keyboard-response","231","397331","0.0-12.0-0.61","610958b8473c7b96e4bd207d","650c16f0f2faf8d7a0d14c09","651c1ae8cc2be51dd84eb22d","null","null","<p style=""font-size: 60px; font-family: BACS"">kcOYBbM</p>","","","","","","","","","",""
"html-keyboard-response","232","398341","0.0-12.0-0.62","610958b8473c7b96e4bd207d","650c16f0f2faf8d7a0d14c09","651c1ae8cc2be51dd84eb22d","null","null","<p style=""font-size: 60px; font-family: BACS"">EhbtABb</p>","","","","","","","","","",""
"html-keyboard-response","233","399354","0.0-12.0-0.63","610958b8473c7b96e4bd207d","650c16f0f2faf8d7a0d14c09","651c1ae8cc2be51dd84eb22d","null","null","<p style=""font-size: 60px; font-family: BACS"">ZdNmUAvdk</p>","","","","","","","","","",""
"html-keyboard-response","234","400362","0.0-12.0-0.64","610958b8473c7b96e4bd207d","650c16f0f2faf8d7a0d14c09","651c1ae8cc2be51dd84eb22d","null","null","<p style=""font-size: 60px; font-family: BACS"">kcOYABb</p>","","","","","","","","","",""
"html-keyboard-response","235","401372","0.0-12.0-0.65","610958b8473c7b96e4bd207d","650c16f0f2faf8d7a0d14c09","651c1ae8cc2be51dd84eb22d","null","null","<p style=""font-size: 60px; font-family: BACS"">PCMPKcMRl</p>","","","","","","","","","",""
"html-keyboard-response","236","402384","0.0-12.0-0.66","610958b8473c7b96e4bd207d","650c16f0f2faf8d7a0d14c09","651c1ae8cc2be51dd84eb22d","null","null","<p style=""font-size: 60px; font-family: BACS"">KdARABb</p>","","","","","","","","","",""
"html-keyboard-response","237","403400","0.0-12.0-0.67","610958b8473c7b96e4bd207d","650c16f0f2faf8d7a0d14c09","651c1ae8cc2be51dd84eb22d","null","null","<p style=""font-size: 60px; font-family: BACS"">NLQGmZckv</p>","","","","","","","","","",""
"html-keyboard-response","238","404411","0.0-12.0-0.68","610958b8473c7b96e4bd207d","650c16f0f2faf8d7a0d14c09","651c1ae8cc2be51dd84eb22d","null","null","<p style=""font-size: 60px; font-family: BACS"">EhbtBbM</p>","","","","","","","","","",""
"html-keyboard-response","239","405425","0.0-12.0-0.69","610958b8473c7b96e4bd207d","650c16f0f2faf8d7a0d14c09","651c1ae8cc2be51dd84eb22d","null","null","<p style=""font-size: 60px; font-family: BACS"">cRElDABb</p>","","","","","","","","","",""
"html-keyboard-response","240","406440","0.0-12.0-0.70","610958b8473c7b96e4bd207d","650c16f0f2faf8d7a0d14c09","651c1ae8cc2be51dd84eb22d","null","null","<p style=""font-size: 60px; font-family: BACS"">tmtEMcMRl</p>","","","","","","","","","",""
"html-keyboard-response","241","407455","0.0-12.0-0.71","610958b8473c7b96e4bd207d","650c16f0f2faf8d7a0d14c09","651c1ae8cc2be51dd84eb22d","null","null","<p style=""font-size: 60px; font-family: BACS"">NLQGmGUa</p>","","","","","","","","","",""
"html-keyboard-response","242","408456","0.0-12.0-0.72","610958b8473c7b96e4bd207d","650c16f0f2faf8d7a0d14c09","651c1ae8cc2be51dd84eb22d","null","null","<p style=""font-size: 60px; font-family: BACS"">vQdOkYL</p>","","","","","","","","","",""
"html-keyboard-response","243","409459","0.0-12.0-0.73","610958b8473c7b96e4bd207d","650c16f0f2faf8d7a0d14c09","651c1ae8cc2be51dd84eb22d","null","null","<p style=""font-size: 60px; font-family: BACS"">lGZvGUa</p>","","","","","","","","","",""
"html-keyboard-response","244","410460","0.0-12.0-0.74","610958b8473c7b96e4bd207d","650c16f0f2faf8d7a0d14c09","651c1ae8cc2be51dd84eb22d","null","null","<p style=""font-size: 60px; font-family: BACS"">AdDbABb</p>","","","","","","","","","",""
"html-keyboard-response","245","411472","0.0-12.0-0.75","610958b8473c7b96e4bd207d","650c16f0f2faf8d7a0d14c09","651c1ae8cc2be51dd84eb22d","null","null","<p style=""font-size: 60px; font-family: BACS"">ZdNmUkYL</p>","","","","","","","","","",""
"html-keyboard-response","246","412484","0.0-12.0-0.76","610958b8473c7b96e4bd207d","650c16f0f2faf8d7a0d14c09","651c1ae8cc2be51dd84eb22d","null","null","<p style=""font-size: 60px; font-family: BACS"">AlNUGUa</p>","","","","","","","","","",""
"html-keyboard-response","247","413484","0.0-12.0-0.77","610958b8473c7b96e4bd207d","650c16f0f2faf8d7a0d14c09","651c1ae8cc2be51dd84eb22d","null","null","<p style=""font-size: 60px; font-family: BACS"">tmtEMBbM</p>","","","","","","","","","",""
"html-keyboard-response","248","414489","0.0-12.0-0.78","610958b8473c7b96e4bd207d","650c16f0f2faf8d7a0d14c09","651c1ae8cc2be51dd84eb22d","null","null","<p style=""font-size: 60px; font-family: BACS"">AdDbAPT</p>","","","","","","","","","",""
"html-keyboard-response","249","415503","0.0-12.0-0.79","610958b8473c7b96e4bd207d","650c16f0f2faf8d7a0d14c09","651c1ae8cc2be51dd84eb22d","null","null","<p style=""font-size: 60px; font-family: BACS"">AlQaQrAJu</p>","","","","","","","","","",""
"html-keyboard-response","250","422792","0.0-13.0","610958b8473c7b96e4bd207d","650c16f0f2faf8d7a0d14c09","651c1ae8cc2be51dd84eb22d","7289"," ","<p>Great, you've seen the third block of words. You may now take a short break.</p>
      <p>Press the spacebar when you're ready to continue.</p>","","","","","","","","","",""
"html-keyboard-response","251","423793","0.0-14.0-0.0","610958b8473c7b96e4bd207d","650c16f0f2faf8d7a0d14c09","651c1ae8cc2be51dd84eb22d","null","null","<p style=""font-size: 60px; font-family: BACS"">AlQaQkYL</p>","","","","","","","","","",""
"html-keyboard-response","252","424804","0.0-14.0-0.1","610958b8473c7b96e4bd207d","650c16f0f2faf8d7a0d14c09","651c1ae8cc2be51dd84eb22d","null","null","<p style=""font-size: 60px; font-family: BACS"">RCcEAPT</p>","","","","","","","","","",""
"html-keyboard-response","253","425817","0.0-14.0-0.2","610958b8473c7b96e4bd207d","650c16f0f2faf8d7a0d14c09","651c1ae8cc2be51dd84eb22d","null","null","<p style=""font-size: 60px; font-family: BACS"">NLQGmGUa</p>","","","","","","","","","",""
"html-keyboard-response","254","426818","0.0-14.0-0.3","610958b8473c7b96e4bd207d","650c16f0f2faf8d7a0d14c09","651c1ae8cc2be51dd84eb22d","null","null","<p style=""font-size: 60px; font-family: BACS"">adYrcAvdk</p>","","","","","","","","","",""
"html-keyboard-response","255","427832","0.0-14.0-0.4","610958b8473c7b96e4bd207d","650c16f0f2faf8d7a0d14c09","651c1ae8cc2be51dd84eb22d","null","null","<p style=""font-size: 60px; font-family: BACS"">kcOYABb</p>","","","","","","","","","",""
"html-keyboard-response","256","428846","0.0-14.0-0.5","610958b8473c7b96e4bd207d","650c16f0f2faf8d7a0d14c09","651c1ae8cc2be51dd84eb22d","null","null","<p style=""font-size: 60px; font-family: BACS"">TEBKcMRl</p>","","","","","","","","","",""
"html-keyboard-response","257","429858","0.0-14.0-0.6","610958b8473c7b96e4bd207d","650c16f0f2faf8d7a0d14c09","651c1ae8cc2be51dd84eb22d","null","null","<p style=""font-size: 60px; font-family: BACS"">vQdOGUa</p>","","","","","","","","","",""
"html-keyboard-response","258","430867","0.0-14.0-0.7","610958b8473c7b96e4bd207d","650c16f0f2faf8d7a0d14c09","651c1ae8cc2be51dd84eb22d","null","null","<p style=""font-size: 60px; font-family: BACS"">kcOYBbM</p>","","","","","","","","","",""
"html-keyboard-response","259","431881","0.0-14.0-0.8","610958b8473c7b96e4bd207d","650c16f0f2faf8d7a0d14c09","651c1ae8cc2be51dd84eb22d","null","null","<p style=""font-size: 60px; font-family: BACS"">cRElDBCAd</p>","","","","","","","","","",""
"html-keyboard-response","260","432891","0.0-14.0-0.9","610958b8473c7b96e4bd207d","650c16f0f2faf8d7a0d14c09","651c1ae8cc2be51dd84eb22d","null","null","<p style=""font-size: 60px; font-family: BACS"">NaAQdkYL</p>","","","","","","","","","",""
"html-keyboard-response","261","433898","0.0-14.0-0.10","610958b8473c7b96e4bd207d","650c16f0f2faf8d7a0d14c09","651c1ae8cc2be51dd84eb22d","null","null","<p style=""font-size: 60px; font-family: BACS"">ZdNmUGUa</p>","","","","","","","","","",""
"html-keyboard-response","262","434902","0.0-14.0-0.11","610958b8473c7b96e4bd207d","650c16f0f2faf8d7a0d14c09","651c1ae8cc2be51dd84eb22d","null","null","<p style=""font-size: 60px; font-family: BACS"">rckOAvdk</p>","","","","","","","","","",""
"html-keyboard-response","263","435903","0.0-14.0-0.12","610958b8473c7b96e4bd207d","650c16f0f2faf8d7a0d14c09","651c1ae8cc2be51dd84eb22d","null","null","<p style=""font-size: 60px; font-family: BACS"">vQdOrAJu</p>","","","","","","","","","",""
"html-keyboard-response","264","436904","0.0-14.0-0.13","610958b8473c7b96e4bd207d","650c16f0f2faf8d7a0d14c09","651c1ae8cc2be51dd84eb22d","null","null","<p style=""font-size: 60px; font-family: BACS"">NaAQdAvdk</p>","","","","","","","","","",""
"html-keyboard-response","265","437915","0.0-14.0-0.14","610958b8473c7b96e4bd207d","650c16f0f2faf8d7a0d14c09","651c1ae8cc2be51dd84eb22d","null","null","<p style=""font-size: 60px; font-family: BACS"">cRElDBbM</p>","","","","","","","","","",""
"html-keyboard-response","266","438915","0.0-14.0-0.15","610958b8473c7b96e4bd207d","650c16f0f2faf8d7a0d14c09","651c1ae8cc2be51dd84eb22d","null","null","<p style=""font-size: 60px; font-family: BACS"">hChYABb</p>","","","","","","","","","",""
"html-keyboard-response","267","439926","0.0-14.0-0.16","610958b8473c7b96e4bd207d","650c16f0f2faf8d7a0d14c09","651c1ae8cc2be51dd84eb22d","null","null","<p style=""font-size: 60px; font-family: BACS"">RCcEBCAd</p>","","","","","","","","","",""
"html-keyboard-response","268","440930","0.0-14.0-0.17","610958b8473c7b96e4bd207d","650c16f0f2faf8d7a0d14c09","651c1ae8cc2be51dd84eb22d","null","null","<p style=""font-size: 60px; font-family: BACS"">ZdNmUkYL</p>","","","","","","","","","",""
"html-keyboard-response","269","441942","0.0-14.0-0.18","610958b8473c7b96e4bd207d","650c16f0f2faf8d7a0d14c09","651c1ae8cc2be51dd84eb22d","null","null","<p style=""font-size: 60px; font-family: BACS"">KdARABb</p>","","","","","","","","","",""
"html-keyboard-response","270","442958","0.0-14.0-0.19","610958b8473c7b96e4bd207d","650c16f0f2faf8d7a0d14c09","651c1ae8cc2be51dd84eb22d","null","null","<p style=""font-size: 60px; font-family: BACS"">kcOYBCAd</p>","","","","","","","","","",""
"html-keyboard-response","271","443973","0.0-14.0-0.20","610958b8473c7b96e4bd207d","650c16f0f2faf8d7a0d14c09","651c1ae8cc2be51dd84eb22d","null","null","<p style=""font-size: 60px; font-family: BACS"">lGZvAvdk</p>","","","","","","","","","",""
"html-keyboard-response","272","444985","0.0-14.0-0.21","610958b8473c7b96e4bd207d","650c16f0f2faf8d7a0d14c09","651c1ae8cc2be51dd84eb22d","null","null","<p style=""font-size: 60px; font-family: BACS"">hChYAPT</p>","","","","","","","","","",""
"html-keyboard-response","273","445988","0.0-14.0-0.22","610958b8473c7b96e4bd207d","650c16f0f2faf8d7a0d14c09","651c1ae8cc2be51dd84eb22d","null","null","<p style=""font-size: 60px; font-family: BACS"">EhbtBCAd</p>","","","","","","","","","",""
"html-keyboard-response","274","446990","0.0-14.0-0.23","610958b8473c7b96e4bd207d","650c16f0f2faf8d7a0d14c09","651c1ae8cc2be51dd84eb22d","null","null","<p style=""font-size: 60px; font-family: BACS"">rvUbZckv</p>","","","","","","","","","",""
"html-keyboard-response","275","448002","0.0-14.0-0.24","610958b8473c7b96e4bd207d","650c16f0f2faf8d7a0d14c09","651c1ae8cc2be51dd84eb22d","null","null","<p style=""font-size: 60px; font-family: BACS"">AdDbAPT</p>","","","","","","","","","",""
"html-keyboard-response","276","449017","0.0-14.0-0.25","610958b8473c7b96e4bd207d","650c16f0f2faf8d7a0d14c09","651c1ae8cc2be51dd84eb22d","null","null","<p style=""font-size: 60px; font-family: BACS"">AlQaQZckv</p>","","","","","","","","","",""
"html-keyboard-response","277","450019","0.0-14.0-0.26","610958b8473c7b96e4bd207d","650c16f0f2faf8d7a0d14c09","651c1ae8cc2be51dd84eb22d","null","null","<p style=""font-size: 60px; font-family: BACS"">TEBKAPT</p>","","","","","","","","","",""
"html-keyboard-response","278","451032","0.0-14.0-0.27","610958b8473c7b96e4bd207d","650c16f0f2faf8d7a0d14c09","651c1ae8cc2be51dd84eb22d","null","null","<p style=""font-size: 60px; font-family: BACS"">rvUbkYL</p>","","","","","","","","","",""
"html-keyboard-response","279","452044","0.0-14.0-0.28","610958b8473c7b96e4bd207d","650c16f0f2faf8d7a0d14c09","651c1ae8cc2be51dd84eb22d","null","null","<p style=""font-size: 60px; font-family: BACS"">RCcEcMRl</p>","","","","","","","","","",""
"html-keyboard-response","280","453059","0.0-14.0-0.29","610958b8473c7b96e4bd207d","650c16f0f2faf8d7a0d14c09","651c1ae8cc2be51dd84eb22d","null","null","<p style=""font-size: 60px; font-family: BACS"">rckOZckv</p>","","","","","","","","","",""
"html-keyboard-response","281","454073","0.0-14.0-0.30","610958b8473c7b96e4bd207d","650c16f0f2faf8d7a0d14c09","651c1ae8cc2be51dd84eb22d","null","null","<p style=""font-size: 60px; font-family: BACS"">vQdOkYL</p>","","","","","","","","","",""
"html-keyboard-response","282","455084","0.0-14.0-0.31","610958b8473c7b96e4bd207d","650c16f0f2faf8d7a0d14c09","651c1ae8cc2be51dd84eb22d","null","null","<p style=""font-size: 60px; font-family: BACS"">AlNUGUa</p>","","","","","","","","","",""
"html-keyboard-response","283","456096","0.0-14.0-0.32","610958b8473c7b96e4bd207d","650c16f0f2faf8d7a0d14c09","651c1ae8cc2be51dd84eb22d","null","null","<p style=""font-size: 60px; font-family: BACS"">vQdOAvdk</p>","","","","","","","","","",""
"html-keyboard-response","284","457106","0.0-14.0-0.33","610958b8473c7b96e4bd207d","650c16f0f2faf8d7a0d14c09","651c1ae8cc2be51dd84eb22d","null","null","<p style=""font-size: 60px; font-family: BACS"">PCMPKAPT</p>","","","","","","","","","",""
"html-keyboard-response","285","458116","0.0-14.0-0.34","610958b8473c7b96e4bd207d","650c16f0f2faf8d7a0d14c09","651c1ae8cc2be51dd84eb22d","null","null","<p style=""font-size: 60px; font-family: BACS"">RCcEBbM</p>","","","","","","","","","",""
"html-keyboard-response","286","459131","0.0-14.0-0.35","610958b8473c7b96e4bd207d","650c16f0f2faf8d7a0d14c09","651c1ae8cc2be51dd84eb22d","null","null","<p style=""font-size: 60px; font-family: BACS"">lGZvZckv</p>","","","","","","","","","",""
"html-keyboard-response","287","460146","0.0-14.0-0.36","610958b8473c7b96e4bd207d","650c16f0f2faf8d7a0d14c09","651c1ae8cc2be51dd84eb22d","null","null","<p style=""font-size: 60px; font-family: BACS"">AlQaQrAJu</p>","","","","","","","","","",""
"html-keyboard-response","288","461157","0.0-14.0-0.37","610958b8473c7b96e4bd207d","650c16f0f2faf8d7a0d14c09","651c1ae8cc2be51dd84eb22d","null","null","<p style=""font-size: 60px; font-family: BACS"">ZdNmUAvdk</p>","","","","","","","","","",""
"html-keyboard-response","289","462169","0.0-14.0-0.38","610958b8473c7b96e4bd207d","650c16f0f2faf8d7a0d14c09","651c1ae8cc2be51dd84eb22d","null","null","<p style=""font-size: 60px; font-family: BACS"">lGZvkYL</p>","","","","","","","","","",""
"html-keyboard-response","290","463180","0.0-14.0-0.39","610958b8473c7b96e4bd207d","650c16f0f2faf8d7a0d14c09","651c1ae8cc2be51dd84eb22d","null","null","<p style=""font-size: 60px; font-family: BACS"">NLQGmZckv</p>","","","","","","","","","",""
"html-keyboard-response","291","464194","0.0-14.0-0.40","610958b8473c7b96e4bd207d","650c16f0f2faf8d7a0d14c09","651c1ae8cc2be51dd84eb22d","null","null","<p style=""font-size: 60px; font-family: BACS"">KdARAPT</p>","","","","","","","","","",""
"html-keyboard-response","292","465203","0.0-14.0-0.41","610958b8473c7b96e4bd207d","650c16f0f2faf8d7a0d14c09","651c1ae8cc2be51dd84eb22d","null","null","<p style=""font-size: 60px; font-family: BACS"">PCMPKcMRl</p>","","","","","","","","","",""
"html-keyboard-response","293","466213","0.0-14.0-0.42","610958b8473c7b96e4bd207d","650c16f0f2faf8d7a0d14c09","651c1ae8cc2be51dd84eb22d","null","null","<p style=""font-size: 60px; font-family: BACS"">tmtEMBCAd</p>","","","","","","","","","",""
"html-keyboard-response","294","467214","0.0-14.0-0.43","610958b8473c7b96e4bd207d","650c16f0f2faf8d7a0d14c09","651c1ae8cc2be51dd84eb22d","null","null","<p style=""font-size: 60px; font-family: BACS"">adYrcrAJu</p>","","","","","","","","","",""
"html-keyboard-response","295","468226","0.0-14.0-0.44","610958b8473c7b96e4bd207d","650c16f0f2faf8d7a0d14c09","651c1ae8cc2be51dd84eb22d","null","null","<p style=""font-size: 60px; font-family: BACS"">tmtEMcMRl</p>","","","","","","","","","",""
"html-keyboard-response","296","469237","0.0-14.0-0.45","610958b8473c7b96e4bd207d","650c16f0f2faf8d7a0d14c09","651c1ae8cc2be51dd84eb22d","null","null","<p style=""font-size: 60px; font-family: BACS"">kcOYAPT</p>","","","","","","","","","",""
"html-keyboard-response","297","470250","0.0-14.0-0.46","610958b8473c7b96e4bd207d","650c16f0f2faf8d7a0d14c09","651c1ae8cc2be51dd84eb22d","null","null","<p style=""font-size: 60px; font-family: BACS"">NaAQdrAJu</p>","","","","","","","","","",""
"html-keyboard-response","298","471263","0.0-14.0-0.47","610958b8473c7b96e4bd207d","650c16f0f2faf8d7a0d14c09","651c1ae8cc2be51dd84eb22d","null","null","<p style=""font-size: 60px; font-family: BACS"">EhbtcMRl</p>","","","","","","","","","",""
"html-keyboard-response","299","472277","0.0-14.0-0.48","610958b8473c7b96e4bd207d","650c16f0f2faf8d7a0d14c09","651c1ae8cc2be51dd84eb22d","null","null","<p style=""font-size: 60px; font-family: BACS"">TEBKABb</p>","","","","","","","","","",""
"html-keyboard-response","300","473289","0.0-14.0-0.49","610958b8473c7b96e4bd207d","650c16f0f2faf8d7a0d14c09","651c1ae8cc2be51dd84eb22d","null","null","<p style=""font-size: 60px; font-family: BACS"">ZdNmUZckv</p>","","","","","","","","","",""
"html-keyboard-response","301","474299","0.0-14.0-0.50","610958b8473c7b96e4bd207d","650c16f0f2faf8d7a0d14c09","651c1ae8cc2be51dd84eb22d","null","null","<p style=""font-size: 60px; font-family: BACS"">PCMPKBbM</p>","","","","","","","","","",""
"html-keyboard-response","302","475300","0.0-14.0-0.51","610958b8473c7b96e4bd207d","650c16f0f2faf8d7a0d14c09","651c1ae8cc2be51dd84eb22d","null","null","<p style=""font-size: 60px; font-family: BACS"">adYrcZckv</p>","","","","","","","","","",""
"html-keyboard-response","303","476316","0.0-14.0-0.52","610958b8473c7b96e4bd207d","650c16f0f2faf8d7a0d14c09","651c1ae8cc2be51dd84eb22d","null","null","<p style=""font-size: 60px; font-family: BACS"">rvUbGUa</p>","","","","","","","","","",""
"html-keyboard-response","304","477329","0.0-14.0-0.53","610958b8473c7b96e4bd207d","650c16f0f2faf8d7a0d14c09","651c1ae8cc2be51dd84eb22d","null","null","<p style=""font-size: 60px; font-family: BACS"">AlNUAvdk</p>","","","","","","","","","",""
"html-keyboard-response","305","478341","0.0-14.0-0.54","610958b8473c7b96e4bd207d","650c16f0f2faf8d7a0d14c09","651c1ae8cc2be51dd84eb22d","null","null","<p style=""font-size: 60px; font-family: BACS"">NLQGmrAJu</p>","","","","","","","","","",""
"html-keyboard-response","306","479355","0.0-14.0-0.55","610958b8473c7b96e4bd207d","650c16f0f2faf8d7a0d14c09","651c1ae8cc2be51dd84eb22d","null","null","<p style=""font-size: 60px; font-family: BACS"">AdDbBCAd</p>","","","","","","","","","",""
"html-keyboard-response","307","480369","0.0-14.0-0.56","610958b8473c7b96e4bd207d","650c16f0f2faf8d7a0d14c09","651c1ae8cc2be51dd84eb22d","null","null","<p style=""font-size: 60px; font-family: BACS"">KdARcMRl</p>","","","","","","","","","",""
"html-keyboard-response","308","481371","0.0-14.0-0.57","610958b8473c7b96e4bd207d","650c16f0f2faf8d7a0d14c09","651c1ae8cc2be51dd84eb22d","null","null","<p style=""font-size: 60px; font-family: BACS"">AlNUkYL</p>","","","","","","","","","",""
"html-keyboard-response","309","482383","0.0-14.0-0.58","610958b8473c7b96e4bd207d","650c16f0f2faf8d7a0d14c09","651c1ae8cc2be51dd84eb22d","null","null","<p style=""font-size: 60px; font-family: BACS"">cRElDABb</p>","","","","","","","","","",""
"html-keyboard-response","310","483395","0.0-14.0-0.59","610958b8473c7b96e4bd207d","650c16f0f2faf8d7a0d14c09","651c1ae8cc2be51dd84eb22d","null","null","<p style=""font-size: 60px; font-family: BACS"">AdDbcMRl</p>","","","","","","","","","",""
"html-keyboard-response","311","484406","0.0-14.0-0.60","610958b8473c7b96e4bd207d","650c16f0f2faf8d7a0d14c09","651c1ae8cc2be51dd84eb22d","null","null","<p style=""font-size: 60px; font-family: BACS"">hChYBbM</p>","","","","","","","","","",""
"html-keyboard-response","312","485420","0.0-14.0-0.61","610958b8473c7b96e4bd207d","650c16f0f2faf8d7a0d14c09","651c1ae8cc2be51dd84eb22d","null","null","<p style=""font-size: 60px; font-family: BACS"">AlNUrAJu</p>","","","","","","","","","",""
"html-keyboard-response","313","486431","0.0-14.0-0.62","610958b8473c7b96e4bd207d","650c16f0f2faf8d7a0d14c09","651c1ae8cc2be51dd84eb22d","null","null","<p style=""font-size: 60px; font-family: BACS"">tmtEMBbM</p>","","","","","","","","","",""
"html-keyboard-response","314","487433","0.0-14.0-0.63","610958b8473c7b96e4bd207d","650c16f0f2faf8d7a0d14c09","651c1ae8cc2be51dd84eb22d","null","null","<p style=""font-size: 60px; font-family: BACS"">adYrcGUa</p>","","","","","","","","","",""
"html-keyboard-response","315","488439","0.0-14.0-0.64","610958b8473c7b96e4bd207d","650c16f0f2faf8d7a0d14c09","651c1ae8cc2be51dd84eb22d","null","null","<p style=""font-size: 60px; font-family: BACS"">NLQGmAvdk</p>","","","","","","","","","",""
"html-keyboard-response","316","489442","0.0-14.0-0.65","610958b8473c7b96e4bd207d","650c16f0f2faf8d7a0d14c09","651c1ae8cc2be51dd84eb22d","null","null","<p style=""font-size: 60px; font-family: BACS"">rvUbrAJu</p>","","","","","","","","","",""
"html-keyboard-response","317","490456","0.0-14.0-0.66","610958b8473c7b96e4bd207d","650c16f0f2faf8d7a0d14c09","651c1ae8cc2be51dd84eb22d","null","null","<p style=""font-size: 60px; font-family: BACS"">NaAQdZckv</p>","","","","","","","","","",""
"html-keyboard-response","318","491464","0.0-14.0-0.67","610958b8473c7b96e4bd207d","650c16f0f2faf8d7a0d14c09","651c1ae8cc2be51dd84eb22d","null","null","<p style=""font-size: 60px; font-family: BACS"">TEBKBbM</p>","","","","","","","","","",""
"html-keyboard-response","319","492477","0.0-14.0-0.68","610958b8473c7b96e4bd207d","650c16f0f2faf8d7a0d14c09","651c1ae8cc2be51dd84eb22d","null","null","<p style=""font-size: 60px; font-family: BACS"">AlQaQGUa</p>","","","","","","","","","",""
"html-keyboard-response","320","493483","0.0-14.0-0.69","610958b8473c7b96e4bd207d","650c16f0f2faf8d7a0d14c09","651c1ae8cc2be51dd84eb22d","null","null","<p style=""font-size: 60px; font-family: BACS"">EhbtABb</p>","","","","","","","","","",""
"html-keyboard-response","321","494498","0.0-14.0-0.70","610958b8473c7b96e4bd207d","650c16f0f2faf8d7a0d14c09","651c1ae8cc2be51dd84eb22d","null","null","<p style=""font-size: 60px; font-family: BACS"">hChYcMRl</p>","","","","","","","","","",""
"html-keyboard-response","322","495512","0.0-14.0-0.71","610958b8473c7b96e4bd207d","650c16f0f2faf8d7a0d14c09","651c1ae8cc2be51dd84eb22d","null","null","<p style=""font-size: 60px; font-family: BACS"">AdDbABb</p>","","","","","","","","","",""
"html-keyboard-response","323","496513","0.0-14.0-0.72","610958b8473c7b96e4bd207d","650c16f0f2faf8d7a0d14c09","651c1ae8cc2be51dd84eb22d","null","null","<p style=""font-size: 60px; font-family: BACS"">KdARBCAd</p>","","","","","","","","","",""
"html-keyboard-response","324","497526","0.0-14.0-0.73","610958b8473c7b96e4bd207d","650c16f0f2faf8d7a0d14c09","651c1ae8cc2be51dd84eb22d","null","null","<p style=""font-size: 60px; font-family: BACS"">tmtEMABb</p>","","","","","","","","","",""
"html-keyboard-response","325","498536","0.0-14.0-0.74","610958b8473c7b96e4bd207d","650c16f0f2faf8d7a0d14c09","651c1ae8cc2be51dd84eb22d","null","null","<p style=""font-size: 60px; font-family: BACS"">PCMPKBCAd</p>","","","","","","","","","",""
"html-keyboard-response","326","499550","0.0-14.0-0.75","610958b8473c7b96e4bd207d","650c16f0f2faf8d7a0d14c09","651c1ae8cc2be51dd84eb22d","null","null","<p style=""font-size: 60px; font-family: BACS"">rckOkYL</p>","","","","","","","","","",""
"html-keyboard-response","327","500565","0.0-14.0-0.76","610958b8473c7b96e4bd207d","650c16f0f2faf8d7a0d14c09","651c1ae8cc2be51dd84eb22d","null","null","<p style=""font-size: 60px; font-family: BACS"">lGZvGUa</p>","","","","","","","","","",""
"html-keyboard-response","328","501577","0.0-14.0-0.77","610958b8473c7b96e4bd207d","650c16f0f2faf8d7a0d14c09","651c1ae8cc2be51dd84eb22d","null","null","<p style=""font-size: 60px; font-family: BACS"">rckOrAJu</p>","","","","","","","","","",""
"html-keyboard-response","329","502589","0.0-14.0-0.78","610958b8473c7b96e4bd207d","650c16f0f2faf8d7a0d14c09","651c1ae8cc2be51dd84eb22d","null","null","<p style=""font-size: 60px; font-family: BACS"">cRElDAPT</p>","","","","","","","","","",""
"html-keyboard-response","330","503603","0.0-14.0-0.79","610958b8473c7b96e4bd207d","650c16f0f2faf8d7a0d14c09","651c1ae8cc2be51dd84eb22d","null","null","<p style=""font-size: 60px; font-family: BACS"">EhbtBbM</p>","","","","","","","","","",""
"html-keyboard-response","331","508253","0.0-15.0","610958b8473c7b96e4bd207d","650c16f0f2faf8d7a0d14c09","651c1ae8cc2be51dd84eb22d","4649"," ","<p>Great, you've seen the fourth block of words. You may now take a short break.</p>
      <p>Press the spacebar when you're ready to continue.</p>","","","","","","","","","",""
"html-keyboard-response","332","509267","0.0-16.0-0.0","610958b8473c7b96e4bd207d","650c16f0f2faf8d7a0d14c09","651c1ae8cc2be51dd84eb22d","null","null","<p style=""font-size: 60px; font-family: BACS"">PCMPKBbM</p>","","","","","","","","","",""
"html-keyboard-response","333","510271","0.0-16.0-0.1","610958b8473c7b96e4bd207d","650c16f0f2faf8d7a0d14c09","651c1ae8cc2be51dd84eb22d","null","null","<p style=""font-size: 60px; font-family: BACS"">PCMPKBbM</p>","","","","","","","","","",""
"html-keyboard-response","334","511284","0.0-16.0-0.2","610958b8473c7b96e4bd207d","650c16f0f2faf8d7a0d14c09","651c1ae8cc2be51dd84eb22d","null","null","<p style=""font-size: 60px; font-family: BACS"">PCMPKBbM</p>","","","","","","","","","",""
"html-keyboard-response","335","512300","0.0-16.0-0.3","610958b8473c7b96e4bd207d","650c16f0f2faf8d7a0d14c09","651c1ae8cc2be51dd84eb22d","null","null","<p style=""font-size: 60px; font-family: BACS"">PCMPKBbM</p>","","","","","","","","","",""
"html-keyboard-response","336","513312","0.0-16.0-0.4","610958b8473c7b96e4bd207d","650c16f0f2faf8d7a0d14c09","651c1ae8cc2be51dd84eb22d","null","null","<p style=""font-size: 60px; font-family: BACS"">PCMPKBbM</p>","","","","","","","","","",""
"html-keyboard-response","337","514314","0.0-16.0-0.5","610958b8473c7b96e4bd207d","650c16f0f2faf8d7a0d14c09","651c1ae8cc2be51dd84eb22d","null","null","<p style=""font-size: 60px; font-family: BACS"">PCMPKBbM</p>","","","","","","","","","",""
"html-keyboard-response","338","515330","0.0-16.0-0.6","610958b8473c7b96e4bd207d","650c16f0f2faf8d7a0d14c09","651c1ae8cc2be51dd84eb22d","null","null","<p style=""font-size: 60px; font-family: BACS"">PCMPKBbM</p>","","","","","","","","","",""
"html-keyboard-response","339","516344","0.0-16.0-0.7","610958b8473c7b96e4bd207d","650c16f0f2faf8d7a0d14c09","651c1ae8cc2be51dd84eb22d","null","null","<p style=""font-size: 60px; font-family: BACS"">PCMPKBbM</p>","","","","","","","","","",""
"html-keyboard-response","340","517359","0.0-16.0-0.8","610958b8473c7b96e4bd207d","650c16f0f2faf8d7a0d14c09","651c1ae8cc2be51dd84eb22d","null","null","<p style=""font-size: 60px; font-family: BACS"">PCMPKBbM</p>","","","","","","","","","",""
"html-keyboard-response","341","518375","0.0-16.0-0.9","610958b8473c7b96e4bd207d","650c16f0f2faf8d7a0d14c09","651c1ae8cc2be51dd84eb22d","null","null","<p style=""font-size: 60px; font-family: BACS"">PCMPKBbM</p>","","","","","","","","","",""
"html-keyboard-response","342","519389","0.0-16.0-0.10","610958b8473c7b96e4bd207d","650c16f0f2faf8d7a0d14c09","651c1ae8cc2be51dd84eb22d","null","null","<p style=""font-size: 60px; font-family: BACS"">PCMPKBbM</p>","","","","","","","","","",""
"html-keyboard-response","343","520402","0.0-16.0-0.11","610958b8473c7b96e4bd207d","650c16f0f2faf8d7a0d14c09","651c1ae8cc2be51dd84eb22d","null","null","<p style=""font-size: 60px; font-family: BACS"">PCMPKBbM</p>","","","","","","","","","",""
"html-keyboard-response","344","521418","0.0-16.0-0.12","610958b8473c7b96e4bd207d","650c16f0f2faf8d7a0d14c09","651c1ae8cc2be51dd84eb22d","null","null","<p style=""font-size: 60px; font-family: BACS"">PCMPKBbM</p>","","","","","","","","","",""
"html-keyboard-response","345","522421","0.0-16.0-0.13","610958b8473c7b96e4bd207d","650c16f0f2faf8d7a0d14c09","651c1ae8cc2be51dd84eb22d","null","null","<p style=""font-size: 60px; font-family: BACS"">PCMPKBbM</p>","","","","","","","","","",""
"html-keyboard-response","346","523423","0.0-16.0-0.14","610958b8473c7b96e4bd207d","650c16f0f2faf8d7a0d14c09","651c1ae8cc2be51dd84eb22d","null","null","<p style=""font-size: 60px; font-family: BACS"">PCMPKBbM</p>","","","","","","","","","",""
"html-keyboard-response","347","524431","0.0-16.0-0.15","610958b8473c7b96e4bd207d","650c16f0f2faf8d7a0d14c09","651c1ae8cc2be51dd84eb22d","null","null","<p style=""font-size: 60px; font-family: BACS"">PCMPKBbM</p>","","","","","","","","","",""
"html-keyboard-response","348","525446","0.0-16.0-0.16","610958b8473c7b96e4bd207d","650c16f0f2faf8d7a0d14c09","651c1ae8cc2be51dd84eb22d","null","null","<p style=""font-size: 60px; font-family: BACS"">PCMPKBbM</p>","","","","","","","","","",""
"html-keyboard-response","349","526448","0.0-16.0-0.17","610958b8473c7b96e4bd207d","650c16f0f2faf8d7a0d14c09","651c1ae8cc2be51dd84eb22d","null","null","<p style=""font-size: 60px; font-family: BACS"">PCMPKBbM</p>","","","","","","","","","",""
"html-keyboard-response","350","527453","0.0-16.0-0.18","610958b8473c7b96e4bd207d","650c16f0f2faf8d7a0d14c09","651c1ae8cc2be51dd84eb22d","null","null","<p style=""font-size: 60px; font-family: BACS"">PCMPKBbM</p>","","","","","","","","","",""
"html-keyboard-response","351","528458","0.0-16.0-0.19","610958b8473c7b96e4bd207d","650c16f0f2faf8d7a0d14c09","651c1ae8cc2be51dd84eb22d","null","null","<p style=""font-size: 60px; font-family: BACS"">PCMPKBbM</p>","","","","","","","","","",""
"html-keyboard-response","352","529464","0.0-16.0-0.20","610958b8473c7b96e4bd207d","650c16f0f2faf8d7a0d14c09","651c1ae8cc2be51dd84eb22d","null","null","<p style=""font-size: 60px; font-family: BACS"">PCMPKBbM</p>","","","","","","","","","",""
"html-keyboard-response","353","530471","0.0-16.0-0.21","610958b8473c7b96e4bd207d","650c16f0f2faf8d7a0d14c09","651c1ae8cc2be51dd84eb22d","null","null","<p style=""font-size: 60px; font-family: BACS"">PCMPKBbM</p>","","","","","","","","","",""
"html-keyboard-response","354","531475","0.0-16.0-0.22","610958b8473c7b96e4bd207d","650c16f0f2faf8d7a0d14c09","651c1ae8cc2be51dd84eb22d","null","null","<p style=""font-size: 60px; font-family: BACS"">PCMPKBbM</p>","","","","","","","","","",""
"html-keyboard-response","355","532479","0.0-16.0-0.23","610958b8473c7b96e4bd207d","650c16f0f2faf8d7a0d14c09","651c1ae8cc2be51dd84eb22d","null","null","<p style=""font-size: 60px; font-family: BACS"">PCMPKBbM</p>","","","","","","","","","",""
"html-keyboard-response","356","533484","0.0-16.0-0.24","610958b8473c7b96e4bd207d","650c16f0f2faf8d7a0d14c09","651c1ae8cc2be51dd84eb22d","null","null","<p style=""font-size: 60px; font-family: BACS"">PCMPKBbM</p>","","","","","","","","","",""
"html-keyboard-response","357","534489","0.0-16.0-0.25","610958b8473c7b96e4bd207d","650c16f0f2faf8d7a0d14c09","651c1ae8cc2be51dd84eb22d","null","null","<p style=""font-size: 60px; font-family: BACS"">PCMPKBbM</p>","","","","","","","","","",""
"html-keyboard-response","358","535494","0.0-16.0-0.26","610958b8473c7b96e4bd207d","650c16f0f2faf8d7a0d14c09","651c1ae8cc2be51dd84eb22d","null","null","<p style=""font-size: 60px; font-family: BACS"">PCMPKBbM</p>","","","","","","","","","",""
"html-keyboard-response","359","536499","0.0-16.0-0.27","610958b8473c7b96e4bd207d","650c16f0f2faf8d7a0d14c09","651c1ae8cc2be51dd84eb22d","null","null","<p style=""font-size: 60px; font-family: BACS"">PCMPKBbM</p>","","","","","","","","","",""
"html-keyboard-response","360","537504","0.0-16.0-0.28","610958b8473c7b96e4bd207d","650c16f0f2faf8d7a0d14c09","651c1ae8cc2be51dd84eb22d","null","null","<p style=""font-size: 60px; font-family: BACS"">PCMPKBbM</p>","","","","","","","","","",""
"html-keyboard-response","361","538518","0.0-16.0-0.29","610958b8473c7b96e4bd207d","650c16f0f2faf8d7a0d14c09","651c1ae8cc2be51dd84eb22d","null","null","<p style=""font-size: 60px; font-family: BACS"">PCMPKBbM</p>","","","","","","","","","",""
"html-keyboard-response","362","539531","0.0-16.0-0.30","610958b8473c7b96e4bd207d","650c16f0f2faf8d7a0d14c09","651c1ae8cc2be51dd84eb22d","null","null","<p style=""font-size: 60px; font-family: BACS"">PCMPKBbM</p>","","","","","","","","","",""
"html-keyboard-response","363","540545","0.0-16.0-0.31","610958b8473c7b96e4bd207d","650c16f0f2faf8d7a0d14c09","651c1ae8cc2be51dd84eb22d","null","null","<p style=""font-size: 60px; font-family: BACS"">PCMPKBbM</p>","","","","","","","","","",""
"html-keyboard-response","364","541555","0.0-16.0-0.32","610958b8473c7b96e4bd207d","650c16f0f2faf8d7a0d14c09","651c1ae8cc2be51dd84eb22d","null","null","<p style=""font-size: 60px; font-family: BACS"">PCMPKBbM</p>","","","","","","","","","",""
"html-keyboard-response","365","542561","0.0-16.0-0.33","610958b8473c7b96e4bd207d","650c16f0f2faf8d7a0d14c09","651c1ae8cc2be51dd84eb22d","null","null","<p style=""font-size: 60px; font-family: BACS"">PCMPKBbM</p>","","","","","","","","","",""
"html-keyboard-response","366","543575","0.0-16.0-0.34","610958b8473c7b96e4bd207d","650c16f0f2faf8d7a0d14c09","651c1ae8cc2be51dd84eb22d","null","null","<p style=""font-size: 60px; font-family: BACS"">PCMPKBbM</p>","","","","","","","","","",""
"html-keyboard-response","367","544588","0.0-16.0-0.35","610958b8473c7b96e4bd207d","650c16f0f2faf8d7a0d14c09","651c1ae8cc2be51dd84eb22d","null","null","<p style=""font-size: 60px; font-family: BACS"">PCMPKBbM</p>","","","","","","","","","",""
"html-keyboard-response","368","545604","0.0-16.0-0.36","610958b8473c7b96e4bd207d","650c16f0f2faf8d7a0d14c09","651c1ae8cc2be51dd84eb22d","null","null","<p style=""font-size: 60px; font-family: BACS"">PCMPKBbM</p>","","","","","","","","","",""
"html-keyboard-response","369","546605","0.0-16.0-0.37","610958b8473c7b96e4bd207d","650c16f0f2faf8d7a0d14c09","651c1ae8cc2be51dd84eb22d","null","null","<p style=""font-size: 60px; font-family: BACS"">PCMPKBbM</p>","","","","","","","","","",""
"html-keyboard-response","370","547615","0.0-16.0-0.38","610958b8473c7b96e4bd207d","650c16f0f2faf8d7a0d14c09","651c1ae8cc2be51dd84eb22d","null","null","<p style=""font-size: 60px; font-family: BACS"">PCMPKBbM</p>","","","","","","","","","",""
"html-keyboard-response","371","548629","0.0-16.0-0.39","610958b8473c7b96e4bd207d","650c16f0f2faf8d7a0d14c09","651c1ae8cc2be51dd84eb22d","null","null","<p style=""font-size: 60px; font-family: BACS"">PCMPKBbM</p>","","","","","","","","","",""
"html-keyboard-response","372","549644","0.0-16.0-0.40","610958b8473c7b96e4bd207d","650c16f0f2faf8d7a0d14c09","651c1ae8cc2be51dd84eb22d","null","null","<p style=""font-size: 60px; font-family: BACS"">PCMPKBbM</p>","","","","","","","","","",""
"html-keyboard-response","373","550656","0.0-16.0-0.41","610958b8473c7b96e4bd207d","650c16f0f2faf8d7a0d14c09","651c1ae8cc2be51dd84eb22d","null","null","<p style=""font-size: 60px; font-family: BACS"">PCMPKBbM</p>","","","","","","","","","",""
"html-keyboard-response","374","551673","0.0-16.0-0.42","610958b8473c7b96e4bd207d","650c16f0f2faf8d7a0d14c09","651c1ae8cc2be51dd84eb22d","null","null","<p style=""font-size: 60px; font-family: BACS"">PCMPKBbM</p>","","","","","","","","","",""
"html-keyboard-response","375","552686","0.0-16.0-0.43","610958b8473c7b96e4bd207d","650c16f0f2faf8d7a0d14c09","651c1ae8cc2be51dd84eb22d","null","null","<p style=""font-size: 60px; font-family: BACS"">PCMPKBbM</p>","","","","","","","","","",""
"html-keyboard-response","376","553700","0.0-16.0-0.44","610958b8473c7b96e4bd207d","650c16f0f2faf8d7a0d14c09","651c1ae8cc2be51dd84eb22d","null","null","<p style=""font-size: 60px; font-family: BACS"">PCMPKBbM</p>","","","","","","","","","",""
"html-keyboard-response","377","554712","0.0-16.0-0.45","610958b8473c7b96e4bd207d","650c16f0f2faf8d7a0d14c09","651c1ae8cc2be51dd84eb22d","null","null","<p style=""font-size: 60px; font-family: BACS"">PCMPKBbM</p>","","","","","","","","","",""
"html-keyboard-response","378","555724","0.0-16.0-0.46","610958b8473c7b96e4bd207d","650c16f0f2faf8d7a0d14c09","651c1ae8cc2be51dd84eb22d","null","null","<p style=""font-size: 60px; font-family: BACS"">PCMPKBbM</p>","","","","","","","","","",""
"html-keyboard-response","379","556741","0.0-16.0-0.47","610958b8473c7b96e4bd207d","650c16f0f2faf8d7a0d14c09","651c1ae8cc2be51dd84eb22d","null","null","<p style=""font-size: 60px; font-family: BACS"">PCMPKBbM</p>","","","","","","","","","",""
"html-keyboard-response","380","557755","0.0-16.0-0.48","610958b8473c7b96e4bd207d","650c16f0f2faf8d7a0d14c09","651c1ae8cc2be51dd84eb22d","null","null","<p style=""font-size: 60px; font-family: BACS"">PCMPKBbM</p>","","","","","","","","","",""
"html-keyboard-response","381","558756","0.0-16.0-0.49","610958b8473c7b96e4bd207d","650c16f0f2faf8d7a0d14c09","651c1ae8cc2be51dd84eb22d","null","null","<p style=""font-size: 60px; font-family: BACS"">PCMPKBbM</p>","","","","","","","","","",""
"html-keyboard-response","382","559767","0.0-16.0-0.50","610958b8473c7b96e4bd207d","650c16f0f2faf8d7a0d14c09","651c1ae8cc2be51dd84eb22d","null","null","<p style=""font-size: 60px; font-family: BACS"">PCMPKBbM</p>","","","","","","","","","",""
"html-keyboard-response","383","560780","0.0-16.0-0.51","610958b8473c7b96e4bd207d","650c16f0f2faf8d7a0d14c09","651c1ae8cc2be51dd84eb22d","null","null","<p style=""font-size: 60px; font-family: BACS"">PCMPKBbM</p>","","","","","","","","","",""
"html-keyboard-response","384","561791","0.0-16.0-0.52","610958b8473c7b96e4bd207d","650c16f0f2faf8d7a0d14c09","651c1ae8cc2be51dd84eb22d","null","null","<p style=""font-size: 60px; font-family: BACS"">PCMPKBbM</p>","","","","","","","","","",""
"html-keyboard-response","385","562798","0.0-16.0-0.53","610958b8473c7b96e4bd207d","650c16f0f2faf8d7a0d14c09","651c1ae8cc2be51dd84eb22d","null","null","<p style=""font-size: 60px; font-family: BACS"">PCMPKBbM</p>","","","","","","","","","",""
"html-keyboard-response","386","563811","0.0-16.0-0.54","610958b8473c7b96e4bd207d","650c16f0f2faf8d7a0d14c09","651c1ae8cc2be51dd84eb22d","null","null","<p style=""font-size: 60px; font-family: BACS"">PCMPKBbM</p>","","","","","","","","","",""
"html-keyboard-response","387","564822","0.0-16.0-0.55","610958b8473c7b96e4bd207d","650c16f0f2faf8d7a0d14c09","651c1ae8cc2be51dd84eb22d","null","null","<p style=""font-size: 60px; font-family: BACS"">PCMPKBbM</p>","","","","","","","","","",""
"html-keyboard-response","388","565834","0.0-16.0-0.56","610958b8473c7b96e4bd207d","650c16f0f2faf8d7a0d14c09","651c1ae8cc2be51dd84eb22d","null","null","<p style=""font-size: 60px; font-family: BACS"">PCMPKBbM</p>","","","","","","","","","",""
"html-keyboard-response","389","566848","0.0-16.0-0.57","610958b8473c7b96e4bd207d","650c16f0f2faf8d7a0d14c09","651c1ae8cc2be51dd84eb22d","null","null","<p style=""font-size: 60px; font-family: BACS"">PCMPKBbM</p>","","","","","","","","","",""
"html-keyboard-response","390","567858","0.0-16.0-0.58","610958b8473c7b96e4bd207d","650c16f0f2faf8d7a0d14c09","651c1ae8cc2be51dd84eb22d","null","null","<p style=""font-size: 60px; font-family: BACS"">PCMPKBbM</p>","","","","","","","","","",""
"html-keyboard-response","391","568871","0.0-16.0-0.59","610958b8473c7b96e4bd207d","650c16f0f2faf8d7a0d14c09","651c1ae8cc2be51dd84eb22d","null","null","<p style=""font-size: 60px; font-family: BACS"">PCMPKBbM</p>","","","","","","","","","",""
"html-keyboard-response","392","569885","0.0-16.0-0.60","610958b8473c7b96e4bd207d","650c16f0f2faf8d7a0d14c09","651c1ae8cc2be51dd84eb22d","null","null","<p style=""font-size: 60px; font-family: BACS"">PCMPKBbM</p>","","","","","","","","","",""
