trial_type,trial_index,time_elapsed,internal_node_id,subject_id,study_id,session_id,rt,response,stimulus,success,item,task,correct_response,testing_condition,correct,target,confound,name,view_history
pavlovia,0,1229,0.0-0.0,615b41767003d4ece749ed9d,650c16f0f2faf8d7a0d14c09,651c1e91694be42023551af4,,,,,,,,,,,,,
survey-html-form,1,27664,0.0-1.0,615b41767003d4ece749ed9d,650c16f0f2faf8d7a0d14c09,651c1e91694be42023551af4,26431,"{""ID"":""615b41767003d4ece749ed9d""}",,,,,,,,,,,
html-keyboard-response,2,30642,0.0-2.0,615b41767003d4ece749ed9d,650c16f0f2faf8d7a0d14c09,651c1e91694be42023551af4,2975, ,"<p style=""font-size: 15px;"">Before beginning, we ask that you read the consent information and confirm your agreement to participate in the experiment.</p>
      <p style=""font-size: 15px;""> We ask that you remember that this is a research project and that your participation is entirely voluntary. You can stop your participation at any time, without needing to provide any explanation. The study we're asking you to participate in aims at examining how readers process written words. You will be engaged in a session of apprximately 20 minutes, followed by a brief questionnaire. You will have the opportunity to take a few breaks during the experiment. You will be paid £4 for your participation, corresponding to a rate of £8/hour. While this experiment looks at cognitive faculties, this experiment doesn't constitute clinical proof of eventual pathologies.</p>
      <p style=""font-size: 15px;"">All of the information collected thanks to yours and others' participation will be held in a secure password-protected server, and will not be shared with anyone not authorised to view it. Your personal information will be kept with an arbitrary participant ID. Thanks to this data anonymity process, any researcher analysing the data won't be able to track the information back to a specific participant. Therefore, this process will make identifying you impossibile, even when results from the study will be published in scientific reviews, presented at congresses, or at any other public forum. More generally, the collected data will be treated in accordance with the laws on privacy and conformity to the Legislative Degree n. 196 ""Code regarding the protection of personal data"" of the 30th of June 2003 and to the European Regulation 2016/670 (General Data Protection Regulation - GDPR). The Data Protection Officer is Avv. Valentina Carollo, who can be contacted at the following email addresses: <a href=""mailto:dpo@sissa.it"">dpo@sissa.it</a> or <a href=""mailto:rpd@sissa.it"">rpd@sissa.it</a> - PEC: <a href=""mailto:protocollo@pec.sissa.it"">protocollo@pec.sissa.it</a>.</p>
      <p style=""font-size: 15px;""> Before expressing your consent to participate, we would like to remind you again that in case you need explanations on any aspect of the experimental procedure, the researcher is at your disposition (<a href=""mailto:aliebelt@sissa.it"">aliebelt@sissa.it</a>, <a href=""mailto:davide.crepaldi@sissa.it"">davide.crepaldi@sissa.it</a>).</p>
      <p style=""font-size: 15px;"">If you would like to download the informed consent form, you can do so here: <a href=""BASL-Informed_Consent.pdf"" download>informed consent form</a>.</p>
      <p style=""font-size: 15px;"">We ask that you press the spacebar to proceed to the consent section.</p>",,,,,,,,,,
survey-html-form,3,163762,0.0-3.0,615b41767003d4ece749ed9d,650c16f0f2faf8d7a0d14c09,651c1e91694be42023551af4,133119,"{""consent1"":""YES"",""consent2"":""YES"",""consent3"":""YES"",""consent4"":""YES"",""consent5"":""YES"",""consent6"":""YES""}",,,,,,,,,,,
fullscreen,4,195721,0.0-4.0,615b41767003d4ece749ed9d,650c16f0f2faf8d7a0d14c09,651c1e91694be42023551af4,,,,TRUE,,,,,,,,,
html-keyboard-response,5,231376,0.0-5.0,615b41767003d4ece749ed9d,650c16f0f2faf8d7a0d14c09,651c1e91694be42023551af4,35650, ,"<p>Welcome, and thank you very much for your time!</p>
      <p>In this experiment, you'll be a language expert who's been asked to take a look at words that Earth has received in its first communication with aliens. Your task, in this first part of the experiment, is to pay close attention to the words you'll be shown; later, world leaders will ask you questions on what you saw. The words will be shown to you quite quickly; it seems that the aliens were in a hurry :-)</p>
      <p>Press the spacebar to continue.<p>",,,,,,,,,,
html-keyboard-response,6,231427,0.0-6.0,615b41767003d4ece749ed9d,650c16f0f2faf8d7a0d14c09,651c1e91694be42023551af4,null,null,"<p style=""font-size: 120px; font-family: BACS""> </p>",,,,,,,,,,
html-keyboard-response,7,242220,0.0-7.0,615b41767003d4ece749ed9d,650c16f0f2faf8d7a0d14c09,651c1e91694be42023551af4,10792, ,"<p>Here is an example of the words you'll see:</p>
      <img src='esempio.png' height='400px'>
      <p>When you're ready to begin, press the spacebar.</p></div>",,,,,,,,,,
html-keyboard-response,8,243227,0.0-8.0-0.0,615b41767003d4ece749ed9d,650c16f0f2faf8d7a0d14c09,651c1e91694be42023551af4,null,null,"<p style=""font-size: 60px; font-family: BACS"">cRElDcMRl</p>",,,,,,,,,,
html-keyboard-response,9,244244,0.0-8.0-0.1,615b41767003d4ece749ed9d,650c16f0f2faf8d7a0d14c09,651c1e91694be42023551af4,null,null,"<p style=""font-size: 60px; font-family: BACS"">YadrkmU</p>",,,,,,,,,,
html-keyboard-response,10,245258,0.0-8.0-0.2,615b41767003d4ece749ed9d,650c16f0f2faf8d7a0d14c09,651c1e91694be42023551af4,null,null,"<p style=""font-size: 60px; font-family: BACS"">vblrkYL</p>",,,,,,,,,,
html-keyboard-response,11,246273,0.0-8.0-0.3,615b41767003d4ece749ed9d,650c16f0f2faf8d7a0d14c09,651c1e91694be42023551af4,null,null,"<p style=""font-size: 60px; font-family: BACS"">hCktTRK</p>",,,,,,,,,,
html-keyboard-response,12,247287,0.0-8.0-0.4,615b41767003d4ece749ed9d,650c16f0f2faf8d7a0d14c09,651c1e91694be42023551af4,null,null,"<p style=""font-size: 60px; font-family: BACS"">OdYPmCd</p>",,,,,,,,,,
html-keyboard-response,13,248289,0.0-8.0-0.5,615b41767003d4ece749ed9d,650c16f0f2faf8d7a0d14c09,651c1e91694be42023551af4,null,null,"<p style=""font-size: 60px; font-family: BACS"">DhCPcMRl</p>",,,,,,,,,,
html-keyboard-response,14,249303,0.0-8.0-0.6,615b41767003d4ece749ed9d,650c16f0f2faf8d7a0d14c09,651c1e91694be42023551af4,null,null,"<p style=""font-size: 60px; font-family: BACS"">mbZlUZu</p>",,,,,,,,,,
html-keyboard-response,15,250306,0.0-8.0-0.7,615b41767003d4ece749ed9d,650c16f0f2faf8d7a0d14c09,651c1e91694be42023551af4,null,null,"<p style=""font-size: 60px; font-family: BACS"">NkUAkmU</p>",,,,,,,,,,
html-keyboard-response,16,251311,0.0-8.0-0.8,615b41767003d4ece749ed9d,650c16f0f2faf8d7a0d14c09,651c1e91694be42023551af4,null,null,"<p style=""font-size: 60px; font-family: BACS"">YadrkGua</p>",,,,,,,,,,
html-keyboard-response,17,252328,0.0-8.0-0.9,615b41767003d4ece749ed9d,650c16f0f2faf8d7a0d14c09,651c1e91694be42023551af4,null,null,"<p style=""font-size: 60px; font-family: BACS"">KAERMTRK</p>",,,,,,,,,,
html-keyboard-response,18,253333,0.0-8.0-0.10,615b41767003d4ece749ed9d,650c16f0f2faf8d7a0d14c09,651c1e91694be42023551af4,null,null,"<p style=""font-size: 60px; font-family: BACS"">JdOAYUZu</p>",,,,,,,,,,
html-keyboard-response,19,254337,0.0-8.0-0.11,615b41767003d4ece749ed9d,650c16f0f2faf8d7a0d14c09,651c1e91694be42023551af4,null,null,"<p style=""font-size: 60px; font-family: BACS"">JauQOcZJ</p>",,,,,,,,,,
html-keyboard-response,20,255342,0.0-8.0-0.12,615b41767003d4ece749ed9d,650c16f0f2faf8d7a0d14c09,651c1e91694be42023551af4,null,null,"<p style=""font-size: 60px; font-family: BACS"">cRElDTRK</p>",,,,,,,,,,
html-keyboard-response,21,256349,0.0-8.0-0.13,615b41767003d4ece749ed9d,650c16f0f2faf8d7a0d14c09,651c1e91694be42023551af4,null,null,"<p style=""font-size: 60px; font-family: BACS"">ABPRBmCd</p>",,,,,,,,,,
html-keyboard-response,22,257363,0.0-8.0-0.14,615b41767003d4ece749ed9d,650c16f0f2faf8d7a0d14c09,651c1e91694be42023551af4,null,null,"<p style=""font-size: 60px; font-family: BACS"">JauQUZu</p>",,,,,,,,,,
html-keyboard-response,23,258365,0.0-8.0-0.15,615b41767003d4ece749ed9d,650c16f0f2faf8d7a0d14c09,651c1e91694be42023551af4,null,null,"<p style=""font-size: 60px; font-family: BACS"">KAERMmCd</p>",,,,,,,,,,
html-keyboard-response,24,259368,0.0-8.0-0.16,615b41767003d4ece749ed9d,650c16f0f2faf8d7a0d14c09,651c1e91694be42023551af4,null,null,"<p style=""font-size: 60px; font-family: BACS"">dvNvAOcZJ</p>",,,,,,,,,,
html-keyboard-response,25,260373,0.0-8.0-0.17,615b41767003d4ece749ed9d,650c16f0f2faf8d7a0d14c09,651c1e91694be42023551af4,null,null,"<p style=""font-size: 60px; font-family: BACS"">rvUbkYL</p>",,,,,,,,,,
html-keyboard-response,26,261388,0.0-8.0-0.18,615b41767003d4ece749ed9d,650c16f0f2faf8d7a0d14c09,651c1e91694be42023551af4,null,null,"<p style=""font-size: 60px; font-family: BACS"">mbZlkGua</p>",,,,,,,,,,
html-keyboard-response,27,262402,0.0-8.0-0.19,615b41767003d4ece749ed9d,650c16f0f2faf8d7a0d14c09,651c1e91694be42023551af4,null,null,"<p style=""font-size: 60px; font-family: BACS"">rvUbUZu</p>",,,,,,,,,,
html-keyboard-response,28,263405,0.0-8.0-0.20,615b41767003d4ece749ed9d,650c16f0f2faf8d7a0d14c09,651c1e91694be42023551af4,null,null,"<p style=""font-size: 60px; font-family: BACS"">YadrOcZJ</p>",,,,,,,,,,
html-keyboard-response,29,264410,0.0-8.0-0.21,615b41767003d4ece749ed9d,650c16f0f2faf8d7a0d14c09,651c1e91694be42023551af4,null,null,"<p style=""font-size: 60px; font-family: BACS"">NkUAkYL</p>",,,,,,,,,,
html-keyboard-response,30,265418,0.0-8.0-0.22,615b41767003d4ece749ed9d,650c16f0f2faf8d7a0d14c09,651c1e91694be42023551af4,null,null,"<p style=""font-size: 60px; font-family: BACS"">CkBOPmCd</p>",,,,,,,,,,
html-keyboard-response,31,266419,0.0-8.0-0.23,615b41767003d4ece749ed9d,650c16f0f2faf8d7a0d14c09,651c1e91694be42023551af4,null,null,"<p style=""font-size: 60px; font-family: BACS"">AZaJcOcZJ</p>",,,,,,,,,,
html-keyboard-response,32,267432,0.0-8.0-0.24,615b41767003d4ece749ed9d,650c16f0f2faf8d7a0d14c09,651c1e91694be42023551af4,null,null,"<p style=""font-size: 60px; font-family: BACS"">btlckKEdl</p>",,,,,,,,,,
html-keyboard-response,33,268434,0.0-8.0-0.25,615b41767003d4ece749ed9d,650c16f0f2faf8d7a0d14c09,651c1e91694be42023551af4,null,null,"<p style=""font-size: 60px; font-family: BACS"">lRCBcMRl</p>",,,,,,,,,,
html-keyboard-response,34,269439,0.0-8.0-0.26,615b41767003d4ece749ed9d,650c16f0f2faf8d7a0d14c09,651c1e91694be42023551af4,null,null,"<p style=""font-size: 60px; font-family: BACS"">NkUAOcZJ</p>",,,,,,,,,,
html-keyboard-response,35,270453,0.0-8.0-0.27,615b41767003d4ece749ed9d,650c16f0f2faf8d7a0d14c09,651c1e91694be42023551af4,null,null,"<p style=""font-size: 60px; font-family: BACS"">hCktKEdl</p>",,,,,,,,,,
html-keyboard-response,36,271468,0.0-8.0-0.28,615b41767003d4ece749ed9d,650c16f0f2faf8d7a0d14c09,651c1e91694be42023551af4,null,null,"<p style=""font-size: 60px; font-family: BACS"">lRCBbdtK</p>",,,,,,,,,,
html-keyboard-response,37,272471,0.0-8.0-0.29,615b41767003d4ece749ed9d,650c16f0f2faf8d7a0d14c09,651c1e91694be42023551af4,null,null,"<p style=""font-size: 60px; font-family: BACS"">hCktcMRl</p>",,,,,,,,,,
html-keyboard-response,38,273473,0.0-8.0-0.30,615b41767003d4ece749ed9d,650c16f0f2faf8d7a0d14c09,651c1e91694be42023551af4,null,null,"<p style=""font-size: 60px; font-family: BACS"">YadrkYL</p>",,,,,,,,,,
html-keyboard-response,39,274474,0.0-8.0-0.31,615b41767003d4ece749ed9d,650c16f0f2faf8d7a0d14c09,651c1e91694be42023551af4,null,null,"<p style=""font-size: 60px; font-family: BACS"">btlckbdtK</p>",,,,,,,,,,
html-keyboard-response,40,275480,0.0-8.0-0.32,615b41767003d4ece749ed9d,650c16f0f2faf8d7a0d14c09,651c1e91694be42023551af4,null,null,"<p style=""font-size: 60px; font-family: BACS"">mbZlOcZJ</p>",,,,,,,,,,
html-keyboard-response,41,276490,0.0-8.0-0.33,615b41767003d4ece749ed9d,650c16f0f2faf8d7a0d14c09,651c1e91694be42023551af4,null,null,"<p style=""font-size: 60px; font-family: BACS"">dvNvAUZu</p>",,,,,,,,,,
html-keyboard-response,42,277491,0.0-8.0-0.34,615b41767003d4ece749ed9d,650c16f0f2faf8d7a0d14c09,651c1e91694be42023551af4,null,null,"<p style=""font-size: 60px; font-family: BACS"">KAERMKEdl</p>",,,,,,,,,,
html-keyboard-response,43,278498,0.0-8.0-0.35,615b41767003d4ece749ed9d,650c16f0f2faf8d7a0d14c09,651c1e91694be42023551af4,null,null,"<p style=""font-size: 60px; font-family: BACS"">AZaJckGua</p>",,,,,,,,,,
html-keyboard-response,44,279504,0.0-8.0-0.36,615b41767003d4ece749ed9d,650c16f0f2faf8d7a0d14c09,651c1e91694be42023551af4,null,null,"<p style=""font-size: 60px; font-family: BACS"">JdOAYkmU</p>",,,,,,,,,,
html-keyboard-response,45,280513,0.0-8.0-0.37,615b41767003d4ece749ed9d,650c16f0f2faf8d7a0d14c09,651c1e91694be42023551af4,null,null,"<p style=""font-size: 60px; font-family: BACS"">OdYPcMRl</p>",,,,,,,,,,
html-keyboard-response,46,281522,0.0-8.0-0.38,615b41767003d4ece749ed9d,650c16f0f2faf8d7a0d14c09,651c1e91694be42023551af4,null,null,"<p style=""font-size: 60px; font-family: BACS"">dvNvAkGua</p>",,,,,,,,,,
html-keyboard-response,47,282531,0.0-8.0-0.39,615b41767003d4ece749ed9d,650c16f0f2faf8d7a0d14c09,651c1e91694be42023551af4,null,null,"<p style=""font-size: 60px; font-family: BACS"">vblrkmU</p>",,,,,,,,,,
html-keyboard-response,48,283532,0.0-8.0-0.40,615b41767003d4ece749ed9d,650c16f0f2faf8d7a0d14c09,651c1e91694be42023551af4,null,null,"<p style=""font-size: 60px; font-family: BACS"">dKDthTRK</p>",,,,,,,,,,
html-keyboard-response,49,284536,0.0-8.0-0.41,615b41767003d4ece749ed9d,650c16f0f2faf8d7a0d14c09,651c1e91694be42023551af4,null,null,"<p style=""font-size: 60px; font-family: BACS"">DhCPmCd</p>",,,,,,,,,,
html-keyboard-response,50,285541,0.0-8.0-0.42,615b41767003d4ece749ed9d,650c16f0f2faf8d7a0d14c09,651c1e91694be42023551af4,null,null,"<p style=""font-size: 60px; font-family: BACS"">rvUbkGua</p>",,,,,,,,,,
html-keyboard-response,51,286552,0.0-8.0-0.43,615b41767003d4ece749ed9d,650c16f0f2faf8d7a0d14c09,651c1e91694be42023551af4,null,null,"<p style=""font-size: 60px; font-family: BACS"">LdrbvkYL</p>",,,,,,,,,,
html-keyboard-response,52,287566,0.0-8.0-0.44,615b41767003d4ece749ed9d,650c16f0f2faf8d7a0d14c09,651c1e91694be42023551af4,null,null,"<p style=""font-size: 60px; font-family: BACS"">AZaJckmU</p>",,,,,,,,,,
html-keyboard-response,53,288568,0.0-8.0-0.45,615b41767003d4ece749ed9d,650c16f0f2faf8d7a0d14c09,651c1e91694be42023551af4,null,null,"<p style=""font-size: 60px; font-family: BACS"">vblrkGua</p>",,,,,,,,,,
html-keyboard-response,54,289570,0.0-8.0-0.46,615b41767003d4ece749ed9d,650c16f0f2faf8d7a0d14c09,651c1e91694be42023551af4,null,null,"<p style=""font-size: 60px; font-family: BACS"">dKDthcMRl</p>",,,,,,,,,,
html-keyboard-response,55,290577,0.0-8.0-0.47,615b41767003d4ece749ed9d,650c16f0f2faf8d7a0d14c09,651c1e91694be42023551af4,null,null,"<p style=""font-size: 60px; font-family: BACS"">dvNvAkYL</p>",,,,,,,,,,
html-keyboard-response,56,291579,0.0-8.0-0.48,615b41767003d4ece749ed9d,650c16f0f2faf8d7a0d14c09,651c1e91694be42023551af4,null,null,"<p style=""font-size: 60px; font-family: BACS"">vblrUZu</p>",,,,,,,,,,
html-keyboard-response,57,292582,0.0-8.0-0.49,615b41767003d4ece749ed9d,650c16f0f2faf8d7a0d14c09,651c1e91694be42023551af4,null,null,"<p style=""font-size: 60px; font-family: BACS"">mbZlkmU</p>",,,,,,,,,,
html-keyboard-response,58,293590,0.0-8.0-0.50,615b41767003d4ece749ed9d,650c16f0f2faf8d7a0d14c09,651c1e91694be42023551af4,null,null,"<p style=""font-size: 60px; font-family: BACS"">OdYPKEdl</p>",,,,,,,,,,
html-keyboard-response,59,294602,0.0-8.0-0.51,615b41767003d4ece749ed9d,650c16f0f2faf8d7a0d14c09,651c1e91694be42023551af4,null,null,"<p style=""font-size: 60px; font-family: BACS"">KAERMbdtK</p>",,,,,,,,,,
html-keyboard-response,60,295607,0.0-8.0-0.52,615b41767003d4ece749ed9d,650c16f0f2faf8d7a0d14c09,651c1e91694be42023551af4,null,null,"<p style=""font-size: 60px; font-family: BACS"">DhCPTRK</p>",,,,,,,,,,
html-keyboard-response,61,296615,0.0-8.0-0.53,615b41767003d4ece749ed9d,650c16f0f2faf8d7a0d14c09,651c1e91694be42023551af4,null,null,"<p style=""font-size: 60px; font-family: BACS"">JauQkYL</p>",,,,,,,,,,
html-keyboard-response,62,297619,0.0-8.0-0.54,615b41767003d4ece749ed9d,650c16f0f2faf8d7a0d14c09,651c1e91694be42023551af4,null,null,"<p style=""font-size: 60px; font-family: BACS"">dKDthKEdl</p>",,,,,,,,,,
html-keyboard-response,63,298624,0.0-8.0-0.55,615b41767003d4ece749ed9d,650c16f0f2faf8d7a0d14c09,651c1e91694be42023551af4,null,null,"<p style=""font-size: 60px; font-family: BACS"">hCktbdtK</p>",,,,,,,,,,
html-keyboard-response,64,299631,0.0-8.0-0.56,615b41767003d4ece749ed9d,650c16f0f2faf8d7a0d14c09,651c1e91694be42023551af4,null,null,"<p style=""font-size: 60px; font-family: BACS"">JdOAYOcZJ</p>",,,,,,,,,,
html-keyboard-response,65,300643,0.0-8.0-0.57,615b41767003d4ece749ed9d,650c16f0f2faf8d7a0d14c09,651c1e91694be42023551af4,null,null,"<p style=""font-size: 60px; font-family: BACS"">OdYPbdtK</p>",,,,,,,,,,
html-keyboard-response,66,301644,0.0-8.0-0.58,615b41767003d4ece749ed9d,650c16f0f2faf8d7a0d14c09,651c1e91694be42023551af4,null,null,"<p style=""font-size: 60px; font-family: BACS"">NkUAkGua</p>",,,,,,,,,,
html-keyboard-response,67,302654,0.0-8.0-0.59,615b41767003d4ece749ed9d,650c16f0f2faf8d7a0d14c09,651c1e91694be42023551af4,null,null,"<p style=""font-size: 60px; font-family: BACS"">lRCBmCd</p>",,,,,,,,,,
html-keyboard-response,68,303656,0.0-8.0-0.60,615b41767003d4ece749ed9d,650c16f0f2faf8d7a0d14c09,651c1e91694be42023551af4,null,null,"<p style=""font-size: 60px; font-family: BACS"">btlckTRK</p>",,,,,,,,,,
html-keyboard-response,69,304661,0.0-8.0-0.61,615b41767003d4ece749ed9d,650c16f0f2faf8d7a0d14c09,651c1e91694be42023551af4,null,null,"<p style=""font-size: 60px; font-family: BACS"">dKDthmCd</p>",,,,,,,,,,
html-keyboard-response,70,305671,0.0-8.0-0.62,615b41767003d4ece749ed9d,650c16f0f2faf8d7a0d14c09,651c1e91694be42023551af4,null,null,"<p style=""font-size: 60px; font-family: BACS"">JdOAYkYL</p>",,,,,,,,,,
html-keyboard-response,71,306675,0.0-8.0-0.63,615b41767003d4ece749ed9d,650c16f0f2faf8d7a0d14c09,651c1e91694be42023551af4,null,null,"<p style=""font-size: 60px; font-family: BACS"">LdrbvUZu</p>",,,,,,,,,,
html-keyboard-response,72,307687,0.0-8.0-0.64,615b41767003d4ece749ed9d,650c16f0f2faf8d7a0d14c09,651c1e91694be42023551af4,null,null,"<p style=""font-size: 60px; font-family: BACS"">ABPRBcMRl</p>",,,,,,,,,,
html-keyboard-response,73,308693,0.0-8.0-0.65,615b41767003d4ece749ed9d,650c16f0f2faf8d7a0d14c09,651c1e91694be42023551af4,null,null,"<p style=""font-size: 60px; font-family: BACS"">DhCPbdtK</p>",,,,,,,,,,
html-keyboard-response,74,309697,0.0-8.0-0.66,615b41767003d4ece749ed9d,650c16f0f2faf8d7a0d14c09,651c1e91694be42023551af4,null,null,"<p style=""font-size: 60px; font-family: BACS"">btlckcMRl</p>",,,,,,,,,,
html-keyboard-response,75,310702,0.0-8.0-0.67,615b41767003d4ece749ed9d,650c16f0f2faf8d7a0d14c09,651c1e91694be42023551af4,null,null,"<p style=""font-size: 60px; font-family: BACS"">cRElDmCd</p>",,,,,,,,,,
html-keyboard-response,76,311712,0.0-8.0-0.68,615b41767003d4ece749ed9d,650c16f0f2faf8d7a0d14c09,651c1e91694be42023551af4,null,null,"<p style=""font-size: 60px; font-family: BACS"">lRCBTRK</p>",,,,,,,,,,
html-keyboard-response,77,312720,0.0-8.0-0.69,615b41767003d4ece749ed9d,650c16f0f2faf8d7a0d14c09,651c1e91694be42023551af4,null,null,"<p style=""font-size: 60px; font-family: BACS"">cRElDKEdl</p>",,,,,,,,,,
html-keyboard-response,78,313731,0.0-8.0-0.70,615b41767003d4ece749ed9d,650c16f0f2faf8d7a0d14c09,651c1e91694be42023551af4,null,null,"<p style=""font-size: 60px; font-family: BACS"">LdrbvkmU</p>",,,,,,,,,,
html-keyboard-response,79,314735,0.0-8.0-0.71,615b41767003d4ece749ed9d,650c16f0f2faf8d7a0d14c09,651c1e91694be42023551af4,null,null,"<p style=""font-size: 60px; font-family: BACS"">CkBOPbdtK</p>",,,,,,,,,,
html-keyboard-response,80,315741,0.0-8.0-0.72,615b41767003d4ece749ed9d,650c16f0f2faf8d7a0d14c09,651c1e91694be42023551af4,null,null,"<p style=""font-size: 60px; font-family: BACS"">LdrbvkGua</p>",,,,,,,,,,
html-keyboard-response,81,316750,0.0-8.0-0.73,615b41767003d4ece749ed9d,650c16f0f2faf8d7a0d14c09,651c1e91694be42023551af4,null,null,"<p style=""font-size: 60px; font-family: BACS"">AZaJcUZu</p>",,,,,,,,,,
html-keyboard-response,82,317762,0.0-8.0-0.74,615b41767003d4ece749ed9d,650c16f0f2faf8d7a0d14c09,651c1e91694be42023551af4,null,null,"<p style=""font-size: 60px; font-family: BACS"">CkBOPKEdl</p>",,,,,,,,,,
html-keyboard-response,83,318773,0.0-8.0-0.75,615b41767003d4ece749ed9d,650c16f0f2faf8d7a0d14c09,651c1e91694be42023551af4,null,null,"<p style=""font-size: 60px; font-family: BACS"">ABPRBbdtK</p>",,,,,,,,,,
html-keyboard-response,84,319779,0.0-8.0-0.76,615b41767003d4ece749ed9d,650c16f0f2faf8d7a0d14c09,651c1e91694be42023551af4,null,null,"<p style=""font-size: 60px; font-family: BACS"">JauQkmU</p>",,,,,,,,,,
html-keyboard-response,85,320784,0.0-8.0-0.77,615b41767003d4ece749ed9d,650c16f0f2faf8d7a0d14c09,651c1e91694be42023551af4,null,null,"<p style=""font-size: 60px; font-family: BACS"">CkBOPTRK</p>",,,,,,,,,,
html-keyboard-response,86,321786,0.0-8.0-0.78,615b41767003d4ece749ed9d,650c16f0f2faf8d7a0d14c09,651c1e91694be42023551af4,null,null,"<p style=""font-size: 60px; font-family: BACS"">rvUbOcZJ</p>",,,,,,,,,,
html-keyboard-response,87,322798,0.0-8.0-0.79,615b41767003d4ece749ed9d,650c16f0f2faf8d7a0d14c09,651c1e91694be42023551af4,null,null,"<p style=""font-size: 60px; font-family: BACS"">ABPRBKEdl</p>",,,,,,,,,,
html-keyboard-response,88,329151,0.0-9.0,615b41767003d4ece749ed9d,650c16f0f2faf8d7a0d14c09,651c1e91694be42023551af4,6352, ,"<p>Great, you've seen the first block of words. You may now take a short break.</p>
      <p>Press the spacebar when you're ready to continue.</p>",,,,,,,,,,
html-keyboard-response,89,330164,0.0-10.0-0.0,615b41767003d4ece749ed9d,650c16f0f2faf8d7a0d14c09,651c1e91694be42023551af4,null,null,"<p style=""font-size: 60px; font-family: BACS"">LdrbvkGua</p>",,,,,,,,,,
html-keyboard-response,90,331166,0.0-10.0-0.1,615b41767003d4ece749ed9d,650c16f0f2faf8d7a0d14c09,651c1e91694be42023551af4,null,null,"<p style=""font-size: 60px; font-family: BACS"">OdYPKEdl</p>",,,,,,,,,,
html-keyboard-response,91,332171,0.0-10.0-0.2,615b41767003d4ece749ed9d,650c16f0f2faf8d7a0d14c09,651c1e91694be42023551af4,null,null,"<p style=""font-size: 60px; font-family: BACS"">AZaJckmU</p>",,,,,,,,,,
html-keyboard-response,92,333185,0.0-10.0-0.3,615b41767003d4ece749ed9d,650c16f0f2faf8d7a0d14c09,651c1e91694be42023551af4,null,null,"<p style=""font-size: 60px; font-family: BACS"">LdrbvkYL</p>",,,,,,,,,,
html-keyboard-response,93,334196,0.0-10.0-0.4,615b41767003d4ece749ed9d,650c16f0f2faf8d7a0d14c09,651c1e91694be42023551af4,null,null,"<p style=""font-size: 60px; font-family: BACS"">lRCBbdtK</p>",,,,,,,,,,
html-keyboard-response,94,335202,0.0-10.0-0.5,615b41767003d4ece749ed9d,650c16f0f2faf8d7a0d14c09,651c1e91694be42023551af4,null,null,"<p style=""font-size: 60px; font-family: BACS"">mbZlkmU</p>",,,,,,,,,,
html-keyboard-response,95,336210,0.0-10.0-0.6,615b41767003d4ece749ed9d,650c16f0f2faf8d7a0d14c09,651c1e91694be42023551af4,null,null,"<p style=""font-size: 60px; font-family: BACS"">vblrkYL</p>",,,,,,,,,,
html-keyboard-response,96,337214,0.0-10.0-0.7,615b41767003d4ece749ed9d,650c16f0f2faf8d7a0d14c09,651c1e91694be42023551af4,null,null,"<p style=""font-size: 60px; font-family: BACS"">hCktcMRl</p>",,,,,,,,,,
html-keyboard-response,97,338220,0.0-10.0-0.8,615b41767003d4ece749ed9d,650c16f0f2faf8d7a0d14c09,651c1e91694be42023551af4,null,null,"<p style=""font-size: 60px; font-family: BACS"">KAERMmCd</p>",,,,,,,,,,
html-keyboard-response,98,339225,0.0-10.0-0.9,615b41767003d4ece749ed9d,650c16f0f2faf8d7a0d14c09,651c1e91694be42023551af4,null,null,"<p style=""font-size: 60px; font-family: BACS"">btlckKEdl</p>",,,,,,,,,,
html-keyboard-response,99,340226,0.0-10.0-0.10,615b41767003d4ece749ed9d,650c16f0f2faf8d7a0d14c09,651c1e91694be42023551af4,null,null,"<p style=""font-size: 60px; font-family: BACS"">OdYPmCd</p>",,,,,,,,,,
html-keyboard-response,100,341228,0.0-10.0-0.11,615b41767003d4ece749ed9d,650c16f0f2faf8d7a0d14c09,651c1e91694be42023551af4,null,null,"<p style=""font-size: 60px; font-family: BACS"">KAERMKEdl</p>",,,,,,,,,,
html-keyboard-response,101,342234,0.0-10.0-0.12,615b41767003d4ece749ed9d,650c16f0f2faf8d7a0d14c09,651c1e91694be42023551af4,null,null,"<p style=""font-size: 60px; font-family: BACS"">JdOAYkmU</p>",,,,,,,,,,
html-keyboard-response,102,343237,0.0-10.0-0.13,615b41767003d4ece749ed9d,650c16f0f2faf8d7a0d14c09,651c1e91694be42023551af4,null,null,"<p style=""font-size: 60px; font-family: BACS"">lRCBcMRl</p>",,,,,,,,,,
html-keyboard-response,103,344249,0.0-10.0-0.14,615b41767003d4ece749ed9d,650c16f0f2faf8d7a0d14c09,651c1e91694be42023551af4,null,null,"<p style=""font-size: 60px; font-family: BACS"">AZaJcOcZJ</p>",,,,,,,,,,
html-keyboard-response,104,345257,0.0-10.0-0.15,615b41767003d4ece749ed9d,650c16f0f2faf8d7a0d14c09,651c1e91694be42023551af4,null,null,"<p style=""font-size: 60px; font-family: BACS"">hCktKEdl</p>",,,,,,,,,,
html-keyboard-response,105,346260,0.0-10.0-0.16,615b41767003d4ece749ed9d,650c16f0f2faf8d7a0d14c09,651c1e91694be42023551af4,null,null,"<p style=""font-size: 60px; font-family: BACS"">btlckbdtK</p>",,,,,,,,,,
html-keyboard-response,106,347264,0.0-10.0-0.17,615b41767003d4ece749ed9d,650c16f0f2faf8d7a0d14c09,651c1e91694be42023551af4,null,null,"<p style=""font-size: 60px; font-family: BACS"">JauQkYL</p>",,,,,,,,,,
html-keyboard-response,107,348267,0.0-10.0-0.18,615b41767003d4ece749ed9d,650c16f0f2faf8d7a0d14c09,651c1e91694be42023551af4,null,null,"<p style=""font-size: 60px; font-family: BACS"">vblrkGua</p>",,,,,,,,,,
html-keyboard-response,108,349272,0.0-10.0-0.19,615b41767003d4ece749ed9d,650c16f0f2faf8d7a0d14c09,651c1e91694be42023551af4,null,null,"<p style=""font-size: 60px; font-family: BACS"">JauQOcZJ</p>",,,,,,,,,,
html-keyboard-response,109,350287,0.0-10.0-0.20,615b41767003d4ece749ed9d,650c16f0f2faf8d7a0d14c09,651c1e91694be42023551af4,null,null,"<p style=""font-size: 60px; font-family: BACS"">cRElDmCd</p>",,,,,,,,,,
html-keyboard-response,110,351290,0.0-10.0-0.21,615b41767003d4ece749ed9d,650c16f0f2faf8d7a0d14c09,651c1e91694be42023551af4,null,null,"<p style=""font-size: 60px; font-family: BACS"">JauQUZu</p>",,,,,,,,,,
html-keyboard-response,111,352306,0.0-10.0-0.22,615b41767003d4ece749ed9d,650c16f0f2faf8d7a0d14c09,651c1e91694be42023551af4,null,null,"<p style=""font-size: 60px; font-family: BACS"">JdOAYOcZJ</p>",,,,,,,,,,
html-keyboard-response,112,353316,0.0-10.0-0.23,615b41767003d4ece749ed9d,650c16f0f2faf8d7a0d14c09,651c1e91694be42023551af4,null,null,"<p style=""font-size: 60px; font-family: BACS"">dKDthKEdl</p>",,,,,,,,,,
html-keyboard-response,113,354318,0.0-10.0-0.24,615b41767003d4ece749ed9d,650c16f0f2faf8d7a0d14c09,651c1e91694be42023551af4,null,null,"<p style=""font-size: 60px; font-family: BACS"">dvNvAUZu</p>",,,,,,,,,,
html-keyboard-response,114,355330,0.0-10.0-0.25,615b41767003d4ece749ed9d,650c16f0f2faf8d7a0d14c09,651c1e91694be42023551af4,null,null,"<p style=""font-size: 60px; font-family: BACS"">JauQkmU</p>",,,,,,,,,,
html-keyboard-response,115,356331,0.0-10.0-0.26,615b41767003d4ece749ed9d,650c16f0f2faf8d7a0d14c09,651c1e91694be42023551af4,null,null,"<p style=""font-size: 60px; font-family: BACS"">KAERMbdtK</p>",,,,,,,,,,
html-keyboard-response,116,357333,0.0-10.0-0.27,615b41767003d4ece749ed9d,650c16f0f2faf8d7a0d14c09,651c1e91694be42023551af4,null,null,"<p style=""font-size: 60px; font-family: BACS"">ABPRBcMRl</p>",,,,,,,,,,
html-keyboard-response,117,358346,0.0-10.0-0.28,615b41767003d4ece749ed9d,650c16f0f2faf8d7a0d14c09,651c1e91694be42023551af4,null,null,"<p style=""font-size: 60px; font-family: BACS"">dvNvAkGua</p>",,,,,,,,,,
html-keyboard-response,118,359356,0.0-10.0-0.29,615b41767003d4ece749ed9d,650c16f0f2faf8d7a0d14c09,651c1e91694be42023551af4,null,null,"<p style=""font-size: 60px; font-family: BACS"">mbZlOcZJ</p>",,,,,,,,,,
html-keyboard-response,119,360358,0.0-10.0-0.30,615b41767003d4ece749ed9d,650c16f0f2faf8d7a0d14c09,651c1e91694be42023551af4,null,null,"<p style=""font-size: 60px; font-family: BACS"">btlckcMRl</p>",,,,,,,,,,
html-keyboard-response,120,361375,0.0-10.0-0.31,615b41767003d4ece749ed9d,650c16f0f2faf8d7a0d14c09,651c1e91694be42023551af4,null,null,"<p style=""font-size: 60px; font-family: BACS"">hCktTRK</p>",,,,,,,,,,
html-keyboard-response,121,362381,0.0-10.0-0.32,615b41767003d4ece749ed9d,650c16f0f2faf8d7a0d14c09,651c1e91694be42023551af4,null,null,"<p style=""font-size: 60px; font-family: BACS"">CkBOPmCd</p>",,,,,,,,,,
html-keyboard-response,122,363388,0.0-10.0-0.33,615b41767003d4ece749ed9d,650c16f0f2faf8d7a0d14c09,651c1e91694be42023551af4,null,null,"<p style=""font-size: 60px; font-family: BACS"">DhCPbdtK</p>",,,,,,,,,,
html-keyboard-response,123,364389,0.0-10.0-0.34,615b41767003d4ece749ed9d,650c16f0f2faf8d7a0d14c09,651c1e91694be42023551af4,null,null,"<p style=""font-size: 60px; font-family: BACS"">dKDthmCd</p>",,,,,,,,,,
html-keyboard-response,124,365393,0.0-10.0-0.35,615b41767003d4ece749ed9d,650c16f0f2faf8d7a0d14c09,651c1e91694be42023551af4,null,null,"<p style=""font-size: 60px; font-family: BACS"">LdrbvUZu</p>",,,,,,,,,,
html-keyboard-response,125,366403,0.0-10.0-0.36,615b41767003d4ece749ed9d,650c16f0f2faf8d7a0d14c09,651c1e91694be42023551af4,null,null,"<p style=""font-size: 60px; font-family: BACS"">OdYPbdtK</p>",,,,,,,,,,
html-keyboard-response,126,367405,0.0-10.0-0.37,615b41767003d4ece749ed9d,650c16f0f2faf8d7a0d14c09,651c1e91694be42023551af4,null,null,"<p style=""font-size: 60px; font-family: BACS"">vblrUZu</p>",,,,,,,,,,
html-keyboard-response,127,368411,0.0-10.0-0.38,615b41767003d4ece749ed9d,650c16f0f2faf8d7a0d14c09,651c1e91694be42023551af4,null,null,"<p style=""font-size: 60px; font-family: BACS"">rvUbkGua</p>",,,,,,,,,,
html-keyboard-response,128,369416,0.0-10.0-0.39,615b41767003d4ece749ed9d,650c16f0f2faf8d7a0d14c09,651c1e91694be42023551af4,null,null,"<p style=""font-size: 60px; font-family: BACS"">CkBOPTRK</p>",,,,,,,,,,
html-keyboard-response,129,370420,0.0-10.0-0.40,615b41767003d4ece749ed9d,650c16f0f2faf8d7a0d14c09,651c1e91694be42023551af4,null,null,"<p style=""font-size: 60px; font-family: BACS"">dvNvAkYL</p>",,,,,,,,,,
html-keyboard-response,130,371432,0.0-10.0-0.41,615b41767003d4ece749ed9d,650c16f0f2faf8d7a0d14c09,651c1e91694be42023551af4,null,null,"<p style=""font-size: 60px; font-family: BACS"">AZaJckGua</p>",,,,,,,,,,
html-keyboard-response,131,372435,0.0-10.0-0.42,615b41767003d4ece749ed9d,650c16f0f2faf8d7a0d14c09,651c1e91694be42023551af4,null,null,"<p style=""font-size: 60px; font-family: BACS"">NkUAOcZJ</p>",,,,,,,,,,
html-keyboard-response,132,373451,0.0-10.0-0.43,615b41767003d4ece749ed9d,650c16f0f2faf8d7a0d14c09,651c1e91694be42023551af4,null,null,"<p style=""font-size: 60px; font-family: BACS"">ABPRBbdtK</p>",,,,,,,,,,
html-keyboard-response,133,374452,0.0-10.0-0.44,615b41767003d4ece749ed9d,650c16f0f2faf8d7a0d14c09,651c1e91694be42023551af4,null,null,"<p style=""font-size: 60px; font-family: BACS"">KAERMTRK</p>",,,,,,,,,,
html-keyboard-response,134,375458,0.0-10.0-0.45,615b41767003d4ece749ed9d,650c16f0f2faf8d7a0d14c09,651c1e91694be42023551af4,null,null,"<p style=""font-size: 60px; font-family: BACS"">ABPRBKEdl</p>",,,,,,,,,,
html-keyboard-response,135,376460,0.0-10.0-0.46,615b41767003d4ece749ed9d,650c16f0f2faf8d7a0d14c09,651c1e91694be42023551af4,null,null,"<p style=""font-size: 60px; font-family: BACS"">CkBOPbdtK</p>",,,,,,,,,,
html-keyboard-response,136,377472,0.0-10.0-0.47,615b41767003d4ece749ed9d,650c16f0f2faf8d7a0d14c09,651c1e91694be42023551af4,null,null,"<p style=""font-size: 60px; font-family: BACS"">dKDthTRK</p>",,,,,,,,,,
html-keyboard-response,137,378474,0.0-10.0-0.48,615b41767003d4ece749ed9d,650c16f0f2faf8d7a0d14c09,651c1e91694be42023551af4,null,null,"<p style=""font-size: 60px; font-family: BACS"">cRElDcMRl</p>",,,,,,,,,,
html-keyboard-response,138,379476,0.0-10.0-0.49,615b41767003d4ece749ed9d,650c16f0f2faf8d7a0d14c09,651c1e91694be42023551af4,null,null,"<p style=""font-size: 60px; font-family: BACS"">lRCBmCd</p>",,,,,,,,,,
html-keyboard-response,139,380492,0.0-10.0-0.50,615b41767003d4ece749ed9d,650c16f0f2faf8d7a0d14c09,651c1e91694be42023551af4,null,null,"<p style=""font-size: 60px; font-family: BACS"">dvNvAOcZJ</p>",,,,,,,,,,
html-keyboard-response,140,381495,0.0-10.0-0.51,615b41767003d4ece749ed9d,650c16f0f2faf8d7a0d14c09,651c1e91694be42023551af4,null,null,"<p style=""font-size: 60px; font-family: BACS"">DhCPTRK</p>",,,,,,,,,,
html-keyboard-response,141,382496,0.0-10.0-0.52,615b41767003d4ece749ed9d,650c16f0f2faf8d7a0d14c09,651c1e91694be42023551af4,null,null,"<p style=""font-size: 60px; font-family: BACS"">JdOAYUZu</p>",,,,,,,,,,
html-keyboard-response,142,383505,0.0-10.0-0.53,615b41767003d4ece749ed9d,650c16f0f2faf8d7a0d14c09,651c1e91694be42023551af4,null,null,"<p style=""font-size: 60px; font-family: BACS"">dKDthcMRl</p>",,,,,,,,,,
html-keyboard-response,143,384510,0.0-10.0-0.54,615b41767003d4ece749ed9d,650c16f0f2faf8d7a0d14c09,651c1e91694be42023551af4,null,null,"<p style=""font-size: 60px; font-family: BACS"">cRElDKEdl</p>",,,,,,,,,,
html-keyboard-response,144,385513,0.0-10.0-0.55,615b41767003d4ece749ed9d,650c16f0f2faf8d7a0d14c09,651c1e91694be42023551af4,null,null,"<p style=""font-size: 60px; font-family: BACS"">rvUbUZu</p>",,,,,,,,,,
html-keyboard-response,145,386520,0.0-10.0-0.56,615b41767003d4ece749ed9d,650c16f0f2faf8d7a0d14c09,651c1e91694be42023551af4,null,null,"<p style=""font-size: 60px; font-family: BACS"">OdYPcMRl</p>",,,,,,,,,,
html-keyboard-response,146,387524,0.0-10.0-0.57,615b41767003d4ece749ed9d,650c16f0f2faf8d7a0d14c09,651c1e91694be42023551af4,null,null,"<p style=""font-size: 60px; font-family: BACS"">rvUbOcZJ</p>",,,,,,,,,,
html-keyboard-response,147,388526,0.0-10.0-0.58,615b41767003d4ece749ed9d,650c16f0f2faf8d7a0d14c09,651c1e91694be42023551af4,null,null,"<p style=""font-size: 60px; font-family: BACS"">hCktbdtK</p>",,,,,,,,,,
html-keyboard-response,148,389529,0.0-10.0-0.59,615b41767003d4ece749ed9d,650c16f0f2faf8d7a0d14c09,651c1e91694be42023551af4,null,null,"<p style=""font-size: 60px; font-family: BACS"">cRElDTRK</p>",,,,,,,,,,
html-keyboard-response,149,390545,0.0-10.0-0.60,615b41767003d4ece749ed9d,650c16f0f2faf8d7a0d14c09,651c1e91694be42023551af4,null,null,"<p style=""font-size: 60px; font-family: BACS"">YadrkGua</p>",,,,,,,,,,
html-keyboard-response,150,391553,0.0-10.0-0.61,615b41767003d4ece749ed9d,650c16f0f2faf8d7a0d14c09,651c1e91694be42023551af4,null,null,"<p style=""font-size: 60px; font-family: BACS"">CkBOPKEdl</p>",,,,,,,,,,
html-keyboard-response,151,392557,0.0-10.0-0.62,615b41767003d4ece749ed9d,650c16f0f2faf8d7a0d14c09,651c1e91694be42023551af4,null,null,"<p style=""font-size: 60px; font-family: BACS"">btlckTRK</p>",,,,,,,,,,
html-keyboard-response,152,393559,0.0-10.0-0.63,615b41767003d4ece749ed9d,650c16f0f2faf8d7a0d14c09,651c1e91694be42023551af4,null,null,"<p style=""font-size: 60px; font-family: BACS"">YadrOcZJ</p>",,,,,,,,,,
html-keyboard-response,153,394561,0.0-10.0-0.64,615b41767003d4ece749ed9d,650c16f0f2faf8d7a0d14c09,651c1e91694be42023551af4,null,null,"<p style=""font-size: 60px; font-family: BACS"">ABPRBmCd</p>",,,,,,,,,,
html-keyboard-response,154,395576,0.0-10.0-0.65,615b41767003d4ece749ed9d,650c16f0f2faf8d7a0d14c09,651c1e91694be42023551af4,null,null,"<p style=""font-size: 60px; font-family: BACS"">JdOAYkYL</p>",,,,,,,,,,
html-keyboard-response,155,396591,0.0-10.0-0.66,615b41767003d4ece749ed9d,650c16f0f2faf8d7a0d14c09,651c1e91694be42023551af4,null,null,"<p style=""font-size: 60px; font-family: BACS"">AZaJcUZu</p>",,,,,,,,,,
html-keyboard-response,156,397592,0.0-10.0-0.67,615b41767003d4ece749ed9d,650c16f0f2faf8d7a0d14c09,651c1e91694be42023551af4,null,null,"<p style=""font-size: 60px; font-family: BACS"">NkUAkGua</p>",,,,,,,,,,
html-keyboard-response,157,398603,0.0-10.0-0.68,615b41767003d4ece749ed9d,650c16f0f2faf8d7a0d14c09,651c1e91694be42023551af4,null,null,"<p style=""font-size: 60px; font-family: BACS"">DhCPmCd</p>",,,,,,,,,,
html-keyboard-response,158,399605,0.0-10.0-0.69,615b41767003d4ece749ed9d,650c16f0f2faf8d7a0d14c09,651c1e91694be42023551af4,null,null,"<p style=""font-size: 60px; font-family: BACS"">vblrkmU</p>",,,,,,,,,,
html-keyboard-response,159,400616,0.0-10.0-0.70,615b41767003d4ece749ed9d,650c16f0f2faf8d7a0d14c09,651c1e91694be42023551af4,null,null,"<p style=""font-size: 60px; font-family: BACS"">mbZlkGua</p>",,,,,,,,,,
html-keyboard-response,160,401629,0.0-10.0-0.71,615b41767003d4ece749ed9d,650c16f0f2faf8d7a0d14c09,651c1e91694be42023551af4,null,null,"<p style=""font-size: 60px; font-family: BACS"">DhCPcMRl</p>",,,,,,,,,,
html-keyboard-response,161,402637,0.0-10.0-0.72,615b41767003d4ece749ed9d,650c16f0f2faf8d7a0d14c09,651c1e91694be42023551af4,null,null,"<p style=""font-size: 60px; font-family: BACS"">lRCBTRK</p>",,,,,,,,,,
html-keyboard-response,162,403648,0.0-10.0-0.73,615b41767003d4ece749ed9d,650c16f0f2faf8d7a0d14c09,651c1e91694be42023551af4,null,null,"<p style=""font-size: 60px; font-family: BACS"">YadrkYL</p>",,,,,,,,,,
html-keyboard-response,163,404654,0.0-10.0-0.74,615b41767003d4ece749ed9d,650c16f0f2faf8d7a0d14c09,651c1e91694be42023551af4,null,null,"<p style=""font-size: 60px; font-family: BACS"">LdrbvkmU</p>",,,,,,,,,,
html-keyboard-response,164,405656,0.0-10.0-0.75,615b41767003d4ece749ed9d,650c16f0f2faf8d7a0d14c09,651c1e91694be42023551af4,null,null,"<p style=""font-size: 60px; font-family: BACS"">mbZlUZu</p>",,,,,,,,,,
html-keyboard-response,165,406669,0.0-10.0-0.76,615b41767003d4ece749ed9d,650c16f0f2faf8d7a0d14c09,651c1e91694be42023551af4,null,null,"<p style=""font-size: 60px; font-family: BACS"">NkUAkmU</p>",,,,,,,,,,
html-keyboard-response,166,407676,0.0-10.0-0.77,615b41767003d4ece749ed9d,650c16f0f2faf8d7a0d14c09,651c1e91694be42023551af4,null,null,"<p style=""font-size: 60px; font-family: BACS"">rvUbkYL</p>",,,,,,,,,,
html-keyboard-response,167,408683,0.0-10.0-0.78,615b41767003d4ece749ed9d,650c16f0f2faf8d7a0d14c09,651c1e91694be42023551af4,null,null,"<p style=""font-size: 60px; font-family: BACS"">YadrkmU</p>",,,,,,,,,,
html-keyboard-response,168,409693,0.0-10.0-0.79,615b41767003d4ece749ed9d,650c16f0f2faf8d7a0d14c09,651c1e91694be42023551af4,null,null,"<p style=""font-size: 60px; font-family: BACS"">NkUAkYL</p>",,,,,,,,,,
html-keyboard-response,169,419114,0.0-11.0,615b41767003d4ece749ed9d,650c16f0f2faf8d7a0d14c09,651c1e91694be42023551af4,9420, ,"<p>Great, you've seen the second block of words. You may now take a short break.</p>
      <p>Press the spacebar when you're ready to continue.</p>",,,,,,,,,,
html-keyboard-response,170,420125,0.0-12.0-0.0,615b41767003d4ece749ed9d,650c16f0f2faf8d7a0d14c09,651c1e91694be42023551af4,null,null,"<p style=""font-size: 60px; font-family: BACS"">JdOAYkYL</p>",,,,,,,,,,
html-keyboard-response,171,421142,0.0-12.0-0.1,615b41767003d4ece749ed9d,650c16f0f2faf8d7a0d14c09,651c1e91694be42023551af4,null,null,"<p style=""font-size: 60px; font-family: BACS"">dvNvAOcZJ</p>",,,,,,,,,,
html-keyboard-response,172,422146,0.0-12.0-0.2,615b41767003d4ece749ed9d,650c16f0f2faf8d7a0d14c09,651c1e91694be42023551af4,null,null,"<p style=""font-size: 60px; font-family: BACS"">mbZlkmU</p>",,,,,,,,,,
html-keyboard-response,173,423148,0.0-12.0-0.3,615b41767003d4ece749ed9d,650c16f0f2faf8d7a0d14c09,651c1e91694be42023551af4,null,null,"<p style=""font-size: 60px; font-family: BACS"">KAERMTRK</p>",,,,,,,,,,
html-keyboard-response,174,424152,0.0-12.0-0.4,615b41767003d4ece749ed9d,650c16f0f2faf8d7a0d14c09,651c1e91694be42023551af4,null,null,"<p style=""font-size: 60px; font-family: BACS"">JauQkmU</p>",,,,,,,,,,
html-keyboard-response,175,425160,0.0-12.0-0.5,615b41767003d4ece749ed9d,650c16f0f2faf8d7a0d14c09,651c1e91694be42023551af4,null,null,"<p style=""font-size: 60px; font-family: BACS"">vblrkGua</p>",,,,,,,,,,
html-keyboard-response,176,426164,0.0-12.0-0.6,615b41767003d4ece749ed9d,650c16f0f2faf8d7a0d14c09,651c1e91694be42023551af4,null,null,"<p style=""font-size: 60px; font-family: BACS"">YadrOcZJ</p>",,,,,,,,,,
html-keyboard-response,177,427177,0.0-12.0-0.7,615b41767003d4ece749ed9d,650c16f0f2faf8d7a0d14c09,651c1e91694be42023551af4,null,null,"<p style=""font-size: 60px; font-family: BACS"">KAERMmCd</p>",,,,,,,,,,
html-keyboard-response,178,428178,0.0-12.0-0.8,615b41767003d4ece749ed9d,650c16f0f2faf8d7a0d14c09,651c1e91694be42023551af4,null,null,"<p style=""font-size: 60px; font-family: BACS"">LdrbvkYL</p>",,,,,,,,,,
html-keyboard-response,179,429193,0.0-12.0-0.9,615b41767003d4ece749ed9d,650c16f0f2faf8d7a0d14c09,651c1e91694be42023551af4,null,null,"<p style=""font-size: 60px; font-family: BACS"">vblrUZu</p>",,,,,,,,,,
html-keyboard-response,180,430201,0.0-12.0-0.10,615b41767003d4ece749ed9d,650c16f0f2faf8d7a0d14c09,651c1e91694be42023551af4,null,null,"<p style=""font-size: 60px; font-family: BACS"">AZaJcOcZJ</p>",,,,,,,,,,
html-keyboard-response,181,431208,0.0-12.0-0.11,615b41767003d4ece749ed9d,650c16f0f2faf8d7a0d14c09,651c1e91694be42023551af4,null,null,"<p style=""font-size: 60px; font-family: BACS"">hCktbdtK</p>",,,,,,,,,,
html-keyboard-response,182,432217,0.0-12.0-0.12,615b41767003d4ece749ed9d,650c16f0f2faf8d7a0d14c09,651c1e91694be42023551af4,null,null,"<p style=""font-size: 60px; font-family: BACS"">lRCBTRK</p>",,,,,,,,,,
html-keyboard-response,183,433220,0.0-12.0-0.13,615b41767003d4ece749ed9d,650c16f0f2faf8d7a0d14c09,651c1e91694be42023551af4,null,null,"<p style=""font-size: 60px; font-family: BACS"">btlckbdtK</p>",,,,,,,,,,
html-keyboard-response,184,434236,0.0-12.0-0.14,615b41767003d4ece749ed9d,650c16f0f2faf8d7a0d14c09,651c1e91694be42023551af4,null,null,"<p style=""font-size: 60px; font-family: BACS"">OdYPmCd</p>",,,,,,,,,,
html-keyboard-response,185,435244,0.0-12.0-0.15,615b41767003d4ece749ed9d,650c16f0f2faf8d7a0d14c09,651c1e91694be42023551af4,null,null,"<p style=""font-size: 60px; font-family: BACS"">cRElDTRK</p>",,,,,,,,,,
html-keyboard-response,186,436246,0.0-12.0-0.16,615b41767003d4ece749ed9d,650c16f0f2faf8d7a0d14c09,651c1e91694be42023551af4,null,null,"<p style=""font-size: 60px; font-family: BACS"">lRCBbdtK</p>",,,,,,,,,,
html-keyboard-response,187,437263,0.0-12.0-0.17,615b41767003d4ece749ed9d,650c16f0f2faf8d7a0d14c09,651c1e91694be42023551af4,null,null,"<p style=""font-size: 60px; font-family: BACS"">YadrkYL</p>",,,,,,,,,,
html-keyboard-response,188,438270,0.0-12.0-0.18,615b41767003d4ece749ed9d,650c16f0f2faf8d7a0d14c09,651c1e91694be42023551af4,null,null,"<p style=""font-size: 60px; font-family: BACS"">cRElDcMRl</p>",,,,,,,,,,
html-keyboard-response,189,439272,0.0-12.0-0.19,615b41767003d4ece749ed9d,650c16f0f2faf8d7a0d14c09,651c1e91694be42023551af4,null,null,"<p style=""font-size: 60px; font-family: BACS"">rvUbOcZJ</p>",,,,,,,,,,
html-keyboard-response,190,440279,0.0-12.0-0.20,615b41767003d4ece749ed9d,650c16f0f2faf8d7a0d14c09,651c1e91694be42023551af4,null,null,"<p style=""font-size: 60px; font-family: BACS"">dvNvAkYL</p>",,,,,,,,,,
html-keyboard-response,191,441293,0.0-12.0-0.21,615b41767003d4ece749ed9d,650c16f0f2faf8d7a0d14c09,651c1e91694be42023551af4,null,null,"<p style=""font-size: 60px; font-family: BACS"">hCktTRK</p>",,,,,,,,,,
html-keyboard-response,192,442302,0.0-12.0-0.22,615b41767003d4ece749ed9d,650c16f0f2faf8d7a0d14c09,651c1e91694be42023551af4,null,null,"<p style=""font-size: 60px; font-family: BACS"">vblrkYL</p>",,,,,,,,,,
html-keyboard-response,193,443315,0.0-12.0-0.23,615b41767003d4ece749ed9d,650c16f0f2faf8d7a0d14c09,651c1e91694be42023551af4,null,null,"<p style=""font-size: 60px; font-family: BACS"">JauQOcZJ</p>",,,,,,,,,,
html-keyboard-response,194,444318,0.0-12.0-0.24,615b41767003d4ece749ed9d,650c16f0f2faf8d7a0d14c09,651c1e91694be42023551af4,null,null,"<p style=""font-size: 60px; font-family: BACS"">vblrkmU</p>",,,,,,,,,,
html-keyboard-response,195,445323,0.0-12.0-0.25,615b41767003d4ece749ed9d,650c16f0f2faf8d7a0d14c09,651c1e91694be42023551af4,null,null,"<p style=""font-size: 60px; font-family: BACS"">LdrbvkGua</p>",,,,,,,,,,
html-keyboard-response,196,446326,0.0-12.0-0.26,615b41767003d4ece749ed9d,650c16f0f2faf8d7a0d14c09,651c1e91694be42023551af4,null,null,"<p style=""font-size: 60px; font-family: BACS"">CkBOPKEdl</p>",,,,,,,,,,
html-keyboard-response,197,447335,0.0-12.0-0.27,615b41767003d4ece749ed9d,650c16f0f2faf8d7a0d14c09,651c1e91694be42023551af4,null,null,"<p style=""font-size: 60px; font-family: BACS"">JdOAYUZu</p>",,,,,,,,,,
html-keyboard-response,198,448351,0.0-12.0-0.28,615b41767003d4ece749ed9d,650c16f0f2faf8d7a0d14c09,651c1e91694be42023551af4,null,null,"<p style=""font-size: 60px; font-family: BACS"">DhCPmCd</p>",,,,,,,,,,
html-keyboard-response,199,449353,0.0-12.0-0.29,615b41767003d4ece749ed9d,650c16f0f2faf8d7a0d14c09,651c1e91694be42023551af4,null,null,"<p style=""font-size: 60px; font-family: BACS"">CkBOPTRK</p>",,,,,,,,,,
html-keyboard-response,200,450361,0.0-12.0-0.30,615b41767003d4ece749ed9d,650c16f0f2faf8d7a0d14c09,651c1e91694be42023551af4,null,null,"<p style=""font-size: 60px; font-family: BACS"">AZaJckmU</p>",,,,,,,,,,
html-keyboard-response,201,451373,0.0-12.0-0.31,615b41767003d4ece749ed9d,650c16f0f2faf8d7a0d14c09,651c1e91694be42023551af4,null,null,"<p style=""font-size: 60px; font-family: BACS"">DhCPTRK</p>",,,,,,,,,,
html-keyboard-response,202,452379,0.0-12.0-0.32,615b41767003d4ece749ed9d,650c16f0f2faf8d7a0d14c09,651c1e91694be42023551af4,null,null,"<p style=""font-size: 60px; font-family: BACS"">CkBOPbdtK</p>",,,,,,,,,,
html-keyboard-response,203,453387,0.0-12.0-0.33,615b41767003d4ece749ed9d,650c16f0f2faf8d7a0d14c09,651c1e91694be42023551af4,null,null,"<p style=""font-size: 60px; font-family: BACS"">mbZlkGua</p>",,,,,,,,,,
html-keyboard-response,204,454399,0.0-12.0-0.34,615b41767003d4ece749ed9d,650c16f0f2faf8d7a0d14c09,651c1e91694be42023551af4,null,null,"<p style=""font-size: 60px; font-family: BACS"">hCktKEdl</p>",,,,,,,,,,
html-keyboard-response,205,455401,0.0-12.0-0.35,615b41767003d4ece749ed9d,650c16f0f2faf8d7a0d14c09,651c1e91694be42023551af4,null,null,"<p style=""font-size: 60px; font-family: BACS"">LdrbvkmU</p>",,,,,,,,,,
html-keyboard-response,206,456416,0.0-12.0-0.36,615b41767003d4ece749ed9d,650c16f0f2faf8d7a0d14c09,651c1e91694be42023551af4,null,null,"<p style=""font-size: 60px; font-family: BACS"">btlckTRK</p>",,,,,,,,,,
html-keyboard-response,207,457431,0.0-12.0-0.37,615b41767003d4ece749ed9d,650c16f0f2faf8d7a0d14c09,651c1e91694be42023551af4,null,null,"<p style=""font-size: 60px; font-family: BACS"">dKDthmCd</p>",,,,,,,,,,
html-keyboard-response,208,458447,0.0-12.0-0.38,615b41767003d4ece749ed9d,650c16f0f2faf8d7a0d14c09,651c1e91694be42023551af4,null,null,"<p style=""font-size: 60px; font-family: BACS"">rvUbkGua</p>",,,,,,,,,,
html-keyboard-response,209,459462,0.0-12.0-0.39,615b41767003d4ece749ed9d,650c16f0f2faf8d7a0d14c09,651c1e91694be42023551af4,null,null,"<p style=""font-size: 60px; font-family: BACS"">mbZlOcZJ</p>",,,,,,,,,,
html-keyboard-response,210,460463,0.0-12.0-0.40,615b41767003d4ece749ed9d,650c16f0f2faf8d7a0d14c09,651c1e91694be42023551af4,null,null,"<p style=""font-size: 60px; font-family: BACS"">dvNvAUZu</p>",,,,,,,,,,
html-keyboard-response,211,461477,0.0-12.0-0.41,615b41767003d4ece749ed9d,650c16f0f2faf8d7a0d14c09,651c1e91694be42023551af4,null,null,"<p style=""font-size: 60px; font-family: BACS"">AZaJckGua</p>",,,,,,,,,,
html-keyboard-response,212,462479,0.0-12.0-0.42,615b41767003d4ece749ed9d,650c16f0f2faf8d7a0d14c09,651c1e91694be42023551af4,null,null,"<p style=""font-size: 60px; font-family: BACS"">CkBOPmCd</p>",,,,,,,,,,
html-keyboard-response,213,463495,0.0-12.0-0.43,615b41767003d4ece749ed9d,650c16f0f2faf8d7a0d14c09,651c1e91694be42023551af4,null,null,"<p style=""font-size: 60px; font-family: BACS"">YadrkmU</p>",,,,,,,,,,
html-keyboard-response,214,464498,0.0-12.0-0.44,615b41767003d4ece749ed9d,650c16f0f2faf8d7a0d14c09,651c1e91694be42023551af4,null,null,"<p style=""font-size: 60px; font-family: BACS"">dKDthTRK</p>",,,,,,,,,,
html-keyboard-response,215,465502,0.0-12.0-0.45,615b41767003d4ece749ed9d,650c16f0f2faf8d7a0d14c09,651c1e91694be42023551af4,null,null,"<p style=""font-size: 60px; font-family: BACS"">rvUbkYL</p>",,,,,,,,,,
html-keyboard-response,216,466508,0.0-12.0-0.46,615b41767003d4ece749ed9d,650c16f0f2faf8d7a0d14c09,651c1e91694be42023551af4,null,null,"<p style=""font-size: 60px; font-family: BACS"">YadrkGua</p>",,,,,,,,,,
html-keyboard-response,217,467524,0.0-12.0-0.47,615b41767003d4ece749ed9d,650c16f0f2faf8d7a0d14c09,651c1e91694be42023551af4,null,null,"<p style=""font-size: 60px; font-family: BACS"">AZaJcUZu</p>",,,,,,,,,,
html-keyboard-response,218,468540,0.0-12.0-0.48,615b41767003d4ece749ed9d,650c16f0f2faf8d7a0d14c09,651c1e91694be42023551af4,null,null,"<p style=""font-size: 60px; font-family: BACS"">KAERMKEdl</p>",,,,,,,,,,
html-keyboard-response,219,469556,0.0-12.0-0.49,615b41767003d4ece749ed9d,650c16f0f2faf8d7a0d14c09,651c1e91694be42023551af4,null,null,"<p style=""font-size: 60px; font-family: BACS"">NkUAkGua</p>",,,,,,,,,,
html-keyboard-response,220,470558,0.0-12.0-0.50,615b41767003d4ece749ed9d,650c16f0f2faf8d7a0d14c09,651c1e91694be42023551af4,null,null,"<p style=""font-size: 60px; font-family: BACS"">lRCBmCd</p>",,,,,,,,,,
html-keyboard-response,221,471561,0.0-12.0-0.51,615b41767003d4ece749ed9d,650c16f0f2faf8d7a0d14c09,651c1e91694be42023551af4,null,null,"<p style=""font-size: 60px; font-family: BACS"">JauQkYL</p>",,,,,,,,,,
html-keyboard-response,222,472563,0.0-12.0-0.52,615b41767003d4ece749ed9d,650c16f0f2faf8d7a0d14c09,651c1e91694be42023551af4,null,null,"<p style=""font-size: 60px; font-family: BACS"">cRElDKEdl</p>",,,,,,,,,,
html-keyboard-response,223,473580,0.0-12.0-0.53,615b41767003d4ece749ed9d,650c16f0f2faf8d7a0d14c09,651c1e91694be42023551af4,null,null,"<p style=""font-size: 60px; font-family: BACS"">dvNvAkGua</p>",,,,,,,,,,
html-keyboard-response,224,474597,0.0-12.0-0.54,615b41767003d4ece749ed9d,650c16f0f2faf8d7a0d14c09,651c1e91694be42023551af4,null,null,"<p style=""font-size: 60px; font-family: BACS"">JdOAYOcZJ</p>",,,,,,,,,,
html-keyboard-response,225,475607,0.0-12.0-0.55,615b41767003d4ece749ed9d,650c16f0f2faf8d7a0d14c09,651c1e91694be42023551af4,null,null,"<p style=""font-size: 60px; font-family: BACS"">ABPRBmCd</p>",,,,,,,,,,
html-keyboard-response,226,476618,0.0-12.0-0.56,615b41767003d4ece749ed9d,650c16f0f2faf8d7a0d14c09,651c1e91694be42023551af4,null,null,"<p style=""font-size: 60px; font-family: BACS"">DhCPbdtK</p>",,,,,,,,,,
html-keyboard-response,227,477634,0.0-12.0-0.57,615b41767003d4ece749ed9d,650c16f0f2faf8d7a0d14c09,651c1e91694be42023551af4,null,null,"<p style=""font-size: 60px; font-family: BACS"">OdYPKEdl</p>",,,,,,,,,,
html-keyboard-response,228,478647,0.0-12.0-0.58,615b41767003d4ece749ed9d,650c16f0f2faf8d7a0d14c09,651c1e91694be42023551af4,null,null,"<p style=""font-size: 60px; font-family: BACS"">ABPRBbdtK</p>",,,,,,,,,,
html-keyboard-response,229,479649,0.0-12.0-0.59,615b41767003d4ece749ed9d,650c16f0f2faf8d7a0d14c09,651c1e91694be42023551af4,null,null,"<p style=""font-size: 60px; font-family: BACS"">mbZlUZu</p>",,,,,,,,,,
html-keyboard-response,230,480651,0.0-12.0-0.60,615b41767003d4ece749ed9d,650c16f0f2faf8d7a0d14c09,651c1e91694be42023551af4,null,null,"<p style=""font-size: 60px; font-family: BACS"">ABPRBKEdl</p>",,,,,,,,,,
html-keyboard-response,231,481652,0.0-12.0-0.61,615b41767003d4ece749ed9d,650c16f0f2faf8d7a0d14c09,651c1e91694be42023551af4,null,null,"<p style=""font-size: 60px; font-family: BACS"">cRElDmCd</p>",,,,,,,,,,
html-keyboard-response,232,482657,0.0-12.0-0.62,615b41767003d4ece749ed9d,650c16f0f2faf8d7a0d14c09,651c1e91694be42023551af4,null,null,"<p style=""font-size: 60px; font-family: BACS"">dKDthKEdl</p>",,,,,,,,,,
html-keyboard-response,233,483662,0.0-12.0-0.63,615b41767003d4ece749ed9d,650c16f0f2faf8d7a0d14c09,651c1e91694be42023551af4,null,null,"<p style=""font-size: 60px; font-family: BACS"">NkUAkYL</p>",,,,,,,,,,
html-keyboard-response,234,484665,0.0-12.0-0.64,615b41767003d4ece749ed9d,650c16f0f2faf8d7a0d14c09,651c1e91694be42023551af4,null,null,"<p style=""font-size: 60px; font-family: BACS"">ABPRBcMRl</p>",,,,,,,,,,
html-keyboard-response,235,485667,0.0-12.0-0.65,615b41767003d4ece749ed9d,650c16f0f2faf8d7a0d14c09,651c1e91694be42023551af4,null,null,"<p style=""font-size: 60px; font-family: BACS"">LdrbvUZu</p>",,,,,,,,,,
html-keyboard-response,236,486674,0.0-12.0-0.66,615b41767003d4ece749ed9d,650c16f0f2faf8d7a0d14c09,651c1e91694be42023551af4,null,null,"<p style=""font-size: 60px; font-family: BACS"">btlckcMRl</p>",,,,,,,,,,
html-keyboard-response,237,487682,0.0-12.0-0.67,615b41767003d4ece749ed9d,650c16f0f2faf8d7a0d14c09,651c1e91694be42023551af4,null,null,"<p style=""font-size: 60px; font-family: BACS"">NkUAkmU</p>",,,,,,,,,,
html-keyboard-response,238,488683,0.0-12.0-0.68,615b41767003d4ece749ed9d,650c16f0f2faf8d7a0d14c09,651c1e91694be42023551af4,null,null,"<p style=""font-size: 60px; font-family: BACS"">OdYPbdtK</p>",,,,,,,,,,
html-keyboard-response,239,489694,0.0-12.0-0.69,615b41767003d4ece749ed9d,650c16f0f2faf8d7a0d14c09,651c1e91694be42023551af4,null,null,"<p style=""font-size: 60px; font-family: BACS"">lRCBcMRl</p>",,,,,,,,,,
html-keyboard-response,240,490709,0.0-12.0-0.70,615b41767003d4ece749ed9d,650c16f0f2faf8d7a0d14c09,651c1e91694be42023551af4,null,null,"<p style=""font-size: 60px; font-family: BACS"">NkUAOcZJ</p>",,,,,,,,,,
html-keyboard-response,241,491714,0.0-12.0-0.71,615b41767003d4ece749ed9d,650c16f0f2faf8d7a0d14c09,651c1e91694be42023551af4,null,null,"<p style=""font-size: 60px; font-family: BACS"">KAERMbdtK</p>",,,,,,,,,,
html-keyboard-response,242,492722,0.0-12.0-0.72,615b41767003d4ece749ed9d,650c16f0f2faf8d7a0d14c09,651c1e91694be42023551af4,null,null,"<p style=""font-size: 60px; font-family: BACS"">btlckKEdl</p>",,,,,,,,,,
html-keyboard-response,243,493733,0.0-12.0-0.73,615b41767003d4ece749ed9d,650c16f0f2faf8d7a0d14c09,651c1e91694be42023551af4,null,null,"<p style=""font-size: 60px; font-family: BACS"">DhCPcMRl</p>",,,,,,,,,,
html-keyboard-response,244,494740,0.0-12.0-0.74,615b41767003d4ece749ed9d,650c16f0f2faf8d7a0d14c09,651c1e91694be42023551af4,null,null,"<p style=""font-size: 60px; font-family: BACS"">JauQUZu</p>",,,,,,,,,,
html-keyboard-response,245,495746,0.0-12.0-0.75,615b41767003d4ece749ed9d,650c16f0f2faf8d7a0d14c09,651c1e91694be42023551af4,null,null,"<p style=""font-size: 60px; font-family: BACS"">hCktcMRl</p>",,,,,,,,,,
html-keyboard-response,246,496751,0.0-12.0-0.76,615b41767003d4ece749ed9d,650c16f0f2faf8d7a0d14c09,651c1e91694be42023551af4,null,null,"<p style=""font-size: 60px; font-family: BACS"">rvUbUZu</p>",,,,,,,,,,
html-keyboard-response,247,497753,0.0-12.0-0.77,615b41767003d4ece749ed9d,650c16f0f2faf8d7a0d14c09,651c1e91694be42023551af4,null,null,"<p style=""font-size: 60px; font-family: BACS"">OdYPcMRl</p>",,,,,,,,,,
html-keyboard-response,248,498766,0.0-12.0-0.78,615b41767003d4ece749ed9d,650c16f0f2faf8d7a0d14c09,651c1e91694be42023551af4,null,null,"<p style=""font-size: 60px; font-family: BACS"">JdOAYkmU</p>",,,,,,,,,,
html-keyboard-response,249,499768,0.0-12.0-0.79,615b41767003d4ece749ed9d,650c16f0f2faf8d7a0d14c09,651c1e91694be42023551af4,null,null,"<p style=""font-size: 60px; font-family: BACS"">dKDthcMRl</p>",,,,,,,,,,
html-keyboard-response,250,503597,0.0-13.0,615b41767003d4ece749ed9d,650c16f0f2faf8d7a0d14c09,651c1e91694be42023551af4,3828, ,"<p>Great, you've seen the third block of words. You may now take a short break.</p>
      <p>Press the spacebar when you're ready to continue.</p>",,,,,,,,,,
html-keyboard-response,251,504609,0.0-14.0-0.0,615b41767003d4ece749ed9d,650c16f0f2faf8d7a0d14c09,651c1e91694be42023551af4,null,null,"<p style=""font-size: 60px; font-family: BACS"">mbZlUZu</p>",,,,,,,,,,
html-keyboard-response,252,505617,0.0-14.0-0.1,615b41767003d4ece749ed9d,650c16f0f2faf8d7a0d14c09,651c1e91694be42023551af4,null,null,"<p style=""font-size: 60px; font-family: BACS"">OdYPmCd</p>",,,,,,,,,,
html-keyboard-response,253,506633,0.0-14.0-0.2,615b41767003d4ece749ed9d,650c16f0f2faf8d7a0d14c09,651c1e91694be42023551af4,null,null,"<p style=""font-size: 60px; font-family: BACS"">KAERMTRK</p>",,,,,,,,,,
html-keyboard-response,254,507639,0.0-14.0-0.3,615b41767003d4ece749ed9d,650c16f0f2faf8d7a0d14c09,651c1e91694be42023551af4,null,null,"<p style=""font-size: 60px; font-family: BACS"">hCktKEdl</p>",,,,,,,,,,
html-keyboard-response,255,508641,0.0-14.0-0.4,615b41767003d4ece749ed9d,650c16f0f2faf8d7a0d14c09,651c1e91694be42023551af4,null,null,"<p style=""font-size: 60px; font-family: BACS"">DhCPmCd</p>",,,,,,,,,,
html-keyboard-response,256,509651,0.0-14.0-0.5,615b41767003d4ece749ed9d,650c16f0f2faf8d7a0d14c09,651c1e91694be42023551af4,null,null,"<p style=""font-size: 60px; font-family: BACS"">KAERMKEdl</p>",,,,,,,,,,
html-keyboard-response,257,510654,0.0-14.0-0.6,615b41767003d4ece749ed9d,650c16f0f2faf8d7a0d14c09,651c1e91694be42023551af4,null,null,"<p style=""font-size: 60px; font-family: BACS"">CkBOPbdtK</p>",,,,,,,,,,
html-keyboard-response,258,511665,0.0-14.0-0.7,615b41767003d4ece749ed9d,650c16f0f2faf8d7a0d14c09,651c1e91694be42023551af4,null,null,"<p style=""font-size: 60px; font-family: BACS"">cRElDcMRl</p>",,,,,,,,,,
html-keyboard-response,259,512666,0.0-14.0-0.8,615b41767003d4ece749ed9d,650c16f0f2faf8d7a0d14c09,651c1e91694be42023551af4,null,null,"<p style=""font-size: 60px; font-family: BACS"">NkUAkYL</p>",,,,,,,,,,
html-keyboard-response,260,513673,0.0-14.0-0.9,615b41767003d4ece749ed9d,650c16f0f2faf8d7a0d14c09,651c1e91694be42023551af4,null,null,"<p style=""font-size: 60px; font-family: BACS"">YadrkGua</p>",,,,,,,,,,
html-keyboard-response,261,514688,0.0-14.0-0.10,615b41767003d4ece749ed9d,650c16f0f2faf8d7a0d14c09,651c1e91694be42023551af4,null,null,"<p style=""font-size: 60px; font-family: BACS"">dKDthcMRl</p>",,,,,,,,,,
html-keyboard-response,262,515690,0.0-14.0-0.11,615b41767003d4ece749ed9d,650c16f0f2faf8d7a0d14c09,651c1e91694be42023551af4,null,null,"<p style=""font-size: 60px; font-family: BACS"">mbZlOcZJ</p>",,,,,,,,,,
html-keyboard-response,263,516692,0.0-14.0-0.12,615b41767003d4ece749ed9d,650c16f0f2faf8d7a0d14c09,651c1e91694be42023551af4,null,null,"<p style=""font-size: 60px; font-family: BACS"">ABPRBKEdl</p>",,,,,,,,,,
html-keyboard-response,264,517697,0.0-14.0-0.13,615b41767003d4ece749ed9d,650c16f0f2faf8d7a0d14c09,651c1e91694be42023551af4,null,null,"<p style=""font-size: 60px; font-family: BACS"">dvNvAOcZJ</p>",,,,,,,,,,
html-keyboard-response,265,518708,0.0-14.0-0.14,615b41767003d4ece749ed9d,650c16f0f2faf8d7a0d14c09,651c1e91694be42023551af4,null,null,"<p style=""font-size: 60px; font-family: BACS"">YadrkmU</p>",,,,,,,,,,
html-keyboard-response,266,519725,0.0-14.0-0.15,615b41767003d4ece749ed9d,650c16f0f2faf8d7a0d14c09,651c1e91694be42023551af4,null,null,"<p style=""font-size: 60px; font-family: BACS"">rvUbkYL</p>",,,,,,,,,,
html-keyboard-response,267,520737,0.0-14.0-0.16,615b41767003d4ece749ed9d,650c16f0f2faf8d7a0d14c09,651c1e91694be42023551af4,null,null,"<p style=""font-size: 60px; font-family: BACS"">LdrbvUZu</p>",,,,,,,,,,
html-keyboard-response,268,521739,0.0-14.0-0.17,615b41767003d4ece749ed9d,650c16f0f2faf8d7a0d14c09,651c1e91694be42023551af4,null,null,"<p style=""font-size: 60px; font-family: BACS"">btlckcMRl</p>",,,,,,,,,,
html-keyboard-response,269,522750,0.0-14.0-0.18,615b41767003d4ece749ed9d,650c16f0f2faf8d7a0d14c09,651c1e91694be42023551af4,null,null,"<p style=""font-size: 60px; font-family: BACS"">AZaJcUZu</p>",,,,,,,,,,
html-keyboard-response,270,523766,0.0-14.0-0.19,615b41767003d4ece749ed9d,650c16f0f2faf8d7a0d14c09,651c1e91694be42023551af4,null,null,"<p style=""font-size: 60px; font-family: BACS"">dKDthTRK</p>",,,,,,,,,,
html-keyboard-response,271,524784,0.0-14.0-0.20,615b41767003d4ece749ed9d,650c16f0f2faf8d7a0d14c09,651c1e91694be42023551af4,null,null,"<p style=""font-size: 60px; font-family: BACS"">OdYPKEdl</p>",,,,,,,,,,
html-keyboard-response,272,525796,0.0-14.0-0.21,615b41767003d4ece749ed9d,650c16f0f2faf8d7a0d14c09,651c1e91694be42023551af4,null,null,"<p style=""font-size: 60px; font-family: BACS"">btlckbdtK</p>",,,,,,,,,,
html-keyboard-response,273,526810,0.0-14.0-0.22,615b41767003d4ece749ed9d,650c16f0f2faf8d7a0d14c09,651c1e91694be42023551af4,null,null,"<p style=""font-size: 60px; font-family: BACS"">KAERMmCd</p>",,,,,,,,,,
html-keyboard-response,274,527816,0.0-14.0-0.23,615b41767003d4ece749ed9d,650c16f0f2faf8d7a0d14c09,651c1e91694be42023551af4,null,null,"<p style=""font-size: 60px; font-family: BACS"">lRCBbdtK</p>",,,,,,,,,,
html-keyboard-response,275,528825,0.0-14.0-0.24,615b41767003d4ece749ed9d,650c16f0f2faf8d7a0d14c09,651c1e91694be42023551af4,null,null,"<p style=""font-size: 60px; font-family: BACS"">JdOAYOcZJ</p>",,,,,,,,,,
html-keyboard-response,276,529827,0.0-14.0-0.25,615b41767003d4ece749ed9d,650c16f0f2faf8d7a0d14c09,651c1e91694be42023551af4,null,null,"<p style=""font-size: 60px; font-family: BACS"">btlckTRK</p>",,,,,,,,,,
html-keyboard-response,277,530832,0.0-14.0-0.26,615b41767003d4ece749ed9d,650c16f0f2faf8d7a0d14c09,651c1e91694be42023551af4,null,null,"<p style=""font-size: 60px; font-family: BACS"">OdYPbdtK</p>",,,,,,,,,,
html-keyboard-response,278,531837,0.0-14.0-0.27,615b41767003d4ece749ed9d,650c16f0f2faf8d7a0d14c09,651c1e91694be42023551af4,null,null,"<p style=""font-size: 60px; font-family: BACS"">dKDthKEdl</p>",,,,,,,,,,
html-keyboard-response,279,532839,0.0-14.0-0.28,615b41767003d4ece749ed9d,650c16f0f2faf8d7a0d14c09,651c1e91694be42023551af4,null,null,"<p style=""font-size: 60px; font-family: BACS"">JdOAYUZu</p>",,,,,,,,,,
html-keyboard-response,280,533850,0.0-14.0-0.29,615b41767003d4ece749ed9d,650c16f0f2faf8d7a0d14c09,651c1e91694be42023551af4,null,null,"<p style=""font-size: 60px; font-family: BACS"">LdrbvkmU</p>",,,,,,,,,,
html-keyboard-response,281,534854,0.0-14.0-0.30,615b41767003d4ece749ed9d,650c16f0f2faf8d7a0d14c09,651c1e91694be42023551af4,null,null,"<p style=""font-size: 60px; font-family: BACS"">vblrkGua</p>",,,,,,,,,,
html-keyboard-response,282,535864,0.0-14.0-0.31,615b41767003d4ece749ed9d,650c16f0f2faf8d7a0d14c09,651c1e91694be42023551af4,null,null,"<p style=""font-size: 60px; font-family: BACS"">YadrOcZJ</p>",,,,,,,,,,
html-keyboard-response,283,536869,0.0-14.0-0.32,615b41767003d4ece749ed9d,650c16f0f2faf8d7a0d14c09,651c1e91694be42023551af4,null,null,"<p style=""font-size: 60px; font-family: BACS"">lRCBcMRl</p>",,,,,,,,,,
html-keyboard-response,284,537871,0.0-14.0-0.33,615b41767003d4ece749ed9d,650c16f0f2faf8d7a0d14c09,651c1e91694be42023551af4,null,null,"<p style=""font-size: 60px; font-family: BACS"">NkUAkmU</p>",,,,,,,,,,
html-keyboard-response,285,538873,0.0-14.0-0.34,615b41767003d4ece749ed9d,650c16f0f2faf8d7a0d14c09,651c1e91694be42023551af4,null,null,"<p style=""font-size: 60px; font-family: BACS"">LdrbvkGua</p>",,,,,,,,,,
html-keyboard-response,286,539884,0.0-14.0-0.35,615b41767003d4ece749ed9d,650c16f0f2faf8d7a0d14c09,651c1e91694be42023551af4,null,null,"<p style=""font-size: 60px; font-family: BACS"">vblrkYL</p>",,,,,,,,,,
html-keyboard-response,287,540893,0.0-14.0-0.36,615b41767003d4ece749ed9d,650c16f0f2faf8d7a0d14c09,651c1e91694be42023551af4,null,null,"<p style=""font-size: 60px; font-family: BACS"">NkUAOcZJ</p>",,,,,,,,,,
html-keyboard-response,288,541904,0.0-14.0-0.37,615b41767003d4ece749ed9d,650c16f0f2faf8d7a0d14c09,651c1e91694be42023551af4,null,null,"<p style=""font-size: 60px; font-family: BACS"">CkBOPTRK</p>",,,,,,,,,,
html-keyboard-response,289,542917,0.0-14.0-0.38,615b41767003d4ece749ed9d,650c16f0f2faf8d7a0d14c09,651c1e91694be42023551af4,null,null,"<p style=""font-size: 60px; font-family: BACS"">AZaJckmU</p>",,,,,,,,,,
html-keyboard-response,290,543933,0.0-14.0-0.39,615b41767003d4ece749ed9d,650c16f0f2faf8d7a0d14c09,651c1e91694be42023551af4,null,null,"<p style=""font-size: 60px; font-family: BACS"">hCktcMRl</p>",,,,,,,,,,
html-keyboard-response,291,544938,0.0-14.0-0.40,615b41767003d4ece749ed9d,650c16f0f2faf8d7a0d14c09,651c1e91694be42023551af4,null,null,"<p style=""font-size: 60px; font-family: BACS"">ABPRBbdtK</p>",,,,,,,,,,
html-keyboard-response,292,545949,0.0-14.0-0.41,615b41767003d4ece749ed9d,650c16f0f2faf8d7a0d14c09,651c1e91694be42023551af4,null,null,"<p style=""font-size: 60px; font-family: BACS"">YadrkYL</p>",,,,,,,,,,
html-keyboard-response,293,546962,0.0-14.0-0.42,615b41767003d4ece749ed9d,650c16f0f2faf8d7a0d14c09,651c1e91694be42023551af4,null,null,"<p style=""font-size: 60px; font-family: BACS"">NkUAkGua</p>",,,,,,,,,,
html-keyboard-response,294,547976,0.0-14.0-0.43,615b41767003d4ece749ed9d,650c16f0f2faf8d7a0d14c09,651c1e91694be42023551af4,null,null,"<p style=""font-size: 60px; font-family: BACS"">JdOAYkYL</p>",,,,,,,,,,
html-keyboard-response,295,548991,0.0-14.0-0.44,615b41767003d4ece749ed9d,650c16f0f2faf8d7a0d14c09,651c1e91694be42023551af4,null,null,"<p style=""font-size: 60px; font-family: BACS"">mbZlkGua</p>",,,,,,,,,,
html-keyboard-response,296,550002,0.0-14.0-0.45,615b41767003d4ece749ed9d,650c16f0f2faf8d7a0d14c09,651c1e91694be42023551af4,null,null,"<p style=""font-size: 60px; font-family: BACS"">ABPRBmCd</p>",,,,,,,,,,
html-keyboard-response,297,551019,0.0-14.0-0.46,615b41767003d4ece749ed9d,650c16f0f2faf8d7a0d14c09,651c1e91694be42023551af4,null,null,"<p style=""font-size: 60px; font-family: BACS"">JauQkYL</p>",,,,,,,,,,
html-keyboard-response,298,552030,0.0-14.0-0.47,615b41767003d4ece749ed9d,650c16f0f2faf8d7a0d14c09,651c1e91694be42023551af4,null,null,"<p style=""font-size: 60px; font-family: BACS"">dKDthmCd</p>",,,,,,,,,,
html-keyboard-response,299,553041,0.0-14.0-0.48,615b41767003d4ece749ed9d,650c16f0f2faf8d7a0d14c09,651c1e91694be42023551af4,null,null,"<p style=""font-size: 60px; font-family: BACS"">DhCPTRK</p>",,,,,,,,,,
html-keyboard-response,300,554053,0.0-14.0-0.49,615b41767003d4ece749ed9d,650c16f0f2faf8d7a0d14c09,651c1e91694be42023551af4,null,null,"<p style=""font-size: 60px; font-family: BACS"">vblrkmU</p>",,,,,,,,,,
html-keyboard-response,301,555070,0.0-14.0-0.50,615b41767003d4ece749ed9d,650c16f0f2faf8d7a0d14c09,651c1e91694be42023551af4,null,null,"<p style=""font-size: 60px; font-family: BACS"">cRElDTRK</p>",,,,,,,,,,
html-keyboard-response,302,556081,0.0-14.0-0.51,615b41767003d4ece749ed9d,650c16f0f2faf8d7a0d14c09,651c1e91694be42023551af4,null,null,"<p style=""font-size: 60px; font-family: BACS"">rvUbkGua</p>",,,,,,,,,,
html-keyboard-response,303,557084,0.0-14.0-0.52,615b41767003d4ece749ed9d,650c16f0f2faf8d7a0d14c09,651c1e91694be42023551af4,null,null,"<p style=""font-size: 60px; font-family: BACS"">btlckKEdl</p>",,,,,,,,,,
html-keyboard-response,304,558085,0.0-14.0-0.53,615b41767003d4ece749ed9d,650c16f0f2faf8d7a0d14c09,651c1e91694be42023551af4,null,null,"<p style=""font-size: 60px; font-family: BACS"">vblrUZu</p>",,,,,,,,,,
html-keyboard-response,305,559098,0.0-14.0-0.54,615b41767003d4ece749ed9d,650c16f0f2faf8d7a0d14c09,651c1e91694be42023551af4,null,null,"<p style=""font-size: 60px; font-family: BACS"">lRCBTRK</p>",,,,,,,,,,
html-keyboard-response,306,560101,0.0-14.0-0.55,615b41767003d4ece749ed9d,650c16f0f2faf8d7a0d14c09,651c1e91694be42023551af4,null,null,"<p style=""font-size: 60px; font-family: BACS"">ABPRBcMRl</p>",,,,,,,,,,
html-keyboard-response,307,561115,0.0-14.0-0.56,615b41767003d4ece749ed9d,650c16f0f2faf8d7a0d14c09,651c1e91694be42023551af4,null,null,"<p style=""font-size: 60px; font-family: BACS"">rvUbOcZJ</p>",,,,,,,,,,
html-keyboard-response,308,562120,0.0-14.0-0.57,615b41767003d4ece749ed9d,650c16f0f2faf8d7a0d14c09,651c1e91694be42023551af4,null,null,"<p style=""font-size: 60px; font-family: BACS"">lRCBmCd</p>",,,,,,,,,,
html-keyboard-response,309,563136,0.0-14.0-0.58,615b41767003d4ece749ed9d,650c16f0f2faf8d7a0d14c09,651c1e91694be42023551af4,null,null,"<p style=""font-size: 60px; font-family: BACS"">AZaJckGua</p>",,,,,,,,,,
html-keyboard-response,310,564141,0.0-14.0-0.59,615b41767003d4ece749ed9d,650c16f0f2faf8d7a0d14c09,651c1e91694be42023551af4,null,null,"<p style=""font-size: 60px; font-family: BACS"">hCktbdtK</p>",,,,,,,,,,
html-keyboard-response,311,565158,0.0-14.0-0.60,615b41767003d4ece749ed9d,650c16f0f2faf8d7a0d14c09,651c1e91694be42023551af4,null,null,"<p style=""font-size: 60px; font-family: BACS"">dvNvAkGua</p>",,,,,,,,,,
html-keyboard-response,312,566161,0.0-14.0-0.61,615b41767003d4ece749ed9d,650c16f0f2faf8d7a0d14c09,651c1e91694be42023551af4,null,null,"<p style=""font-size: 60px; font-family: BACS"">CkBOPKEdl</p>",,,,,,,,,,
html-keyboard-response,313,567168,0.0-14.0-0.62,615b41767003d4ece749ed9d,650c16f0f2faf8d7a0d14c09,651c1e91694be42023551af4,null,null,"<p style=""font-size: 60px; font-family: BACS"">JauQOcZJ</p>",,,,,,,,,,
html-keyboard-response,314,568170,0.0-14.0-0.63,615b41767003d4ece749ed9d,650c16f0f2faf8d7a0d14c09,651c1e91694be42023551af4,null,null,"<p style=""font-size: 60px; font-family: BACS"">mbZlkmU</p>",,,,,,,,,,
html-keyboard-response,315,569180,0.0-14.0-0.64,615b41767003d4ece749ed9d,650c16f0f2faf8d7a0d14c09,651c1e91694be42023551af4,null,null,"<p style=""font-size: 60px; font-family: BACS"">LdrbvkYL</p>",,,,,,,,,,
html-keyboard-response,316,570183,0.0-14.0-0.65,615b41767003d4ece749ed9d,650c16f0f2faf8d7a0d14c09,651c1e91694be42023551af4,null,null,"<p style=""font-size: 60px; font-family: BACS"">CkBOPmCd</p>",,,,,,,,,,
html-keyboard-response,317,571185,0.0-14.0-0.66,615b41767003d4ece749ed9d,650c16f0f2faf8d7a0d14c09,651c1e91694be42023551af4,null,null,"<p style=""font-size: 60px; font-family: BACS"">DhCPbdtK</p>",,,,,,,,,,
html-keyboard-response,318,572193,0.0-14.0-0.67,615b41767003d4ece749ed9d,650c16f0f2faf8d7a0d14c09,651c1e91694be42023551af4,null,null,"<p style=""font-size: 60px; font-family: BACS"">dvNvAkYL</p>",,,,,,,,,,
html-keyboard-response,319,573210,0.0-14.0-0.68,615b41767003d4ece749ed9d,650c16f0f2faf8d7a0d14c09,651c1e91694be42023551af4,null,null,"<p style=""font-size: 60px; font-family: BACS"">cRElDKEdl</p>",,,,,,,,,,
html-keyboard-response,320,574213,0.0-14.0-0.69,615b41767003d4ece749ed9d,650c16f0f2faf8d7a0d14c09,651c1e91694be42023551af4,null,null,"<p style=""font-size: 60px; font-family: BACS"">hCktTRK</p>",,,,,,,,,,
html-keyboard-response,321,575223,0.0-14.0-0.70,615b41767003d4ece749ed9d,650c16f0f2faf8d7a0d14c09,651c1e91694be42023551af4,null,null,"<p style=""font-size: 60px; font-family: BACS"">dvNvAUZu</p>",,,,,,,,,,
html-keyboard-response,322,576227,0.0-14.0-0.71,615b41767003d4ece749ed9d,650c16f0f2faf8d7a0d14c09,651c1e91694be42023551af4,null,null,"<p style=""font-size: 60px; font-family: BACS"">AZaJcOcZJ</p>",,,,,,,,,,
html-keyboard-response,323,577230,0.0-14.0-0.72,615b41767003d4ece749ed9d,650c16f0f2faf8d7a0d14c09,651c1e91694be42023551af4,null,null,"<p style=""font-size: 60px; font-family: BACS"">JauQkmU</p>",,,,,,,,,,
html-keyboard-response,324,578235,0.0-14.0-0.73,615b41767003d4ece749ed9d,650c16f0f2faf8d7a0d14c09,651c1e91694be42023551af4,null,null,"<p style=""font-size: 60px; font-family: BACS"">OdYPcMRl</p>",,,,,,,,,,
html-keyboard-response,325,579252,0.0-14.0-0.74,615b41767003d4ece749ed9d,650c16f0f2faf8d7a0d14c09,651c1e91694be42023551af4,null,null,"<p style=""font-size: 60px; font-family: BACS"">JauQUZu</p>",,,,,,,,,,
html-keyboard-response,326,580254,0.0-14.0-0.75,615b41767003d4ece749ed9d,650c16f0f2faf8d7a0d14c09,651c1e91694be42023551af4,null,null,"<p style=""font-size: 60px; font-family: BACS"">cRElDmCd</p>",,,,,,,,,,
html-keyboard-response,327,581259,0.0-14.0-0.76,615b41767003d4ece749ed9d,650c16f0f2faf8d7a0d14c09,651c1e91694be42023551af4,null,null,"<p style=""font-size: 60px; font-family: BACS"">JdOAYkmU</p>",,,,,,,,,,
html-keyboard-response,328,582261,0.0-14.0-0.77,615b41767003d4ece749ed9d,650c16f0f2faf8d7a0d14c09,651c1e91694be42023551af4,null,null,"<p style=""font-size: 60px; font-family: BACS"">rvUbUZu</p>",,,,,,,,,,
html-keyboard-response,329,583261,0.0-14.0-0.78,615b41767003d4ece749ed9d,650c16f0f2faf8d7a0d14c09,651c1e91694be42023551af4,null,null,"<p style=""font-size: 60px; font-family: BACS"">KAERMbdtK</p>",,,,,,,,,,
html-keyboard-response,330,584269,0.0-14.0-0.79,615b41767003d4ece749ed9d,650c16f0f2faf8d7a0d14c09,651c1e91694be42023551af4,null,null,"<p style=""font-size: 60px; font-family: BACS"">DhCPcMRl</p>",,,,,,,,,,
html-keyboard-response,331,586902,0.0-15.0,615b41767003d4ece749ed9d,650c16f0f2faf8d7a0d14c09,651c1e91694be42023551af4,2633, ,"<p>Great, you've seen the fourth block of words. You may now take a short break.</p>
      <p>Press the spacebar when you're ready to continue.</p>",,,,,,,,,,
html-keyboard-response,332,587910,0.0-16.0-0.0,615b41767003d4ece749ed9d,650c16f0f2faf8d7a0d14c09,651c1e91694be42023551af4,null,null,"<p style=""font-size: 60px; font-family: BACS"">ABPRBKEdl</p>",,,,,,,,,,
html-keyboard-response,333,588913,0.0-16.0-0.1,615b41767003d4ece749ed9d,650c16f0f2faf8d7a0d14c09,651c1e91694be42023551af4,null,null,"<p style=""font-size: 60px; font-family: BACS"">ABPRBKEdl</p>",,,,,,,,,,
html-keyboard-response,334,589929,0.0-16.0-0.2,615b41767003d4ece749ed9d,650c16f0f2faf8d7a0d14c09,651c1e91694be42023551af4,null,null,"<p style=""font-size: 60px; font-family: BACS"">ABPRBKEdl</p>",,,,,,,,,,
html-keyboard-response,335,590936,0.0-16.0-0.3,615b41767003d4ece749ed9d,650c16f0f2faf8d7a0d14c09,651c1e91694be42023551af4,null,null,"<p style=""font-size: 60px; font-family: BACS"">ABPRBKEdl</p>",,,,,,,,,,
html-keyboard-response,336,591938,0.0-16.0-0.4,615b41767003d4ece749ed9d,650c16f0f2faf8d7a0d14c09,651c1e91694be42023551af4,null,null,"<p style=""font-size: 60px; font-family: BACS"">ABPRBKEdl</p>",,,,,,,,,,
html-keyboard-response,337,592940,0.0-16.0-0.5,615b41767003d4ece749ed9d,650c16f0f2faf8d7a0d14c09,651c1e91694be42023551af4,null,null,"<p style=""font-size: 60px; font-family: BACS"">ABPRBKEdl</p>",,,,,,,,,,
html-keyboard-response,338,593942,0.0-16.0-0.6,615b41767003d4ece749ed9d,650c16f0f2faf8d7a0d14c09,651c1e91694be42023551af4,null,null,"<p style=""font-size: 60px; font-family: BACS"">ABPRBKEdl</p>",,,,,,,,,,
html-keyboard-response,339,594954,0.0-16.0-0.7,615b41767003d4ece749ed9d,650c16f0f2faf8d7a0d14c09,651c1e91694be42023551af4,null,null,"<p style=""font-size: 60px; font-family: BACS"">ABPRBKEdl</p>",,,,,,,,,,
html-keyboard-response,340,595971,0.0-16.0-0.8,615b41767003d4ece749ed9d,650c16f0f2faf8d7a0d14c09,651c1e91694be42023551af4,null,null,"<p style=""font-size: 60px; font-family: BACS"">ABPRBKEdl</p>",,,,,,,,,,
html-keyboard-response,341,596979,0.0-16.0-0.9,615b41767003d4ece749ed9d,650c16f0f2faf8d7a0d14c09,651c1e91694be42023551af4,null,null,"<p style=""font-size: 60px; font-family: BACS"">ABPRBKEdl</p>",,,,,,,,,,
html-keyboard-response,342,597993,0.0-16.0-0.10,615b41767003d4ece749ed9d,650c16f0f2faf8d7a0d14c09,651c1e91694be42023551af4,null,null,"<p style=""font-size: 60px; font-family: BACS"">ABPRBKEdl</p>",,,,,,,,,,
html-keyboard-response,343,599001,0.0-16.0-0.11,615b41767003d4ece749ed9d,650c16f0f2faf8d7a0d14c09,651c1e91694be42023551af4,null,null,"<p style=""font-size: 60px; font-family: BACS"">ABPRBKEdl</p>",,,,,,,,,,
html-keyboard-response,344,600002,0.0-16.0-0.12,615b41767003d4ece749ed9d,650c16f0f2faf8d7a0d14c09,651c1e91694be42023551af4,null,null,"<p style=""font-size: 60px; font-family: BACS"">ABPRBKEdl</p>",,,,,,,,,,
html-keyboard-response,345,601007,0.0-16.0-0.13,615b41767003d4ece749ed9d,650c16f0f2faf8d7a0d14c09,651c1e91694be42023551af4,null,null,"<p style=""font-size: 60px; font-family: BACS"">ABPRBKEdl</p>",,,,,,,,,,
html-keyboard-response,346,602017,0.0-16.0-0.14,615b41767003d4ece749ed9d,650c16f0f2faf8d7a0d14c09,651c1e91694be42023551af4,null,null,"<p style=""font-size: 60px; font-family: BACS"">ABPRBKEdl</p>",,,,,,,,,,
html-keyboard-response,347,603021,0.0-16.0-0.15,615b41767003d4ece749ed9d,650c16f0f2faf8d7a0d14c09,651c1e91694be42023551af4,null,null,"<p style=""font-size: 60px; font-family: BACS"">ABPRBKEdl</p>",,,,,,,,,,
html-keyboard-response,348,604023,0.0-16.0-0.16,615b41767003d4ece749ed9d,650c16f0f2faf8d7a0d14c09,651c1e91694be42023551af4,null,null,"<p style=""font-size: 60px; font-family: BACS"">ABPRBKEdl</p>",,,,,,,,,,
html-keyboard-response,349,605038,0.0-16.0-0.17,615b41767003d4ece749ed9d,650c16f0f2faf8d7a0d14c09,651c1e91694be42023551af4,null,null,"<p style=""font-size: 60px; font-family: BACS"">ABPRBKEdl</p>",,,,,,,,,,
html-keyboard-response,350,606040,0.0-16.0-0.18,615b41767003d4ece749ed9d,650c16f0f2faf8d7a0d14c09,651c1e91694be42023551af4,null,null,"<p style=""font-size: 60px; font-family: BACS"">ABPRBKEdl</p>",,,,,,,,,,
html-keyboard-response,351,607044,0.0-16.0-0.19,615b41767003d4ece749ed9d,650c16f0f2faf8d7a0d14c09,651c1e91694be42023551af4,null,null,"<p style=""font-size: 60px; font-family: BACS"">ABPRBKEdl</p>",,,,,,,,,,
html-keyboard-response,352,608054,0.0-16.0-0.20,615b41767003d4ece749ed9d,650c16f0f2faf8d7a0d14c09,651c1e91694be42023551af4,null,null,"<p style=""font-size: 60px; font-family: BACS"">ABPRBKEdl</p>",,,,,,,,,,
html-keyboard-response,353,609057,0.0-16.0-0.21,615b41767003d4ece749ed9d,650c16f0f2faf8d7a0d14c09,651c1e91694be42023551af4,null,null,"<p style=""font-size: 60px; font-family: BACS"">ABPRBKEdl</p>",,,,,,,,,,
html-keyboard-response,354,610062,0.0-16.0-0.22,615b41767003d4ece749ed9d,650c16f0f2faf8d7a0d14c09,651c1e91694be42023551af4,null,null,"<p style=""font-size: 60px; font-family: BACS"">ABPRBKEdl</p>",,,,,,,,,,
html-keyboard-response,355,611078,0.0-16.0-0.23,615b41767003d4ece749ed9d,650c16f0f2faf8d7a0d14c09,651c1e91694be42023551af4,null,null,"<p style=""font-size: 60px; font-family: BACS"">ABPRBKEdl</p>",,,,,,,,,,
html-keyboard-response,356,612084,0.0-16.0-0.24,615b41767003d4ece749ed9d,650c16f0f2faf8d7a0d14c09,651c1e91694be42023551af4,null,null,"<p style=""font-size: 60px; font-family: BACS"">ABPRBKEdl</p>",,,,,,,,,,
html-keyboard-response,357,613097,0.0-16.0-0.25,615b41767003d4ece749ed9d,650c16f0f2faf8d7a0d14c09,651c1e91694be42023551af4,null,null,"<p style=""font-size: 60px; font-family: BACS"">ABPRBKEdl</p>",,,,,,,,,,
html-keyboard-response,358,614102,0.0-16.0-0.26,615b41767003d4ece749ed9d,650c16f0f2faf8d7a0d14c09,651c1e91694be42023551af4,null,null,"<p style=""font-size: 60px; font-family: BACS"">ABPRBKEdl</p>",,,,,,,,,,
html-keyboard-response,359,615119,0.0-16.0-0.27,615b41767003d4ece749ed9d,650c16f0f2faf8d7a0d14c09,651c1e91694be42023551af4,null,null,"<p style=""font-size: 60px; font-family: BACS"">ABPRBKEdl</p>",,,,,,,,,,
html-keyboard-response,360,616125,0.0-16.0-0.28,615b41767003d4ece749ed9d,650c16f0f2faf8d7a0d14c09,651c1e91694be42023551af4,null,null,"<p style=""font-size: 60px; font-family: BACS"">ABPRBKEdl</p>",,,,,,,,,,
html-keyboard-response,361,617126,0.0-16.0-0.29,615b41767003d4ece749ed9d,650c16f0f2faf8d7a0d14c09,651c1e91694be42023551af4,null,null,"<p style=""font-size: 60px; font-family: BACS"">ABPRBKEdl</p>",,,,,,,,,,
html-keyboard-response,362,618140,0.0-16.0-0.30,615b41767003d4ece749ed9d,650c16f0f2faf8d7a0d14c09,651c1e91694be42023551af4,null,null,"<p style=""font-size: 60px; font-family: BACS"">ABPRBKEdl</p>",,,,,,,,,,
html-keyboard-response,363,619157,0.0-16.0-0.31,615b41767003d4ece749ed9d,650c16f0f2faf8d7a0d14c09,651c1e91694be42023551af4,null,null,"<p style=""font-size: 60px; font-family: BACS"">ABPRBKEdl</p>",,,,,,,,,,
html-keyboard-response,364,620169,0.0-16.0-0.32,615b41767003d4ece749ed9d,650c16f0f2faf8d7a0d14c09,651c1e91694be42023551af4,null,null,"<p style=""font-size: 60px; font-family: BACS"">ABPRBKEdl</p>",,,,,,,,,,
html-keyboard-response,365,621173,0.0-16.0-0.33,615b41767003d4ece749ed9d,650c16f0f2faf8d7a0d14c09,651c1e91694be42023551af4,null,null,"<p style=""font-size: 60px; font-family: BACS"">ABPRBKEdl</p>",,,,,,,,,,
html-keyboard-response,366,622175,0.0-16.0-0.34,615b41767003d4ece749ed9d,650c16f0f2faf8d7a0d14c09,651c1e91694be42023551af4,null,null,"<p style=""font-size: 60px; font-family: BACS"">ABPRBKEdl</p>",,,,,,,,,,
html-keyboard-response,367,623187,0.0-16.0-0.35,615b41767003d4ece749ed9d,650c16f0f2faf8d7a0d14c09,651c1e91694be42023551af4,null,null,"<p style=""font-size: 60px; font-family: BACS"">ABPRBKEdl</p>",,,,,,,,,,
html-keyboard-response,368,624200,0.0-16.0-0.36,615b41767003d4ece749ed9d,650c16f0f2faf8d7a0d14c09,651c1e91694be42023551af4,null,null,"<p style=""font-size: 60px; font-family: BACS"">ABPRBKEdl</p>",,,,,,,,,,
html-keyboard-response,369,625201,0.0-16.0-0.37,615b41767003d4ece749ed9d,650c16f0f2faf8d7a0d14c09,651c1e91694be42023551af4,null,null,"<p style=""font-size: 60px; font-family: BACS"">ABPRBKEdl</p>",,,,,,,,,,
html-keyboard-response,370,626207,0.0-16.0-0.38,615b41767003d4ece749ed9d,650c16f0f2faf8d7a0d14c09,651c1e91694be42023551af4,null,null,"<p style=""font-size: 60px; font-family: BACS"">ABPRBKEdl</p>",,,,,,,,,,
html-keyboard-response,371,627219,0.0-16.0-0.39,615b41767003d4ece749ed9d,650c16f0f2faf8d7a0d14c09,651c1e91694be42023551af4,null,null,"<p style=""font-size: 60px; font-family: BACS"">ABPRBKEdl</p>",,,,,,,,,,
html-keyboard-response,372,628221,0.0-16.0-0.40,615b41767003d4ece749ed9d,650c16f0f2faf8d7a0d14c09,651c1e91694be42023551af4,null,null,"<p style=""font-size: 60px; font-family: BACS"">ABPRBKEdl</p>",,,,,,,,,,
html-keyboard-response,373,629228,0.0-16.0-0.41,615b41767003d4ece749ed9d,650c16f0f2faf8d7a0d14c09,651c1e91694be42023551af4,null,null,"<p style=""font-size: 60px; font-family: BACS"">ABPRBKEdl</p>",,,,,,,,,,
html-keyboard-response,374,630239,0.0-16.0-0.42,615b41767003d4ece749ed9d,650c16f0f2faf8d7a0d14c09,651c1e91694be42023551af4,null,null,"<p style=""font-size: 60px; font-family: BACS"">ABPRBKEdl</p>",,,,,,,,,,
html-keyboard-response,375,631242,0.0-16.0-0.43,615b41767003d4ece749ed9d,650c16f0f2faf8d7a0d14c09,651c1e91694be42023551af4,null,null,"<p style=""font-size: 60px; font-family: BACS"">ABPRBKEdl</p>",,,,,,,,,,
html-keyboard-response,376,632258,0.0-16.0-0.44,615b41767003d4ece749ed9d,650c16f0f2faf8d7a0d14c09,651c1e91694be42023551af4,null,null,"<p style=""font-size: 60px; font-family: BACS"">ABPRBKEdl</p>",,,,,,,,,,
html-keyboard-response,377,633260,0.0-16.0-0.45,615b41767003d4ece749ed9d,650c16f0f2faf8d7a0d14c09,651c1e91694be42023551af4,null,null,"<p style=""font-size: 60px; font-family: BACS"">ABPRBKEdl</p>",,,,,,,,,,
html-keyboard-response,378,634262,0.0-16.0-0.46,615b41767003d4ece749ed9d,650c16f0f2faf8d7a0d14c09,651c1e91694be42023551af4,null,null,"<p style=""font-size: 60px; font-family: BACS"">ABPRBKEdl</p>",,,,,,,,,,
html-keyboard-response,379,635275,0.0-16.0-0.47,615b41767003d4ece749ed9d,650c16f0f2faf8d7a0d14c09,651c1e91694be42023551af4,null,null,"<p style=""font-size: 60px; font-family: BACS"">ABPRBKEdl</p>",,,,,,,,,,
html-keyboard-response,380,636276,0.0-16.0-0.48,615b41767003d4ece749ed9d,650c16f0f2faf8d7a0d14c09,651c1e91694be42023551af4,null,null,"<p style=""font-size: 60px; font-family: BACS"">ABPRBKEdl</p>",,,,,,,,,,
html-keyboard-response,381,637289,0.0-16.0-0.49,615b41767003d4ece749ed9d,650c16f0f2faf8d7a0d14c09,651c1e91694be42023551af4,null,null,"<p style=""font-size: 60px; font-family: BACS"">ABPRBKEdl</p>",,,,,,,,,,
html-keyboard-response,382,638303,0.0-16.0-0.50,615b41767003d4ece749ed9d,650c16f0f2faf8d7a0d14c09,651c1e91694be42023551af4,null,null,"<p style=""font-size: 60px; font-family: BACS"">ABPRBKEdl</p>",,,,,,,,,,
html-keyboard-response,383,639306,0.0-16.0-0.51,615b41767003d4ece749ed9d,650c16f0f2faf8d7a0d14c09,651c1e91694be42023551af4,null,null,"<p style=""font-size: 60px; font-family: BACS"">ABPRBKEdl</p>",,,,,,,,,,
html-keyboard-response,384,640322,0.0-16.0-0.52,615b41767003d4ece749ed9d,650c16f0f2faf8d7a0d14c09,651c1e91694be42023551af4,null,null,"<p style=""font-size: 60px; font-family: BACS"">ABPRBKEdl</p>",,,,,,,,,,
html-keyboard-response,385,641334,0.0-16.0-0.53,615b41767003d4ece749ed9d,650c16f0f2faf8d7a0d14c09,651c1e91694be42023551af4,null,null,"<p style=""font-size: 60px; font-family: BACS"">ABPRBKEdl</p>",,,,,,,,,,
html-keyboard-response,386,642336,0.0-16.0-0.54,615b41767003d4ece749ed9d,650c16f0f2faf8d7a0d14c09,651c1e91694be42023551af4,null,null,"<p style=""font-size: 60px; font-family: BACS"">ABPRBKEdl</p>",,,,,,,,,,
html-keyboard-response,387,643341,0.0-16.0-0.55,615b41767003d4ece749ed9d,650c16f0f2faf8d7a0d14c09,651c1e91694be42023551af4,null,null,"<p style=""font-size: 60px; font-family: BACS"">ABPRBKEdl</p>",,,,,,,,,,
html-keyboard-response,388,644357,0.0-16.0-0.56,615b41767003d4ece749ed9d,650c16f0f2faf8d7a0d14c09,651c1e91694be42023551af4,null,null,"<p style=""font-size: 60px; font-family: BACS"">ABPRBKEdl</p>",,,,,,,,,,
html-keyboard-response,389,645362,0.0-16.0-0.57,615b41767003d4ece749ed9d,650c16f0f2faf8d7a0d14c09,651c1e91694be42023551af4,null,null,"<p style=""font-size: 60px; font-family: BACS"">ABPRBKEdl</p>",,,,,,,,,,
html-keyboard-response,390,646370,0.0-16.0-0.58,615b41767003d4ece749ed9d,650c16f0f2faf8d7a0d14c09,651c1e91694be42023551af4,null,null,"<p style=""font-size: 60px; font-family: BACS"">ABPRBKEdl</p>",,,,,,,,,,
html-keyboard-response,391,647385,0.0-16.0-0.59,615b41767003d4ece749ed9d,650c16f0f2faf8d7a0d14c09,651c1e91694be42023551af4,null,null,"<p style=""font-size: 60px; font-family: BACS"">ABPRBKEdl</p>",,,,,,,,,,
html-keyboard-response,392,648395,0.0-16.0-0.60,615b41767003d4ece749ed9d,650c16f0f2faf8d7a0d14c09,651c1e91694be42023551af4,null,null,"<p style=""font-size: 60px; font-family: BACS"">ABPRBKEdl</p>",,,,,,,,,,
html-keyboard-response,393,649413,0.0-16.0-0.61,615b41767003d4ece749ed9d,650c16f0f2faf8d7a0d14c09,651c1e91694be42023551af4,null,null,"<p style=""font-size: 60px; font-family: BACS"">ABPRBKEdl</p>",,,,,,,,,,
html-keyboard-response,394,650415,0.0-16.0-0.62,615b41767003d4ece749ed9d,650c16f0f2faf8d7a0d14c09,651c1e91694be42023551af4,null,null,"<p style=""font-size: 60px; font-family: BACS"">ABPRBKEdl</p>",,,,,,,,,,
html-keyboard-response,395,651426,0.0-16.0-0.63,615b41767003d4ece749ed9d,650c16f0f2faf8d7a0d14c09,651c1e91694be42023551af4,null,null,"<p style=""font-size: 60px; font-family: BACS"">ABPRBKEdl</p>",,,,,,,,,,
html-keyboard-response,396,652429,0.0-16.0-0.64,615b41767003d4ece749ed9d,650c16f0f2faf8d7a0d14c09,651c1e91694be42023551af4,null,null,"<p style=""font-size: 60px; font-family: BACS"">ABPRBKEdl</p>",,,,,,,,,,
html-keyboard-response,397,653430,0.0-16.0-0.65,615b41767003d4ece749ed9d,650c16f0f2faf8d7a0d14c09,651c1e91694be42023551af4,null,null,"<p style=""font-size: 60px; font-family: BACS"">ABPRBKEdl</p>",,,,,,,,,,
html-keyboard-response,398,654432,0.0-16.0-0.66,615b41767003d4ece749ed9d,650c16f0f2faf8d7a0d14c09,651c1e91694be42023551af4,null,null,"<p style=""font-size: 60px; font-family: BACS"">ABPRBKEdl</p>",,,,,,,,,,
html-keyboard-response,399,655443,0.0-16.0-0.67,615b41767003d4ece749ed9d,650c16f0f2faf8d7a0d14c09,651c1e91694be42023551af4,null,null,"<p style=""font-size: 60px; font-family: BACS"">ABPRBKEdl</p>",,,,,,,,,,
html-keyboard-response,400,656445,0.0-16.0-0.68,615b41767003d4ece749ed9d,650c16f0f2faf8d7a0d14c09,651c1e91694be42023551af4,null,null,"<p style=""font-size: 60px; font-family: BACS"">ABPRBKEdl</p>",,,,,,,,,,
html-keyboard-response,401,657449,0.0-16.0-0.69,615b41767003d4ece749ed9d,650c16f0f2faf8d7a0d14c09,651c1e91694be42023551af4,null,null,"<p style=""font-size: 60px; font-family: BACS"">ABPRBKEdl</p>",,,,,,,,,,
html-keyboard-response,402,658459,0.0-16.0-0.70,615b41767003d4ece749ed9d,650c16f0f2faf8d7a0d14c09,651c1e91694be42023551af4,null,null,"<p style=""font-size: 60px; font-family: BACS"">ABPRBKEdl</p>",,,,,,,,,,
html-keyboard-response,403,659477,0.0-16.0-0.71,615b41767003d4ece749ed9d,650c16f0f2faf8d7a0d14c09,651c1e91694be42023551af4,null,null,"<p style=""font-size: 60px; font-family: BACS"">ABPRBKEdl</p>",,,,,,,,,,
html-keyboard-response,404,660493,0.0-16.0-0.72,615b41767003d4ece749ed9d,650c16f0f2faf8d7a0d14c09,651c1e91694be42023551af4,null,null,"<p style=""font-size: 60px; font-family: BACS"">ABPRBKEdl</p>",,,,,,,,,,
html-keyboard-response,405,661505,0.0-16.0-0.73,615b41767003d4ece749ed9d,650c16f0f2faf8d7a0d14c09,651c1e91694be42023551af4,null,null,"<p style=""font-size: 60px; font-family: BACS"">ABPRBKEdl</p>",,,,,,,,,,
html-keyboard-response,406,662511,0.0-16.0-0.74,615b41767003d4ece749ed9d,650c16f0f2faf8d7a0d14c09,651c1e91694be42023551af4,null,null,"<p style=""font-size: 60px; font-family: BACS"">ABPRBKEdl</p>",,,,,,,,,,
html-keyboard-response,407,663513,0.0-16.0-0.75,615b41767003d4ece749ed9d,650c16f0f2faf8d7a0d14c09,651c1e91694be42023551af4,null,null,"<p style=""font-size: 60px; font-family: BACS"">ABPRBKEdl</p>",,,,,,,,,,
html-keyboard-response,408,664520,0.0-16.0-0.76,615b41767003d4ece749ed9d,650c16f0f2faf8d7a0d14c09,651c1e91694be42023551af4,null,null,"<p style=""font-size: 60px; font-family: BACS"">ABPRBKEdl</p>",,,,,,,,,,
html-keyboard-response,409,665525,0.0-16.0-0.77,615b41767003d4ece749ed9d,650c16f0f2faf8d7a0d14c09,651c1e91694be42023551af4,null,null,"<p style=""font-size: 60px; font-family: BACS"">ABPRBKEdl</p>",,,,,,,,,,
html-keyboard-response,410,666534,0.0-16.0-0.78,615b41767003d4ece749ed9d,650c16f0f2faf8d7a0d14c09,651c1e91694be42023551af4,null,null,"<p style=""font-size: 60px; font-family: BACS"">ABPRBKEdl</p>",,,,,,,,,,
html-keyboard-response,411,667535,0.0-16.0-0.79,615b41767003d4ece749ed9d,650c16f0f2faf8d7a0d14c09,651c1e91694be42023551af4,null,null,"<p style=""font-size: 60px; font-family: BACS"">ABPRBKEdl</p>",,,,,,,,,,
html-keyboard-response,412,671379,0.0-17.0,615b41767003d4ece749ed9d,650c16f0f2faf8d7a0d14c09,651c1e91694be42023551af4,3843, ,"<p>Great, you've seen the fifth block of words. You may now take a short break.</p>
      <p>Press the spacebar when you're ready to continue.</p>",,,,,,,,,,
html-keyboard-response,413,672383,0.0-18.0-0.0,615b41767003d4ece749ed9d,650c16f0f2faf8d7a0d14c09,651c1e91694be42023551af4,null,null,"<p style=""font-size: 60px; font-family: BACS"">lRCBmCd</p>",,,,,,,,,,
html-keyboard-response,414,673385,0.0-18.0-0.1,615b41767003d4ece749ed9d,650c16f0f2faf8d7a0d14c09,651c1e91694be42023551af4,null,null,"<p style=""font-size: 60px; font-family: BACS"">hCktKEdl</p>",,,,,,,,,,
html-keyboard-response,415,674389,0.0-18.0-0.2,615b41767003d4ece749ed9d,650c16f0f2faf8d7a0d14c09,651c1e91694be42023551af4,null,null,"<p style=""font-size: 60px; font-family: BACS"">DhCPbdtK</p>",,,,,,,,,,
html-keyboard-response,416,675396,0.0-18.0-0.3,615b41767003d4ece749ed9d,650c16f0f2faf8d7a0d14c09,651c1e91694be42023551af4,null,null,"<p style=""font-size: 60px; font-family: BACS"">KAERMmCd</p>",,,,,,,,,,
html-keyboard-response,417,676402,0.0-18.0-0.4,615b41767003d4ece749ed9d,650c16f0f2faf8d7a0d14c09,651c1e91694be42023551af4,null,null,"<p style=""font-size: 60px; font-family: BACS"">JdOAYUZu</p>",,,,,,,,,,
html-keyboard-response,418,677404,0.0-18.0-0.5,615b41767003d4ece749ed9d,650c16f0f2faf8d7a0d14c09,651c1e91694be42023551af4,null,null,"<p style=""font-size: 60px; font-family: BACS"">OdYPbdtK</p>",,,,,,,,,,
html-keyboard-response,419,678410,0.0-18.0-0.6,615b41767003d4ece749ed9d,650c16f0f2faf8d7a0d14c09,651c1e91694be42023551af4,null,null,"<p style=""font-size: 60px; font-family: BACS"">JauQOcZJ</p>",,,,,,,,,,
html-keyboard-response,420,679427,0.0-18.0-0.7,615b41767003d4ece749ed9d,650c16f0f2faf8d7a0d14c09,651c1e91694be42023551af4,null,null,"<p style=""font-size: 60px; font-family: BACS"">JdOAYkYL</p>",,,,,,,,,,
html-keyboard-response,421,680428,0.0-18.0-0.8,615b41767003d4ece749ed9d,650c16f0f2faf8d7a0d14c09,651c1e91694be42023551af4,null,null,"<p style=""font-size: 60px; font-family: BACS"">dKDthTRK</p>",,,,,,,,,,
html-keyboard-response,422,681442,0.0-18.0-0.9,615b41767003d4ece749ed9d,650c16f0f2faf8d7a0d14c09,651c1e91694be42023551af4,null,null,"<p style=""font-size: 60px; font-family: BACS"">LdrbvkmU</p>",,,,,,,,,,
html-keyboard-response,423,682444,0.0-18.0-0.10,615b41767003d4ece749ed9d,650c16f0f2faf8d7a0d14c09,651c1e91694be42023551af4,null,null,"<p style=""font-size: 60px; font-family: BACS"">rvUbkYL</p>",,,,,,,,,,
html-keyboard-response,424,683460,0.0-18.0-0.11,615b41767003d4ece749ed9d,650c16f0f2faf8d7a0d14c09,651c1e91694be42023551af4,null,null,"<p style=""font-size: 60px; font-family: BACS"">LdrbvkGua</p>",,,,,,,,,,
html-keyboard-response,425,684473,0.0-18.0-0.12,615b41767003d4ece749ed9d,650c16f0f2faf8d7a0d14c09,651c1e91694be42023551af4,null,null,"<p style=""font-size: 60px; font-family: BACS"">KAERMKEdl</p>",,,,,,,,,,
html-keyboard-response,426,685481,0.0-18.0-0.13,615b41767003d4ece749ed9d,650c16f0f2faf8d7a0d14c09,651c1e91694be42023551af4,null,null,"<p style=""font-size: 60px; font-family: BACS"">AZaJcOcZJ</p>",,,,,,,,,,
html-keyboard-response,427,686487,0.0-18.0-0.14,615b41767003d4ece749ed9d,650c16f0f2faf8d7a0d14c09,651c1e91694be42023551af4,null,null,"<p style=""font-size: 60px; font-family: BACS"">vblrkmU</p>",,,,,,,,,,
html-keyboard-response,428,687491,0.0-18.0-0.15,615b41767003d4ece749ed9d,650c16f0f2faf8d7a0d14c09,651c1e91694be42023551af4,null,null,"<p style=""font-size: 60px; font-family: BACS"">YadrkYL</p>",,,,,,,,,,
html-keyboard-response,429,688493,0.0-18.0-0.16,615b41767003d4ece749ed9d,650c16f0f2faf8d7a0d14c09,651c1e91694be42023551af4,null,null,"<p style=""font-size: 60px; font-family: BACS"">cRElDmCd</p>",,,,,,,,,,
html-keyboard-response,430,689501,0.0-18.0-0.17,615b41767003d4ece749ed9d,650c16f0f2faf8d7a0d14c09,651c1e91694be42023551af4,null,null,"<p style=""font-size: 60px; font-family: BACS"">mbZlkGua</p>",,,,,,,,,,
html-keyboard-response,431,690504,0.0-18.0-0.18,615b41767003d4ece749ed9d,650c16f0f2faf8d7a0d14c09,651c1e91694be42023551af4,null,null,"<p style=""font-size: 60px; font-family: BACS"">AZaJcUZu</p>",,,,,,,,,,
html-keyboard-response,432,691507,0.0-18.0-0.19,615b41767003d4ece749ed9d,650c16f0f2faf8d7a0d14c09,651c1e91694be42023551af4,null,null,"<p style=""font-size: 60px; font-family: BACS"">DhCPcMRl</p>",,,,,,,,,,
html-keyboard-response,433,692515,0.0-18.0-0.20,615b41767003d4ece749ed9d,650c16f0f2faf8d7a0d14c09,651c1e91694be42023551af4,null,null,"<p style=""font-size: 60px; font-family: BACS"">dKDthKEdl</p>",,,,,,,,,,
html-keyboard-response,434,693531,0.0-18.0-0.21,615b41767003d4ece749ed9d,650c16f0f2faf8d7a0d14c09,651c1e91694be42023551af4,null,null,"<p style=""font-size: 60px; font-family: BACS"">mbZlUZu</p>",,,,,,,,,,
html-keyboard-response,435,694532,0.0-18.0-0.22,615b41767003d4ece749ed9d,650c16f0f2faf8d7a0d14c09,651c1e91694be42023551af4,null,null,"<p style=""font-size: 60px; font-family: BACS"">KAERMTRK</p>",,,,,,,,,,
html-keyboard-response,436,695538,0.0-18.0-0.23,615b41767003d4ece749ed9d,650c16f0f2faf8d7a0d14c09,651c1e91694be42023551af4,null,null,"<p style=""font-size: 60px; font-family: BACS"">AZaJckGua</p>",,,,,,,,,,
html-keyboard-response,437,696540,0.0-18.0-0.24,615b41767003d4ece749ed9d,650c16f0f2faf8d7a0d14c09,651c1e91694be42023551af4,null,null,"<p style=""font-size: 60px; font-family: BACS"">CkBOPKEdl</p>",,,,,,,,,,
html-keyboard-response,438,697547,0.0-18.0-0.25,615b41767003d4ece749ed9d,650c16f0f2faf8d7a0d14c09,651c1e91694be42023551af4,null,null,"<p style=""font-size: 60px; font-family: BACS"">vblrkGua</p>",,,,,,,,,,
html-keyboard-response,439,698561,0.0-18.0-0.26,615b41767003d4ece749ed9d,650c16f0f2faf8d7a0d14c09,651c1e91694be42023551af4,null,null,"<p style=""font-size: 60px; font-family: BACS"">LdrbvUZu</p>",,,,,,,,,,
html-keyboard-response,440,699563,0.0-18.0-0.27,615b41767003d4ece749ed9d,650c16f0f2faf8d7a0d14c09,651c1e91694be42023551af4,null,null,"<p style=""font-size: 60px; font-family: BACS"">YadrkGua</p>",,,,,,,,,,
html-keyboard-response,441,700566,0.0-18.0-0.28,615b41767003d4ece749ed9d,650c16f0f2faf8d7a0d14c09,651c1e91694be42023551af4,null,null,"<p style=""font-size: 60px; font-family: BACS"">hCktbdtK</p>",,,,,,,,,,
html-keyboard-response,442,701573,0.0-18.0-0.29,615b41767003d4ece749ed9d,650c16f0f2faf8d7a0d14c09,651c1e91694be42023551af4,null,null,"<p style=""font-size: 60px; font-family: BACS"">NkUAOcZJ</p>",,,,,,,,,,
html-keyboard-response,443,702574,0.0-18.0-0.30,615b41767003d4ece749ed9d,650c16f0f2faf8d7a0d14c09,651c1e91694be42023551af4,null,null,"<p style=""font-size: 60px; font-family: BACS"">dKDthmCd</p>",,,,,,,,,,
html-keyboard-response,444,703583,0.0-18.0-0.31,615b41767003d4ece749ed9d,650c16f0f2faf8d7a0d14c09,651c1e91694be42023551af4,null,null,"<p style=""font-size: 60px; font-family: BACS"">JauQUZu</p>",,,,,,,,,,
html-keyboard-response,445,704600,0.0-18.0-0.32,615b41767003d4ece749ed9d,650c16f0f2faf8d7a0d14c09,651c1e91694be42023551af4,null,null,"<p style=""font-size: 60px; font-family: BACS"">DhCPTRK</p>",,,,,,,,,,
html-keyboard-response,446,705613,0.0-18.0-0.33,615b41767003d4ece749ed9d,650c16f0f2faf8d7a0d14c09,651c1e91694be42023551af4,null,null,"<p style=""font-size: 60px; font-family: BACS"">YadrkmU</p>",,,,,,,,,,
html-keyboard-response,447,706618,0.0-18.0-0.34,615b41767003d4ece749ed9d,650c16f0f2faf8d7a0d14c09,651c1e91694be42023551af4,null,null,"<p style=""font-size: 60px; font-family: BACS"">cRElDcMRl</p>",,,,,,,,,,
html-keyboard-response,448,707631,0.0-18.0-0.35,615b41767003d4ece749ed9d,650c16f0f2faf8d7a0d14c09,651c1e91694be42023551af4,null,null,"<p style=""font-size: 60px; font-family: BACS"">KAERMbdtK</p>",,,,,,,,,,
html-keyboard-response,449,708633,0.0-18.0-0.36,615b41767003d4ece749ed9d,650c16f0f2faf8d7a0d14c09,651c1e91694be42023551af4,null,null,"<p style=""font-size: 60px; font-family: BACS"">rvUbkGua</p>",,,,,,,,,,
html-keyboard-response,450,709650,0.0-18.0-0.37,615b41767003d4ece749ed9d,650c16f0f2faf8d7a0d14c09,651c1e91694be42023551af4,null,null,"<p style=""font-size: 60px; font-family: BACS"">OdYPKEdl</p>",,,,,,,,,,
html-keyboard-response,451,710651,0.0-18.0-0.38,615b41767003d4ece749ed9d,650c16f0f2faf8d7a0d14c09,651c1e91694be42023551af4,null,null,"<p style=""font-size: 60px; font-family: BACS"">dvNvAOcZJ</p>",,,,,,,,,,
html-keyboard-response,452,711663,0.0-18.0-0.39,615b41767003d4ece749ed9d,650c16f0f2faf8d7a0d14c09,651c1e91694be42023551af4,null,null,"<p style=""font-size: 60px; font-family: BACS"">NkUAkmU</p>",,,,,,,,,,
html-keyboard-response,453,712673,0.0-18.0-0.40,615b41767003d4ece749ed9d,650c16f0f2faf8d7a0d14c09,651c1e91694be42023551af4,null,null,"<p style=""font-size: 60px; font-family: BACS"">dKDthcMRl</p>",,,,,,,,,,
html-keyboard-response,454,713689,0.0-18.0-0.41,615b41767003d4ece749ed9d,650c16f0f2faf8d7a0d14c09,651c1e91694be42023551af4,null,null,"<p style=""font-size: 60px; font-family: BACS"">JauQkYL</p>",,,,,,,,,,
html-keyboard-response,455,714703,0.0-18.0-0.42,615b41767003d4ece749ed9d,650c16f0f2faf8d7a0d14c09,651c1e91694be42023551af4,null,null,"<p style=""font-size: 60px; font-family: BACS"">JdOAYkmU</p>",,,,,,,,,,
html-keyboard-response,456,715711,0.0-18.0-0.43,615b41767003d4ece749ed9d,650c16f0f2faf8d7a0d14c09,651c1e91694be42023551af4,null,null,"<p style=""font-size: 60px; font-family: BACS"">CkBOPTRK</p>",,,,,,,,,,
html-keyboard-response,457,716724,0.0-18.0-0.44,615b41767003d4ece749ed9d,650c16f0f2faf8d7a0d14c09,651c1e91694be42023551af4,null,null,"<p style=""font-size: 60px; font-family: BACS"">cRElDKEdl</p>",,,,,,,,,,
html-keyboard-response,458,717732,0.0-18.0-0.45,615b41767003d4ece749ed9d,650c16f0f2faf8d7a0d14c09,651c1e91694be42023551af4,null,null,"<p style=""font-size: 60px; font-family: BACS"">mbZlkmU</p>",,,,,,,,,,
html-keyboard-response,459,718740,0.0-18.0-0.46,615b41767003d4ece749ed9d,650c16f0f2faf8d7a0d14c09,651c1e91694be42023551af4,null,null,"<p style=""font-size: 60px; font-family: BACS"">NkUAkYL</p>",,,,,,,,,,
html-keyboard-response,460,719745,0.0-18.0-0.47,615b41767003d4ece749ed9d,650c16f0f2faf8d7a0d14c09,651c1e91694be42023551af4,null,null,"<p style=""font-size: 60px; font-family: BACS"">DhCPmCd</p>",,,,,,,,,,
html-keyboard-response,461,720752,0.0-18.0-0.48,615b41767003d4ece749ed9d,650c16f0f2faf8d7a0d14c09,651c1e91694be42023551af4,null,null,"<p style=""font-size: 60px; font-family: BACS"">JauQkmU</p>",,,,,,,,,,
html-keyboard-response,462,721757,0.0-18.0-0.49,615b41767003d4ece749ed9d,650c16f0f2faf8d7a0d14c09,651c1e91694be42023551af4,null,null,"<p style=""font-size: 60px; font-family: BACS"">JdOAYOcZJ</p>",,,,,,,,,,
html-keyboard-response,463,722759,0.0-18.0-0.50,615b41767003d4ece749ed9d,650c16f0f2faf8d7a0d14c09,651c1e91694be42023551af4,null,null,"<p style=""font-size: 60px; font-family: BACS"">cRElDTRK</p>",,,,,,,,,,
html-keyboard-response,464,723770,0.0-18.0-0.51,615b41767003d4ece749ed9d,650c16f0f2faf8d7a0d14c09,651c1e91694be42023551af4,null,null,"<p style=""font-size: 60px; font-family: BACS"">LdrbvkYL</p>",,,,,,,,,,
html-keyboard-response,465,724780,0.0-18.0-0.52,615b41767003d4ece749ed9d,650c16f0f2faf8d7a0d14c09,651c1e91694be42023551af4,null,null,"<p style=""font-size: 60px; font-family: BACS"">NkUAkGua</p>",,,,,,,,,,
