trial_type,trial_index,time_elapsed,internal_node_id,subject_id,study_id,session_id,rt,response,stimulus,success,item,task,correct_response,testing_condition,correct,target,confound,name,view_history
pavlovia,0,715,0.0-0.0,5fdbf74c5474cd11e39eeaf3,650c16f0f2faf8d7a0d14c09,651c1bcf32756a07155f5fba,,,,,,,,,,,,,
survey-html-form,1,13165,0.0-1.0,5fdbf74c5474cd11e39eeaf3,650c16f0f2faf8d7a0d14c09,651c1bcf32756a07155f5fba,12449,"{""ID"":""5fdbf74c5474cd11e39eeaf3""}",,,,,,,,,,,
html-keyboard-response,2,33476,0.0-2.0,5fdbf74c5474cd11e39eeaf3,650c16f0f2faf8d7a0d14c09,651c1bcf32756a07155f5fba,20308, ,"<p style=""font-size: 15px;"">Before beginning, we ask that you read the consent information and confirm your agreement to participate in the experiment.</p>
      <p style=""font-size: 15px;""> We ask that you remember that this is a research project and that your participation is entirely voluntary. You can stop your participation at any time, without needing to provide any explanation. The study we're asking you to participate in aims at examining how readers process written words. You will be engaged in a session of apprximately 20 minutes, followed by a brief questionnaire. You will have the opportunity to take a few breaks during the experiment. You will be paid £4 for your participation, corresponding to a rate of £8/hour. While this experiment looks at cognitive faculties, this experiment doesn't constitute clinical proof of eventual pathologies.</p>
      <p style=""font-size: 15px;"">All of the information collected thanks to yours and others' participation will be held in a secure password-protected server, and will not be shared with anyone not authorised to view it. Your personal information will be kept with an arbitrary participant ID. Thanks to this data anonymity process, any researcher analysing the data won't be able to track the information back to a specific participant. Therefore, this process will make identifying you impossibile, even when results from the study will be published in scientific reviews, presented at congresses, or at any other public forum. More generally, the collected data will be treated in accordance with the laws on privacy and conformity to the Legislative Degree n. 196 ""Code regarding the protection of personal data"" of the 30th of June 2003 and to the European Regulation 2016/670 (General Data Protection Regulation - GDPR). The Data Protection Officer is Avv. Valentina Carollo, who can be contacted at the following email addresses: <a href=""mailto:dpo@sissa.it"">dpo@sissa.it</a> or <a href=""mailto:rpd@sissa.it"">rpd@sissa.it</a> - PEC: <a href=""mailto:protocollo@pec.sissa.it"">protocollo@pec.sissa.it</a>.</p>
      <p style=""font-size: 15px;""> Before expressing your consent to participate, we would like to remind you again that in case you need explanations on any aspect of the experimental procedure, the researcher is at your disposition (<a href=""mailto:aliebelt@sissa.it"">aliebelt@sissa.it</a>, <a href=""mailto:davide.crepaldi@sissa.it"">davide.crepaldi@sissa.it</a>).</p>
      <p style=""font-size: 15px;"">If you would like to download the informed consent form, you can do so here: <a href=""BASL-Informed_Consent.pdf"" download>informed consent form</a>.</p>
      <p style=""font-size: 15px;"">We ask that you press the spacebar to proceed to the consent section.</p>",,,,,,,,,,
survey-html-form,3,50382,0.0-3.0,5fdbf74c5474cd11e39eeaf3,650c16f0f2faf8d7a0d14c09,651c1bcf32756a07155f5fba,16905,"{""consent1"":""YES"",""consent2"":""YES"",""consent3"":""YES"",""consent4"":""YES"",""consent5"":""YES"",""consent6"":""YES""}",,,,,,,,,,,
fullscreen,4,60381,0.0-4.0,5fdbf74c5474cd11e39eeaf3,650c16f0f2faf8d7a0d14c09,651c1bcf32756a07155f5fba,,,,TRUE,,,,,,,,,
html-keyboard-response,5,96373,0.0-5.0,5fdbf74c5474cd11e39eeaf3,650c16f0f2faf8d7a0d14c09,651c1bcf32756a07155f5fba,35991, ,"<p>Welcome, and thank you very much for your time!</p>
      <p>In this experiment, you'll be a language expert who's been asked to take a look at words that Earth has received in its first communication with aliens. Your task, in this first part of the experiment, is to pay close attention to the words you'll be shown; later, world leaders will ask you questions on what you saw. The words will be shown to you quite quickly; it seems that the aliens were in a hurry :-)</p>
      <p>Press the spacebar to continue.<p>",,,,,,,,,,
html-keyboard-response,6,96424,0.0-6.0,5fdbf74c5474cd11e39eeaf3,650c16f0f2faf8d7a0d14c09,651c1bcf32756a07155f5fba,null,null,"<p style=""font-size: 120px; font-family: BACS""> </p>",,,,,,,,,,
html-keyboard-response,7,107170,0.0-7.0,5fdbf74c5474cd11e39eeaf3,650c16f0f2faf8d7a0d14c09,651c1bcf32756a07155f5fba,10745, ,"<p>Here is an example of the words you'll see:</p>
      <img src='esempio.png' height='400px'>
      <p>When you're ready to begin, press the spacebar.</p></div>",,,,,,,,,,
html-keyboard-response,8,108186,0.0-8.0-0.0,5fdbf74c5474cd11e39eeaf3,650c16f0f2faf8d7a0d14c09,651c1bcf32756a07155f5fba,null,null,"<p style=""font-size: 60px; font-family: BACS"">BOCRMCdt</p>",,,,,,,,,,
html-keyboard-response,9,109202,0.0-8.0-0.1,5fdbf74c5474cd11e39eeaf3,650c16f0f2faf8d7a0d14c09,651c1bcf32756a07155f5fba,null,null,"<p style=""font-size: 60px; font-family: BACS"">YLQmGdUr</p>",,,,,,,,,,
html-keyboard-response,10,110206,0.0-8.0-0.2,5fdbf74c5474cd11e39eeaf3,650c16f0f2faf8d7a0d14c09,651c1bcf32756a07155f5fba,null,null,"<p style=""font-size: 60px; font-family: BACS"">YJLcAQru</p>",,,,,,,,,,
html-keyboard-response,11,111223,0.0-8.0-0.3,5fdbf74c5474cd11e39eeaf3,650c16f0f2faf8d7a0d14c09,651c1bcf32756a07155f5fba,null,null,"<p style=""font-size: 60px; font-family: BACS"">OcYMTPOM</p>",,,,,,,,,,
html-keyboard-response,12,112225,0.0-8.0-0.4,5fdbf74c5474cd11e39eeaf3,650c16f0f2faf8d7a0d14c09,651c1bcf32756a07155f5fba,null,null,"<p style=""font-size: 60px; font-family: BACS"">PCMPKCmYA</p>",,,,,,,,,,
html-keyboard-response,13,113241,0.0-8.0-0.5,5fdbf74c5474cd11e39eeaf3,650c16f0f2faf8d7a0d14c09,651c1bcf32756a07155f5fba,null,null,"<p style=""font-size: 60px; font-family: BACS"">YLQmGukbY</p>",,,,,,,,,,
html-keyboard-response,14,114245,0.0-8.0-0.6,5fdbf74c5474cd11e39eeaf3,650c16f0f2faf8d7a0d14c09,651c1bcf32756a07155f5fba,null,null,"<p style=""font-size: 60px; font-family: BACS"">lCbcmTPOM</p>",,,,,,,,,,
html-keyboard-response,15,115262,0.0-8.0-0.7,5fdbf74c5474cd11e39eeaf3,650c16f0f2faf8d7a0d14c09,651c1bcf32756a07155f5fba,null,null,"<p style=""font-size: 60px; font-family: BACS"">DCmhdCKc</p>",,,,,,,,,,
html-keyboard-response,16,116267,0.0-8.0-0.8,5fdbf74c5474cd11e39eeaf3,650c16f0f2faf8d7a0d14c09,651c1bcf32756a07155f5fba,null,null,"<p style=""font-size: 60px; font-family: BACS"">cDOEBCdt</p>",,,,,,,,,,
html-keyboard-response,17,117271,0.0-8.0-0.9,5fdbf74c5474cd11e39eeaf3,650c16f0f2faf8d7a0d14c09,651c1bcf32756a07155f5fba,null,null,"<p style=""font-size: 60px; font-family: BACS"">JZOAkdUr</p>",,,,,,,,,,
html-keyboard-response,18,118274,0.0-8.0-0.10,5fdbf74c5474cd11e39eeaf3,650c16f0f2faf8d7a0d14c09,651c1bcf32756a07155f5fba,null,null,"<p style=""font-size: 60px; font-family: BACS"">ObOQluUY</p>",,,,,,,,,,
html-keyboard-response,19,119276,0.0-8.0-0.11,5fdbf74c5474cd11e39eeaf3,650c16f0f2faf8d7a0d14c09,651c1bcf32756a07155f5fba,null,null,"<p style=""font-size: 60px; font-family: BACS"">AZaJcukbY</p>",,,,,,,,,,
html-keyboard-response,20,120278,0.0-8.0-0.12,5fdbf74c5474cd11e39eeaf3,650c16f0f2faf8d7a0d14c09,651c1bcf32756a07155f5fba,null,null,"<p style=""font-size: 60px; font-family: BACS"">btlckdCKc</p>",,,,,,,,,,
html-keyboard-response,21,121281,0.0-8.0-0.13,5fdbf74c5474cd11e39eeaf3,650c16f0f2faf8d7a0d14c09,651c1bcf32756a07155f5fba,null,null,"<p style=""font-size: 60px; font-family: BACS"">YLQmGYaum</p>",,,,,,,,,,
html-keyboard-response,22,122285,0.0-8.0-0.14,5fdbf74c5474cd11e39eeaf3,650c16f0f2faf8d7a0d14c09,651c1bcf32756a07155f5fba,null,null,"<p style=""font-size: 60px; font-family: BACS"">LGkAukbY</p>",,,,,,,,,,
html-keyboard-response,23,123287,0.0-8.0-0.15,5fdbf74c5474cd11e39eeaf3,650c16f0f2faf8d7a0d14c09,651c1bcf32756a07155f5fba,null,null,"<p style=""font-size: 60px; font-family: BACS"">PCMPKCdt</p>",,,,,,,,,,
html-keyboard-response,24,124290,0.0-8.0-0.16,5fdbf74c5474cd11e39eeaf3,650c16f0f2faf8d7a0d14c09,651c1bcf32756a07155f5fba,null,null,"<p style=""font-size: 60px; font-family: BACS"">ObOQldUr</p>",,,,,,,,,,
html-keyboard-response,25,125294,0.0-8.0-0.17,5fdbf74c5474cd11e39eeaf3,650c16f0f2faf8d7a0d14c09,651c1bcf32756a07155f5fba,null,null,"<p style=""font-size: 60px; font-family: BACS"">btlckbdtK</p>",,,,,,,,,,
html-keyboard-response,26,126296,0.0-8.0-0.18,5fdbf74c5474cd11e39eeaf3,650c16f0f2faf8d7a0d14c09,651c1bcf32756a07155f5fba,null,null,"<p style=""font-size: 60px; font-family: BACS"">RlAKcdCKc</p>",,,,,,,,,,
html-keyboard-response,27,127298,0.0-8.0-0.19,5fdbf74c5474cd11e39eeaf3,650c16f0f2faf8d7a0d14c09,651c1bcf32756a07155f5fba,null,null,"<p style=""font-size: 60px; font-family: BACS"">cuOJbuUY</p>",,,,,,,,,,
html-keyboard-response,28,128300,0.0-8.0-0.20,5fdbf74c5474cd11e39eeaf3,650c16f0f2faf8d7a0d14c09,651c1bcf32756a07155f5fba,null,null,"<p style=""font-size: 60px; font-family: BACS"">JZOAkukbY</p>",,,,,,,,,,
html-keyboard-response,29,129302,0.0-8.0-0.21,5fdbf74c5474cd11e39eeaf3,650c16f0f2faf8d7a0d14c09,651c1bcf32756a07155f5fba,null,null,"<p style=""font-size: 60px; font-family: BACS"">AZaJcQru</p>",,,,,,,,,,
html-keyboard-response,30,130317,0.0-8.0-0.22,5fdbf74c5474cd11e39eeaf3,650c16f0f2faf8d7a0d14c09,651c1bcf32756a07155f5fba,null,null,"<p style=""font-size: 60px; font-family: BACS"">JvaAYaum</p>",,,,,,,,,,
html-keyboard-response,31,131321,0.0-8.0-0.23,5fdbf74c5474cd11e39eeaf3,650c16f0f2faf8d7a0d14c09,651c1bcf32756a07155f5fba,null,null,"<p style=""font-size: 60px; font-family: BACS"">BOCRMbdtK</p>",,,,,,,,,,
html-keyboard-response,32,132337,0.0-8.0-0.24,5fdbf74c5474cd11e39eeaf3,650c16f0f2faf8d7a0d14c09,651c1bcf32756a07155f5fba,null,null,"<p style=""font-size: 60px; font-family: BACS"">LGkAdUr</p>",,,,,,,,,,
html-keyboard-response,33,133341,0.0-8.0-0.25,5fdbf74c5474cd11e39eeaf3,650c16f0f2faf8d7a0d14c09,651c1bcf32756a07155f5fba,null,null,"<p style=""font-size: 60px; font-family: BACS"">DCmhTPOM</p>",,,,,,,,,,
html-keyboard-response,34,134344,0.0-8.0-0.26,5fdbf74c5474cd11e39eeaf3,650c16f0f2faf8d7a0d14c09,651c1bcf32756a07155f5fba,null,null,"<p style=""font-size: 60px; font-family: BACS"">JZOAkuUY</p>",,,,,,,,,,
html-keyboard-response,35,135346,0.0-8.0-0.27,5fdbf74c5474cd11e39eeaf3,650c16f0f2faf8d7a0d14c09,651c1bcf32756a07155f5fba,null,null,"<p style=""font-size: 60px; font-family: BACS"">lCbcmCmYA</p>",,,,,,,,,,
html-keyboard-response,36,136362,0.0-8.0-0.28,5fdbf74c5474cd11e39eeaf3,650c16f0f2faf8d7a0d14c09,651c1bcf32756a07155f5fba,null,null,"<p style=""font-size: 60px; font-family: BACS"">YNrAmYaum</p>",,,,,,,,,,
html-keyboard-response,37,137369,0.0-8.0-0.29,5fdbf74c5474cd11e39eeaf3,650c16f0f2faf8d7a0d14c09,651c1bcf32756a07155f5fba,null,null,"<p style=""font-size: 60px; font-family: BACS"">hChYbdtK</p>",,,,,,,,,,
html-keyboard-response,38,138373,0.0-8.0-0.30,5fdbf74c5474cd11e39eeaf3,650c16f0f2faf8d7a0d14c09,651c1bcf32756a07155f5fba,null,null,"<p style=""font-size: 60px; font-family: BACS"">YNrAmQru</p>",,,,,,,,,,
html-keyboard-response,39,139377,0.0-8.0-0.31,5fdbf74c5474cd11e39eeaf3,650c16f0f2faf8d7a0d14c09,651c1bcf32756a07155f5fba,null,null,"<p style=""font-size: 60px; font-family: BACS"">hChYTPOM</p>",,,,,,,,,,
html-keyboard-response,40,140379,0.0-8.0-0.32,5fdbf74c5474cd11e39eeaf3,650c16f0f2faf8d7a0d14c09,651c1bcf32756a07155f5fba,null,null,"<p style=""font-size: 60px; font-family: BACS"">cDOEBbdtK</p>",,,,,,,,,,
html-keyboard-response,41,141382,0.0-8.0-0.33,5fdbf74c5474cd11e39eeaf3,650c16f0f2faf8d7a0d14c09,651c1bcf32756a07155f5fba,null,null,"<p style=""font-size: 60px; font-family: BACS"">RlAKcCmYA</p>",,,,,,,,,,
html-keyboard-response,42,142384,0.0-8.0-0.34,5fdbf74c5474cd11e39eeaf3,650c16f0f2faf8d7a0d14c09,651c1bcf32756a07155f5fba,null,null,"<p style=""font-size: 60px; font-family: BACS"">kcdOtTPOM</p>",,,,,,,,,,
html-keyboard-response,43,143387,0.0-8.0-0.35,5fdbf74c5474cd11e39eeaf3,650c16f0f2faf8d7a0d14c09,651c1bcf32756a07155f5fba,null,null,"<p style=""font-size: 60px; font-family: BACS"">BOCRMCmYA</p>",,,,,,,,,,
html-keyboard-response,44,144390,0.0-8.0-0.36,5fdbf74c5474cd11e39eeaf3,650c16f0f2faf8d7a0d14c09,651c1bcf32756a07155f5fba,null,null,"<p style=""font-size: 60px; font-family: BACS"">cuOJbYaum</p>",,,,,,,,,,
html-keyboard-response,45,145405,0.0-8.0-0.37,5fdbf74c5474cd11e39eeaf3,650c16f0f2faf8d7a0d14c09,651c1bcf32756a07155f5fba,null,null,"<p style=""font-size: 60px; font-family: BACS"">YJLcAukbY</p>",,,,,,,,,,
html-keyboard-response,46,146411,0.0-8.0-0.38,5fdbf74c5474cd11e39eeaf3,650c16f0f2faf8d7a0d14c09,651c1bcf32756a07155f5fba,null,null,"<p style=""font-size: 60px; font-family: BACS"">DCmhbdtK</p>",,,,,,,,,,
html-keyboard-response,47,147415,0.0-8.0-0.39,5fdbf74c5474cd11e39eeaf3,650c16f0f2faf8d7a0d14c09,651c1bcf32756a07155f5fba,null,null,"<p style=""font-size: 60px; font-family: BACS"">JvaAukbY</p>",,,,,,,,,,
html-keyboard-response,48,148419,0.0-8.0-0.40,5fdbf74c5474cd11e39eeaf3,650c16f0f2faf8d7a0d14c09,651c1bcf32756a07155f5fba,null,null,"<p style=""font-size: 60px; font-family: BACS"">cuOJbQru</p>",,,,,,,,,,
html-keyboard-response,49,149422,0.0-8.0-0.41,5fdbf74c5474cd11e39eeaf3,650c16f0f2faf8d7a0d14c09,651c1bcf32756a07155f5fba,null,null,"<p style=""font-size: 60px; font-family: BACS"">LGkAuUY</p>",,,,,,,,,,
html-keyboard-response,50,150425,0.0-8.0-0.42,5fdbf74c5474cd11e39eeaf3,650c16f0f2faf8d7a0d14c09,651c1bcf32756a07155f5fba,null,null,"<p style=""font-size: 60px; font-family: BACS"">AZaJcYaum</p>",,,,,,,,,,
html-keyboard-response,51,151428,0.0-8.0-0.43,5fdbf74c5474cd11e39eeaf3,650c16f0f2faf8d7a0d14c09,651c1bcf32756a07155f5fba,null,null,"<p style=""font-size: 60px; font-family: BACS"">hChYdCKc</p>",,,,,,,,,,
html-keyboard-response,52,152443,0.0-8.0-0.44,5fdbf74c5474cd11e39eeaf3,650c16f0f2faf8d7a0d14c09,651c1bcf32756a07155f5fba,null,null,"<p style=""font-size: 60px; font-family: BACS"">OcYMCmYA</p>",,,,,,,,,,
html-keyboard-response,53,153445,0.0-8.0-0.45,5fdbf74c5474cd11e39eeaf3,650c16f0f2faf8d7a0d14c09,651c1bcf32756a07155f5fba,null,null,"<p style=""font-size: 60px; font-family: BACS"">DCmhCdt</p>",,,,,,,,,,
html-keyboard-response,54,154448,0.0-8.0-0.46,5fdbf74c5474cd11e39eeaf3,650c16f0f2faf8d7a0d14c09,651c1bcf32756a07155f5fba,null,null,"<p style=""font-size: 60px; font-family: BACS"">YJLcAYaum</p>",,,,,,,,,,
html-keyboard-response,55,155452,0.0-8.0-0.47,5fdbf74c5474cd11e39eeaf3,650c16f0f2faf8d7a0d14c09,651c1bcf32756a07155f5fba,null,null,"<p style=""font-size: 60px; font-family: BACS"">JvaAdUr</p>",,,,,,,,,,
html-keyboard-response,56,156456,0.0-8.0-0.48,5fdbf74c5474cd11e39eeaf3,650c16f0f2faf8d7a0d14c09,651c1bcf32756a07155f5fba,null,null,"<p style=""font-size: 60px; font-family: BACS"">LGkAQru</p>",,,,,,,,,,
html-keyboard-response,57,157459,0.0-8.0-0.49,5fdbf74c5474cd11e39eeaf3,650c16f0f2faf8d7a0d14c09,651c1bcf32756a07155f5fba,null,null,"<p style=""font-size: 60px; font-family: BACS"">lCbcmCdt</p>",,,,,,,,,,
html-keyboard-response,58,158461,0.0-8.0-0.50,5fdbf74c5474cd11e39eeaf3,650c16f0f2faf8d7a0d14c09,651c1bcf32756a07155f5fba,null,null,"<p style=""font-size: 60px; font-family: BACS"">ObOQlQru</p>",,,,,,,,,,
html-keyboard-response,59,159462,0.0-8.0-0.51,5fdbf74c5474cd11e39eeaf3,650c16f0f2faf8d7a0d14c09,651c1bcf32756a07155f5fba,null,null,"<p style=""font-size: 60px; font-family: BACS"">btlckCmYA</p>",,,,,,,,,,
html-keyboard-response,60,160464,0.0-8.0-0.52,5fdbf74c5474cd11e39eeaf3,650c16f0f2faf8d7a0d14c09,651c1bcf32756a07155f5fba,null,null,"<p style=""font-size: 60px; font-family: BACS"">cDOEBdCKc</p>",,,,,,,,,,
html-keyboard-response,61,161466,0.0-8.0-0.53,5fdbf74c5474cd11e39eeaf3,650c16f0f2faf8d7a0d14c09,651c1bcf32756a07155f5fba,null,null,"<p style=""font-size: 60px; font-family: BACS"">OcYMCdt</p>",,,,,,,,,,
html-keyboard-response,62,162469,0.0-8.0-0.54,5fdbf74c5474cd11e39eeaf3,650c16f0f2faf8d7a0d14c09,651c1bcf32756a07155f5fba,null,null,"<p style=""font-size: 60px; font-family: BACS"">YNrAmdUr</p>",,,,,,,,,,
html-keyboard-response,63,163471,0.0-8.0-0.55,5fdbf74c5474cd11e39eeaf3,650c16f0f2faf8d7a0d14c09,651c1bcf32756a07155f5fba,null,null,"<p style=""font-size: 60px; font-family: BACS"">kcdOtCmYA</p>",,,,,,,,,,
html-keyboard-response,64,164474,0.0-8.0-0.56,5fdbf74c5474cd11e39eeaf3,650c16f0f2faf8d7a0d14c09,651c1bcf32756a07155f5fba,null,null,"<p style=""font-size: 60px; font-family: BACS"">RlAKcbdtK</p>",,,,,,,,,,
html-keyboard-response,65,165478,0.0-8.0-0.57,5fdbf74c5474cd11e39eeaf3,650c16f0f2faf8d7a0d14c09,651c1bcf32756a07155f5fba,null,null,"<p style=""font-size: 60px; font-family: BACS"">YLQmGuUY</p>",,,,,,,,,,
html-keyboard-response,66,166482,0.0-8.0-0.58,5fdbf74c5474cd11e39eeaf3,650c16f0f2faf8d7a0d14c09,651c1bcf32756a07155f5fba,null,null,"<p style=""font-size: 60px; font-family: BACS"">PCMPKbdtK</p>",,,,,,,,,,
html-keyboard-response,67,167488,0.0-8.0-0.59,5fdbf74c5474cd11e39eeaf3,650c16f0f2faf8d7a0d14c09,651c1bcf32756a07155f5fba,null,null,"<p style=""font-size: 60px; font-family: BACS"">AZaJcuUY</p>",,,,,,,,,,
html-keyboard-response,68,168491,0.0-8.0-0.60,5fdbf74c5474cd11e39eeaf3,650c16f0f2faf8d7a0d14c09,651c1bcf32756a07155f5fba,null,null,"<p style=""font-size: 60px; font-family: BACS"">cuOJbdUr</p>",,,,,,,,,,
html-keyboard-response,69,169496,0.0-8.0-0.61,5fdbf74c5474cd11e39eeaf3,650c16f0f2faf8d7a0d14c09,651c1bcf32756a07155f5fba,null,null,"<p style=""font-size: 60px; font-family: BACS"">ObOQlYaum</p>",,,,,,,,,,
html-keyboard-response,70,170499,0.0-8.0-0.62,5fdbf74c5474cd11e39eeaf3,650c16f0f2faf8d7a0d14c09,651c1bcf32756a07155f5fba,null,null,"<p style=""font-size: 60px; font-family: BACS"">JvaAQru</p>",,,,,,,,,,
html-keyboard-response,71,171501,0.0-8.0-0.63,5fdbf74c5474cd11e39eeaf3,650c16f0f2faf8d7a0d14c09,651c1bcf32756a07155f5fba,null,null,"<p style=""font-size: 60px; font-family: BACS"">RlAKcTPOM</p>",,,,,,,,,,
html-keyboard-response,72,172504,0.0-8.0-0.64,5fdbf74c5474cd11e39eeaf3,650c16f0f2faf8d7a0d14c09,651c1bcf32756a07155f5fba,null,null,"<p style=""font-size: 60px; font-family: BACS"">hChYCmYA</p>",,,,,,,,,,
html-keyboard-response,73,173507,0.0-8.0-0.65,5fdbf74c5474cd11e39eeaf3,650c16f0f2faf8d7a0d14c09,651c1bcf32756a07155f5fba,null,null,"<p style=""font-size: 60px; font-family: BACS"">btlckCdt</p>",,,,,,,,,,
html-keyboard-response,74,174510,0.0-8.0-0.66,5fdbf74c5474cd11e39eeaf3,650c16f0f2faf8d7a0d14c09,651c1bcf32756a07155f5fba,null,null,"<p style=""font-size: 60px; font-family: BACS"">kGlUdUr</p>",,,,,,,,,,
html-keyboard-response,75,175514,0.0-8.0-0.67,5fdbf74c5474cd11e39eeaf3,650c16f0f2faf8d7a0d14c09,651c1bcf32756a07155f5fba,null,null,"<p style=""font-size: 60px; font-family: BACS"">lCbcmdCKc</p>",,,,,,,,,,
html-keyboard-response,76,176530,0.0-8.0-0.68,5fdbf74c5474cd11e39eeaf3,650c16f0f2faf8d7a0d14c09,651c1bcf32756a07155f5fba,null,null,"<p style=""font-size: 60px; font-family: BACS"">kGlUQru</p>",,,,,,,,,,
html-keyboard-response,77,177534,0.0-8.0-0.69,5fdbf74c5474cd11e39eeaf3,650c16f0f2faf8d7a0d14c09,651c1bcf32756a07155f5fba,null,null,"<p style=""font-size: 60px; font-family: BACS"">JZOAkYaum</p>",,,,,,,,,,
html-keyboard-response,78,178538,0.0-8.0-0.70,5fdbf74c5474cd11e39eeaf3,650c16f0f2faf8d7a0d14c09,651c1bcf32756a07155f5fba,null,null,"<p style=""font-size: 60px; font-family: BACS"">OcYMbdtK</p>",,,,,,,,,,
html-keyboard-response,79,179554,0.0-8.0-0.71,5fdbf74c5474cd11e39eeaf3,650c16f0f2faf8d7a0d14c09,651c1bcf32756a07155f5fba,null,null,"<p style=""font-size: 60px; font-family: BACS"">kGlUukbY</p>",,,,,,,,,,
html-keyboard-response,80,180569,0.0-8.0-0.72,5fdbf74c5474cd11e39eeaf3,650c16f0f2faf8d7a0d14c09,651c1bcf32756a07155f5fba,null,null,"<p style=""font-size: 60px; font-family: BACS"">YJLcAuUY</p>",,,,,,,,,,
html-keyboard-response,81,181572,0.0-8.0-0.73,5fdbf74c5474cd11e39eeaf3,650c16f0f2faf8d7a0d14c09,651c1bcf32756a07155f5fba,null,null,"<p style=""font-size: 60px; font-family: BACS"">kcdOtdCKc</p>",,,,,,,,,,
html-keyboard-response,82,182575,0.0-8.0-0.74,5fdbf74c5474cd11e39eeaf3,650c16f0f2faf8d7a0d14c09,651c1bcf32756a07155f5fba,null,null,"<p style=""font-size: 60px; font-family: BACS"">cDOEBTPOM</p>",,,,,,,,,,
html-keyboard-response,83,183578,0.0-8.0-0.75,5fdbf74c5474cd11e39eeaf3,650c16f0f2faf8d7a0d14c09,651c1bcf32756a07155f5fba,null,null,"<p style=""font-size: 60px; font-family: BACS"">YNrAmukbY</p>",,,,,,,,,,
html-keyboard-response,84,184579,0.0-8.0-0.76,5fdbf74c5474cd11e39eeaf3,650c16f0f2faf8d7a0d14c09,651c1bcf32756a07155f5fba,null,null,"<p style=""font-size: 60px; font-family: BACS"">BOCRMTPOM</p>",,,,,,,,,,
html-keyboard-response,85,185596,0.0-8.0-0.77,5fdbf74c5474cd11e39eeaf3,650c16f0f2faf8d7a0d14c09,651c1bcf32756a07155f5fba,null,null,"<p style=""font-size: 60px; font-family: BACS"">PCMPKdCKc</p>",,,,,,,,,,
html-keyboard-response,86,186612,0.0-8.0-0.78,5fdbf74c5474cd11e39eeaf3,650c16f0f2faf8d7a0d14c09,651c1bcf32756a07155f5fba,null,null,"<p style=""font-size: 60px; font-family: BACS"">kGlUuUY</p>",,,,,,,,,,
html-keyboard-response,87,187614,0.0-8.0-0.79,5fdbf74c5474cd11e39eeaf3,650c16f0f2faf8d7a0d14c09,651c1bcf32756a07155f5fba,null,null,"<p style=""font-size: 60px; font-family: BACS"">kcdOtCdt</p>",,,,,,,,,,
html-keyboard-response,88,193588,0.0-9.0,5fdbf74c5474cd11e39eeaf3,650c16f0f2faf8d7a0d14c09,651c1bcf32756a07155f5fba,5973, ,"<p>Great, you've seen the first block of words. You may now take a short break.</p>
      <p>Press the spacebar when you're ready to continue.</p>",,,,,,,,,,
html-keyboard-response,89,194595,0.0-10.0-0.0,5fdbf74c5474cd11e39eeaf3,650c16f0f2faf8d7a0d14c09,651c1bcf32756a07155f5fba,null,null,"<p style=""font-size: 60px; font-family: BACS"">DCmhCdt</p>",,,,,,,,,,
html-keyboard-response,90,195597,0.0-10.0-0.1,5fdbf74c5474cd11e39eeaf3,650c16f0f2faf8d7a0d14c09,651c1bcf32756a07155f5fba,null,null,"<p style=""font-size: 60px; font-family: BACS"">JZOAkuUY</p>",,,,,,,,,,
html-keyboard-response,91,196599,0.0-10.0-0.2,5fdbf74c5474cd11e39eeaf3,650c16f0f2faf8d7a0d14c09,651c1bcf32756a07155f5fba,null,null,"<p style=""font-size: 60px; font-family: BACS"">OcYMCmYA</p>",,,,,,,,,,
html-keyboard-response,92,197600,0.0-10.0-0.3,5fdbf74c5474cd11e39eeaf3,650c16f0f2faf8d7a0d14c09,651c1bcf32756a07155f5fba,null,null,"<p style=""font-size: 60px; font-family: BACS"">RlAKcTPOM</p>",,,,,,,,,,
html-keyboard-response,93,198606,0.0-10.0-0.4,5fdbf74c5474cd11e39eeaf3,650c16f0f2faf8d7a0d14c09,651c1bcf32756a07155f5fba,null,null,"<p style=""font-size: 60px; font-family: BACS"">YJLcAQru</p>",,,,,,,,,,
html-keyboard-response,94,199611,0.0-10.0-0.5,5fdbf74c5474cd11e39eeaf3,650c16f0f2faf8d7a0d14c09,651c1bcf32756a07155f5fba,null,null,"<p style=""font-size: 60px; font-family: BACS"">ObOQluUY</p>",,,,,,,,,,
html-keyboard-response,95,200612,0.0-10.0-0.6,5fdbf74c5474cd11e39eeaf3,650c16f0f2faf8d7a0d14c09,651c1bcf32756a07155f5fba,null,null,"<p style=""font-size: 60px; font-family: BACS"">JvaAukbY</p>",,,,,,,,,,
html-keyboard-response,96,201626,0.0-10.0-0.7,5fdbf74c5474cd11e39eeaf3,650c16f0f2faf8d7a0d14c09,651c1bcf32756a07155f5fba,null,null,"<p style=""font-size: 60px; font-family: BACS"">hChYbdtK</p>",,,,,,,,,,
html-keyboard-response,97,202629,0.0-10.0-0.8,5fdbf74c5474cd11e39eeaf3,650c16f0f2faf8d7a0d14c09,651c1bcf32756a07155f5fba,null,null,"<p style=""font-size: 60px; font-family: BACS"">lCbcmCmYA</p>",,,,,,,,,,
html-keyboard-response,98,203646,0.0-10.0-0.9,5fdbf74c5474cd11e39eeaf3,650c16f0f2faf8d7a0d14c09,651c1bcf32756a07155f5fba,null,null,"<p style=""font-size: 60px; font-family: BACS"">BOCRMTPOM</p>",,,,,,,,,,
html-keyboard-response,99,204647,0.0-10.0-0.10,5fdbf74c5474cd11e39eeaf3,650c16f0f2faf8d7a0d14c09,651c1bcf32756a07155f5fba,null,null,"<p style=""font-size: 60px; font-family: BACS"">AZaJcQru</p>",,,,,,,,,,
html-keyboard-response,100,205653,0.0-10.0-0.11,5fdbf74c5474cd11e39eeaf3,650c16f0f2faf8d7a0d14c09,651c1bcf32756a07155f5fba,null,null,"<p style=""font-size: 60px; font-family: BACS"">RlAKcbdtK</p>",,,,,,,,,,
html-keyboard-response,101,206658,0.0-10.0-0.12,5fdbf74c5474cd11e39eeaf3,650c16f0f2faf8d7a0d14c09,651c1bcf32756a07155f5fba,null,null,"<p style=""font-size: 60px; font-family: BACS"">BOCRMCmYA</p>",,,,,,,,,,
html-keyboard-response,102,207660,0.0-10.0-0.13,5fdbf74c5474cd11e39eeaf3,650c16f0f2faf8d7a0d14c09,651c1bcf32756a07155f5fba,null,null,"<p style=""font-size: 60px; font-family: BACS"">btlckbdtK</p>",,,,,,,,,,
html-keyboard-response,103,208663,0.0-10.0-0.14,5fdbf74c5474cd11e39eeaf3,650c16f0f2faf8d7a0d14c09,651c1bcf32756a07155f5fba,null,null,"<p style=""font-size: 60px; font-family: BACS"">hChYTPOM</p>",,,,,,,,,,
html-keyboard-response,104,209667,0.0-10.0-0.15,5fdbf74c5474cd11e39eeaf3,650c16f0f2faf8d7a0d14c09,651c1bcf32756a07155f5fba,null,null,"<p style=""font-size: 60px; font-family: BACS"">YNrAmQru</p>",,,,,,,,,,
html-keyboard-response,105,210681,0.0-10.0-0.16,5fdbf74c5474cd11e39eeaf3,650c16f0f2faf8d7a0d14c09,651c1bcf32756a07155f5fba,null,null,"<p style=""font-size: 60px; font-family: BACS"">BOCRMbdtK</p>",,,,,,,,,,
html-keyboard-response,106,211697,0.0-10.0-0.17,5fdbf74c5474cd11e39eeaf3,650c16f0f2faf8d7a0d14c09,651c1bcf32756a07155f5fba,null,null,"<p style=""font-size: 60px; font-family: BACS"">cuOJbYaum</p>",,,,,,,,,,
html-keyboard-response,107,212699,0.0-10.0-0.18,5fdbf74c5474cd11e39eeaf3,650c16f0f2faf8d7a0d14c09,651c1bcf32756a07155f5fba,null,null,"<p style=""font-size: 60px; font-family: BACS"">JvaAdUr</p>",,,,,,,,,,
html-keyboard-response,108,213701,0.0-10.0-0.19,5fdbf74c5474cd11e39eeaf3,650c16f0f2faf8d7a0d14c09,651c1bcf32756a07155f5fba,null,null,"<p style=""font-size: 60px; font-family: BACS"">btlckdCKc</p>",,,,,,,,,,
html-keyboard-response,109,214706,0.0-10.0-0.20,5fdbf74c5474cd11e39eeaf3,650c16f0f2faf8d7a0d14c09,651c1bcf32756a07155f5fba,null,null,"<p style=""font-size: 60px; font-family: BACS"">kGlUukbY</p>",,,,,,,,,,
html-keyboard-response,110,215710,0.0-10.0-0.21,5fdbf74c5474cd11e39eeaf3,650c16f0f2faf8d7a0d14c09,651c1bcf32756a07155f5fba,null,null,"<p style=""font-size: 60px; font-family: BACS"">AZaJcYaum</p>",,,,,,,,,,
html-keyboard-response,111,216724,0.0-10.0-0.22,5fdbf74c5474cd11e39eeaf3,650c16f0f2faf8d7a0d14c09,651c1bcf32756a07155f5fba,null,null,"<p style=""font-size: 60px; font-family: BACS"">OcYMCdt</p>",,,,,,,,,,
html-keyboard-response,112,217726,0.0-10.0-0.23,5fdbf74c5474cd11e39eeaf3,650c16f0f2faf8d7a0d14c09,651c1bcf32756a07155f5fba,null,null,"<p style=""font-size: 60px; font-family: BACS"">YNrAmdUr</p>",,,,,,,,,,
html-keyboard-response,113,218727,0.0-10.0-0.24,5fdbf74c5474cd11e39eeaf3,650c16f0f2faf8d7a0d14c09,651c1bcf32756a07155f5fba,null,null,"<p style=""font-size: 60px; font-family: BACS"">OcYMbdtK</p>",,,,,,,,,,
html-keyboard-response,114,219730,0.0-10.0-0.25,5fdbf74c5474cd11e39eeaf3,650c16f0f2faf8d7a0d14c09,651c1bcf32756a07155f5fba,null,null,"<p style=""font-size: 60px; font-family: BACS"">hChYdCKc</p>",,,,,,,,,,
html-keyboard-response,115,220733,0.0-10.0-0.26,5fdbf74c5474cd11e39eeaf3,650c16f0f2faf8d7a0d14c09,651c1bcf32756a07155f5fba,null,null,"<p style=""font-size: 60px; font-family: BACS"">cuOJbdUr</p>",,,,,,,,,,
html-keyboard-response,116,221748,0.0-10.0-0.27,5fdbf74c5474cd11e39eeaf3,650c16f0f2faf8d7a0d14c09,651c1bcf32756a07155f5fba,null,null,"<p style=""font-size: 60px; font-family: BACS"">PCMPKdCKc</p>",,,,,,,,,,
html-keyboard-response,117,222750,0.0-10.0-0.28,5fdbf74c5474cd11e39eeaf3,650c16f0f2faf8d7a0d14c09,651c1bcf32756a07155f5fba,null,null,"<p style=""font-size: 60px; font-family: BACS"">YLQmGYaum</p>",,,,,,,,,,
html-keyboard-response,118,223756,0.0-10.0-0.29,5fdbf74c5474cd11e39eeaf3,650c16f0f2faf8d7a0d14c09,651c1bcf32756a07155f5fba,null,null,"<p style=""font-size: 60px; font-family: BACS"">lCbcmCdt</p>",,,,,,,,,,
html-keyboard-response,119,224758,0.0-10.0-0.30,5fdbf74c5474cd11e39eeaf3,650c16f0f2faf8d7a0d14c09,651c1bcf32756a07155f5fba,null,null,"<p style=""font-size: 60px; font-family: BACS"">PCMPKbdtK</p>",,,,,,,,,,
html-keyboard-response,120,225759,0.0-10.0-0.31,5fdbf74c5474cd11e39eeaf3,650c16f0f2faf8d7a0d14c09,651c1bcf32756a07155f5fba,null,null,"<p style=""font-size: 60px; font-family: BACS"">cDOEBCdt</p>",,,,,,,,,,
html-keyboard-response,121,226775,0.0-10.0-0.32,5fdbf74c5474cd11e39eeaf3,650c16f0f2faf8d7a0d14c09,651c1bcf32756a07155f5fba,null,null,"<p style=""font-size: 60px; font-family: BACS"">kGlUdUr</p>",,,,,,,,,,
html-keyboard-response,122,227777,0.0-10.0-0.33,5fdbf74c5474cd11e39eeaf3,650c16f0f2faf8d7a0d14c09,651c1bcf32756a07155f5fba,null,null,"<p style=""font-size: 60px; font-family: BACS"">RlAKcdCKc</p>",,,,,,,,,,
html-keyboard-response,123,228780,0.0-10.0-0.34,5fdbf74c5474cd11e39eeaf3,650c16f0f2faf8d7a0d14c09,651c1bcf32756a07155f5fba,null,null,"<p style=""font-size: 60px; font-family: BACS"">OcYMTPOM</p>",,,,,,,,,,
html-keyboard-response,124,229796,0.0-10.0-0.35,5fdbf74c5474cd11e39eeaf3,650c16f0f2faf8d7a0d14c09,651c1bcf32756a07155f5fba,null,null,"<p style=""font-size: 60px; font-family: BACS"">DCmhdCKc</p>",,,,,,,,,,
html-keyboard-response,125,230799,0.0-10.0-0.36,5fdbf74c5474cd11e39eeaf3,650c16f0f2faf8d7a0d14c09,651c1bcf32756a07155f5fba,null,null,"<p style=""font-size: 60px; font-family: BACS"">BOCRMCdt</p>",,,,,,,,,,
html-keyboard-response,126,231801,0.0-10.0-0.37,5fdbf74c5474cd11e39eeaf3,650c16f0f2faf8d7a0d14c09,651c1bcf32756a07155f5fba,null,null,"<p style=""font-size: 60px; font-family: BACS"">PCMPKCmYA</p>",,,,,,,,,,
html-keyboard-response,127,232805,0.0-10.0-0.38,5fdbf74c5474cd11e39eeaf3,650c16f0f2faf8d7a0d14c09,651c1bcf32756a07155f5fba,null,null,"<p style=""font-size: 60px; font-family: BACS"">lCbcmTPOM</p>",,,,,,,,,,
html-keyboard-response,128,233807,0.0-10.0-0.39,5fdbf74c5474cd11e39eeaf3,650c16f0f2faf8d7a0d14c09,651c1bcf32756a07155f5fba,null,null,"<p style=""font-size: 60px; font-family: BACS"">DCmhbdtK</p>",,,,,,,,,,
html-keyboard-response,129,234811,0.0-10.0-0.40,5fdbf74c5474cd11e39eeaf3,650c16f0f2faf8d7a0d14c09,651c1bcf32756a07155f5fba,null,null,"<p style=""font-size: 60px; font-family: BACS"">LGkAukbY</p>",,,,,,,,,,
html-keyboard-response,130,235813,0.0-10.0-0.41,5fdbf74c5474cd11e39eeaf3,650c16f0f2faf8d7a0d14c09,651c1bcf32756a07155f5fba,null,null,"<p style=""font-size: 60px; font-family: BACS"">ObOQlQru</p>",,,,,,,,,,
html-keyboard-response,131,236818,0.0-10.0-0.42,5fdbf74c5474cd11e39eeaf3,650c16f0f2faf8d7a0d14c09,651c1bcf32756a07155f5fba,null,null,"<p style=""font-size: 60px; font-family: BACS"">kcdOtCdt</p>",,,,,,,,,,
html-keyboard-response,132,237832,0.0-10.0-0.43,5fdbf74c5474cd11e39eeaf3,650c16f0f2faf8d7a0d14c09,651c1bcf32756a07155f5fba,null,null,"<p style=""font-size: 60px; font-family: BACS"">JZOAkYaum</p>",,,,,,,,,,
html-keyboard-response,133,238837,0.0-10.0-0.44,5fdbf74c5474cd11e39eeaf3,650c16f0f2faf8d7a0d14c09,651c1bcf32756a07155f5fba,null,null,"<p style=""font-size: 60px; font-family: BACS"">YJLcAukbY</p>",,,,,,,,,,
html-keyboard-response,134,239840,0.0-10.0-0.45,5fdbf74c5474cd11e39eeaf3,650c16f0f2faf8d7a0d14c09,651c1bcf32756a07155f5fba,null,null,"<p style=""font-size: 60px; font-family: BACS"">cuOJbuUY</p>",,,,,,,,,,
html-keyboard-response,135,240842,0.0-10.0-0.46,5fdbf74c5474cd11e39eeaf3,650c16f0f2faf8d7a0d14c09,651c1bcf32756a07155f5fba,null,null,"<p style=""font-size: 60px; font-family: BACS"">YJLcAYaum</p>",,,,,,,,,,
html-keyboard-response,136,241844,0.0-10.0-0.47,5fdbf74c5474cd11e39eeaf3,650c16f0f2faf8d7a0d14c09,651c1bcf32756a07155f5fba,null,null,"<p style=""font-size: 60px; font-family: BACS"">AZaJcuUY</p>",,,,,,,,,,
html-keyboard-response,137,242846,0.0-10.0-0.48,5fdbf74c5474cd11e39eeaf3,650c16f0f2faf8d7a0d14c09,651c1bcf32756a07155f5fba,null,null,"<p style=""font-size: 60px; font-family: BACS"">kGlUQru</p>",,,,,,,,,,
html-keyboard-response,138,243862,0.0-10.0-0.49,5fdbf74c5474cd11e39eeaf3,650c16f0f2faf8d7a0d14c09,651c1bcf32756a07155f5fba,null,null,"<p style=""font-size: 60px; font-family: BACS"">LGkAuUY</p>",,,,,,,,,,
html-keyboard-response,139,244865,0.0-10.0-0.50,5fdbf74c5474cd11e39eeaf3,650c16f0f2faf8d7a0d14c09,651c1bcf32756a07155f5fba,null,null,"<p style=""font-size: 60px; font-family: BACS"">PCMPKCdt</p>",,,,,,,,,,
html-keyboard-response,140,245880,0.0-10.0-0.51,5fdbf74c5474cd11e39eeaf3,650c16f0f2faf8d7a0d14c09,651c1bcf32756a07155f5fba,null,null,"<p style=""font-size: 60px; font-family: BACS"">cuOJbQru</p>",,,,,,,,,,
html-keyboard-response,141,246882,0.0-10.0-0.52,5fdbf74c5474cd11e39eeaf3,650c16f0f2faf8d7a0d14c09,651c1bcf32756a07155f5fba,null,null,"<p style=""font-size: 60px; font-family: BACS"">kcdOtTPOM</p>",,,,,,,,,,
html-keyboard-response,142,247885,0.0-10.0-0.53,5fdbf74c5474cd11e39eeaf3,650c16f0f2faf8d7a0d14c09,651c1bcf32756a07155f5fba,null,null,"<p style=""font-size: 60px; font-family: BACS"">cDOEBdCKc</p>",,,,,,,,,,
html-keyboard-response,143,248890,0.0-10.0-0.54,5fdbf74c5474cd11e39eeaf3,650c16f0f2faf8d7a0d14c09,651c1bcf32756a07155f5fba,null,null,"<p style=""font-size: 60px; font-family: BACS"">JvaAQru</p>",,,,,,,,,,
html-keyboard-response,144,249892,0.0-10.0-0.55,5fdbf74c5474cd11e39eeaf3,650c16f0f2faf8d7a0d14c09,651c1bcf32756a07155f5fba,null,null,"<p style=""font-size: 60px; font-family: BACS"">kcdOtCmYA</p>",,,,,,,,,,
html-keyboard-response,145,250908,0.0-10.0-0.56,5fdbf74c5474cd11e39eeaf3,650c16f0f2faf8d7a0d14c09,651c1bcf32756a07155f5fba,null,null,"<p style=""font-size: 60px; font-family: BACS"">LGkAQru</p>",,,,,,,,,,
html-keyboard-response,146,251911,0.0-10.0-0.57,5fdbf74c5474cd11e39eeaf3,650c16f0f2faf8d7a0d14c09,651c1bcf32756a07155f5fba,null,null,"<p style=""font-size: 60px; font-family: BACS"">YLQmGuUY</p>",,,,,,,,,,
html-keyboard-response,147,252913,0.0-10.0-0.58,5fdbf74c5474cd11e39eeaf3,650c16f0f2faf8d7a0d14c09,651c1bcf32756a07155f5fba,null,null,"<p style=""font-size: 60px; font-family: BACS"">cDOEBTPOM</p>",,,,,,,,,,
html-keyboard-response,148,253917,0.0-10.0-0.59,5fdbf74c5474cd11e39eeaf3,650c16f0f2faf8d7a0d14c09,651c1bcf32756a07155f5fba,null,null,"<p style=""font-size: 60px; font-family: BACS"">kGlUuUY</p>",,,,,,,,,,
html-keyboard-response,149,254922,0.0-10.0-0.60,5fdbf74c5474cd11e39eeaf3,650c16f0f2faf8d7a0d14c09,651c1bcf32756a07155f5fba,null,null,"<p style=""font-size: 60px; font-family: BACS"">btlckCdt</p>",,,,,,,,,,
html-keyboard-response,150,255938,0.0-10.0-0.61,5fdbf74c5474cd11e39eeaf3,650c16f0f2faf8d7a0d14c09,651c1bcf32756a07155f5fba,null,null,"<p style=""font-size: 60px; font-family: BACS"">YNrAmYaum</p>",,,,,,,,,,
html-keyboard-response,151,256943,0.0-10.0-0.62,5fdbf74c5474cd11e39eeaf3,650c16f0f2faf8d7a0d14c09,651c1bcf32756a07155f5fba,null,null,"<p style=""font-size: 60px; font-family: BACS"">YJLcAuUY</p>",,,,,,,,,,
html-keyboard-response,152,257945,0.0-10.0-0.63,5fdbf74c5474cd11e39eeaf3,650c16f0f2faf8d7a0d14c09,651c1bcf32756a07155f5fba,null,null,"<p style=""font-size: 60px; font-family: BACS"">btlckCmYA</p>",,,,,,,,,,
html-keyboard-response,153,258947,0.0-10.0-0.64,5fdbf74c5474cd11e39eeaf3,650c16f0f2faf8d7a0d14c09,651c1bcf32756a07155f5fba,null,null,"<p style=""font-size: 60px; font-family: BACS"">YLQmGukbY</p>",,,,,,,,,,
html-keyboard-response,154,259952,0.0-10.0-0.65,5fdbf74c5474cd11e39eeaf3,650c16f0f2faf8d7a0d14c09,651c1bcf32756a07155f5fba,null,null,"<p style=""font-size: 60px; font-family: BACS"">lCbcmdCKc</p>",,,,,,,,,,
html-keyboard-response,155,260955,0.0-10.0-0.66,5fdbf74c5474cd11e39eeaf3,650c16f0f2faf8d7a0d14c09,651c1bcf32756a07155f5fba,null,null,"<p style=""font-size: 60px; font-family: BACS"">hChYCmYA</p>",,,,,,,,,,
html-keyboard-response,156,261959,0.0-10.0-0.67,5fdbf74c5474cd11e39eeaf3,650c16f0f2faf8d7a0d14c09,651c1bcf32756a07155f5fba,null,null,"<p style=""font-size: 60px; font-family: BACS"">ObOQldUr</p>",,,,,,,,,,
html-keyboard-response,157,262962,0.0-10.0-0.68,5fdbf74c5474cd11e39eeaf3,650c16f0f2faf8d7a0d14c09,651c1bcf32756a07155f5fba,null,null,"<p style=""font-size: 60px; font-family: BACS"">kcdOtdCKc</p>",,,,,,,,,,
html-keyboard-response,158,263964,0.0-10.0-0.69,5fdbf74c5474cd11e39eeaf3,650c16f0f2faf8d7a0d14c09,651c1bcf32756a07155f5fba,null,null,"<p style=""font-size: 60px; font-family: BACS"">YLQmGdUr</p>",,,,,,,,,,
html-keyboard-response,159,264967,0.0-10.0-0.70,5fdbf74c5474cd11e39eeaf3,650c16f0f2faf8d7a0d14c09,651c1bcf32756a07155f5fba,null,null,"<p style=""font-size: 60px; font-family: BACS"">JvaAYaum</p>",,,,,,,,,,
html-keyboard-response,160,265972,0.0-10.0-0.71,5fdbf74c5474cd11e39eeaf3,650c16f0f2faf8d7a0d14c09,651c1bcf32756a07155f5fba,null,null,"<p style=""font-size: 60px; font-family: BACS"">JZOAkukbY</p>",,,,,,,,,,
html-keyboard-response,161,266978,0.0-10.0-0.72,5fdbf74c5474cd11e39eeaf3,650c16f0f2faf8d7a0d14c09,651c1bcf32756a07155f5fba,null,null,"<p style=""font-size: 60px; font-family: BACS"">ObOQlYaum</p>",,,,,,,,,,
html-keyboard-response,162,267979,0.0-10.0-0.73,5fdbf74c5474cd11e39eeaf3,650c16f0f2faf8d7a0d14c09,651c1bcf32756a07155f5fba,null,null,"<p style=""font-size: 60px; font-family: BACS"">YNrAmukbY</p>",,,,,,,,,,
html-keyboard-response,163,268981,0.0-10.0-0.74,5fdbf74c5474cd11e39eeaf3,650c16f0f2faf8d7a0d14c09,651c1bcf32756a07155f5fba,null,null,"<p style=""font-size: 60px; font-family: BACS"">DCmhTPOM</p>",,,,,,,,,,
html-keyboard-response,164,269983,0.0-10.0-0.75,5fdbf74c5474cd11e39eeaf3,650c16f0f2faf8d7a0d14c09,651c1bcf32756a07155f5fba,null,null,"<p style=""font-size: 60px; font-family: BACS"">cDOEBbdtK</p>",,,,,,,,,,
html-keyboard-response,165,270984,0.0-10.0-0.76,5fdbf74c5474cd11e39eeaf3,650c16f0f2faf8d7a0d14c09,651c1bcf32756a07155f5fba,null,null,"<p style=""font-size: 60px; font-family: BACS"">JZOAkdUr</p>",,,,,,,,,,
html-keyboard-response,166,272000,0.0-10.0-0.77,5fdbf74c5474cd11e39eeaf3,650c16f0f2faf8d7a0d14c09,651c1bcf32756a07155f5fba,null,null,"<p style=""font-size: 60px; font-family: BACS"">RlAKcCmYA</p>",,,,,,,,,,
html-keyboard-response,167,273004,0.0-10.0-0.78,5fdbf74c5474cd11e39eeaf3,650c16f0f2faf8d7a0d14c09,651c1bcf32756a07155f5fba,null,null,"<p style=""font-size: 60px; font-family: BACS"">LGkAdUr</p>",,,,,,,,,,
html-keyboard-response,168,274005,0.0-10.0-0.79,5fdbf74c5474cd11e39eeaf3,650c16f0f2faf8d7a0d14c09,651c1bcf32756a07155f5fba,null,null,"<p style=""font-size: 60px; font-family: BACS"">AZaJcukbY</p>",,,,,,,,,,
html-keyboard-response,169,373661,0.0-11.0,5fdbf74c5474cd11e39eeaf3,650c16f0f2faf8d7a0d14c09,651c1bcf32756a07155f5fba,99654, ,"<p>Great, you've seen the second block of words. You may now take a short break.</p>
      <p>Press the spacebar when you're ready to continue.</p>",,,,,,,,,,
html-keyboard-response,170,374673,0.0-12.0-0.0,5fdbf74c5474cd11e39eeaf3,650c16f0f2faf8d7a0d14c09,651c1bcf32756a07155f5fba,null,null,"<p style=""font-size: 60px; font-family: BACS"">btlckdCKc</p>",,,,,,,,,,
html-keyboard-response,171,375676,0.0-12.0-0.1,5fdbf74c5474cd11e39eeaf3,650c16f0f2faf8d7a0d14c09,651c1bcf32756a07155f5fba,null,null,"<p style=""font-size: 60px; font-family: BACS"">lCbcmCmYA</p>",,,,,,,,,,
html-keyboard-response,172,376678,0.0-12.0-0.2,5fdbf74c5474cd11e39eeaf3,650c16f0f2faf8d7a0d14c09,651c1bcf32756a07155f5fba,null,null,"<p style=""font-size: 60px; font-family: BACS"">YJLcAukbY</p>",,,,,,,,,,
html-keyboard-response,173,377680,0.0-12.0-0.3,5fdbf74c5474cd11e39eeaf3,650c16f0f2faf8d7a0d14c09,651c1bcf32756a07155f5fba,null,null,"<p style=""font-size: 60px; font-family: BACS"">OcYMCdt</p>",,,,,,,,,,
html-keyboard-response,174,378683,0.0-12.0-0.4,5fdbf74c5474cd11e39eeaf3,650c16f0f2faf8d7a0d14c09,651c1bcf32756a07155f5fba,null,null,"<p style=""font-size: 60px; font-family: BACS"">RlAKcdCKc</p>",,,,,,,,,,
html-keyboard-response,175,379686,0.0-12.0-0.5,5fdbf74c5474cd11e39eeaf3,650c16f0f2faf8d7a0d14c09,651c1bcf32756a07155f5fba,null,null,"<p style=""font-size: 60px; font-family: BACS"">PCMPKCdt</p>",,,,,,,,,,
html-keyboard-response,176,380689,0.0-12.0-0.6,5fdbf74c5474cd11e39eeaf3,650c16f0f2faf8d7a0d14c09,651c1bcf32756a07155f5fba,null,null,"<p style=""font-size: 60px; font-family: BACS"">DCmhdCKc</p>",,,,,,,,,,
html-keyboard-response,177,381692,0.0-12.0-0.7,5fdbf74c5474cd11e39eeaf3,650c16f0f2faf8d7a0d14c09,651c1bcf32756a07155f5fba,null,null,"<p style=""font-size: 60px; font-family: BACS"">AZaJcukbY</p>",,,,,,,,,,
html-keyboard-response,178,382694,0.0-12.0-0.8,5fdbf74c5474cd11e39eeaf3,650c16f0f2faf8d7a0d14c09,651c1bcf32756a07155f5fba,null,null,"<p style=""font-size: 60px; font-family: BACS"">ObOQluUY</p>",,,,,,,,,,
html-keyboard-response,179,383697,0.0-12.0-0.9,5fdbf74c5474cd11e39eeaf3,650c16f0f2faf8d7a0d14c09,651c1bcf32756a07155f5fba,null,null,"<p style=""font-size: 60px; font-family: BACS"">JvaAdUr</p>",,,,,,,,,,
html-keyboard-response,180,384698,0.0-12.0-0.10,5fdbf74c5474cd11e39eeaf3,650c16f0f2faf8d7a0d14c09,651c1bcf32756a07155f5fba,null,null,"<p style=""font-size: 60px; font-family: BACS"">PCMPKdCKc</p>",,,,,,,,,,
html-keyboard-response,181,385703,0.0-12.0-0.11,5fdbf74c5474cd11e39eeaf3,650c16f0f2faf8d7a0d14c09,651c1bcf32756a07155f5fba,null,null,"<p style=""font-size: 60px; font-family: BACS"">cDOEBCdt</p>",,,,,,,,,,
html-keyboard-response,182,386710,0.0-12.0-0.12,5fdbf74c5474cd11e39eeaf3,650c16f0f2faf8d7a0d14c09,651c1bcf32756a07155f5fba,null,null,"<p style=""font-size: 60px; font-family: BACS"">cuOJbuUY</p>",,,,,,,,,,
html-keyboard-response,183,387711,0.0-12.0-0.13,5fdbf74c5474cd11e39eeaf3,650c16f0f2faf8d7a0d14c09,651c1bcf32756a07155f5fba,null,null,"<p style=""font-size: 60px; font-family: BACS"">hChYCmYA</p>",,,,,,,,,,
html-keyboard-response,184,388727,0.0-12.0-0.14,5fdbf74c5474cd11e39eeaf3,650c16f0f2faf8d7a0d14c09,651c1bcf32756a07155f5fba,null,null,"<p style=""font-size: 60px; font-family: BACS"">cDOEBbdtK</p>",,,,,,,,,,
html-keyboard-response,185,389728,0.0-12.0-0.15,5fdbf74c5474cd11e39eeaf3,650c16f0f2faf8d7a0d14c09,651c1bcf32756a07155f5fba,null,null,"<p style=""font-size: 60px; font-family: BACS"">ObOQldUr</p>",,,,,,,,,,
html-keyboard-response,186,390731,0.0-12.0-0.16,5fdbf74c5474cd11e39eeaf3,650c16f0f2faf8d7a0d14c09,651c1bcf32756a07155f5fba,null,null,"<p style=""font-size: 60px; font-family: BACS"">PCMPKCmYA</p>",,,,,,,,,,
html-keyboard-response,187,391736,0.0-12.0-0.17,5fdbf74c5474cd11e39eeaf3,650c16f0f2faf8d7a0d14c09,651c1bcf32756a07155f5fba,null,null,"<p style=""font-size: 60px; font-family: BACS"">ObOQlQru</p>",,,,,,,,,,
html-keyboard-response,188,392752,0.0-12.0-0.18,5fdbf74c5474cd11e39eeaf3,650c16f0f2faf8d7a0d14c09,651c1bcf32756a07155f5fba,null,null,"<p style=""font-size: 60px; font-family: BACS"">YLQmGdUr</p>",,,,,,,,,,
html-keyboard-response,189,393755,0.0-12.0-0.19,5fdbf74c5474cd11e39eeaf3,650c16f0f2faf8d7a0d14c09,651c1bcf32756a07155f5fba,null,null,"<p style=""font-size: 60px; font-family: BACS"">JZOAkYaum</p>",,,,,,,,,,
html-keyboard-response,190,394760,0.0-12.0-0.20,5fdbf74c5474cd11e39eeaf3,650c16f0f2faf8d7a0d14c09,651c1bcf32756a07155f5fba,null,null,"<p style=""font-size: 60px; font-family: BACS"">BOCRMCmYA</p>",,,,,,,,,,
html-keyboard-response,191,395774,0.0-12.0-0.21,5fdbf74c5474cd11e39eeaf3,650c16f0f2faf8d7a0d14c09,651c1bcf32756a07155f5fba,null,null,"<p style=""font-size: 60px; font-family: BACS"">PCMPKbdtK</p>",,,,,,,,,,
html-keyboard-response,192,396789,0.0-12.0-0.22,5fdbf74c5474cd11e39eeaf3,650c16f0f2faf8d7a0d14c09,651c1bcf32756a07155f5fba,null,null,"<p style=""font-size: 60px; font-family: BACS"">JZOAkdUr</p>",,,,,,,,,,
html-keyboard-response,193,397791,0.0-12.0-0.23,5fdbf74c5474cd11e39eeaf3,650c16f0f2faf8d7a0d14c09,651c1bcf32756a07155f5fba,null,null,"<p style=""font-size: 60px; font-family: BACS"">btlckCdt</p>",,,,,,,,,,
html-keyboard-response,194,398795,0.0-12.0-0.24,5fdbf74c5474cd11e39eeaf3,650c16f0f2faf8d7a0d14c09,651c1bcf32756a07155f5fba,null,null,"<p style=""font-size: 60px; font-family: BACS"">cuOJbYaum</p>",,,,,,,,,,
html-keyboard-response,195,399797,0.0-12.0-0.25,5fdbf74c5474cd11e39eeaf3,650c16f0f2faf8d7a0d14c09,651c1bcf32756a07155f5fba,null,null,"<p style=""font-size: 60px; font-family: BACS"">kGlUukbY</p>",,,,,,,,,,
html-keyboard-response,196,400799,0.0-12.0-0.26,5fdbf74c5474cd11e39eeaf3,650c16f0f2faf8d7a0d14c09,651c1bcf32756a07155f5fba,null,null,"<p style=""font-size: 60px; font-family: BACS"">hChYTPOM</p>",,,,,,,,,,
html-keyboard-response,197,401802,0.0-12.0-0.27,5fdbf74c5474cd11e39eeaf3,650c16f0f2faf8d7a0d14c09,651c1bcf32756a07155f5fba,null,null,"<p style=""font-size: 60px; font-family: BACS"">YJLcAuUY</p>",,,,,,,,,,
html-keyboard-response,198,402805,0.0-12.0-0.28,5fdbf74c5474cd11e39eeaf3,650c16f0f2faf8d7a0d14c09,651c1bcf32756a07155f5fba,null,null,"<p style=""font-size: 60px; font-family: BACS"">JvaAYaum</p>",,,,,,,,,,
html-keyboard-response,199,403806,0.0-12.0-0.29,5fdbf74c5474cd11e39eeaf3,650c16f0f2faf8d7a0d14c09,651c1bcf32756a07155f5fba,null,null,"<p style=""font-size: 60px; font-family: BACS"">cDOEBTPOM</p>",,,,,,,,,,
html-keyboard-response,200,404810,0.0-12.0-0.30,5fdbf74c5474cd11e39eeaf3,650c16f0f2faf8d7a0d14c09,651c1bcf32756a07155f5fba,null,null,"<p style=""font-size: 60px; font-family: BACS"">YLQmGukbY</p>",,,,,,,,,,
html-keyboard-response,201,405812,0.0-12.0-0.31,5fdbf74c5474cd11e39eeaf3,650c16f0f2faf8d7a0d14c09,651c1bcf32756a07155f5fba,null,null,"<p style=""font-size: 60px; font-family: BACS"">AZaJcQru</p>",,,,,,,,,,
html-keyboard-response,202,406829,0.0-12.0-0.32,5fdbf74c5474cd11e39eeaf3,650c16f0f2faf8d7a0d14c09,651c1bcf32756a07155f5fba,null,null,"<p style=""font-size: 60px; font-family: BACS"">BOCRMbdtK</p>",,,,,,,,,,
html-keyboard-response,203,407832,0.0-12.0-0.33,5fdbf74c5474cd11e39eeaf3,650c16f0f2faf8d7a0d14c09,651c1bcf32756a07155f5fba,null,null,"<p style=""font-size: 60px; font-family: BACS"">cuOJbQru</p>",,,,,,,,,,
html-keyboard-response,204,408834,0.0-12.0-0.34,5fdbf74c5474cd11e39eeaf3,650c16f0f2faf8d7a0d14c09,651c1bcf32756a07155f5fba,null,null,"<p style=""font-size: 60px; font-family: BACS"">YNrAmYaum</p>",,,,,,,,,,
html-keyboard-response,205,409836,0.0-12.0-0.35,5fdbf74c5474cd11e39eeaf3,650c16f0f2faf8d7a0d14c09,651c1bcf32756a07155f5fba,null,null,"<p style=""font-size: 60px; font-family: BACS"">OcYMCmYA</p>",,,,,,,,,,
html-keyboard-response,206,410841,0.0-12.0-0.36,5fdbf74c5474cd11e39eeaf3,650c16f0f2faf8d7a0d14c09,651c1bcf32756a07155f5fba,null,null,"<p style=""font-size: 60px; font-family: BACS"">JZOAkukbY</p>",,,,,,,,,,
html-keyboard-response,207,411857,0.0-12.0-0.37,5fdbf74c5474cd11e39eeaf3,650c16f0f2faf8d7a0d14c09,651c1bcf32756a07155f5fba,null,null,"<p style=""font-size: 60px; font-family: BACS"">kGlUuUY</p>",,,,,,,,,,
html-keyboard-response,208,412872,0.0-12.0-0.38,5fdbf74c5474cd11e39eeaf3,650c16f0f2faf8d7a0d14c09,651c1bcf32756a07155f5fba,null,null,"<p style=""font-size: 60px; font-family: BACS"">BOCRMTPOM</p>",,,,,,,,,,
html-keyboard-response,209,413887,0.0-12.0-0.39,5fdbf74c5474cd11e39eeaf3,650c16f0f2faf8d7a0d14c09,651c1bcf32756a07155f5fba,null,null,"<p style=""font-size: 60px; font-family: BACS"">YNrAmQru</p>",,,,,,,,,,
html-keyboard-response,210,414890,0.0-12.0-0.40,5fdbf74c5474cd11e39eeaf3,650c16f0f2faf8d7a0d14c09,651c1bcf32756a07155f5fba,null,null,"<p style=""font-size: 60px; font-family: BACS"">kcdOtCdt</p>",,,,,,,,,,
html-keyboard-response,211,415892,0.0-12.0-0.41,5fdbf74c5474cd11e39eeaf3,650c16f0f2faf8d7a0d14c09,651c1bcf32756a07155f5fba,null,null,"<p style=""font-size: 60px; font-family: BACS"">lCbcmTPOM</p>",,,,,,,,,,
html-keyboard-response,212,416895,0.0-12.0-0.42,5fdbf74c5474cd11e39eeaf3,650c16f0f2faf8d7a0d14c09,651c1bcf32756a07155f5fba,null,null,"<p style=""font-size: 60px; font-family: BACS"">YNrAmdUr</p>",,,,,,,,,,
html-keyboard-response,213,417896,0.0-12.0-0.43,5fdbf74c5474cd11e39eeaf3,650c16f0f2faf8d7a0d14c09,651c1bcf32756a07155f5fba,null,null,"<p style=""font-size: 60px; font-family: BACS"">hChYbdtK</p>",,,,,,,,,,
html-keyboard-response,214,418901,0.0-12.0-0.44,5fdbf74c5474cd11e39eeaf3,650c16f0f2faf8d7a0d14c09,651c1bcf32756a07155f5fba,null,null,"<p style=""font-size: 60px; font-family: BACS"">BOCRMCdt</p>",,,,,,,,,,
html-keyboard-response,215,419905,0.0-12.0-0.45,5fdbf74c5474cd11e39eeaf3,650c16f0f2faf8d7a0d14c09,651c1bcf32756a07155f5fba,null,null,"<p style=""font-size: 60px; font-family: BACS"">cDOEBdCKc</p>",,,,,,,,,,
html-keyboard-response,216,420908,0.0-12.0-0.46,5fdbf74c5474cd11e39eeaf3,650c16f0f2faf8d7a0d14c09,651c1bcf32756a07155f5fba,null,null,"<p style=""font-size: 60px; font-family: BACS"">LGkAuUY</p>",,,,,,,,,,
html-keyboard-response,217,421910,0.0-12.0-0.47,5fdbf74c5474cd11e39eeaf3,650c16f0f2faf8d7a0d14c09,651c1bcf32756a07155f5fba,null,null,"<p style=""font-size: 60px; font-family: BACS"">lCbcmdCKc</p>",,,,,,,,,,
html-keyboard-response,218,422926,0.0-12.0-0.48,5fdbf74c5474cd11e39eeaf3,650c16f0f2faf8d7a0d14c09,651c1bcf32756a07155f5fba,null,null,"<p style=""font-size: 60px; font-family: BACS"">ObOQlYaum</p>",,,,,,,,,,
html-keyboard-response,219,423928,0.0-12.0-0.49,5fdbf74c5474cd11e39eeaf3,650c16f0f2faf8d7a0d14c09,651c1bcf32756a07155f5fba,null,null,"<p style=""font-size: 60px; font-family: BACS"">JvaAQru</p>",,,,,,,,,,
html-keyboard-response,220,424943,0.0-12.0-0.50,5fdbf74c5474cd11e39eeaf3,650c16f0f2faf8d7a0d14c09,651c1bcf32756a07155f5fba,null,null,"<p style=""font-size: 60px; font-family: BACS"">YJLcAYaum</p>",,,,,,,,,,
html-keyboard-response,221,425959,0.0-12.0-0.51,5fdbf74c5474cd11e39eeaf3,650c16f0f2faf8d7a0d14c09,651c1bcf32756a07155f5fba,null,null,"<p style=""font-size: 60px; font-family: BACS"">cuOJbdUr</p>",,,,,,,,,,
html-keyboard-response,222,426963,0.0-12.0-0.52,5fdbf74c5474cd11e39eeaf3,650c16f0f2faf8d7a0d14c09,651c1bcf32756a07155f5fba,null,null,"<p style=""font-size: 60px; font-family: BACS"">btlckbdtK</p>",,,,,,,,,,
html-keyboard-response,223,427966,0.0-12.0-0.53,5fdbf74c5474cd11e39eeaf3,650c16f0f2faf8d7a0d14c09,651c1bcf32756a07155f5fba,null,null,"<p style=""font-size: 60px; font-family: BACS"">JZOAkuUY</p>",,,,,,,,,,
html-keyboard-response,224,428968,0.0-12.0-0.54,5fdbf74c5474cd11e39eeaf3,650c16f0f2faf8d7a0d14c09,651c1bcf32756a07155f5fba,null,null,"<p style=""font-size: 60px; font-family: BACS"">LGkAQru</p>",,,,,,,,,,
html-keyboard-response,225,429984,0.0-12.0-0.55,5fdbf74c5474cd11e39eeaf3,650c16f0f2faf8d7a0d14c09,651c1bcf32756a07155f5fba,null,null,"<p style=""font-size: 60px; font-family: BACS"">lCbcmCdt</p>",,,,,,,,,,
html-keyboard-response,226,430999,0.0-12.0-0.56,5fdbf74c5474cd11e39eeaf3,650c16f0f2faf8d7a0d14c09,651c1bcf32756a07155f5fba,null,null,"<p style=""font-size: 60px; font-family: BACS"">btlckCmYA</p>",,,,,,,,,,
html-keyboard-response,227,432000,0.0-12.0-0.57,5fdbf74c5474cd11e39eeaf3,650c16f0f2faf8d7a0d14c09,651c1bcf32756a07155f5fba,null,null,"<p style=""font-size: 60px; font-family: BACS"">LGkAdUr</p>",,,,,,,,,,
html-keyboard-response,228,433016,0.0-12.0-0.58,5fdbf74c5474cd11e39eeaf3,650c16f0f2faf8d7a0d14c09,651c1bcf32756a07155f5fba,null,null,"<p style=""font-size: 60px; font-family: BACS"">DCmhbdtK</p>",,,,,,,,,,
html-keyboard-response,229,434031,0.0-12.0-0.59,5fdbf74c5474cd11e39eeaf3,650c16f0f2faf8d7a0d14c09,651c1bcf32756a07155f5fba,null,null,"<p style=""font-size: 60px; font-family: BACS"">YLQmGuUY</p>",,,,,,,,,,
html-keyboard-response,230,435034,0.0-12.0-0.60,5fdbf74c5474cd11e39eeaf3,650c16f0f2faf8d7a0d14c09,651c1bcf32756a07155f5fba,null,null,"<p style=""font-size: 60px; font-family: BACS"">kGlUdUr</p>",,,,,,,,,,
html-keyboard-response,231,436036,0.0-12.0-0.61,5fdbf74c5474cd11e39eeaf3,650c16f0f2faf8d7a0d14c09,651c1bcf32756a07155f5fba,null,null,"<p style=""font-size: 60px; font-family: BACS"">YJLcAQru</p>",,,,,,,,,,
html-keyboard-response,232,437053,0.0-12.0-0.62,5fdbf74c5474cd11e39eeaf3,650c16f0f2faf8d7a0d14c09,651c1bcf32756a07155f5fba,null,null,"<p style=""font-size: 60px; font-family: BACS"">OcYMbdtK</p>",,,,,,,,,,
html-keyboard-response,233,438069,0.0-12.0-0.63,5fdbf74c5474cd11e39eeaf3,650c16f0f2faf8d7a0d14c09,651c1bcf32756a07155f5fba,null,null,"<p style=""font-size: 60px; font-family: BACS"">AZaJcuUY</p>",,,,,,,,,,
html-keyboard-response,234,439084,0.0-12.0-0.64,5fdbf74c5474cd11e39eeaf3,650c16f0f2faf8d7a0d14c09,651c1bcf32756a07155f5fba,null,null,"<p style=""font-size: 60px; font-family: BACS"">YNrAmukbY</p>",,,,,,,,,,
html-keyboard-response,235,440087,0.0-12.0-0.65,5fdbf74c5474cd11e39eeaf3,650c16f0f2faf8d7a0d14c09,651c1bcf32756a07155f5fba,null,null,"<p style=""font-size: 60px; font-family: BACS"">RlAKcTPOM</p>",,,,,,,,,,
html-keyboard-response,236,441092,0.0-12.0-0.66,5fdbf74c5474cd11e39eeaf3,650c16f0f2faf8d7a0d14c09,651c1bcf32756a07155f5fba,null,null,"<p style=""font-size: 60px; font-family: BACS"">AZaJcYaum</p>",,,,,,,,,,
html-keyboard-response,237,442095,0.0-12.0-0.67,5fdbf74c5474cd11e39eeaf3,650c16f0f2faf8d7a0d14c09,651c1bcf32756a07155f5fba,null,null,"<p style=""font-size: 60px; font-family: BACS"">kcdOtdCKc</p>",,,,,,,,,,
html-keyboard-response,238,443099,0.0-12.0-0.68,5fdbf74c5474cd11e39eeaf3,650c16f0f2faf8d7a0d14c09,651c1bcf32756a07155f5fba,null,null,"<p style=""font-size: 60px; font-family: BACS"">RlAKcbdtK</p>",,,,,,,,,,
html-keyboard-response,239,444103,0.0-12.0-0.69,5fdbf74c5474cd11e39eeaf3,650c16f0f2faf8d7a0d14c09,651c1bcf32756a07155f5fba,null,null,"<p style=""font-size: 60px; font-family: BACS"">YLQmGYaum</p>",,,,,,,,,,
html-keyboard-response,240,445106,0.0-12.0-0.70,5fdbf74c5474cd11e39eeaf3,650c16f0f2faf8d7a0d14c09,651c1bcf32756a07155f5fba,null,null,"<p style=""font-size: 60px; font-family: BACS"">RlAKcCmYA</p>",,,,,,,,,,
html-keyboard-response,241,446111,0.0-12.0-0.71,5fdbf74c5474cd11e39eeaf3,650c16f0f2faf8d7a0d14c09,651c1bcf32756a07155f5fba,null,null,"<p style=""font-size: 60px; font-family: BACS"">JvaAukbY</p>",,,,,,,,,,
html-keyboard-response,242,447113,0.0-12.0-0.72,5fdbf74c5474cd11e39eeaf3,650c16f0f2faf8d7a0d14c09,651c1bcf32756a07155f5fba,null,null,"<p style=""font-size: 60px; font-family: BACS"">kcdOtTPOM</p>",,,,,,,,,,
html-keyboard-response,243,448129,0.0-12.0-0.73,5fdbf74c5474cd11e39eeaf3,650c16f0f2faf8d7a0d14c09,651c1bcf32756a07155f5fba,null,null,"<p style=""font-size: 60px; font-family: BACS"">DCmhCdt</p>",,,,,,,,,,
html-keyboard-response,244,449145,0.0-12.0-0.74,5fdbf74c5474cd11e39eeaf3,650c16f0f2faf8d7a0d14c09,651c1bcf32756a07155f5fba,null,null,"<p style=""font-size: 60px; font-family: BACS"">LGkAukbY</p>",,,,,,,,,,
html-keyboard-response,245,450148,0.0-12.0-0.75,5fdbf74c5474cd11e39eeaf3,650c16f0f2faf8d7a0d14c09,651c1bcf32756a07155f5fba,null,null,"<p style=""font-size: 60px; font-family: BACS"">DCmhTPOM</p>",,,,,,,,,,
html-keyboard-response,246,451163,0.0-12.0-0.76,5fdbf74c5474cd11e39eeaf3,650c16f0f2faf8d7a0d14c09,651c1bcf32756a07155f5fba,null,null,"<p style=""font-size: 60px; font-family: BACS"">kGlUQru</p>",,,,,,,,,,
html-keyboard-response,247,452165,0.0-12.0-0.77,5fdbf74c5474cd11e39eeaf3,650c16f0f2faf8d7a0d14c09,651c1bcf32756a07155f5fba,null,null,"<p style=""font-size: 60px; font-family: BACS"">OcYMTPOM</p>",,,,,,,,,,
html-keyboard-response,248,453168,0.0-12.0-0.78,5fdbf74c5474cd11e39eeaf3,650c16f0f2faf8d7a0d14c09,651c1bcf32756a07155f5fba,null,null,"<p style=""font-size: 60px; font-family: BACS"">hChYdCKc</p>",,,,,,,,,,
html-keyboard-response,249,454184,0.0-12.0-0.79,5fdbf74c5474cd11e39eeaf3,650c16f0f2faf8d7a0d14c09,651c1bcf32756a07155f5fba,null,null,"<p style=""font-size: 60px; font-family: BACS"">kcdOtCmYA</p>",,,,,,,,,,
html-keyboard-response,250,473520,0.0-13.0,5fdbf74c5474cd11e39eeaf3,650c16f0f2faf8d7a0d14c09,651c1bcf32756a07155f5fba,19335, ,"<p>Great, you've seen the third block of words. You may now take a short break.</p>
      <p>Press the spacebar when you're ready to continue.</p>",,,,,,,,,,
html-keyboard-response,251,474532,0.0-14.0-0.0,5fdbf74c5474cd11e39eeaf3,650c16f0f2faf8d7a0d14c09,651c1bcf32756a07155f5fba,null,null,"<p style=""font-size: 60px; font-family: BACS"">ObOQlQru</p>",,,,,,,,,,
html-keyboard-response,252,475547,0.0-14.0-0.1,5fdbf74c5474cd11e39eeaf3,650c16f0f2faf8d7a0d14c09,651c1bcf32756a07155f5fba,null,null,"<p style=""font-size: 60px; font-family: BACS"">hChYTPOM</p>",,,,,,,,,,
html-keyboard-response,253,476552,0.0-14.0-0.2,5fdbf74c5474cd11e39eeaf3,650c16f0f2faf8d7a0d14c09,651c1bcf32756a07155f5fba,null,null,"<p style=""font-size: 60px; font-family: BACS"">YJLcAuUY</p>",,,,,,,,,,
html-keyboard-response,254,477556,0.0-14.0-0.3,5fdbf74c5474cd11e39eeaf3,650c16f0f2faf8d7a0d14c09,651c1bcf32756a07155f5fba,null,null,"<p style=""font-size: 60px; font-family: BACS"">BOCRMCdt</p>",,,,,,,,,,
html-keyboard-response,255,478558,0.0-14.0-0.4,5fdbf74c5474cd11e39eeaf3,650c16f0f2faf8d7a0d14c09,651c1bcf32756a07155f5fba,null,null,"<p style=""font-size: 60px; font-family: BACS"">hChYbdtK</p>",,,,,,,,,,
html-keyboard-response,256,479560,0.0-14.0-0.5,5fdbf74c5474cd11e39eeaf3,650c16f0f2faf8d7a0d14c09,651c1bcf32756a07155f5fba,null,null,"<p style=""font-size: 60px; font-family: BACS"">AZaJcYaum</p>",,,,,,,,,,
html-keyboard-response,257,480563,0.0-14.0-0.6,5fdbf74c5474cd11e39eeaf3,650c16f0f2faf8d7a0d14c09,651c1bcf32756a07155f5fba,null,null,"<p style=""font-size: 60px; font-family: BACS"">kcdOtCdt</p>",,,,,,,,,,
html-keyboard-response,258,481577,0.0-14.0-0.7,5fdbf74c5474cd11e39eeaf3,650c16f0f2faf8d7a0d14c09,651c1bcf32756a07155f5fba,null,null,"<p style=""font-size: 60px; font-family: BACS"">cuOJbQru</p>",,,,,,,,,,
html-keyboard-response,259,482579,0.0-14.0-0.8,5fdbf74c5474cd11e39eeaf3,650c16f0f2faf8d7a0d14c09,651c1bcf32756a07155f5fba,null,null,"<p style=""font-size: 60px; font-family: BACS"">btlckdCKc</p>",,,,,,,,,,
html-keyboard-response,260,483581,0.0-14.0-0.9,5fdbf74c5474cd11e39eeaf3,650c16f0f2faf8d7a0d14c09,651c1bcf32756a07155f5fba,null,null,"<p style=""font-size: 60px; font-family: BACS"">JvaAQru</p>",,,,,,,,,,
html-keyboard-response,261,484596,0.0-14.0-0.10,5fdbf74c5474cd11e39eeaf3,650c16f0f2faf8d7a0d14c09,651c1bcf32756a07155f5fba,null,null,"<p style=""font-size: 60px; font-family: BACS"">BOCRMCmYA</p>",,,,,,,,,,
html-keyboard-response,262,485598,0.0-14.0-0.11,5fdbf74c5474cd11e39eeaf3,650c16f0f2faf8d7a0d14c09,651c1bcf32756a07155f5fba,null,null,"<p style=""font-size: 60px; font-family: BACS"">kcdOtTPOM</p>",,,,,,,,,,
html-keyboard-response,263,486616,0.0-14.0-0.12,5fdbf74c5474cd11e39eeaf3,650c16f0f2faf8d7a0d14c09,651c1bcf32756a07155f5fba,null,null,"<p style=""font-size: 60px; font-family: BACS"">cDOEBCdt</p>",,,,,,,,,,
html-keyboard-response,264,487617,0.0-14.0-0.13,5fdbf74c5474cd11e39eeaf3,650c16f0f2faf8d7a0d14c09,651c1bcf32756a07155f5fba,null,null,"<p style=""font-size: 60px; font-family: BACS"">LGkAdUr</p>",,,,,,,,,,
html-keyboard-response,265,488619,0.0-14.0-0.14,5fdbf74c5474cd11e39eeaf3,650c16f0f2faf8d7a0d14c09,651c1bcf32756a07155f5fba,null,null,"<p style=""font-size: 60px; font-family: BACS"">kcdOtdCKc</p>",,,,,,,,,,
html-keyboard-response,266,489624,0.0-14.0-0.15,5fdbf74c5474cd11e39eeaf3,650c16f0f2faf8d7a0d14c09,651c1bcf32756a07155f5fba,null,null,"<p style=""font-size: 60px; font-family: BACS"">kGlUuUY</p>",,,,,,,,,,
html-keyboard-response,267,490640,0.0-14.0-0.16,5fdbf74c5474cd11e39eeaf3,650c16f0f2faf8d7a0d14c09,651c1bcf32756a07155f5fba,null,null,"<p style=""font-size: 60px; font-family: BACS"">OcYMCmYA</p>",,,,,,,,,,
html-keyboard-response,268,491642,0.0-14.0-0.17,5fdbf74c5474cd11e39eeaf3,650c16f0f2faf8d7a0d14c09,651c1bcf32756a07155f5fba,null,null,"<p style=""font-size: 60px; font-family: BACS"">RlAKcbdtK</p>",,,,,,,,,,
html-keyboard-response,269,492646,0.0-14.0-0.18,5fdbf74c5474cd11e39eeaf3,650c16f0f2faf8d7a0d14c09,651c1bcf32756a07155f5fba,null,null,"<p style=""font-size: 60px; font-family: BACS"">YNrAmYaum</p>",,,,,,,,,,
html-keyboard-response,270,493648,0.0-14.0-0.19,5fdbf74c5474cd11e39eeaf3,650c16f0f2faf8d7a0d14c09,651c1bcf32756a07155f5fba,null,null,"<p style=""font-size: 60px; font-family: BACS"">OcYMbdtK</p>",,,,,,,,,,
html-keyboard-response,271,494663,0.0-14.0-0.20,5fdbf74c5474cd11e39eeaf3,650c16f0f2faf8d7a0d14c09,651c1bcf32756a07155f5fba,null,null,"<p style=""font-size: 60px; font-family: BACS"">lCbcmCdt</p>",,,,,,,,,,
html-keyboard-response,272,495664,0.0-14.0-0.21,5fdbf74c5474cd11e39eeaf3,650c16f0f2faf8d7a0d14c09,651c1bcf32756a07155f5fba,null,null,"<p style=""font-size: 60px; font-family: BACS"">JvaAukbY</p>",,,,,,,,,,
html-keyboard-response,273,496667,0.0-14.0-0.22,5fdbf74c5474cd11e39eeaf3,650c16f0f2faf8d7a0d14c09,651c1bcf32756a07155f5fba,null,null,"<p style=""font-size: 60px; font-family: BACS"">ObOQldUr</p>",,,,,,,,,,
html-keyboard-response,274,497682,0.0-14.0-0.23,5fdbf74c5474cd11e39eeaf3,650c16f0f2faf8d7a0d14c09,651c1bcf32756a07155f5fba,null,null,"<p style=""font-size: 60px; font-family: BACS"">YJLcAukbY</p>",,,,,,,,,,
html-keyboard-response,275,498685,0.0-14.0-0.24,5fdbf74c5474cd11e39eeaf3,650c16f0f2faf8d7a0d14c09,651c1bcf32756a07155f5fba,null,null,"<p style=""font-size: 60px; font-family: BACS"">JvaAYaum</p>",,,,,,,,,,
html-keyboard-response,276,499689,0.0-14.0-0.25,5fdbf74c5474cd11e39eeaf3,650c16f0f2faf8d7a0d14c09,651c1bcf32756a07155f5fba,null,null,"<p style=""font-size: 60px; font-family: BACS"">PCMPKdCKc</p>",,,,,,,,,,
html-keyboard-response,277,500691,0.0-14.0-0.26,5fdbf74c5474cd11e39eeaf3,650c16f0f2faf8d7a0d14c09,651c1bcf32756a07155f5fba,null,null,"<p style=""font-size: 60px; font-family: BACS"">cDOEBTPOM</p>",,,,,,,,,,
html-keyboard-response,278,501693,0.0-14.0-0.27,5fdbf74c5474cd11e39eeaf3,650c16f0f2faf8d7a0d14c09,651c1bcf32756a07155f5fba,null,null,"<p style=""font-size: 60px; font-family: BACS"">YNrAmQru</p>",,,,,,,,,,
html-keyboard-response,279,502694,0.0-14.0-0.28,5fdbf74c5474cd11e39eeaf3,650c16f0f2faf8d7a0d14c09,651c1bcf32756a07155f5fba,null,null,"<p style=""font-size: 60px; font-family: BACS"">kcdOtCmYA</p>",,,,,,,,,,
html-keyboard-response,280,503697,0.0-14.0-0.29,5fdbf74c5474cd11e39eeaf3,650c16f0f2faf8d7a0d14c09,651c1bcf32756a07155f5fba,null,null,"<p style=""font-size: 60px; font-family: BACS"">JZOAkuUY</p>",,,,,,,,,,
html-keyboard-response,281,504701,0.0-14.0-0.30,5fdbf74c5474cd11e39eeaf3,650c16f0f2faf8d7a0d14c09,651c1bcf32756a07155f5fba,null,null,"<p style=""font-size: 60px; font-family: BACS"">YLQmGukbY</p>",,,,,,,,,,
html-keyboard-response,282,505706,0.0-14.0-0.31,5fdbf74c5474cd11e39eeaf3,650c16f0f2faf8d7a0d14c09,651c1bcf32756a07155f5fba,null,null,"<p style=""font-size: 60px; font-family: BACS"">OcYMTPOM</p>",,,,,,,,,,
html-keyboard-response,283,506712,0.0-14.0-0.32,5fdbf74c5474cd11e39eeaf3,650c16f0f2faf8d7a0d14c09,651c1bcf32756a07155f5fba,null,null,"<p style=""font-size: 60px; font-family: BACS"">lCbcmdCKc</p>",,,,,,,,,,
html-keyboard-response,284,507715,0.0-14.0-0.33,5fdbf74c5474cd11e39eeaf3,650c16f0f2faf8d7a0d14c09,651c1bcf32756a07155f5fba,null,null,"<p style=""font-size: 60px; font-family: BACS"">OcYMCdt</p>",,,,,,,,,,
html-keyboard-response,285,508718,0.0-14.0-0.34,5fdbf74c5474cd11e39eeaf3,650c16f0f2faf8d7a0d14c09,651c1bcf32756a07155f5fba,null,null,"<p style=""font-size: 60px; font-family: BACS"">JZOAkYaum</p>",,,,,,,,,,
html-keyboard-response,286,509722,0.0-14.0-0.35,5fdbf74c5474cd11e39eeaf3,650c16f0f2faf8d7a0d14c09,651c1bcf32756a07155f5fba,null,null,"<p style=""font-size: 60px; font-family: BACS"">cuOJbdUr</p>",,,,,,,,,,
html-keyboard-response,287,510726,0.0-14.0-0.36,5fdbf74c5474cd11e39eeaf3,650c16f0f2faf8d7a0d14c09,651c1bcf32756a07155f5fba,null,null,"<p style=""font-size: 60px; font-family: BACS"">BOCRMTPOM</p>",,,,,,,,,,
html-keyboard-response,288,511730,0.0-14.0-0.37,5fdbf74c5474cd11e39eeaf3,650c16f0f2faf8d7a0d14c09,651c1bcf32756a07155f5fba,null,null,"<p style=""font-size: 60px; font-family: BACS"">kGlUdUr</p>",,,,,,,,,,
html-keyboard-response,289,512744,0.0-14.0-0.38,5fdbf74c5474cd11e39eeaf3,650c16f0f2faf8d7a0d14c09,651c1bcf32756a07155f5fba,null,null,"<p style=""font-size: 60px; font-family: BACS"">LGkAQru</p>",,,,,,,,,,
html-keyboard-response,290,513749,0.0-14.0-0.39,5fdbf74c5474cd11e39eeaf3,650c16f0f2faf8d7a0d14c09,651c1bcf32756a07155f5fba,null,null,"<p style=""font-size: 60px; font-family: BACS"">cDOEBdCKc</p>",,,,,,,,,,
html-keyboard-response,291,514752,0.0-14.0-0.40,5fdbf74c5474cd11e39eeaf3,650c16f0f2faf8d7a0d14c09,651c1bcf32756a07155f5fba,null,null,"<p style=""font-size: 60px; font-family: BACS"">kGlUQru</p>",,,,,,,,,,
html-keyboard-response,292,515768,0.0-14.0-0.41,5fdbf74c5474cd11e39eeaf3,650c16f0f2faf8d7a0d14c09,651c1bcf32756a07155f5fba,null,null,"<p style=""font-size: 60px; font-family: BACS"">PCMPKCdt</p>",,,,,,,,,,
html-keyboard-response,293,516770,0.0-14.0-0.42,5fdbf74c5474cd11e39eeaf3,650c16f0f2faf8d7a0d14c09,651c1bcf32756a07155f5fba,null,null,"<p style=""font-size: 60px; font-family: BACS"">DCmhTPOM</p>",,,,,,,,,,
html-keyboard-response,294,517775,0.0-14.0-0.43,5fdbf74c5474cd11e39eeaf3,650c16f0f2faf8d7a0d14c09,651c1bcf32756a07155f5fba,null,null,"<p style=""font-size: 60px; font-family: BACS"">JZOAkukbY</p>",,,,,,,,,,
html-keyboard-response,295,518789,0.0-14.0-0.44,5fdbf74c5474cd11e39eeaf3,650c16f0f2faf8d7a0d14c09,651c1bcf32756a07155f5fba,null,null,"<p style=""font-size: 60px; font-family: BACS"">JvaAdUr</p>",,,,,,,,,,
html-keyboard-response,296,519792,0.0-14.0-0.45,5fdbf74c5474cd11e39eeaf3,650c16f0f2faf8d7a0d14c09,651c1bcf32756a07155f5fba,null,null,"<p style=""font-size: 60px; font-family: BACS"">AZaJcQru</p>",,,,,,,,,,
html-keyboard-response,297,520795,0.0-14.0-0.46,5fdbf74c5474cd11e39eeaf3,650c16f0f2faf8d7a0d14c09,651c1bcf32756a07155f5fba,null,null,"<p style=""font-size: 60px; font-family: BACS"">cuOJbYaum</p>",,,,,,,,,,
html-keyboard-response,298,521800,0.0-14.0-0.47,5fdbf74c5474cd11e39eeaf3,650c16f0f2faf8d7a0d14c09,651c1bcf32756a07155f5fba,null,null,"<p style=""font-size: 60px; font-family: BACS"">DCmhCdt</p>",,,,,,,,,,
html-keyboard-response,299,522816,0.0-14.0-0.48,5fdbf74c5474cd11e39eeaf3,650c16f0f2faf8d7a0d14c09,651c1bcf32756a07155f5fba,null,null,"<p style=""font-size: 60px; font-family: BACS"">LGkAukbY</p>",,,,,,,,,,
html-keyboard-response,300,523817,0.0-14.0-0.49,5fdbf74c5474cd11e39eeaf3,650c16f0f2faf8d7a0d14c09,651c1bcf32756a07155f5fba,null,null,"<p style=""font-size: 60px; font-family: BACS"">hChYCmYA</p>",,,,,,,,,,
html-keyboard-response,301,524820,0.0-14.0-0.50,5fdbf74c5474cd11e39eeaf3,650c16f0f2faf8d7a0d14c09,651c1bcf32756a07155f5fba,null,null,"<p style=""font-size: 60px; font-family: BACS"">YNrAmdUr</p>",,,,,,,,,,
html-keyboard-response,302,525823,0.0-14.0-0.51,5fdbf74c5474cd11e39eeaf3,650c16f0f2faf8d7a0d14c09,651c1bcf32756a07155f5fba,null,null,"<p style=""font-size: 60px; font-family: BACS"">YJLcAQru</p>",,,,,,,,,,
html-keyboard-response,303,526838,0.0-14.0-0.52,5fdbf74c5474cd11e39eeaf3,650c16f0f2faf8d7a0d14c09,651c1bcf32756a07155f5fba,null,null,"<p style=""font-size: 60px; font-family: BACS"">BOCRMbdtK</p>",,,,,,,,,,
html-keyboard-response,304,527840,0.0-14.0-0.53,5fdbf74c5474cd11e39eeaf3,650c16f0f2faf8d7a0d14c09,651c1bcf32756a07155f5fba,null,null,"<p style=""font-size: 60px; font-family: BACS"">RlAKcdCKc</p>",,,,,,,,,,
html-keyboard-response,305,528856,0.0-14.0-0.54,5fdbf74c5474cd11e39eeaf3,650c16f0f2faf8d7a0d14c09,651c1bcf32756a07155f5fba,null,null,"<p style=""font-size: 60px; font-family: BACS"">btlckbdtK</p>",,,,,,,,,,
html-keyboard-response,306,529860,0.0-14.0-0.55,5fdbf74c5474cd11e39eeaf3,650c16f0f2faf8d7a0d14c09,651c1bcf32756a07155f5fba,null,null,"<p style=""font-size: 60px; font-family: BACS"">YNrAmukbY</p>",,,,,,,,,,
html-keyboard-response,307,530875,0.0-14.0-0.56,5fdbf74c5474cd11e39eeaf3,650c16f0f2faf8d7a0d14c09,651c1bcf32756a07155f5fba,null,null,"<p style=""font-size: 60px; font-family: BACS"">ObOQlYaum</p>",,,,,,,,,,
html-keyboard-response,308,531890,0.0-14.0-0.57,5fdbf74c5474cd11e39eeaf3,650c16f0f2faf8d7a0d14c09,651c1bcf32756a07155f5fba,null,null,"<p style=""font-size: 60px; font-family: BACS"">lCbcmTPOM</p>",,,,,,,,,,
html-keyboard-response,309,532907,0.0-14.0-0.58,5fdbf74c5474cd11e39eeaf3,650c16f0f2faf8d7a0d14c09,651c1bcf32756a07155f5fba,null,null,"<p style=""font-size: 60px; font-family: BACS"">YJLcAYaum</p>",,,,,,,,,,
html-keyboard-response,310,533909,0.0-14.0-0.59,5fdbf74c5474cd11e39eeaf3,650c16f0f2faf8d7a0d14c09,651c1bcf32756a07155f5fba,null,null,"<p style=""font-size: 60px; font-family: BACS"">cDOEBbdtK</p>",,,,,,,,,,
html-keyboard-response,311,534925,0.0-14.0-0.60,5fdbf74c5474cd11e39eeaf3,650c16f0f2faf8d7a0d14c09,651c1bcf32756a07155f5fba,null,null,"<p style=""font-size: 60px; font-family: BACS"">RlAKcCmYA</p>",,,,,,,,,,
html-keyboard-response,312,535928,0.0-14.0-0.61,5fdbf74c5474cd11e39eeaf3,650c16f0f2faf8d7a0d14c09,651c1bcf32756a07155f5fba,null,null,"<p style=""font-size: 60px; font-family: BACS"">PCMPKbdtK</p>",,,,,,,,,,
html-keyboard-response,313,536944,0.0-14.0-0.62,5fdbf74c5474cd11e39eeaf3,650c16f0f2faf8d7a0d14c09,651c1bcf32756a07155f5fba,null,null,"<p style=""font-size: 60px; font-family: BACS"">YLQmGuUY</p>",,,,,,,,,,
html-keyboard-response,314,537947,0.0-14.0-0.63,5fdbf74c5474cd11e39eeaf3,650c16f0f2faf8d7a0d14c09,651c1bcf32756a07155f5fba,null,null,"<p style=""font-size: 60px; font-family: BACS"">btlckCmYA</p>",,,,,,,,,,
html-keyboard-response,315,538963,0.0-14.0-0.64,5fdbf74c5474cd11e39eeaf3,650c16f0f2faf8d7a0d14c09,651c1bcf32756a07155f5fba,null,null,"<p style=""font-size: 60px; font-family: BACS"">LGkAuUY</p>",,,,,,,,,,
html-keyboard-response,316,539966,0.0-14.0-0.65,5fdbf74c5474cd11e39eeaf3,650c16f0f2faf8d7a0d14c09,651c1bcf32756a07155f5fba,null,null,"<p style=""font-size: 60px; font-family: BACS"">lCbcmCmYA</p>",,,,,,,,,,
html-keyboard-response,317,540969,0.0-14.0-0.66,5fdbf74c5474cd11e39eeaf3,650c16f0f2faf8d7a0d14c09,651c1bcf32756a07155f5fba,null,null,"<p style=""font-size: 60px; font-family: BACS"">DCmhbdtK</p>",,,,,,,,,,
html-keyboard-response,318,541972,0.0-14.0-0.67,5fdbf74c5474cd11e39eeaf3,650c16f0f2faf8d7a0d14c09,651c1bcf32756a07155f5fba,null,null,"<p style=""font-size: 60px; font-family: BACS"">kGlUukbY</p>",,,,,,,,,,
html-keyboard-response,319,542975,0.0-14.0-0.68,5fdbf74c5474cd11e39eeaf3,650c16f0f2faf8d7a0d14c09,651c1bcf32756a07155f5fba,null,null,"<p style=""font-size: 60px; font-family: BACS"">PCMPKCmYA</p>",,,,,,,,,,
html-keyboard-response,320,543990,0.0-14.0-0.69,5fdbf74c5474cd11e39eeaf3,650c16f0f2faf8d7a0d14c09,651c1bcf32756a07155f5fba,null,null,"<p style=""font-size: 60px; font-family: BACS"">hChYdCKc</p>",,,,,,,,,,
html-keyboard-response,321,544991,0.0-14.0-0.70,5fdbf74c5474cd11e39eeaf3,650c16f0f2faf8d7a0d14c09,651c1bcf32756a07155f5fba,null,null,"<p style=""font-size: 60px; font-family: BACS"">RlAKcTPOM</p>",,,,,,,,,,
html-keyboard-response,322,546007,0.0-14.0-0.71,5fdbf74c5474cd11e39eeaf3,650c16f0f2faf8d7a0d14c09,651c1bcf32756a07155f5fba,null,null,"<p style=""font-size: 60px; font-family: BACS"">DCmhdCKc</p>",,,,,,,,,,
html-keyboard-response,323,547008,0.0-14.0-0.72,5fdbf74c5474cd11e39eeaf3,650c16f0f2faf8d7a0d14c09,651c1bcf32756a07155f5fba,null,null,"<p style=""font-size: 60px; font-family: BACS"">AZaJcukbY</p>",,,,,,,,,,
html-keyboard-response,324,548012,0.0-14.0-0.73,5fdbf74c5474cd11e39eeaf3,650c16f0f2faf8d7a0d14c09,651c1bcf32756a07155f5fba,null,null,"<p style=""font-size: 60px; font-family: BACS"">JZOAkdUr</p>",,,,,,,,,,
html-keyboard-response,325,549014,0.0-14.0-0.74,5fdbf74c5474cd11e39eeaf3,650c16f0f2faf8d7a0d14c09,651c1bcf32756a07155f5fba,null,null,"<p style=""font-size: 60px; font-family: BACS"">cuOJbuUY</p>",,,,,,,,,,
html-keyboard-response,326,550017,0.0-14.0-0.75,5fdbf74c5474cd11e39eeaf3,650c16f0f2faf8d7a0d14c09,651c1bcf32756a07155f5fba,null,null,"<p style=""font-size: 60px; font-family: BACS"">YLQmGdUr</p>",,,,,,,,,,
html-keyboard-response,327,551020,0.0-14.0-0.76,5fdbf74c5474cd11e39eeaf3,650c16f0f2faf8d7a0d14c09,651c1bcf32756a07155f5fba,null,null,"<p style=""font-size: 60px; font-family: BACS"">AZaJcuUY</p>",,,,,,,,,,
html-keyboard-response,328,552037,0.0-14.0-0.77,5fdbf74c5474cd11e39eeaf3,650c16f0f2faf8d7a0d14c09,651c1bcf32756a07155f5fba,null,null,"<p style=""font-size: 60px; font-family: BACS"">YLQmGYaum</p>",,,,,,,,,,
html-keyboard-response,329,553052,0.0-14.0-0.78,5fdbf74c5474cd11e39eeaf3,650c16f0f2faf8d7a0d14c09,651c1bcf32756a07155f5fba,null,null,"<p style=""font-size: 60px; font-family: BACS"">btlckCdt</p>",,,,,,,,,,
html-keyboard-response,330,554068,0.0-14.0-0.79,5fdbf74c5474cd11e39eeaf3,650c16f0f2faf8d7a0d14c09,651c1bcf32756a07155f5fba,null,null,"<p style=""font-size: 60px; font-family: BACS"">ObOQluUY</p>",,,,,,,,,,
html-keyboard-response,331,562092,0.0-15.0,5fdbf74c5474cd11e39eeaf3,650c16f0f2faf8d7a0d14c09,651c1bcf32756a07155f5fba,8023, ,"<p>Great, you've seen the fourth block of words. You may now take a short break.</p>
      <p>Press the spacebar when you're ready to continue.</p>",,,,,,,,,,
html-keyboard-response,332,563096,0.0-16.0-0.0,5fdbf74c5474cd11e39eeaf3,650c16f0f2faf8d7a0d14c09,651c1bcf32756a07155f5fba,null,null,"<p style=""font-size: 60px; font-family: BACS"">kcdOtCdt</p>",,,,,,,,,,
html-keyboard-response,333,564097,0.0-16.0-0.1,5fdbf74c5474cd11e39eeaf3,650c16f0f2faf8d7a0d14c09,651c1bcf32756a07155f5fba,null,null,"<p style=""font-size: 60px; font-family: BACS"">kcdOtCdt</p>",,,,,,,,,,
html-keyboard-response,334,565100,0.0-16.0-0.2,5fdbf74c5474cd11e39eeaf3,650c16f0f2faf8d7a0d14c09,651c1bcf32756a07155f5fba,null,null,"<p style=""font-size: 60px; font-family: BACS"">kcdOtCdt</p>",,,,,,,,,,
html-keyboard-response,335,566102,0.0-16.0-0.3,5fdbf74c5474cd11e39eeaf3,650c16f0f2faf8d7a0d14c09,651c1bcf32756a07155f5fba,null,null,"<p style=""font-size: 60px; font-family: BACS"">kcdOtCdt</p>",,,,,,,,,,
html-keyboard-response,336,567104,0.0-16.0-0.4,5fdbf74c5474cd11e39eeaf3,650c16f0f2faf8d7a0d14c09,651c1bcf32756a07155f5fba,null,null,"<p style=""font-size: 60px; font-family: BACS"">kcdOtCdt</p>",,,,,,,,,,
html-keyboard-response,337,568108,0.0-16.0-0.5,5fdbf74c5474cd11e39eeaf3,650c16f0f2faf8d7a0d14c09,651c1bcf32756a07155f5fba,null,null,"<p style=""font-size: 60px; font-family: BACS"">kcdOtCdt</p>",,,,,,,,,,
html-keyboard-response,338,569122,0.0-16.0-0.6,5fdbf74c5474cd11e39eeaf3,650c16f0f2faf8d7a0d14c09,651c1bcf32756a07155f5fba,null,null,"<p style=""font-size: 60px; font-family: BACS"">kcdOtCdt</p>",,,,,,,,,,
html-keyboard-response,339,570129,0.0-16.0-0.7,5fdbf74c5474cd11e39eeaf3,650c16f0f2faf8d7a0d14c09,651c1bcf32756a07155f5fba,null,null,"<p style=""font-size: 60px; font-family: BACS"">kcdOtCdt</p>",,,,,,,,,,
html-keyboard-response,340,571133,0.0-16.0-0.8,5fdbf74c5474cd11e39eeaf3,650c16f0f2faf8d7a0d14c09,651c1bcf32756a07155f5fba,null,null,"<p style=""font-size: 60px; font-family: BACS"">kcdOtCdt</p>",,,,,,,,,,
html-keyboard-response,341,572149,0.0-16.0-0.9,5fdbf74c5474cd11e39eeaf3,650c16f0f2faf8d7a0d14c09,651c1bcf32756a07155f5fba,null,null,"<p style=""font-size: 60px; font-family: BACS"">kcdOtCdt</p>",,,,,,,,,,
html-keyboard-response,342,573152,0.0-16.0-0.10,5fdbf74c5474cd11e39eeaf3,650c16f0f2faf8d7a0d14c09,651c1bcf32756a07155f5fba,null,null,"<p style=""font-size: 60px; font-family: BACS"">kcdOtCdt</p>",,,,,,,,,,
html-keyboard-response,343,574155,0.0-16.0-0.11,5fdbf74c5474cd11e39eeaf3,650c16f0f2faf8d7a0d14c09,651c1bcf32756a07155f5fba,null,null,"<p style=""font-size: 60px; font-family: BACS"">kcdOtCdt</p>",,,,,,,,,,
html-keyboard-response,344,575158,0.0-16.0-0.12,5fdbf74c5474cd11e39eeaf3,650c16f0f2faf8d7a0d14c09,651c1bcf32756a07155f5fba,null,null,"<p style=""font-size: 60px; font-family: BACS"">kcdOtCdt</p>",,,,,,,,,,
html-keyboard-response,345,576160,0.0-16.0-0.13,5fdbf74c5474cd11e39eeaf3,650c16f0f2faf8d7a0d14c09,651c1bcf32756a07155f5fba,null,null,"<p style=""font-size: 60px; font-family: BACS"">kcdOtCdt</p>",,,,,,,,,,
html-keyboard-response,346,577161,0.0-16.0-0.14,5fdbf74c5474cd11e39eeaf3,650c16f0f2faf8d7a0d14c09,651c1bcf32756a07155f5fba,null,null,"<p style=""font-size: 60px; font-family: BACS"">kcdOtCdt</p>",,,,,,,,,,
html-keyboard-response,347,578163,0.0-16.0-0.15,5fdbf74c5474cd11e39eeaf3,650c16f0f2faf8d7a0d14c09,651c1bcf32756a07155f5fba,null,null,"<p style=""font-size: 60px; font-family: BACS"">kcdOtCdt</p>",,,,,,,,,,
html-keyboard-response,348,579173,0.0-16.0-0.16,5fdbf74c5474cd11e39eeaf3,650c16f0f2faf8d7a0d14c09,651c1bcf32756a07155f5fba,null,null,"<p style=""font-size: 60px; font-family: BACS"">kcdOtCdt</p>",,,,,,,,,,
html-keyboard-response,349,580185,0.0-16.0-0.17,5fdbf74c5474cd11e39eeaf3,650c16f0f2faf8d7a0d14c09,651c1bcf32756a07155f5fba,null,null,"<p style=""font-size: 60px; font-family: BACS"">kcdOtCdt</p>",,,,,,,,,,
html-keyboard-response,350,581188,0.0-16.0-0.18,5fdbf74c5474cd11e39eeaf3,650c16f0f2faf8d7a0d14c09,651c1bcf32756a07155f5fba,null,null,"<p style=""font-size: 60px; font-family: BACS"">kcdOtCdt</p>",,,,,,,,,,
html-keyboard-response,351,582191,0.0-16.0-0.19,5fdbf74c5474cd11e39eeaf3,650c16f0f2faf8d7a0d14c09,651c1bcf32756a07155f5fba,null,null,"<p style=""font-size: 60px; font-family: BACS"">kcdOtCdt</p>",,,,,,,,,,
html-keyboard-response,352,583194,0.0-16.0-0.20,5fdbf74c5474cd11e39eeaf3,650c16f0f2faf8d7a0d14c09,651c1bcf32756a07155f5fba,null,null,"<p style=""font-size: 60px; font-family: BACS"">kcdOtCdt</p>",,,,,,,,,,
html-keyboard-response,353,584210,0.0-16.0-0.21,5fdbf74c5474cd11e39eeaf3,650c16f0f2faf8d7a0d14c09,651c1bcf32756a07155f5fba,null,null,"<p style=""font-size: 60px; font-family: BACS"">kcdOtCdt</p>",,,,,,,,,,
html-keyboard-response,354,585212,0.0-16.0-0.22,5fdbf74c5474cd11e39eeaf3,650c16f0f2faf8d7a0d14c09,651c1bcf32756a07155f5fba,null,null,"<p style=""font-size: 60px; font-family: BACS"">kcdOtCdt</p>",,,,,,,,,,
html-keyboard-response,355,586214,0.0-16.0-0.23,5fdbf74c5474cd11e39eeaf3,650c16f0f2faf8d7a0d14c09,651c1bcf32756a07155f5fba,null,null,"<p style=""font-size: 60px; font-family: BACS"">kcdOtCdt</p>",,,,,,,,,,
html-keyboard-response,356,587217,0.0-16.0-0.24,5fdbf74c5474cd11e39eeaf3,650c16f0f2faf8d7a0d14c09,651c1bcf32756a07155f5fba,null,null,"<p style=""font-size: 60px; font-family: BACS"">kcdOtCdt</p>",,,,,,,,,,
html-keyboard-response,357,588221,0.0-16.0-0.25,5fdbf74c5474cd11e39eeaf3,650c16f0f2faf8d7a0d14c09,651c1bcf32756a07155f5fba,null,null,"<p style=""font-size: 60px; font-family: BACS"">kcdOtCdt</p>",,,,,,,,,,
html-keyboard-response,358,589223,0.0-16.0-0.26,5fdbf74c5474cd11e39eeaf3,650c16f0f2faf8d7a0d14c09,651c1bcf32756a07155f5fba,null,null,"<p style=""font-size: 60px; font-family: BACS"">kcdOtCdt</p>",,,,,,,,,,
html-keyboard-response,359,590227,0.0-16.0-0.27,5fdbf74c5474cd11e39eeaf3,650c16f0f2faf8d7a0d14c09,651c1bcf32756a07155f5fba,null,null,"<p style=""font-size: 60px; font-family: BACS"">kcdOtCdt</p>",,,,,,,,,,
html-keyboard-response,360,591231,0.0-16.0-0.28,5fdbf74c5474cd11e39eeaf3,650c16f0f2faf8d7a0d14c09,651c1bcf32756a07155f5fba,null,null,"<p style=""font-size: 60px; font-family: BACS"">kcdOtCdt</p>",,,,,,,,,,
html-keyboard-response,361,592233,0.0-16.0-0.29,5fdbf74c5474cd11e39eeaf3,650c16f0f2faf8d7a0d14c09,651c1bcf32756a07155f5fba,null,null,"<p style=""font-size: 60px; font-family: BACS"">kcdOtCdt</p>",,,,,,,,,,
html-keyboard-response,362,593236,0.0-16.0-0.30,5fdbf74c5474cd11e39eeaf3,650c16f0f2faf8d7a0d14c09,651c1bcf32756a07155f5fba,null,null,"<p style=""font-size: 60px; font-family: BACS"">kcdOtCdt</p>",,,,,,,,,,
html-keyboard-response,363,594239,0.0-16.0-0.31,5fdbf74c5474cd11e39eeaf3,650c16f0f2faf8d7a0d14c09,651c1bcf32756a07155f5fba,null,null,"<p style=""font-size: 60px; font-family: BACS"">kcdOtCdt</p>",,,,,,,,,,
html-keyboard-response,364,595240,0.0-16.0-0.32,5fdbf74c5474cd11e39eeaf3,650c16f0f2faf8d7a0d14c09,651c1bcf32756a07155f5fba,null,null,"<p style=""font-size: 60px; font-family: BACS"">kcdOtCdt</p>",,,,,,,,,,
html-keyboard-response,365,596244,0.0-16.0-0.33,5fdbf74c5474cd11e39eeaf3,650c16f0f2faf8d7a0d14c09,651c1bcf32756a07155f5fba,null,null,"<p style=""font-size: 60px; font-family: BACS"">kcdOtCdt</p>",,,,,,,,,,
html-keyboard-response,366,597248,0.0-16.0-0.34,5fdbf74c5474cd11e39eeaf3,650c16f0f2faf8d7a0d14c09,651c1bcf32756a07155f5fba,null,null,"<p style=""font-size: 60px; font-family: BACS"">kcdOtCdt</p>",,,,,,,,,,
html-keyboard-response,367,598255,0.0-16.0-0.35,5fdbf74c5474cd11e39eeaf3,650c16f0f2faf8d7a0d14c09,651c1bcf32756a07155f5fba,null,null,"<p style=""font-size: 60px; font-family: BACS"">kcdOtCdt</p>",,,,,,,,,,
html-keyboard-response,368,599256,0.0-16.0-0.36,5fdbf74c5474cd11e39eeaf3,650c16f0f2faf8d7a0d14c09,651c1bcf32756a07155f5fba,null,null,"<p style=""font-size: 60px; font-family: BACS"">kcdOtCdt</p>",,,,,,,,,,
html-keyboard-response,369,600260,0.0-16.0-0.37,5fdbf74c5474cd11e39eeaf3,650c16f0f2faf8d7a0d14c09,651c1bcf32756a07155f5fba,null,null,"<p style=""font-size: 60px; font-family: BACS"">kcdOtCdt</p>",,,,,,,,,,
html-keyboard-response,370,601275,0.0-16.0-0.38,5fdbf74c5474cd11e39eeaf3,650c16f0f2faf8d7a0d14c09,651c1bcf32756a07155f5fba,null,null,"<p style=""font-size: 60px; font-family: BACS"">kcdOtCdt</p>",,,,,,,,,,
html-keyboard-response,371,602278,0.0-16.0-0.39,5fdbf74c5474cd11e39eeaf3,650c16f0f2faf8d7a0d14c09,651c1bcf32756a07155f5fba,null,null,"<p style=""font-size: 60px; font-family: BACS"">kcdOtCdt</p>",,,,,,,,,,
html-keyboard-response,372,603279,0.0-16.0-0.40,5fdbf74c5474cd11e39eeaf3,650c16f0f2faf8d7a0d14c09,651c1bcf32756a07155f5fba,null,null,"<p style=""font-size: 60px; font-family: BACS"">kcdOtCdt</p>",,,,,,,,,,
html-keyboard-response,373,604282,0.0-16.0-0.41,5fdbf74c5474cd11e39eeaf3,650c16f0f2faf8d7a0d14c09,651c1bcf32756a07155f5fba,null,null,"<p style=""font-size: 60px; font-family: BACS"">kcdOtCdt</p>",,,,,,,,,,
html-keyboard-response,374,605286,0.0-16.0-0.42,5fdbf74c5474cd11e39eeaf3,650c16f0f2faf8d7a0d14c09,651c1bcf32756a07155f5fba,null,null,"<p style=""font-size: 60px; font-family: BACS"">kcdOtCdt</p>",,,,,,,,,,
html-keyboard-response,375,606288,0.0-16.0-0.43,5fdbf74c5474cd11e39eeaf3,650c16f0f2faf8d7a0d14c09,651c1bcf32756a07155f5fba,null,null,"<p style=""font-size: 60px; font-family: BACS"">kcdOtCdt</p>",,,,,,,,,,
html-keyboard-response,376,607290,0.0-16.0-0.44,5fdbf74c5474cd11e39eeaf3,650c16f0f2faf8d7a0d14c09,651c1bcf32756a07155f5fba,null,null,"<p style=""font-size: 60px; font-family: BACS"">kcdOtCdt</p>",,,,,,,,,,
html-keyboard-response,377,608293,0.0-16.0-0.45,5fdbf74c5474cd11e39eeaf3,650c16f0f2faf8d7a0d14c09,651c1bcf32756a07155f5fba,null,null,"<p style=""font-size: 60px; font-family: BACS"">kcdOtCdt</p>",,,,,,,,,,
html-keyboard-response,378,609296,0.0-16.0-0.46,5fdbf74c5474cd11e39eeaf3,650c16f0f2faf8d7a0d14c09,651c1bcf32756a07155f5fba,null,null,"<p style=""font-size: 60px; font-family: BACS"">kcdOtCdt</p>",,,,,,,,,,
html-keyboard-response,379,610299,0.0-16.0-0.47,5fdbf74c5474cd11e39eeaf3,650c16f0f2faf8d7a0d14c09,651c1bcf32756a07155f5fba,null,null,"<p style=""font-size: 60px; font-family: BACS"">kcdOtCdt</p>",,,,,,,,,,
html-keyboard-response,380,611315,0.0-16.0-0.48,5fdbf74c5474cd11e39eeaf3,650c16f0f2faf8d7a0d14c09,651c1bcf32756a07155f5fba,null,null,"<p style=""font-size: 60px; font-family: BACS"">kcdOtCdt</p>",,,,,,,,,,
html-keyboard-response,381,612318,0.0-16.0-0.49,5fdbf74c5474cd11e39eeaf3,650c16f0f2faf8d7a0d14c09,651c1bcf32756a07155f5fba,null,null,"<p style=""font-size: 60px; font-family: BACS"">kcdOtCdt</p>",,,,,,,,,,
html-keyboard-response,382,613323,0.0-16.0-0.50,5fdbf74c5474cd11e39eeaf3,650c16f0f2faf8d7a0d14c09,651c1bcf32756a07155f5fba,null,null,"<p style=""font-size: 60px; font-family: BACS"">kcdOtCdt</p>",,,,,,,,,,
html-keyboard-response,383,614325,0.0-16.0-0.51,5fdbf74c5474cd11e39eeaf3,650c16f0f2faf8d7a0d14c09,651c1bcf32756a07155f5fba,null,null,"<p style=""font-size: 60px; font-family: BACS"">kcdOtCdt</p>",,,,,,,,,,
html-keyboard-response,384,615328,0.0-16.0-0.52,5fdbf74c5474cd11e39eeaf3,650c16f0f2faf8d7a0d14c09,651c1bcf32756a07155f5fba,null,null,"<p style=""font-size: 60px; font-family: BACS"">kcdOtCdt</p>",,,,,,,,,,
html-keyboard-response,385,616330,0.0-16.0-0.53,5fdbf74c5474cd11e39eeaf3,650c16f0f2faf8d7a0d14c09,651c1bcf32756a07155f5fba,null,null,"<p style=""font-size: 60px; font-family: BACS"">kcdOtCdt</p>",,,,,,,,,,
html-keyboard-response,386,617336,0.0-16.0-0.54,5fdbf74c5474cd11e39eeaf3,650c16f0f2faf8d7a0d14c09,651c1bcf32756a07155f5fba,null,null,"<p style=""font-size: 60px; font-family: BACS"">kcdOtCdt</p>",,,,,,,,,,
html-keyboard-response,387,618339,0.0-16.0-0.55,5fdbf74c5474cd11e39eeaf3,650c16f0f2faf8d7a0d14c09,651c1bcf32756a07155f5fba,null,null,"<p style=""font-size: 60px; font-family: BACS"">kcdOtCdt</p>",,,,,,,,,,
html-keyboard-response,388,619344,0.0-16.0-0.56,5fdbf74c5474cd11e39eeaf3,650c16f0f2faf8d7a0d14c09,651c1bcf32756a07155f5fba,null,null,"<p style=""font-size: 60px; font-family: BACS"">kcdOtCdt</p>",,,,,,,,,,
html-keyboard-response,389,620346,0.0-16.0-0.57,5fdbf74c5474cd11e39eeaf3,650c16f0f2faf8d7a0d14c09,651c1bcf32756a07155f5fba,null,null,"<p style=""font-size: 60px; font-family: BACS"">kcdOtCdt</p>",,,,,,,,,,
html-keyboard-response,390,621349,0.0-16.0-0.58,5fdbf74c5474cd11e39eeaf3,650c16f0f2faf8d7a0d14c09,651c1bcf32756a07155f5fba,null,null,"<p style=""font-size: 60px; font-family: BACS"">kcdOtCdt</p>",,,,,,,,,,
html-keyboard-response,391,622363,0.0-16.0-0.59,5fdbf74c5474cd11e39eeaf3,650c16f0f2faf8d7a0d14c09,651c1bcf32756a07155f5fba,null,null,"<p style=""font-size: 60px; font-family: BACS"">kcdOtCdt</p>",,,,,,,,,,
html-keyboard-response,392,623368,0.0-16.0-0.60,5fdbf74c5474cd11e39eeaf3,650c16f0f2faf8d7a0d14c09,651c1bcf32756a07155f5fba,null,null,"<p style=""font-size: 60px; font-family: BACS"">kcdOtCdt</p>",,,,,,,,,,
html-keyboard-response,393,624383,0.0-16.0-0.61,5fdbf74c5474cd11e39eeaf3,650c16f0f2faf8d7a0d14c09,651c1bcf32756a07155f5fba,null,null,"<p style=""font-size: 60px; font-family: BACS"">kcdOtCdt</p>",,,,,,,,,,
html-keyboard-response,394,625387,0.0-16.0-0.62,5fdbf74c5474cd11e39eeaf3,650c16f0f2faf8d7a0d14c09,651c1bcf32756a07155f5fba,null,null,"<p style=""font-size: 60px; font-family: BACS"">kcdOtCdt</p>",,,,,,,,,,
html-keyboard-response,395,626392,0.0-16.0-0.63,5fdbf74c5474cd11e39eeaf3,650c16f0f2faf8d7a0d14c09,651c1bcf32756a07155f5fba,null,null,"<p style=""font-size: 60px; font-family: BACS"">kcdOtCdt</p>",,,,,,,,,,
html-keyboard-response,396,627407,0.0-16.0-0.64,5fdbf74c5474cd11e39eeaf3,650c16f0f2faf8d7a0d14c09,651c1bcf32756a07155f5fba,null,null,"<p style=""font-size: 60px; font-family: BACS"">kcdOtCdt</p>",,,,,,,,,,
html-keyboard-response,397,628410,0.0-16.0-0.65,5fdbf74c5474cd11e39eeaf3,650c16f0f2faf8d7a0d14c09,651c1bcf32756a07155f5fba,null,null,"<p style=""font-size: 60px; font-family: BACS"">kcdOtCdt</p>",,,,,,,,,,
html-keyboard-response,398,629413,0.0-16.0-0.66,5fdbf74c5474cd11e39eeaf3,650c16f0f2faf8d7a0d14c09,651c1bcf32756a07155f5fba,null,null,"<p style=""font-size: 60px; font-family: BACS"">kcdOtCdt</p>",,,,,,,,,,
html-keyboard-response,399,630417,0.0-16.0-0.67,5fdbf74c5474cd11e39eeaf3,650c16f0f2faf8d7a0d14c09,651c1bcf32756a07155f5fba,null,null,"<p style=""font-size: 60px; font-family: BACS"">kcdOtCdt</p>",,,,,,,,,,
html-keyboard-response,400,631421,0.0-16.0-0.68,5fdbf74c5474cd11e39eeaf3,650c16f0f2faf8d7a0d14c09,651c1bcf32756a07155f5fba,null,null,"<p style=""font-size: 60px; font-family: BACS"">kcdOtCdt</p>",,,,,,,,,,
html-keyboard-response,401,632424,0.0-16.0-0.69,5fdbf74c5474cd11e39eeaf3,650c16f0f2faf8d7a0d14c09,651c1bcf32756a07155f5fba,null,null,"<p style=""font-size: 60px; font-family: BACS"">kcdOtCdt</p>",,,,,,,,,,
html-keyboard-response,402,633427,0.0-16.0-0.70,5fdbf74c5474cd11e39eeaf3,650c16f0f2faf8d7a0d14c09,651c1bcf32756a07155f5fba,null,null,"<p style=""font-size: 60px; font-family: BACS"">kcdOtCdt</p>",,,,,,,,,,
html-keyboard-response,403,634435,0.0-16.0-0.71,5fdbf74c5474cd11e39eeaf3,650c16f0f2faf8d7a0d14c09,651c1bcf32756a07155f5fba,null,null,"<p style=""font-size: 60px; font-family: BACS"">kcdOtCdt</p>",,,,,,,,,,
html-keyboard-response,404,635438,0.0-16.0-0.72,5fdbf74c5474cd11e39eeaf3,650c16f0f2faf8d7a0d14c09,651c1bcf32756a07155f5fba,null,null,"<p style=""font-size: 60px; font-family: BACS"">kcdOtCdt</p>",,,,,,,,,,
html-keyboard-response,405,636455,0.0-16.0-0.73,5fdbf74c5474cd11e39eeaf3,650c16f0f2faf8d7a0d14c09,651c1bcf32756a07155f5fba,null,null,"<p style=""font-size: 60px; font-family: BACS"">kcdOtCdt</p>",,,,,,,,,,
html-keyboard-response,406,637457,0.0-16.0-0.74,5fdbf74c5474cd11e39eeaf3,650c16f0f2faf8d7a0d14c09,651c1bcf32756a07155f5fba,null,null,"<p style=""font-size: 60px; font-family: BACS"">kcdOtCdt</p>",,,,,,,,,,
html-keyboard-response,407,638473,0.0-16.0-0.75,5fdbf74c5474cd11e39eeaf3,650c16f0f2faf8d7a0d14c09,651c1bcf32756a07155f5fba,null,null,"<p style=""font-size: 60px; font-family: BACS"">kcdOtCdt</p>",,,,,,,,,,
html-keyboard-response,408,639477,0.0-16.0-0.76,5fdbf74c5474cd11e39eeaf3,650c16f0f2faf8d7a0d14c09,651c1bcf32756a07155f5fba,null,null,"<p style=""font-size: 60px; font-family: BACS"">kcdOtCdt</p>",,,,,,,,,,
html-keyboard-response,409,640479,0.0-16.0-0.77,5fdbf74c5474cd11e39eeaf3,650c16f0f2faf8d7a0d14c09,651c1bcf32756a07155f5fba,null,null,"<p style=""font-size: 60px; font-family: BACS"">kcdOtCdt</p>",,,,,,,,,,
html-keyboard-response,410,641483,0.0-16.0-0.78,5fdbf74c5474cd11e39eeaf3,650c16f0f2faf8d7a0d14c09,651c1bcf32756a07155f5fba,null,null,"<p style=""font-size: 60px; font-family: BACS"">kcdOtCdt</p>",,,,,,,,,,
html-keyboard-response,411,642491,0.0-16.0-0.79,5fdbf74c5474cd11e39eeaf3,650c16f0f2faf8d7a0d14c09,651c1bcf32756a07155f5fba,null,null,"<p style=""font-size: 60px; font-family: BACS"">kcdOtCdt</p>",,,,,,,,,,
html-keyboard-response,412,649483,0.0-17.0,5fdbf74c5474cd11e39eeaf3,650c16f0f2faf8d7a0d14c09,651c1bcf32756a07155f5fba,6991, ,"<p>Great, you've seen the fifth block of words. You may now take a short break.</p>
      <p>Press the spacebar when you're ready to continue.</p>",,,,,,,,,,
html-keyboard-response,413,650488,0.0-18.0-0.0,5fdbf74c5474cd11e39eeaf3,650c16f0f2faf8d7a0d14c09,651c1bcf32756a07155f5fba,null,null,"<p style=""font-size: 60px; font-family: BACS"">hChYTPOM</p>",,,,,,,,,,
html-keyboard-response,414,651490,0.0-18.0-0.1,5fdbf74c5474cd11e39eeaf3,650c16f0f2faf8d7a0d14c09,651c1bcf32756a07155f5fba,null,null,"<p style=""font-size: 60px; font-family: BACS"">cuOJbQru</p>",,,,,,,,,,
html-keyboard-response,415,652505,0.0-18.0-0.2,5fdbf74c5474cd11e39eeaf3,650c16f0f2faf8d7a0d14c09,651c1bcf32756a07155f5fba,null,null,"<p style=""font-size: 60px; font-family: BACS"">BOCRMCmYA</p>",,,,,,,,,,
html-keyboard-response,416,653509,0.0-18.0-0.3,5fdbf74c5474cd11e39eeaf3,650c16f0f2faf8d7a0d14c09,651c1bcf32756a07155f5fba,null,null,"<p style=""font-size: 60px; font-family: BACS"">kcdOtTPOM</p>",,,,,,,,,,
html-keyboard-response,417,654511,0.0-18.0-0.4,5fdbf74c5474cd11e39eeaf3,650c16f0f2faf8d7a0d14c09,651c1bcf32756a07155f5fba,null,null,"<p style=""font-size: 60px; font-family: BACS"">btlckdCKc</p>",,,,,,,,,,
html-keyboard-response,418,655516,0.0-18.0-0.5,5fdbf74c5474cd11e39eeaf3,650c16f0f2faf8d7a0d14c09,651c1bcf32756a07155f5fba,null,null,"<p style=""font-size: 60px; font-family: BACS"">AZaJcukbY</p>",,,,,,,,,,
html-keyboard-response,419,656531,0.0-18.0-0.6,5fdbf74c5474cd11e39eeaf3,650c16f0f2faf8d7a0d14c09,651c1bcf32756a07155f5fba,null,null,"<p style=""font-size: 60px; font-family: BACS"">PCMPKdCKc</p>",,,,,,,,,,
html-keyboard-response,420,657547,0.0-18.0-0.7,5fdbf74c5474cd11e39eeaf3,650c16f0f2faf8d7a0d14c09,651c1bcf32756a07155f5fba,null,null,"<p style=""font-size: 60px; font-family: BACS"">JZOAkuUY</p>",,,,,,,,,,
html-keyboard-response,421,658550,0.0-18.0-0.8,5fdbf74c5474cd11e39eeaf3,650c16f0f2faf8d7a0d14c09,651c1bcf32756a07155f5fba,null,null,"<p style=""font-size: 60px; font-family: BACS"">OcYMTPOM</p>",,,,,,,,,,
html-keyboard-response,422,659566,0.0-18.0-0.9,5fdbf74c5474cd11e39eeaf3,650c16f0f2faf8d7a0d14c09,651c1bcf32756a07155f5fba,null,null,"<p style=""font-size: 60px; font-family: BACS"">YLQmGuUY</p>",,,,,,,,,,
html-keyboard-response,423,660569,0.0-18.0-0.10,5fdbf74c5474cd11e39eeaf3,650c16f0f2faf8d7a0d14c09,651c1bcf32756a07155f5fba,null,null,"<p style=""font-size: 60px; font-family: BACS"">kGlUukbY</p>",,,,,,,,,,
html-keyboard-response,424,661571,0.0-18.0-0.11,5fdbf74c5474cd11e39eeaf3,650c16f0f2faf8d7a0d14c09,651c1bcf32756a07155f5fba,null,null,"<p style=""font-size: 60px; font-family: BACS"">cDOEBbdtK</p>",,,,,,,,,,
html-keyboard-response,425,662575,0.0-18.0-0.12,5fdbf74c5474cd11e39eeaf3,650c16f0f2faf8d7a0d14c09,651c1bcf32756a07155f5fba,null,null,"<p style=""font-size: 60px; font-family: BACS"">kGlUQru</p>",,,,,,,,,,
html-keyboard-response,426,663591,0.0-18.0-0.13,5fdbf74c5474cd11e39eeaf3,650c16f0f2faf8d7a0d14c09,651c1bcf32756a07155f5fba,null,null,"<p style=""font-size: 60px; font-family: BACS"">ObOQldUr</p>",,,,,,,,,,
html-keyboard-response,427,664593,0.0-18.0-0.14,5fdbf74c5474cd11e39eeaf3,650c16f0f2faf8d7a0d14c09,651c1bcf32756a07155f5fba,null,null,"<p style=""font-size: 60px; font-family: BACS"">JZOAkukbY</p>",,,,,,,,,,
html-keyboard-response,428,665596,0.0-18.0-0.15,5fdbf74c5474cd11e39eeaf3,650c16f0f2faf8d7a0d14c09,651c1bcf32756a07155f5fba,null,null,"<p style=""font-size: 60px; font-family: BACS"">AZaJcYaum</p>",,,,,,,,,,
html-keyboard-response,429,666599,0.0-18.0-0.16,5fdbf74c5474cd11e39eeaf3,650c16f0f2faf8d7a0d14c09,651c1bcf32756a07155f5fba,null,null,"<p style=""font-size: 60px; font-family: BACS"">PCMPKCdt</p>",,,,,,,,,,
html-keyboard-response,430,667603,0.0-18.0-0.17,5fdbf74c5474cd11e39eeaf3,650c16f0f2faf8d7a0d14c09,651c1bcf32756a07155f5fba,null,null,"<p style=""font-size: 60px; font-family: BACS"">YNrAmYaum</p>",,,,,,,,,,
html-keyboard-response,431,668619,0.0-18.0-0.18,5fdbf74c5474cd11e39eeaf3,650c16f0f2faf8d7a0d14c09,651c1bcf32756a07155f5fba,null,null,"<p style=""font-size: 60px; font-family: BACS"">AZaJcQru</p>",,,,,,,,,,
html-keyboard-response,432,669622,0.0-18.0-0.19,5fdbf74c5474cd11e39eeaf3,650c16f0f2faf8d7a0d14c09,651c1bcf32756a07155f5fba,null,null,"<p style=""font-size: 60px; font-family: BACS"">cuOJbuUY</p>",,,,,,,,,,
html-keyboard-response,433,670626,0.0-18.0-0.20,5fdbf74c5474cd11e39eeaf3,650c16f0f2faf8d7a0d14c09,651c1bcf32756a07155f5fba,null,null,"<p style=""font-size: 60px; font-family: BACS"">ObOQlYaum</p>",,,,,,,,,,
html-keyboard-response,434,671629,0.0-18.0-0.21,5fdbf74c5474cd11e39eeaf3,650c16f0f2faf8d7a0d14c09,651c1bcf32756a07155f5fba,null,null,"<p style=""font-size: 60px; font-family: BACS"">JvaAukbY</p>",,,,,,,,,,
html-keyboard-response,435,672632,0.0-18.0-0.22,5fdbf74c5474cd11e39eeaf3,650c16f0f2faf8d7a0d14c09,651c1bcf32756a07155f5fba,null,null,"<p style=""font-size: 60px; font-family: BACS"">lCbcmCdt</p>",,,,,,,,,,
html-keyboard-response,436,673634,0.0-18.0-0.23,5fdbf74c5474cd11e39eeaf3,650c16f0f2faf8d7a0d14c09,651c1bcf32756a07155f5fba,null,null,"<p style=""font-size: 60px; font-family: BACS"">btlckbdtK</p>",,,,,,,,,,
html-keyboard-response,437,674651,0.0-18.0-0.24,5fdbf74c5474cd11e39eeaf3,650c16f0f2faf8d7a0d14c09,651c1bcf32756a07155f5fba,null,null,"<p style=""font-size: 60px; font-family: BACS"">YLQmGYaum</p>",,,,,,,,,,
html-keyboard-response,438,675654,0.0-18.0-0.25,5fdbf74c5474cd11e39eeaf3,650c16f0f2faf8d7a0d14c09,651c1bcf32756a07155f5fba,null,null,"<p style=""font-size: 60px; font-family: BACS"">kcdOtCdt</p>",,,,,,,,,,
html-keyboard-response,439,676670,0.0-18.0-0.26,5fdbf74c5474cd11e39eeaf3,650c16f0f2faf8d7a0d14c09,651c1bcf32756a07155f5fba,null,null,"<p style=""font-size: 60px; font-family: BACS"">lCbcmTPOM</p>",,,,,,,,,,
html-keyboard-response,440,677672,0.0-18.0-0.27,5fdbf74c5474cd11e39eeaf3,650c16f0f2faf8d7a0d14c09,651c1bcf32756a07155f5fba,null,null,"<p style=""font-size: 60px; font-family: BACS"">cDOEBdCKc</p>",,,,,,,,,,
html-keyboard-response,441,678673,0.0-18.0-0.28,5fdbf74c5474cd11e39eeaf3,650c16f0f2faf8d7a0d14c09,651c1bcf32756a07155f5fba,null,null,"<p style=""font-size: 60px; font-family: BACS"">PCMPKbdtK</p>",,,,,,,,,,
html-keyboard-response,442,679677,0.0-18.0-0.29,5fdbf74c5474cd11e39eeaf3,650c16f0f2faf8d7a0d14c09,651c1bcf32756a07155f5fba,null,null,"<p style=""font-size: 60px; font-family: BACS"">ObOQlQru</p>",,,,,,,,,,
html-keyboard-response,443,680679,0.0-18.0-0.30,5fdbf74c5474cd11e39eeaf3,650c16f0f2faf8d7a0d14c09,651c1bcf32756a07155f5fba,null,null,"<p style=""font-size: 60px; font-family: BACS"">BOCRMCdt</p>",,,,,,,,,,
html-keyboard-response,444,681683,0.0-18.0-0.31,5fdbf74c5474cd11e39eeaf3,650c16f0f2faf8d7a0d14c09,651c1bcf32756a07155f5fba,null,null,"<p style=""font-size: 60px; font-family: BACS"">YNrAmdUr</p>",,,,,,,,,,
html-keyboard-response,445,682687,0.0-18.0-0.32,5fdbf74c5474cd11e39eeaf3,650c16f0f2faf8d7a0d14c09,651c1bcf32756a07155f5fba,null,null,"<p style=""font-size: 60px; font-family: BACS"">YJLcAYaum</p>",,,,,,,,,,
html-keyboard-response,446,683689,0.0-18.0-0.33,5fdbf74c5474cd11e39eeaf3,650c16f0f2faf8d7a0d14c09,651c1bcf32756a07155f5fba,null,null,"<p style=""font-size: 60px; font-family: BACS"">hChYbdtK</p>",,,,,,,,,,
html-keyboard-response,447,684691,0.0-18.0-0.34,5fdbf74c5474cd11e39eeaf3,650c16f0f2faf8d7a0d14c09,651c1bcf32756a07155f5fba,null,null,"<p style=""font-size: 60px; font-family: BACS"">JvaAYaum</p>",,,,,,,,,,
html-keyboard-response,448,685708,0.0-18.0-0.35,5fdbf74c5474cd11e39eeaf3,650c16f0f2faf8d7a0d14c09,651c1bcf32756a07155f5fba,null,null,"<p style=""font-size: 60px; font-family: BACS"">LGkAQru</p>",,,,,,,,,,
html-keyboard-response,449,686722,0.0-18.0-0.36,5fdbf74c5474cd11e39eeaf3,650c16f0f2faf8d7a0d14c09,651c1bcf32756a07155f5fba,null,null,"<p style=""font-size: 60px; font-family: BACS"">lCbcmCmYA</p>",,,,,,,,,,
html-keyboard-response,450,687727,0.0-18.0-0.37,5fdbf74c5474cd11e39eeaf3,650c16f0f2faf8d7a0d14c09,651c1bcf32756a07155f5fba,null,null,"<p style=""font-size: 60px; font-family: BACS"">ObOQluUY</p>",,,,,,,,,,
html-keyboard-response,451,688729,0.0-18.0-0.38,5fdbf74c5474cd11e39eeaf3,650c16f0f2faf8d7a0d14c09,651c1bcf32756a07155f5fba,null,null,"<p style=""font-size: 60px; font-family: BACS"">YNrAmukbY</p>",,,,,,,,,,
html-keyboard-response,452,689745,0.0-18.0-0.39,5fdbf74c5474cd11e39eeaf3,650c16f0f2faf8d7a0d14c09,651c1bcf32756a07155f5fba,null,null,"<p style=""font-size: 60px; font-family: BACS"">YLQmGdUr</p>",,,,,,,,,,
html-keyboard-response,453,690760,0.0-18.0-0.40,5fdbf74c5474cd11e39eeaf3,650c16f0f2faf8d7a0d14c09,651c1bcf32756a07155f5fba,null,null,"<p style=""font-size: 60px; font-family: BACS"">LGkAuUY</p>",,,,,,,,,,
html-keyboard-response,454,691763,0.0-18.0-0.41,5fdbf74c5474cd11e39eeaf3,650c16f0f2faf8d7a0d14c09,651c1bcf32756a07155f5fba,null,null,"<p style=""font-size: 60px; font-family: BACS"">YLQmGukbY</p>",,,,,,,,,,
html-keyboard-response,455,692766,0.0-18.0-0.42,5fdbf74c5474cd11e39eeaf3,650c16f0f2faf8d7a0d14c09,651c1bcf32756a07155f5fba,null,null,"<p style=""font-size: 60px; font-family: BACS"">lCbcmdCKc</p>",,,,,,,,,,
html-keyboard-response,456,693769,0.0-18.0-0.43,5fdbf74c5474cd11e39eeaf3,650c16f0f2faf8d7a0d14c09,651c1bcf32756a07155f5fba,null,null,"<p style=""font-size: 60px; font-family: BACS"">DCmhTPOM</p>",,,,,,,,,,
html-keyboard-response,457,694772,0.0-18.0-0.44,5fdbf74c5474cd11e39eeaf3,650c16f0f2faf8d7a0d14c09,651c1bcf32756a07155f5fba,null,null,"<p style=""font-size: 60px; font-family: BACS"">YNrAmQru</p>",,,,,,,,,,
html-keyboard-response,458,695788,0.0-18.0-0.45,5fdbf74c5474cd11e39eeaf3,650c16f0f2faf8d7a0d14c09,651c1bcf32756a07155f5fba,null,null,"<p style=""font-size: 60px; font-family: BACS"">cDOEBTPOM</p>",,,,,,,,,,
html-keyboard-response,459,696790,0.0-18.0-0.46,5fdbf74c5474cd11e39eeaf3,650c16f0f2faf8d7a0d14c09,651c1bcf32756a07155f5fba,null,null,"<p style=""font-size: 60px; font-family: BACS"">LGkAukbY</p>",,,,,,,,,,
html-keyboard-response,460,697806,0.0-18.0-0.47,5fdbf74c5474cd11e39eeaf3,650c16f0f2faf8d7a0d14c09,651c1bcf32756a07155f5fba,null,null,"<p style=""font-size: 60px; font-family: BACS"">cDOEBCdt</p>",,,,,,,,,,
html-keyboard-response,461,698812,0.0-18.0-0.48,5fdbf74c5474cd11e39eeaf3,650c16f0f2faf8d7a0d14c09,651c1bcf32756a07155f5fba,null,null,"<p style=""font-size: 60px; font-family: BACS"">BOCRMTPOM</p>",,,,,,,,,,
html-keyboard-response,462,699817,0.0-18.0-0.49,5fdbf74c5474cd11e39eeaf3,650c16f0f2faf8d7a0d14c09,651c1bcf32756a07155f5fba,null,null,"<p style=""font-size: 60px; font-family: BACS"">YJLcAQru</p>",,,,,,,,,,
html-keyboard-response,463,700822,0.0-18.0-0.50,5fdbf74c5474cd11e39eeaf3,650c16f0f2faf8d7a0d14c09,651c1bcf32756a07155f5fba,null,null,"<p style=""font-size: 60px; font-family: BACS"">OcYMbdtK</p>",,,,,,,,,,
html-keyboard-response,464,701838,0.0-18.0-0.51,5fdbf74c5474cd11e39eeaf3,650c16f0f2faf8d7a0d14c09,651c1bcf32756a07155f5fba,null,null,"<p style=""font-size: 60px; font-family: BACS"">LGkAdUr</p>",,,,,,,,,,
