trial_type,trial_index,time_elapsed,internal_node_id,subject_id,study_id,session_id,rt,response,stimulus,success,item,task,correct_response,testing_condition,correct,target,confound,name,view_history
pavlovia,0,1705,0.0-0.0,60eb26fb8db6845a14fe5a91,650c16f0f2faf8d7a0d14c09,651c1d8ea61bd918ce45769e,,,,,,,,,,,,,
survey-html-form,1,6702,0.0-1.0,60eb26fb8db6845a14fe5a91,650c16f0f2faf8d7a0d14c09,651c1d8ea61bd918ce45769e,4993,"{""ID"":""60eb26fb8db6845a14fe5a91""}",,,,,,,,,,,
html-keyboard-response,2,10675,0.0-2.0,60eb26fb8db6845a14fe5a91,650c16f0f2faf8d7a0d14c09,651c1d8ea61bd918ce45769e,3969, ,"<p style=""font-size: 15px;"">Before beginning, we ask that you read the consent information and confirm your agreement to participate in the experiment.</p>
      <p style=""font-size: 15px;""> We ask that you remember that this is a research project and that your participation is entirely voluntary. You can stop your participation at any time, without needing to provide any explanation. The study we're asking you to participate in aims at examining how readers process written words. You will be engaged in a session of apprximately 20 minutes, followed by a brief questionnaire. You will have the opportunity to take a few breaks during the experiment. You will be paid £4 for your participation, corresponding to a rate of £8/hour. While this experiment looks at cognitive faculties, this experiment doesn't constitute clinical proof of eventual pathologies.</p>
      <p style=""font-size: 15px;"">All of the information collected thanks to yours and others' participation will be held in a secure password-protected server, and will not be shared with anyone not authorised to view it. Your personal information will be kept with an arbitrary participant ID. Thanks to this data anonymity process, any researcher analysing the data won't be able to track the information back to a specific participant. Therefore, this process will make identifying you impossibile, even when results from the study will be published in scientific reviews, presented at congresses, or at any other public forum. More generally, the collected data will be treated in accordance with the laws on privacy and conformity to the Legislative Degree n. 196 ""Code regarding the protection of personal data"" of the 30th of June 2003 and to the European Regulation 2016/670 (General Data Protection Regulation - GDPR). The Data Protection Officer is Avv. Valentina Carollo, who can be contacted at the following email addresses: <a href=""mailto:dpo@sissa.it"">dpo@sissa.it</a> or <a href=""mailto:rpd@sissa.it"">rpd@sissa.it</a> - PEC: <a href=""mailto:protocollo@pec.sissa.it"">protocollo@pec.sissa.it</a>.</p>
      <p style=""font-size: 15px;""> Before expressing your consent to participate, we would like to remind you again that in case you need explanations on any aspect of the experimental procedure, the researcher is at your disposition (<a href=""mailto:aliebelt@sissa.it"">aliebelt@sissa.it</a>, <a href=""mailto:davide.crepaldi@sissa.it"">davide.crepaldi@sissa.it</a>).</p>
      <p style=""font-size: 15px;"">If you would like to download the informed consent form, you can do so here: <a href=""BASL-Informed_Consent.pdf"" download>informed consent form</a>.</p>
      <p style=""font-size: 15px;"">We ask that you press the spacebar to proceed to the consent section.</p>",,,,,,,,,,
survey-html-form,3,32219,0.0-3.0,60eb26fb8db6845a14fe5a91,650c16f0f2faf8d7a0d14c09,651c1d8ea61bd918ce45769e,21541,"{""consent1"":""YES"",""consent2"":""YES"",""consent3"":""YES"",""consent4"":""YES"",""consent5"":""YES"",""consent6"":""YES""}",,,,,,,,,,,
fullscreen,4,39898,0.0-4.0,60eb26fb8db6845a14fe5a91,650c16f0f2faf8d7a0d14c09,651c1d8ea61bd918ce45769e,,,,TRUE,,,,,,,,,
html-keyboard-response,5,59996,0.0-5.0,60eb26fb8db6845a14fe5a91,650c16f0f2faf8d7a0d14c09,651c1d8ea61bd918ce45769e,20108, ,"<p>Welcome, and thank you very much for your time!</p>
      <p>In this experiment, you'll be a language expert who's been asked to take a look at words that Earth has received in its first communication with aliens. Your task, in this first part of the experiment, is to pay close attention to the words you'll be shown; later, world leaders will ask you questions on what you saw. The words will be shown to you quite quickly; it seems that the aliens were in a hurry :-)</p>
      <p>Press the spacebar to continue.<p>",,,,,,,,,,
html-keyboard-response,6,60048,0.0-6.0,60eb26fb8db6845a14fe5a91,650c16f0f2faf8d7a0d14c09,651c1d8ea61bd918ce45769e,null,null,"<p style=""font-size: 120px; font-family: BACS""> </p>",,,,,,,,,,
html-keyboard-response,7,66687,0.0-7.0,60eb26fb8db6845a14fe5a91,650c16f0f2faf8d7a0d14c09,651c1d8ea61bd918ce45769e,6638, ,"<p>Here is an example of the words you'll see:</p>
      <img src='esempio.png' height='400px'>
      <p>When you're ready to begin, press the spacebar.</p></div>",,,,,,,,,,
html-keyboard-response,8,67704,0.0-8.0-0.0,60eb26fb8db6845a14fe5a91,650c16f0f2faf8d7a0d14c09,651c1d8ea61bd918ce45769e,null,null,"<p style=""font-size: 60px; font-family: BACS"">RdPtDPED</p>",,,,,,,,,,
html-keyboard-response,9,68714,0.0-8.0-0.1,60eb26fb8db6845a14fe5a91,650c16f0f2faf8d7a0d14c09,651c1d8ea61bd918ce45769e,null,null,"<p style=""font-size: 60px; font-family: BACS"">EltMBcthB</p>",,,,,,,,,,
html-keyboard-response,10,69729,0.0-8.0-0.2,60eb26fb8db6845a14fe5a91,650c16f0f2faf8d7a0d14c09,651c1d8ea61bd918ce45769e,null,null,"<p style=""font-size: 60px; font-family: BACS"">ODBDATRkY</p>",,,,,,,,,,
html-keyboard-response,11,70761,0.0-8.0-0.3,60eb26fb8db6845a14fe5a91,650c16f0f2faf8d7a0d14c09,651c1d8ea61bd918ce45769e,null,null,"<p style=""font-size: 60px; font-family: BACS"">RCcEcthB</p>",,,,,,,,,,
html-keyboard-response,12,71765,0.0-8.0-0.4,60eb26fb8db6845a14fe5a91,650c16f0f2faf8d7a0d14c09,651c1d8ea61bd918ce45769e,null,null,"<p style=""font-size: 60px; font-family: BACS"">aYQmrAm</p>",,,,,,,,,,
html-keyboard-response,13,72780,0.0-8.0-0.5,60eb26fb8db6845a14fe5a91,650c16f0f2faf8d7a0d14c09,651c1d8ea61bd918ce45769e,null,null,"<p style=""font-size: 60px; font-family: BACS"">auYAkNac</p>",,,,,,,,,,
html-keyboard-response,14,73795,0.0-8.0-0.6,60eb26fb8db6845a14fe5a91,650c16f0f2faf8d7a0d14c09,651c1d8ea61bd918ce45769e,null,null,"<p style=""font-size: 60px; font-family: BACS"">NQZvLkNc</p>",,,,,,,,,,
html-keyboard-response,15,74813,0.0-8.0-0.7,60eb26fb8db6845a14fe5a91,650c16f0f2faf8d7a0d14c09,651c1d8ea61bd918ce45769e,null,null,"<p style=""font-size: 60px; font-family: BACS"">cDOEBRCdc</p>",,,,,,,,,,
html-keyboard-response,16,75829,0.0-8.0-0.8,60eb26fb8db6845a14fe5a91,650c16f0f2faf8d7a0d14c09,651c1d8ea61bd918ce45769e,null,null,"<p style=""font-size: 60px; font-family: BACS"">auYAkJUG</p>",,,,,,,,,,
html-keyboard-response,17,76845,0.0-8.0-0.9,60eb26fb8db6845a14fe5a91,650c16f0f2faf8d7a0d14c09,651c1d8ea61bd918ce45769e,null,null,"<p style=""font-size: 60px; font-family: BACS"">LdQvLkNc</p>",,,,,,,,,,
html-keyboard-response,18,77862,0.0-8.0-0.10,60eb26fb8db6845a14fe5a91,650c16f0f2faf8d7a0d14c09,651c1d8ea61bd918ce45769e,null,null,"<p style=""font-size: 60px; font-family: BACS"">TObCOTPOM</p>",,,,,,,,,,
html-keyboard-response,19,78878,0.0-8.0-0.11,60eb26fb8db6845a14fe5a91,650c16f0f2faf8d7a0d14c09,651c1d8ea61bd918ce45769e,null,null,"<p style=""font-size: 60px; font-family: BACS"">NQZvJUG</p>",,,,,,,,,,
html-keyboard-response,20,79880,0.0-8.0-0.12,60eb26fb8db6845a14fe5a91,650c16f0f2faf8d7a0d14c09,651c1d8ea61bd918ce45769e,null,null,"<p style=""font-size: 60px; font-family: BACS"">aYQmLkNc</p>",,,,,,,,,,
html-keyboard-response,21,80894,0.0-8.0-0.13,60eb26fb8db6845a14fe5a91,650c16f0f2faf8d7a0d14c09,651c1d8ea61bd918ce45769e,null,null,"<p style=""font-size: 60px; font-family: BACS"">kCRmRCdc</p>",,,,,,,,,,
html-keyboard-response,22,81897,0.0-8.0-0.14,60eb26fb8db6845a14fe5a91,650c16f0f2faf8d7a0d14c09,651c1d8ea61bd918ce45769e,null,null,"<p style=""font-size: 60px; font-family: BACS"">LdQvQONk</p>",,,,,,,,,,
html-keyboard-response,23,82912,0.0-8.0-0.15,60eb26fb8db6845a14fe5a91,650c16f0f2faf8d7a0d14c09,651c1d8ea61bd918ce45769e,null,null,"<p style=""font-size: 60px; font-family: BACS"">RdPtDTPOM</p>",,,,,,,,,,
html-keyboard-response,24,83927,0.0-8.0-0.16,60eb26fb8db6845a14fe5a91,650c16f0f2faf8d7a0d14c09,651c1d8ea61bd918ce45769e,null,null,"<p style=""font-size: 60px; font-family: BACS"">aOLZULkNc</p>",,,,,,,,,,
html-keyboard-response,25,84930,0.0-8.0-0.17,60eb26fb8db6845a14fe5a91,650c16f0f2faf8d7a0d14c09,651c1d8ea61bd918ce45769e,null,null,"<p style=""font-size: 60px; font-family: BACS"">EltMBRCdc</p>",,,,,,,,,,
html-keyboard-response,26,85945,0.0-8.0-0.18,60eb26fb8db6845a14fe5a91,650c16f0f2faf8d7a0d14c09,651c1d8ea61bd918ce45769e,null,null,"<p style=""font-size: 60px; font-family: BACS"">bvuZrAm</p>",,,,,,,,,,
html-keyboard-response,27,86961,0.0-8.0-0.19,60eb26fb8db6845a14fe5a91,650c16f0f2faf8d7a0d14c09,651c1d8ea61bd918ce45769e,null,null,"<p style=""font-size: 60px; font-family: BACS"">cDOEBcthB</p>",,,,,,,,,,
html-keyboard-response,28,87977,0.0-8.0-0.20,60eb26fb8db6845a14fe5a91,650c16f0f2faf8d7a0d14c09,651c1d8ea61bd918ce45769e,null,null,"<p style=""font-size: 60px; font-family: BACS"">UdumdrAm</p>",,,,,,,,,,
html-keyboard-response,29,88993,0.0-8.0-0.21,60eb26fb8db6845a14fe5a91,650c16f0f2faf8d7a0d14c09,651c1d8ea61bd918ce45769e,null,null,"<p style=""font-size: 60px; font-family: BACS"">RdPtDcthB</p>",,,,,,,,,,
html-keyboard-response,30,89995,0.0-8.0-0.22,60eb26fb8db6845a14fe5a91,650c16f0f2faf8d7a0d14c09,651c1d8ea61bd918ce45769e,null,null,"<p style=""font-size: 60px; font-family: BACS"">BdtACRCdc</p>",,,,,,,,,,
html-keyboard-response,31,91011,0.0-8.0-0.23,60eb26fb8db6845a14fe5a91,650c16f0f2faf8d7a0d14c09,651c1d8ea61bd918ce45769e,null,null,"<p style=""font-size: 60px; font-family: BACS"">UdumdNac</p>",,,,,,,,,,
html-keyboard-response,32,92022,0.0-8.0-0.24,60eb26fb8db6845a14fe5a91,650c16f0f2faf8d7a0d14c09,651c1d8ea61bd918ce45769e,null,null,"<p style=""font-size: 60px; font-family: BACS"">ODBDARCdc</p>",,,,,,,,,,
html-keyboard-response,33,93027,0.0-8.0-0.25,60eb26fb8db6845a14fe5a91,650c16f0f2faf8d7a0d14c09,651c1d8ea61bd918ce45769e,null,null,"<p style=""font-size: 60px; font-family: BACS"">UdumdQONk</p>",,,,,,,,,,
html-keyboard-response,34,94043,0.0-8.0-0.26,60eb26fb8db6845a14fe5a91,650c16f0f2faf8d7a0d14c09,651c1d8ea61bd918ce45769e,null,null,"<p style=""font-size: 60px; font-family: BACS"">GNAcaNac</p>",,,,,,,,,,
html-keyboard-response,35,95046,0.0-8.0-0.27,60eb26fb8db6845a14fe5a91,650c16f0f2faf8d7a0d14c09,651c1d8ea61bd918ce45769e,null,null,"<p style=""font-size: 60px; font-family: BACS"">aUZAJUG</p>",,,,,,,,,,
html-keyboard-response,36,96060,0.0-8.0-0.28,60eb26fb8db6845a14fe5a91,650c16f0f2faf8d7a0d14c09,651c1d8ea61bd918ce45769e,null,null,"<p style=""font-size: 60px; font-family: BACS"">kCRmcthB</p>",,,,,,,,,,
html-keyboard-response,37,97077,0.0-8.0-0.29,60eb26fb8db6845a14fe5a91,650c16f0f2faf8d7a0d14c09,651c1d8ea61bd918ce45769e,null,null,"<p style=""font-size: 60px; font-family: BACS"">aYQmQONk</p>",,,,,,,,,,
html-keyboard-response,38,98093,0.0-8.0-0.30,60eb26fb8db6845a14fe5a91,650c16f0f2faf8d7a0d14c09,651c1d8ea61bd918ce45769e,null,null,"<p style=""font-size: 60px; font-family: BACS"">aUZArAm</p>",,,,,,,,,,
html-keyboard-response,39,99096,0.0-8.0-0.31,60eb26fb8db6845a14fe5a91,650c16f0f2faf8d7a0d14c09,651c1d8ea61bd918ce45769e,null,null,"<p style=""font-size: 60px; font-family: BACS"">RKYkTRkY</p>",,,,,,,,,,
html-keyboard-response,40,100111,0.0-8.0-0.32,60eb26fb8db6845a14fe5a91,650c16f0f2faf8d7a0d14c09,651c1d8ea61bd918ce45769e,null,null,"<p style=""font-size: 60px; font-family: BACS"">bvuZJUG</p>",,,,,,,,,,
html-keyboard-response,41,101127,0.0-8.0-0.33,60eb26fb8db6845a14fe5a91,650c16f0f2faf8d7a0d14c09,651c1d8ea61bd918ce45769e,null,null,"<p style=""font-size: 60px; font-family: BACS"">ODBDAPED</p>",,,,,,,,,,
html-keyboard-response,42,102130,0.0-8.0-0.34,60eb26fb8db6845a14fe5a91,650c16f0f2faf8d7a0d14c09,651c1d8ea61bd918ce45769e,null,null,"<p style=""font-size: 60px; font-family: BACS"">BdtACTPOM</p>",,,,,,,,,,
html-keyboard-response,43,103145,0.0-8.0-0.35,60eb26fb8db6845a14fe5a91,650c16f0f2faf8d7a0d14c09,651c1d8ea61bd918ce45769e,null,null,"<p style=""font-size: 60px; font-family: BACS"">BECkPED</p>",,,,,,,,,,
html-keyboard-response,44,104161,0.0-8.0-0.36,60eb26fb8db6845a14fe5a91,650c16f0f2faf8d7a0d14c09,651c1d8ea61bd918ce45769e,null,null,"<p style=""font-size: 60px; font-family: BACS"">GNAcaLkNc</p>",,,,,,,,,,
html-keyboard-response,45,105177,0.0-8.0-0.37,60eb26fb8db6845a14fe5a91,650c16f0f2faf8d7a0d14c09,651c1d8ea61bd918ce45769e,null,null,"<p style=""font-size: 60px; font-family: BACS"">aYQmJUG</p>",,,,,,,,,,
html-keyboard-response,46,106195,0.0-8.0-0.38,60eb26fb8db6845a14fe5a91,650c16f0f2faf8d7a0d14c09,651c1d8ea61bd918ce45769e,null,null,"<p style=""font-size: 60px; font-family: BACS"">RCcERCdc</p>",,,,,,,,,,
html-keyboard-response,47,107200,0.0-8.0-0.39,60eb26fb8db6845a14fe5a91,650c16f0f2faf8d7a0d14c09,651c1d8ea61bd918ce45769e,null,null,"<p style=""font-size: 60px; font-family: BACS"">EltMBPED</p>",,,,,,,,,,
html-keyboard-response,48,108203,0.0-8.0-0.40,60eb26fb8db6845a14fe5a91,650c16f0f2faf8d7a0d14c09,651c1d8ea61bd918ce45769e,null,null,"<p style=""font-size: 60px; font-family: BACS"">LdQvrAm</p>",,,,,,,,,,
html-keyboard-response,49,109212,0.0-8.0-0.41,60eb26fb8db6845a14fe5a91,650c16f0f2faf8d7a0d14c09,651c1d8ea61bd918ce45769e,null,null,"<p style=""font-size: 60px; font-family: BACS"">aOLZUNac</p>",,,,,,,,,,
html-keyboard-response,50,110227,0.0-8.0-0.42,60eb26fb8db6845a14fe5a91,650c16f0f2faf8d7a0d14c09,651c1d8ea61bd918ce45769e,null,null,"<p style=""font-size: 60px; font-family: BACS"">RCcEPED</p>",,,,,,,,,,
html-keyboard-response,51,111229,0.0-8.0-0.43,60eb26fb8db6845a14fe5a91,650c16f0f2faf8d7a0d14c09,651c1d8ea61bd918ce45769e,null,null,"<p style=""font-size: 60px; font-family: BACS"">UdumdJUG</p>",,,,,,,,,,
html-keyboard-response,52,112244,0.0-8.0-0.44,60eb26fb8db6845a14fe5a91,650c16f0f2faf8d7a0d14c09,651c1d8ea61bd918ce45769e,null,null,"<p style=""font-size: 60px; font-family: BACS"">LdQvNac</p>",,,,,,,,,,
html-keyboard-response,53,113259,0.0-8.0-0.45,60eb26fb8db6845a14fe5a91,650c16f0f2faf8d7a0d14c09,651c1d8ea61bd918ce45769e,null,null,"<p style=""font-size: 60px; font-family: BACS"">RCcETPOM</p>",,,,,,,,,,
html-keyboard-response,54,114262,0.0-8.0-0.46,60eb26fb8db6845a14fe5a91,650c16f0f2faf8d7a0d14c09,651c1d8ea61bd918ce45769e,null,null,"<p style=""font-size: 60px; font-family: BACS"">auYAkrAm</p>",,,,,,,,,,
html-keyboard-response,55,115276,0.0-8.0-0.47,60eb26fb8db6845a14fe5a91,650c16f0f2faf8d7a0d14c09,651c1d8ea61bd918ce45769e,null,null,"<p style=""font-size: 60px; font-family: BACS"">TObCOPED</p>",,,,,,,,,,
html-keyboard-response,56,116292,0.0-8.0-0.48,60eb26fb8db6845a14fe5a91,650c16f0f2faf8d7a0d14c09,651c1d8ea61bd918ce45769e,null,null,"<p style=""font-size: 60px; font-family: BACS"">GNAcaQONk</p>",,,,,,,,,,
html-keyboard-response,57,117295,0.0-8.0-0.49,60eb26fb8db6845a14fe5a91,650c16f0f2faf8d7a0d14c09,651c1d8ea61bd918ce45769e,null,null,"<p style=""font-size: 60px; font-family: BACS"">BdtACTRkY</p>",,,,,,,,,,
html-keyboard-response,58,118311,0.0-8.0-0.50,60eb26fb8db6845a14fe5a91,650c16f0f2faf8d7a0d14c09,651c1d8ea61bd918ce45769e,null,null,"<p style=""font-size: 60px; font-family: BACS"">aUZAQONk</p>",,,,,,,,,,
html-keyboard-response,59,119325,0.0-8.0-0.51,60eb26fb8db6845a14fe5a91,650c16f0f2faf8d7a0d14c09,651c1d8ea61bd918ce45769e,null,null,"<p style=""font-size: 60px; font-family: BACS"">AlUYLkNc</p>",,,,,,,,,,
html-keyboard-response,60,120341,0.0-8.0-0.52,60eb26fb8db6845a14fe5a91,650c16f0f2faf8d7a0d14c09,651c1d8ea61bd918ce45769e,null,null,"<p style=""font-size: 60px; font-family: BACS"">TObCOTRkY</p>",,,,,,,,,,
html-keyboard-response,61,121356,0.0-8.0-0.53,60eb26fb8db6845a14fe5a91,650c16f0f2faf8d7a0d14c09,651c1d8ea61bd918ce45769e,null,null,"<p style=""font-size: 60px; font-family: BACS"">BECkRCdc</p>",,,,,,,,,,
html-keyboard-response,62,122359,0.0-8.0-0.54,60eb26fb8db6845a14fe5a91,650c16f0f2faf8d7a0d14c09,651c1d8ea61bd918ce45769e,null,null,"<p style=""font-size: 60px; font-family: BACS"">ODBDATPOM</p>",,,,,,,,,,
html-keyboard-response,63,123364,0.0-8.0-0.55,60eb26fb8db6845a14fe5a91,650c16f0f2faf8d7a0d14c09,651c1d8ea61bd918ce45769e,null,null,"<p style=""font-size: 60px; font-family: BACS"">bvuZLkNc</p>",,,,,,,,,,
html-keyboard-response,64,124381,0.0-8.0-0.56,60eb26fb8db6845a14fe5a91,650c16f0f2faf8d7a0d14c09,651c1d8ea61bd918ce45769e,null,null,"<p style=""font-size: 60px; font-family: BACS"">kCRmTPOM</p>",,,,,,,,,,
html-keyboard-response,65,125400,0.0-8.0-0.57,60eb26fb8db6845a14fe5a91,650c16f0f2faf8d7a0d14c09,651c1d8ea61bd918ce45769e,null,null,"<p style=""font-size: 60px; font-family: BACS"">RKYkPED</p>",,,,,,,,,,
html-keyboard-response,66,126407,0.0-8.0-0.58,60eb26fb8db6845a14fe5a91,650c16f0f2faf8d7a0d14c09,651c1d8ea61bd918ce45769e,null,null,"<p style=""font-size: 60px; font-family: BACS"">AlUYrAm</p>",,,,,,,,,,
html-keyboard-response,67,127422,0.0-8.0-0.59,60eb26fb8db6845a14fe5a91,650c16f0f2faf8d7a0d14c09,651c1d8ea61bd918ce45769e,null,null,"<p style=""font-size: 60px; font-family: BACS"">BdtACcthB</p>",,,,,,,,,,
html-keyboard-response,68,128438,0.0-8.0-0.60,60eb26fb8db6845a14fe5a91,650c16f0f2faf8d7a0d14c09,651c1d8ea61bd918ce45769e,null,null,"<p style=""font-size: 60px; font-family: BACS"">aOLZUQONk</p>",,,,,,,,,,
html-keyboard-response,69,129456,0.0-8.0-0.61,60eb26fb8db6845a14fe5a91,650c16f0f2faf8d7a0d14c09,651c1d8ea61bd918ce45769e,null,null,"<p style=""font-size: 60px; font-family: BACS"">cDOEBTRkY</p>",,,,,,,,,,
html-keyboard-response,70,130471,0.0-8.0-0.62,60eb26fb8db6845a14fe5a91,650c16f0f2faf8d7a0d14c09,651c1d8ea61bd918ce45769e,null,null,"<p style=""font-size: 60px; font-family: BACS"">AlUYJUG</p>",,,,,,,,,,
html-keyboard-response,71,131489,0.0-8.0-0.63,60eb26fb8db6845a14fe5a91,650c16f0f2faf8d7a0d14c09,651c1d8ea61bd918ce45769e,null,null,"<p style=""font-size: 60px; font-family: BACS"">kCRmTRkY</p>",,,,,,,,,,
html-keyboard-response,72,132506,0.0-8.0-0.64,60eb26fb8db6845a14fe5a91,650c16f0f2faf8d7a0d14c09,651c1d8ea61bd918ce45769e,null,null,"<p style=""font-size: 60px; font-family: BACS"">EltMBTPOM</p>",,,,,,,,,,
html-keyboard-response,73,133520,0.0-8.0-0.65,60eb26fb8db6845a14fe5a91,650c16f0f2faf8d7a0d14c09,651c1d8ea61bd918ce45769e,null,null,"<p style=""font-size: 60px; font-family: BACS"">aOLZUrAm</p>",,,,,,,,,,
html-keyboard-response,74,134523,0.0-8.0-0.66,60eb26fb8db6845a14fe5a91,650c16f0f2faf8d7a0d14c09,651c1d8ea61bd918ce45769e,null,null,"<p style=""font-size: 60px; font-family: BACS"">auYAkLkNc</p>",,,,,,,,,,
html-keyboard-response,75,135531,0.0-8.0-0.67,60eb26fb8db6845a14fe5a91,650c16f0f2faf8d7a0d14c09,651c1d8ea61bd918ce45769e,null,null,"<p style=""font-size: 60px; font-family: BACS"">BECkTRkY</p>",,,,,,,,,,
html-keyboard-response,76,136547,0.0-8.0-0.68,60eb26fb8db6845a14fe5a91,650c16f0f2faf8d7a0d14c09,651c1d8ea61bd918ce45769e,null,null,"<p style=""font-size: 60px; font-family: BACS"">bvuZNac</p>",,,,,,,,,,
html-keyboard-response,77,137555,0.0-8.0-0.69,60eb26fb8db6845a14fe5a91,650c16f0f2faf8d7a0d14c09,651c1d8ea61bd918ce45769e,null,null,"<p style=""font-size: 60px; font-family: BACS"">NQZvQONk</p>",,,,,,,,,,
html-keyboard-response,78,138562,0.0-8.0-0.70,60eb26fb8db6845a14fe5a91,650c16f0f2faf8d7a0d14c09,651c1d8ea61bd918ce45769e,null,null,"<p style=""font-size: 60px; font-family: BACS"">GNAcaJUG</p>",,,,,,,,,,
html-keyboard-response,79,139571,0.0-8.0-0.71,60eb26fb8db6845a14fe5a91,650c16f0f2faf8d7a0d14c09,651c1d8ea61bd918ce45769e,null,null,"<p style=""font-size: 60px; font-family: BACS"">RKYkTPOM</p>",,,,,,,,,,
html-keyboard-response,80,140581,0.0-8.0-0.72,60eb26fb8db6845a14fe5a91,650c16f0f2faf8d7a0d14c09,651c1d8ea61bd918ce45769e,null,null,"<p style=""font-size: 60px; font-family: BACS"">BECkcthB</p>",,,,,,,,,,
html-keyboard-response,81,141587,0.0-8.0-0.73,60eb26fb8db6845a14fe5a91,650c16f0f2faf8d7a0d14c09,651c1d8ea61bd918ce45769e,null,null,"<p style=""font-size: 60px; font-family: BACS"">AlUYQONk</p>",,,,,,,,,,
html-keyboard-response,82,142604,0.0-8.0-0.74,60eb26fb8db6845a14fe5a91,650c16f0f2faf8d7a0d14c09,651c1d8ea61bd918ce45769e,null,null,"<p style=""font-size: 60px; font-family: BACS"">RKYkRCdc</p>",,,,,,,,,,
html-keyboard-response,83,143621,0.0-8.0-0.75,60eb26fb8db6845a14fe5a91,650c16f0f2faf8d7a0d14c09,651c1d8ea61bd918ce45769e,null,null,"<p style=""font-size: 60px; font-family: BACS"">RdPtDTRkY</p>",,,,,,,,,,
html-keyboard-response,84,144638,0.0-8.0-0.76,60eb26fb8db6845a14fe5a91,650c16f0f2faf8d7a0d14c09,651c1d8ea61bd918ce45769e,null,null,"<p style=""font-size: 60px; font-family: BACS"">aUZANac</p>",,,,,,,,,,
html-keyboard-response,85,145654,0.0-8.0-0.77,60eb26fb8db6845a14fe5a91,650c16f0f2faf8d7a0d14c09,651c1d8ea61bd918ce45769e,null,null,"<p style=""font-size: 60px; font-family: BACS"">TObCOcthB</p>",,,,,,,,,,
html-keyboard-response,86,146671,0.0-8.0-0.78,60eb26fb8db6845a14fe5a91,650c16f0f2faf8d7a0d14c09,651c1d8ea61bd918ce45769e,null,null,"<p style=""font-size: 60px; font-family: BACS"">cDOEBPED</p>",,,,,,,,,,
html-keyboard-response,87,147686,0.0-8.0-0.79,60eb26fb8db6845a14fe5a91,650c16f0f2faf8d7a0d14c09,651c1d8ea61bd918ce45769e,null,null,"<p style=""font-size: 60px; font-family: BACS"">NQZvNac</p>",,,,,,,,,,
html-keyboard-response,88,153709,0.0-9.0,60eb26fb8db6845a14fe5a91,650c16f0f2faf8d7a0d14c09,651c1d8ea61bd918ce45769e,6021, ,"<p>Great, you've seen the first block of words. You may now take a short break.</p>
      <p>Press the spacebar when you're ready to continue.</p>",,,,,,,,,,
html-keyboard-response,89,154720,0.0-10.0-0.0,60eb26fb8db6845a14fe5a91,650c16f0f2faf8d7a0d14c09,651c1d8ea61bd918ce45769e,null,null,"<p style=""font-size: 60px; font-family: BACS"">aOLZUNac</p>",,,,,,,,,,
html-keyboard-response,90,155729,0.0-10.0-0.1,60eb26fb8db6845a14fe5a91,650c16f0f2faf8d7a0d14c09,651c1d8ea61bd918ce45769e,null,null,"<p style=""font-size: 60px; font-family: BACS"">ODBDARCdc</p>",,,,,,,,,,
html-keyboard-response,91,156738,0.0-10.0-0.2,60eb26fb8db6845a14fe5a91,650c16f0f2faf8d7a0d14c09,651c1d8ea61bd918ce45769e,null,null,"<p style=""font-size: 60px; font-family: BACS"">TObCOPED</p>",,,,,,,,,,
html-keyboard-response,92,157753,0.0-10.0-0.3,60eb26fb8db6845a14fe5a91,650c16f0f2faf8d7a0d14c09,651c1d8ea61bd918ce45769e,null,null,"<p style=""font-size: 60px; font-family: BACS"">ODBDATRkY</p>",,,,,,,,,,
html-keyboard-response,93,158755,0.0-10.0-0.4,60eb26fb8db6845a14fe5a91,650c16f0f2faf8d7a0d14c09,651c1d8ea61bd918ce45769e,null,null,"<p style=""font-size: 60px; font-family: BACS"">BdtACTPOM</p>",,,,,,,,,,
html-keyboard-response,94,159770,0.0-10.0-0.5,60eb26fb8db6845a14fe5a91,650c16f0f2faf8d7a0d14c09,651c1d8ea61bd918ce45769e,null,null,"<p style=""font-size: 60px; font-family: BACS"">EltMBcthB</p>",,,,,,,,,,
html-keyboard-response,95,160786,0.0-10.0-0.6,60eb26fb8db6845a14fe5a91,650c16f0f2faf8d7a0d14c09,651c1d8ea61bd918ce45769e,null,null,"<p style=""font-size: 60px; font-family: BACS"">kCRmTRkY</p>",,,,,,,,,,
html-keyboard-response,96,161803,0.0-10.0-0.7,60eb26fb8db6845a14fe5a91,650c16f0f2faf8d7a0d14c09,651c1d8ea61bd918ce45769e,null,null,"<p style=""font-size: 60px; font-family: BACS"">TObCOcthB</p>",,,,,,,,,,
html-keyboard-response,97,162819,0.0-10.0-0.8,60eb26fb8db6845a14fe5a91,650c16f0f2faf8d7a0d14c09,651c1d8ea61bd918ce45769e,null,null,"<p style=""font-size: 60px; font-family: BACS"">GNAcaJUG</p>",,,,,,,,,,
html-keyboard-response,98,163822,0.0-10.0-0.9,60eb26fb8db6845a14fe5a91,650c16f0f2faf8d7a0d14c09,651c1d8ea61bd918ce45769e,null,null,"<p style=""font-size: 60px; font-family: BACS"">aOLZUrAm</p>",,,,,,,,,,
html-keyboard-response,99,164836,0.0-10.0-0.10,60eb26fb8db6845a14fe5a91,650c16f0f2faf8d7a0d14c09,651c1d8ea61bd918ce45769e,null,null,"<p style=""font-size: 60px; font-family: BACS"">kCRmcthB</p>",,,,,,,,,,
html-keyboard-response,100,165854,0.0-10.0-0.11,60eb26fb8db6845a14fe5a91,650c16f0f2faf8d7a0d14c09,651c1d8ea61bd918ce45769e,null,null,"<p style=""font-size: 60px; font-family: BACS"">bvuZLkNc</p>",,,,,,,,,,
html-keyboard-response,101,166871,0.0-10.0-0.12,60eb26fb8db6845a14fe5a91,650c16f0f2faf8d7a0d14c09,651c1d8ea61bd918ce45769e,null,null,"<p style=""font-size: 60px; font-family: BACS"">AlUYQONk</p>",,,,,,,,,,
html-keyboard-response,102,167886,0.0-10.0-0.13,60eb26fb8db6845a14fe5a91,650c16f0f2faf8d7a0d14c09,651c1d8ea61bd918ce45769e,null,null,"<p style=""font-size: 60px; font-family: BACS"">UdumdrAm</p>",,,,,,,,,,
html-keyboard-response,103,168888,0.0-10.0-0.14,60eb26fb8db6845a14fe5a91,650c16f0f2faf8d7a0d14c09,651c1d8ea61bd918ce45769e,null,null,"<p style=""font-size: 60px; font-family: BACS"">EltMBRCdc</p>",,,,,,,,,,
html-keyboard-response,104,169904,0.0-10.0-0.15,60eb26fb8db6845a14fe5a91,650c16f0f2faf8d7a0d14c09,651c1d8ea61bd918ce45769e,null,null,"<p style=""font-size: 60px; font-family: BACS"">cDOEBTRkY</p>",,,,,,,,,,
html-keyboard-response,105,170918,0.0-10.0-0.16,60eb26fb8db6845a14fe5a91,650c16f0f2faf8d7a0d14c09,651c1d8ea61bd918ce45769e,null,null,"<p style=""font-size: 60px; font-family: BACS"">RdPtDcthB</p>",,,,,,,,,,
html-keyboard-response,106,171921,0.0-10.0-0.17,60eb26fb8db6845a14fe5a91,650c16f0f2faf8d7a0d14c09,651c1d8ea61bd918ce45769e,null,null,"<p style=""font-size: 60px; font-family: BACS"">BECkRCdc</p>",,,,,,,,,,
html-keyboard-response,107,172938,0.0-10.0-0.18,60eb26fb8db6845a14fe5a91,650c16f0f2faf8d7a0d14c09,651c1d8ea61bd918ce45769e,null,null,"<p style=""font-size: 60px; font-family: BACS"">AlUYJUG</p>",,,,,,,,,,
html-keyboard-response,108,173953,0.0-10.0-0.19,60eb26fb8db6845a14fe5a91,650c16f0f2faf8d7a0d14c09,651c1d8ea61bd918ce45769e,null,null,"<p style=""font-size: 60px; font-family: BACS"">aYQmrAm</p>",,,,,,,,,,
html-keyboard-response,109,174975,0.0-10.0-0.20,60eb26fb8db6845a14fe5a91,650c16f0f2faf8d7a0d14c09,651c1d8ea61bd918ce45769e,null,null,"<p style=""font-size: 60px; font-family: BACS"">RKYkPED</p>",,,,,,,,,,
html-keyboard-response,110,175985,0.0-10.0-0.21,60eb26fb8db6845a14fe5a91,650c16f0f2faf8d7a0d14c09,651c1d8ea61bd918ce45769e,null,null,"<p style=""font-size: 60px; font-family: BACS"">kCRmRCdc</p>",,,,,,,,,,
html-keyboard-response,111,176996,0.0-10.0-0.22,60eb26fb8db6845a14fe5a91,650c16f0f2faf8d7a0d14c09,651c1d8ea61bd918ce45769e,null,null,"<p style=""font-size: 60px; font-family: BACS"">NQZvNac</p>",,,,,,,,,,
html-keyboard-response,112,178003,0.0-10.0-0.23,60eb26fb8db6845a14fe5a91,650c16f0f2faf8d7a0d14c09,651c1d8ea61bd918ce45769e,null,null,"<p style=""font-size: 60px; font-family: BACS"">TObCOTPOM</p>",,,,,,,,,,
html-keyboard-response,113,179019,0.0-10.0-0.24,60eb26fb8db6845a14fe5a91,650c16f0f2faf8d7a0d14c09,651c1d8ea61bd918ce45769e,null,null,"<p style=""font-size: 60px; font-family: BACS"">UdumdQONk</p>",,,,,,,,,,
html-keyboard-response,114,180036,0.0-10.0-0.25,60eb26fb8db6845a14fe5a91,650c16f0f2faf8d7a0d14c09,651c1d8ea61bd918ce45769e,null,null,"<p style=""font-size: 60px; font-family: BACS"">BdtACRCdc</p>",,,,,,,,,,
html-keyboard-response,115,181052,0.0-10.0-0.26,60eb26fb8db6845a14fe5a91,650c16f0f2faf8d7a0d14c09,651c1d8ea61bd918ce45769e,null,null,"<p style=""font-size: 60px; font-family: BACS"">aOLZULkNc</p>",,,,,,,,,,
html-keyboard-response,116,182069,0.0-10.0-0.27,60eb26fb8db6845a14fe5a91,650c16f0f2faf8d7a0d14c09,651c1d8ea61bd918ce45769e,null,null,"<p style=""font-size: 60px; font-family: BACS"">NQZvQONk</p>",,,,,,,,,,
html-keyboard-response,117,183086,0.0-10.0-0.28,60eb26fb8db6845a14fe5a91,650c16f0f2faf8d7a0d14c09,651c1d8ea61bd918ce45769e,null,null,"<p style=""font-size: 60px; font-family: BACS"">AlUYrAm</p>",,,,,,,,,,
html-keyboard-response,118,184096,0.0-10.0-0.29,60eb26fb8db6845a14fe5a91,650c16f0f2faf8d7a0d14c09,651c1d8ea61bd918ce45769e,null,null,"<p style=""font-size: 60px; font-family: BACS"">auYAkLkNc</p>",,,,,,,,,,
html-keyboard-response,119,185110,0.0-10.0-0.30,60eb26fb8db6845a14fe5a91,650c16f0f2faf8d7a0d14c09,651c1d8ea61bd918ce45769e,null,null,"<p style=""font-size: 60px; font-family: BACS"">cDOEBcthB</p>",,,,,,,,,,
html-keyboard-response,120,186112,0.0-10.0-0.31,60eb26fb8db6845a14fe5a91,650c16f0f2faf8d7a0d14c09,651c1d8ea61bd918ce45769e,null,null,"<p style=""font-size: 60px; font-family: BACS"">RKYkTRkY</p>",,,,,,,,,,
html-keyboard-response,121,187121,0.0-10.0-0.32,60eb26fb8db6845a14fe5a91,650c16f0f2faf8d7a0d14c09,651c1d8ea61bd918ce45769e,null,null,"<p style=""font-size: 60px; font-family: BACS"">GNAcaNac</p>",,,,,,,,,,
html-keyboard-response,122,188130,0.0-10.0-0.33,60eb26fb8db6845a14fe5a91,650c16f0f2faf8d7a0d14c09,651c1d8ea61bd918ce45769e,null,null,"<p style=""font-size: 60px; font-family: BACS"">BdtACTRkY</p>",,,,,,,,,,
html-keyboard-response,123,189136,0.0-10.0-0.34,60eb26fb8db6845a14fe5a91,650c16f0f2faf8d7a0d14c09,651c1d8ea61bd918ce45769e,null,null,"<p style=""font-size: 60px; font-family: BACS"">aUZAQONk</p>",,,,,,,,,,
html-keyboard-response,124,190153,0.0-10.0-0.35,60eb26fb8db6845a14fe5a91,650c16f0f2faf8d7a0d14c09,651c1d8ea61bd918ce45769e,null,null,"<p style=""font-size: 60px; font-family: BACS"">RCcEPED</p>",,,,,,,,,,
html-keyboard-response,125,191168,0.0-10.0-0.36,60eb26fb8db6845a14fe5a91,650c16f0f2faf8d7a0d14c09,651c1d8ea61bd918ce45769e,null,null,"<p style=""font-size: 60px; font-family: BACS"">UdumdNac</p>",,,,,,,,,,
html-keyboard-response,126,192170,0.0-10.0-0.37,60eb26fb8db6845a14fe5a91,650c16f0f2faf8d7a0d14c09,651c1d8ea61bd918ce45769e,null,null,"<p style=""font-size: 60px; font-family: BACS"">TObCOTRkY</p>",,,,,,,,,,
html-keyboard-response,127,193185,0.0-10.0-0.38,60eb26fb8db6845a14fe5a91,650c16f0f2faf8d7a0d14c09,651c1d8ea61bd918ce45769e,null,null,"<p style=""font-size: 60px; font-family: BACS"">auYAkNac</p>",,,,,,,,,,
html-keyboard-response,128,194202,0.0-10.0-0.39,60eb26fb8db6845a14fe5a91,650c16f0f2faf8d7a0d14c09,651c1d8ea61bd918ce45769e,null,null,"<p style=""font-size: 60px; font-family: BACS"">BECkTRkY</p>",,,,,,,,,,
html-keyboard-response,129,195219,0.0-10.0-0.40,60eb26fb8db6845a14fe5a91,650c16f0f2faf8d7a0d14c09,651c1d8ea61bd918ce45769e,null,null,"<p style=""font-size: 60px; font-family: BACS"">aYQmQONk</p>",,,,,,,,,,
html-keyboard-response,130,196234,0.0-10.0-0.41,60eb26fb8db6845a14fe5a91,650c16f0f2faf8d7a0d14c09,651c1d8ea61bd918ce45769e,null,null,"<p style=""font-size: 60px; font-family: BACS"">AlUYLkNc</p>",,,,,,,,,,
html-keyboard-response,131,197251,0.0-10.0-0.42,60eb26fb8db6845a14fe5a91,650c16f0f2faf8d7a0d14c09,651c1d8ea61bd918ce45769e,null,null,"<p style=""font-size: 60px; font-family: BACS"">bvuZJUG</p>",,,,,,,,,,
html-keyboard-response,132,198268,0.0-10.0-0.43,60eb26fb8db6845a14fe5a91,650c16f0f2faf8d7a0d14c09,651c1d8ea61bd918ce45769e,null,null,"<p style=""font-size: 60px; font-family: BACS"">RdPtDTRkY</p>",,,,,,,,,,
html-keyboard-response,133,199284,0.0-10.0-0.44,60eb26fb8db6845a14fe5a91,650c16f0f2faf8d7a0d14c09,651c1d8ea61bd918ce45769e,null,null,"<p style=""font-size: 60px; font-family: BACS"">RKYkRCdc</p>",,,,,,,,,,
html-keyboard-response,134,200286,0.0-10.0-0.45,60eb26fb8db6845a14fe5a91,650c16f0f2faf8d7a0d14c09,651c1d8ea61bd918ce45769e,null,null,"<p style=""font-size: 60px; font-family: BACS"">bvuZNac</p>",,,,,,,,,,
html-keyboard-response,135,201301,0.0-10.0-0.46,60eb26fb8db6845a14fe5a91,650c16f0f2faf8d7a0d14c09,651c1d8ea61bd918ce45769e,null,null,"<p style=""font-size: 60px; font-family: BACS"">BECkPED</p>",,,,,,,,,,
html-keyboard-response,136,202304,0.0-10.0-0.47,60eb26fb8db6845a14fe5a91,650c16f0f2faf8d7a0d14c09,651c1d8ea61bd918ce45769e,null,null,"<p style=""font-size: 60px; font-family: BACS"">kCRmTPOM</p>",,,,,,,,,,
html-keyboard-response,137,203312,0.0-10.0-0.48,60eb26fb8db6845a14fe5a91,650c16f0f2faf8d7a0d14c09,651c1d8ea61bd918ce45769e,null,null,"<p style=""font-size: 60px; font-family: BACS"">RCcERCdc</p>",,,,,,,,,,
html-keyboard-response,138,204320,0.0-10.0-0.49,60eb26fb8db6845a14fe5a91,650c16f0f2faf8d7a0d14c09,651c1d8ea61bd918ce45769e,null,null,"<p style=""font-size: 60px; font-family: BACS"">NQZvJUG</p>",,,,,,,,,,
html-keyboard-response,139,205335,0.0-10.0-0.50,60eb26fb8db6845a14fe5a91,650c16f0f2faf8d7a0d14c09,651c1d8ea61bd918ce45769e,null,null,"<p style=""font-size: 60px; font-family: BACS"">aUZANac</p>",,,,,,,,,,
html-keyboard-response,140,206352,0.0-10.0-0.51,60eb26fb8db6845a14fe5a91,650c16f0f2faf8d7a0d14c09,651c1d8ea61bd918ce45769e,null,null,"<p style=""font-size: 60px; font-family: BACS"">ODBDATPOM</p>",,,,,,,,,,
html-keyboard-response,141,207368,0.0-10.0-0.52,60eb26fb8db6845a14fe5a91,650c16f0f2faf8d7a0d14c09,651c1d8ea61bd918ce45769e,null,null,"<p style=""font-size: 60px; font-family: BACS"">EltMBPED</p>",,,,,,,,,,
html-keyboard-response,142,208370,0.0-10.0-0.53,60eb26fb8db6845a14fe5a91,650c16f0f2faf8d7a0d14c09,651c1d8ea61bd918ce45769e,null,null,"<p style=""font-size: 60px; font-family: BACS"">RdPtDTPOM</p>",,,,,,,,,,
html-keyboard-response,143,209384,0.0-10.0-0.54,60eb26fb8db6845a14fe5a91,650c16f0f2faf8d7a0d14c09,651c1d8ea61bd918ce45769e,null,null,"<p style=""font-size: 60px; font-family: BACS"">aYQmJUG</p>",,,,,,,,,,
html-keyboard-response,144,210402,0.0-10.0-0.55,60eb26fb8db6845a14fe5a91,650c16f0f2faf8d7a0d14c09,651c1d8ea61bd918ce45769e,null,null,"<p style=""font-size: 60px; font-family: BACS"">LdQvrAm</p>",,,,,,,,,,
html-keyboard-response,145,211418,0.0-10.0-0.56,60eb26fb8db6845a14fe5a91,650c16f0f2faf8d7a0d14c09,651c1d8ea61bd918ce45769e,null,null,"<p style=""font-size: 60px; font-family: BACS"">BdtACcthB</p>",,,,,,,,,,
html-keyboard-response,146,212435,0.0-10.0-0.57,60eb26fb8db6845a14fe5a91,650c16f0f2faf8d7a0d14c09,651c1d8ea61bd918ce45769e,null,null,"<p style=""font-size: 60px; font-family: BACS"">GNAcaLkNc</p>",,,,,,,,,,
html-keyboard-response,147,213451,0.0-10.0-0.58,60eb26fb8db6845a14fe5a91,650c16f0f2faf8d7a0d14c09,651c1d8ea61bd918ce45769e,null,null,"<p style=""font-size: 60px; font-family: BACS"">aUZArAm</p>",,,,,,,,,,
html-keyboard-response,148,214467,0.0-10.0-0.59,60eb26fb8db6845a14fe5a91,650c16f0f2faf8d7a0d14c09,651c1d8ea61bd918ce45769e,null,null,"<p style=""font-size: 60px; font-family: BACS"">cDOEBRCdc</p>",,,,,,,,,,
html-keyboard-response,149,215484,0.0-10.0-0.60,60eb26fb8db6845a14fe5a91,650c16f0f2faf8d7a0d14c09,651c1d8ea61bd918ce45769e,null,null,"<p style=""font-size: 60px; font-family: BACS"">NQZvLkNc</p>",,,,,,,,,,
html-keyboard-response,150,216485,0.0-10.0-0.61,60eb26fb8db6845a14fe5a91,650c16f0f2faf8d7a0d14c09,651c1d8ea61bd918ce45769e,null,null,"<p style=""font-size: 60px; font-family: BACS"">aUZAJUG</p>",,,,,,,,,,
html-keyboard-response,151,217502,0.0-10.0-0.62,60eb26fb8db6845a14fe5a91,650c16f0f2faf8d7a0d14c09,651c1d8ea61bd918ce45769e,null,null,"<p style=""font-size: 60px; font-family: BACS"">EltMBTPOM</p>",,,,,,,,,,
html-keyboard-response,152,218517,0.0-10.0-0.63,60eb26fb8db6845a14fe5a91,650c16f0f2faf8d7a0d14c09,651c1d8ea61bd918ce45769e,null,null,"<p style=""font-size: 60px; font-family: BACS"">GNAcaQONk</p>",,,,,,,,,,
html-keyboard-response,153,219534,0.0-10.0-0.64,60eb26fb8db6845a14fe5a91,650c16f0f2faf8d7a0d14c09,651c1d8ea61bd918ce45769e,null,null,"<p style=""font-size: 60px; font-family: BACS"">ODBDAPED</p>",,,,,,,,,,
html-keyboard-response,154,220550,0.0-10.0-0.65,60eb26fb8db6845a14fe5a91,650c16f0f2faf8d7a0d14c09,651c1d8ea61bd918ce45769e,null,null,"<p style=""font-size: 60px; font-family: BACS"">RCcEcthB</p>",,,,,,,,,,
html-keyboard-response,155,221552,0.0-10.0-0.66,60eb26fb8db6845a14fe5a91,650c16f0f2faf8d7a0d14c09,651c1d8ea61bd918ce45769e,null,null,"<p style=""font-size: 60px; font-family: BACS"">UdumdJUG</p>",,,,,,,,,,
html-keyboard-response,156,222568,0.0-10.0-0.67,60eb26fb8db6845a14fe5a91,650c16f0f2faf8d7a0d14c09,651c1d8ea61bd918ce45769e,null,null,"<p style=""font-size: 60px; font-family: BACS"">BECkcthB</p>",,,,,,,,,,
html-keyboard-response,157,223583,0.0-10.0-0.68,60eb26fb8db6845a14fe5a91,650c16f0f2faf8d7a0d14c09,651c1d8ea61bd918ce45769e,null,null,"<p style=""font-size: 60px; font-family: BACS"">LdQvLkNc</p>",,,,,,,,,,
html-keyboard-response,158,224585,0.0-10.0-0.69,60eb26fb8db6845a14fe5a91,650c16f0f2faf8d7a0d14c09,651c1d8ea61bd918ce45769e,null,null,"<p style=""font-size: 60px; font-family: BACS"">RKYkTPOM</p>",,,,,,,,,,
html-keyboard-response,159,225600,0.0-10.0-0.70,60eb26fb8db6845a14fe5a91,650c16f0f2faf8d7a0d14c09,651c1d8ea61bd918ce45769e,null,null,"<p style=""font-size: 60px; font-family: BACS"">aOLZUQONk</p>",,,,,,,,,,
html-keyboard-response,160,226617,0.0-10.0-0.71,60eb26fb8db6845a14fe5a91,650c16f0f2faf8d7a0d14c09,651c1d8ea61bd918ce45769e,null,null,"<p style=""font-size: 60px; font-family: BACS"">auYAkJUG</p>",,,,,,,,,,
html-keyboard-response,161,227633,0.0-10.0-0.72,60eb26fb8db6845a14fe5a91,650c16f0f2faf8d7a0d14c09,651c1d8ea61bd918ce45769e,null,null,"<p style=""font-size: 60px; font-family: BACS"">bvuZrAm</p>",,,,,,,,,,
html-keyboard-response,162,228651,0.0-10.0-0.73,60eb26fb8db6845a14fe5a91,650c16f0f2faf8d7a0d14c09,651c1d8ea61bd918ce45769e,null,null,"<p style=""font-size: 60px; font-family: BACS"">LdQvNac</p>",,,,,,,,,,
html-keyboard-response,163,229666,0.0-10.0-0.74,60eb26fb8db6845a14fe5a91,650c16f0f2faf8d7a0d14c09,651c1d8ea61bd918ce45769e,null,null,"<p style=""font-size: 60px; font-family: BACS"">aYQmLkNc</p>",,,,,,,,,,
html-keyboard-response,164,230678,0.0-10.0-0.75,60eb26fb8db6845a14fe5a91,650c16f0f2faf8d7a0d14c09,651c1d8ea61bd918ce45769e,null,null,"<p style=""font-size: 60px; font-family: BACS"">LdQvQONk</p>",,,,,,,,,,
html-keyboard-response,165,231685,0.0-10.0-0.76,60eb26fb8db6845a14fe5a91,650c16f0f2faf8d7a0d14c09,651c1d8ea61bd918ce45769e,null,null,"<p style=""font-size: 60px; font-family: BACS"">auYAkrAm</p>",,,,,,,,,,
html-keyboard-response,166,232701,0.0-10.0-0.77,60eb26fb8db6845a14fe5a91,650c16f0f2faf8d7a0d14c09,651c1d8ea61bd918ce45769e,null,null,"<p style=""font-size: 60px; font-family: BACS"">cDOEBPED</p>",,,,,,,,,,
html-keyboard-response,167,233716,0.0-10.0-0.78,60eb26fb8db6845a14fe5a91,650c16f0f2faf8d7a0d14c09,651c1d8ea61bd918ce45769e,null,null,"<p style=""font-size: 60px; font-family: BACS"">RCcETPOM</p>",,,,,,,,,,
html-keyboard-response,168,234718,0.0-10.0-0.79,60eb26fb8db6845a14fe5a91,650c16f0f2faf8d7a0d14c09,651c1d8ea61bd918ce45769e,null,null,"<p style=""font-size: 60px; font-family: BACS"">RdPtDPED</p>",,,,,,,,,,
html-keyboard-response,169,238603,0.0-11.0,60eb26fb8db6845a14fe5a91,650c16f0f2faf8d7a0d14c09,651c1d8ea61bd918ce45769e,3883, ,"<p>Great, you've seen the second block of words. You may now take a short break.</p>
      <p>Press the spacebar when you're ready to continue.</p>",,,,,,,,,,
html-keyboard-response,170,239609,0.0-12.0-0.0,60eb26fb8db6845a14fe5a91,650c16f0f2faf8d7a0d14c09,651c1d8ea61bd918ce45769e,null,null,"<p style=""font-size: 60px; font-family: BACS"">RCcERCdc</p>",,,,,,,,,,
html-keyboard-response,171,240626,0.0-12.0-0.1,60eb26fb8db6845a14fe5a91,650c16f0f2faf8d7a0d14c09,651c1d8ea61bd918ce45769e,null,null,"<p style=""font-size: 60px; font-family: BACS"">aOLZULkNc</p>",,,,,,,,,,
html-keyboard-response,172,241635,0.0-12.0-0.2,60eb26fb8db6845a14fe5a91,650c16f0f2faf8d7a0d14c09,651c1d8ea61bd918ce45769e,null,null,"<p style=""font-size: 60px; font-family: BACS"">BdtACTRkY</p>",,,,,,,,,,
html-keyboard-response,173,242650,0.0-12.0-0.3,60eb26fb8db6845a14fe5a91,650c16f0f2faf8d7a0d14c09,651c1d8ea61bd918ce45769e,null,null,"<p style=""font-size: 60px; font-family: BACS"">auYAkLkNc</p>",,,,,,,,,,
html-keyboard-response,174,243659,0.0-12.0-0.4,60eb26fb8db6845a14fe5a91,650c16f0f2faf8d7a0d14c09,651c1d8ea61bd918ce45769e,null,null,"<p style=""font-size: 60px; font-family: BACS"">cDOEBPED</p>",,,,,,,,,,
html-keyboard-response,175,244667,0.0-12.0-0.5,60eb26fb8db6845a14fe5a91,650c16f0f2faf8d7a0d14c09,651c1d8ea61bd918ce45769e,null,null,"<p style=""font-size: 60px; font-family: BACS"">UdumdQONk</p>",,,,,,,,,,
html-keyboard-response,176,245682,0.0-12.0-0.6,60eb26fb8db6845a14fe5a91,650c16f0f2faf8d7a0d14c09,651c1d8ea61bd918ce45769e,null,null,"<p style=""font-size: 60px; font-family: BACS"">ODBDATPOM</p>",,,,,,,,,,
html-keyboard-response,177,246700,0.0-12.0-0.7,60eb26fb8db6845a14fe5a91,650c16f0f2faf8d7a0d14c09,651c1d8ea61bd918ce45769e,null,null,"<p style=""font-size: 60px; font-family: BACS"">EltMBcthB</p>",,,,,,,,,,
html-keyboard-response,178,247716,0.0-12.0-0.8,60eb26fb8db6845a14fe5a91,650c16f0f2faf8d7a0d14c09,651c1d8ea61bd918ce45769e,null,null,"<p style=""font-size: 60px; font-family: BACS"">LdQvLkNc</p>",,,,,,,,,,
html-keyboard-response,179,248726,0.0-12.0-0.9,60eb26fb8db6845a14fe5a91,650c16f0f2faf8d7a0d14c09,651c1d8ea61bd918ce45769e,null,null,"<p style=""font-size: 60px; font-family: BACS"">auYAkrAm</p>",,,,,,,,,,
html-keyboard-response,180,249732,0.0-12.0-0.10,60eb26fb8db6845a14fe5a91,650c16f0f2faf8d7a0d14c09,651c1d8ea61bd918ce45769e,null,null,"<p style=""font-size: 60px; font-family: BACS"">RCcETPOM</p>",,,,,,,,,,
html-keyboard-response,181,250735,0.0-12.0-0.11,60eb26fb8db6845a14fe5a91,650c16f0f2faf8d7a0d14c09,651c1d8ea61bd918ce45769e,null,null,"<p style=""font-size: 60px; font-family: BACS"">aUZAQONk</p>",,,,,,,,,,
html-keyboard-response,182,251749,0.0-12.0-0.12,60eb26fb8db6845a14fe5a91,650c16f0f2faf8d7a0d14c09,651c1d8ea61bd918ce45769e,null,null,"<p style=""font-size: 60px; font-family: BACS"">bvuZJUG</p>",,,,,,,,,,
html-keyboard-response,183,252766,0.0-12.0-0.13,60eb26fb8db6845a14fe5a91,650c16f0f2faf8d7a0d14c09,651c1d8ea61bd918ce45769e,null,null,"<p style=""font-size: 60px; font-family: BACS"">AlUYQONk</p>",,,,,,,,,,
html-keyboard-response,184,253782,0.0-12.0-0.14,60eb26fb8db6845a14fe5a91,650c16f0f2faf8d7a0d14c09,651c1d8ea61bd918ce45769e,null,null,"<p style=""font-size: 60px; font-family: BACS"">aUZANac</p>",,,,,,,,,,
html-keyboard-response,185,254799,0.0-12.0-0.15,60eb26fb8db6845a14fe5a91,650c16f0f2faf8d7a0d14c09,651c1d8ea61bd918ce45769e,null,null,"<p style=""font-size: 60px; font-family: BACS"">RdPtDTPOM</p>",,,,,,,,,,
html-keyboard-response,186,255816,0.0-12.0-0.16,60eb26fb8db6845a14fe5a91,650c16f0f2faf8d7a0d14c09,651c1d8ea61bd918ce45769e,null,null,"<p style=""font-size: 60px; font-family: BACS"">UdumdNac</p>",,,,,,,,,,
html-keyboard-response,187,256831,0.0-12.0-0.17,60eb26fb8db6845a14fe5a91,650c16f0f2faf8d7a0d14c09,651c1d8ea61bd918ce45769e,null,null,"<p style=""font-size: 60px; font-family: BACS"">aUZArAm</p>",,,,,,,,,,
html-keyboard-response,188,257838,0.0-12.0-0.18,60eb26fb8db6845a14fe5a91,650c16f0f2faf8d7a0d14c09,651c1d8ea61bd918ce45769e,null,null,"<p style=""font-size: 60px; font-family: BACS"">GNAcaNac</p>",,,,,,,,,,
html-keyboard-response,189,258847,0.0-12.0-0.19,60eb26fb8db6845a14fe5a91,650c16f0f2faf8d7a0d14c09,651c1d8ea61bd918ce45769e,null,null,"<p style=""font-size: 60px; font-family: BACS"">RCcEcthB</p>",,,,,,,,,,
html-keyboard-response,190,259850,0.0-12.0-0.20,60eb26fb8db6845a14fe5a91,650c16f0f2faf8d7a0d14c09,651c1d8ea61bd918ce45769e,null,null,"<p style=""font-size: 60px; font-family: BACS"">kCRmTRkY</p>",,,,,,,,,,
html-keyboard-response,191,260864,0.0-12.0-0.21,60eb26fb8db6845a14fe5a91,650c16f0f2faf8d7a0d14c09,651c1d8ea61bd918ce45769e,null,null,"<p style=""font-size: 60px; font-family: BACS"">BECkRCdc</p>",,,,,,,,,,
html-keyboard-response,192,261880,0.0-12.0-0.22,60eb26fb8db6845a14fe5a91,650c16f0f2faf8d7a0d14c09,651c1d8ea61bd918ce45769e,null,null,"<p style=""font-size: 60px; font-family: BACS"">aYQmLkNc</p>",,,,,,,,,,
html-keyboard-response,193,262883,0.0-12.0-0.23,60eb26fb8db6845a14fe5a91,650c16f0f2faf8d7a0d14c09,651c1d8ea61bd918ce45769e,null,null,"<p style=""font-size: 60px; font-family: BACS"">AlUYJUG</p>",,,,,,,,,,
html-keyboard-response,194,263912,0.0-12.0-0.24,60eb26fb8db6845a14fe5a91,650c16f0f2faf8d7a0d14c09,651c1d8ea61bd918ce45769e,null,null,"<p style=""font-size: 60px; font-family: BACS"">cDOEBRCdc</p>",,,,,,,,,,
html-keyboard-response,195,264917,0.0-12.0-0.25,60eb26fb8db6845a14fe5a91,650c16f0f2faf8d7a0d14c09,651c1d8ea61bd918ce45769e,null,null,"<p style=""font-size: 60px; font-family: BACS"">aYQmQONk</p>",,,,,,,,,,
html-keyboard-response,196,265931,0.0-12.0-0.26,60eb26fb8db6845a14fe5a91,650c16f0f2faf8d7a0d14c09,651c1d8ea61bd918ce45769e,null,null,"<p style=""font-size: 60px; font-family: BACS"">TObCOcthB</p>",,,,,,,,,,
html-keyboard-response,197,266948,0.0-12.0-0.27,60eb26fb8db6845a14fe5a91,650c16f0f2faf8d7a0d14c09,651c1d8ea61bd918ce45769e,null,null,"<p style=""font-size: 60px; font-family: BACS"">AlUYrAm</p>",,,,,,,,,,
html-keyboard-response,198,267965,0.0-12.0-0.28,60eb26fb8db6845a14fe5a91,650c16f0f2faf8d7a0d14c09,651c1d8ea61bd918ce45769e,null,null,"<p style=""font-size: 60px; font-family: BACS"">GNAcaQONk</p>",,,,,,,,,,
html-keyboard-response,199,268981,0.0-12.0-0.29,60eb26fb8db6845a14fe5a91,650c16f0f2faf8d7a0d14c09,651c1d8ea61bd918ce45769e,null,null,"<p style=""font-size: 60px; font-family: BACS"">EltMBRCdc</p>",,,,,,,,,,
html-keyboard-response,200,269999,0.0-12.0-0.30,60eb26fb8db6845a14fe5a91,650c16f0f2faf8d7a0d14c09,651c1d8ea61bd918ce45769e,null,null,"<p style=""font-size: 60px; font-family: BACS"">TObCOTPOM</p>",,,,,,,,,,
html-keyboard-response,201,271015,0.0-12.0-0.31,60eb26fb8db6845a14fe5a91,650c16f0f2faf8d7a0d14c09,651c1d8ea61bd918ce45769e,null,null,"<p style=""font-size: 60px; font-family: BACS"">LdQvQONk</p>",,,,,,,,,,
html-keyboard-response,202,272024,0.0-12.0-0.32,60eb26fb8db6845a14fe5a91,650c16f0f2faf8d7a0d14c09,651c1d8ea61bd918ce45769e,null,null,"<p style=""font-size: 60px; font-family: BACS"">EltMBTPOM</p>",,,,,,,,,,
html-keyboard-response,203,273030,0.0-12.0-0.33,60eb26fb8db6845a14fe5a91,650c16f0f2faf8d7a0d14c09,651c1d8ea61bd918ce45769e,null,null,"<p style=""font-size: 60px; font-family: BACS"">RdPtDPED</p>",,,,,,,,,,
html-keyboard-response,204,274048,0.0-12.0-0.34,60eb26fb8db6845a14fe5a91,650c16f0f2faf8d7a0d14c09,651c1d8ea61bd918ce45769e,null,null,"<p style=""font-size: 60px; font-family: BACS"">BdtACTPOM</p>",,,,,,,,,,
html-keyboard-response,205,275050,0.0-12.0-0.35,60eb26fb8db6845a14fe5a91,650c16f0f2faf8d7a0d14c09,651c1d8ea61bd918ce45769e,null,null,"<p style=""font-size: 60px; font-family: BACS"">bvuZLkNc</p>",,,,,,,,,,
html-keyboard-response,206,276065,0.0-12.0-0.36,60eb26fb8db6845a14fe5a91,650c16f0f2faf8d7a0d14c09,651c1d8ea61bd918ce45769e,null,null,"<p style=""font-size: 60px; font-family: BACS"">RKYkRCdc</p>",,,,,,,,,,
html-keyboard-response,207,277082,0.0-12.0-0.37,60eb26fb8db6845a14fe5a91,650c16f0f2faf8d7a0d14c09,651c1d8ea61bd918ce45769e,null,null,"<p style=""font-size: 60px; font-family: BACS"">UdumdJUG</p>",,,,,,,,,,
html-keyboard-response,208,278100,0.0-12.0-0.38,60eb26fb8db6845a14fe5a91,650c16f0f2faf8d7a0d14c09,651c1d8ea61bd918ce45769e,null,null,"<p style=""font-size: 60px; font-family: BACS"">GNAcaLkNc</p>",,,,,,,,,,
html-keyboard-response,209,279115,0.0-12.0-0.39,60eb26fb8db6845a14fe5a91,650c16f0f2faf8d7a0d14c09,651c1d8ea61bd918ce45769e,null,null,"<p style=""font-size: 60px; font-family: BACS"">NQZvNac</p>",,,,,,,,,,
html-keyboard-response,210,280130,0.0-12.0-0.40,60eb26fb8db6845a14fe5a91,650c16f0f2faf8d7a0d14c09,651c1d8ea61bd918ce45769e,null,null,"<p style=""font-size: 60px; font-family: BACS"">BdtACcthB</p>",,,,,,,,,,
html-keyboard-response,211,281132,0.0-12.0-0.41,60eb26fb8db6845a14fe5a91,650c16f0f2faf8d7a0d14c09,651c1d8ea61bd918ce45769e,null,null,"<p style=""font-size: 60px; font-family: BACS"">RKYkTPOM</p>",,,,,,,,,,
html-keyboard-response,212,282147,0.0-12.0-0.42,60eb26fb8db6845a14fe5a91,650c16f0f2faf8d7a0d14c09,651c1d8ea61bd918ce45769e,null,null,"<p style=""font-size: 60px; font-family: BACS"">ODBDAPED</p>",,,,,,,,,,
html-keyboard-response,213,283165,0.0-12.0-0.43,60eb26fb8db6845a14fe5a91,650c16f0f2faf8d7a0d14c09,651c1d8ea61bd918ce45769e,null,null,"<p style=""font-size: 60px; font-family: BACS"">bvuZrAm</p>",,,,,,,,,,
html-keyboard-response,214,284180,0.0-12.0-0.44,60eb26fb8db6845a14fe5a91,650c16f0f2faf8d7a0d14c09,651c1d8ea61bd918ce45769e,null,null,"<p style=""font-size: 60px; font-family: BACS"">BECkTRkY</p>",,,,,,,,,,
html-keyboard-response,215,285182,0.0-12.0-0.45,60eb26fb8db6845a14fe5a91,650c16f0f2faf8d7a0d14c09,651c1d8ea61bd918ce45769e,null,null,"<p style=""font-size: 60px; font-family: BACS"">aOLZUrAm</p>",,,,,,,,,,
html-keyboard-response,216,286196,0.0-12.0-0.46,60eb26fb8db6845a14fe5a91,650c16f0f2faf8d7a0d14c09,651c1d8ea61bd918ce45769e,null,null,"<p style=""font-size: 60px; font-family: BACS"">RKYkTRkY</p>",,,,,,,,,,
html-keyboard-response,217,287212,0.0-12.0-0.47,60eb26fb8db6845a14fe5a91,650c16f0f2faf8d7a0d14c09,651c1d8ea61bd918ce45769e,null,null,"<p style=""font-size: 60px; font-family: BACS"">cDOEBcthB</p>",,,,,,,,,,
html-keyboard-response,218,288216,0.0-12.0-0.48,60eb26fb8db6845a14fe5a91,650c16f0f2faf8d7a0d14c09,651c1d8ea61bd918ce45769e,null,null,"<p style=""font-size: 60px; font-family: BACS"">LdQvNac</p>",,,,,,,,,,
html-keyboard-response,219,289228,0.0-12.0-0.49,60eb26fb8db6845a14fe5a91,650c16f0f2faf8d7a0d14c09,651c1d8ea61bd918ce45769e,null,null,"<p style=""font-size: 60px; font-family: BACS"">TObCOPED</p>",,,,,,,,,,
html-keyboard-response,220,290247,0.0-12.0-0.50,60eb26fb8db6845a14fe5a91,650c16f0f2faf8d7a0d14c09,651c1d8ea61bd918ce45769e,null,null,"<p style=""font-size: 60px; font-family: BACS"">kCRmRCdc</p>",,,,,,,,,,
html-keyboard-response,221,291265,0.0-12.0-0.51,60eb26fb8db6845a14fe5a91,650c16f0f2faf8d7a0d14c09,651c1d8ea61bd918ce45769e,null,null,"<p style=""font-size: 60px; font-family: BACS"">UdumdrAm</p>",,,,,,,,,,
html-keyboard-response,222,292281,0.0-12.0-0.52,60eb26fb8db6845a14fe5a91,650c16f0f2faf8d7a0d14c09,651c1d8ea61bd918ce45769e,null,null,"<p style=""font-size: 60px; font-family: BACS"">auYAkJUG</p>",,,,,,,,,,
html-keyboard-response,223,293290,0.0-12.0-0.53,60eb26fb8db6845a14fe5a91,650c16f0f2faf8d7a0d14c09,651c1d8ea61bd918ce45769e,null,null,"<p style=""font-size: 60px; font-family: BACS"">kCRmcthB</p>",,,,,,,,,,
html-keyboard-response,224,294298,0.0-12.0-0.54,60eb26fb8db6845a14fe5a91,650c16f0f2faf8d7a0d14c09,651c1d8ea61bd918ce45769e,null,null,"<p style=""font-size: 60px; font-family: BACS"">aYQmrAm</p>",,,,,,,,,,
html-keyboard-response,225,295314,0.0-12.0-0.55,60eb26fb8db6845a14fe5a91,650c16f0f2faf8d7a0d14c09,651c1d8ea61bd918ce45769e,null,null,"<p style=""font-size: 60px; font-family: BACS"">NQZvLkNc</p>",,,,,,,,,,
html-keyboard-response,226,296329,0.0-12.0-0.56,60eb26fb8db6845a14fe5a91,650c16f0f2faf8d7a0d14c09,651c1d8ea61bd918ce45769e,null,null,"<p style=""font-size: 60px; font-family: BACS"">aUZAJUG</p>",,,,,,,,,,
html-keyboard-response,227,297332,0.0-12.0-0.57,60eb26fb8db6845a14fe5a91,650c16f0f2faf8d7a0d14c09,651c1d8ea61bd918ce45769e,null,null,"<p style=""font-size: 60px; font-family: BACS"">AlUYLkNc</p>",,,,,,,,,,
html-keyboard-response,228,298347,0.0-12.0-0.58,60eb26fb8db6845a14fe5a91,650c16f0f2faf8d7a0d14c09,651c1d8ea61bd918ce45769e,null,null,"<p style=""font-size: 60px; font-family: BACS"">RCcEPED</p>",,,,,,,,,,
html-keyboard-response,229,299364,0.0-12.0-0.59,60eb26fb8db6845a14fe5a91,650c16f0f2faf8d7a0d14c09,651c1d8ea61bd918ce45769e,null,null,"<p style=""font-size: 60px; font-family: BACS"">GNAcaJUG</p>",,,,,,,,,,
html-keyboard-response,230,300380,0.0-12.0-0.60,60eb26fb8db6845a14fe5a91,650c16f0f2faf8d7a0d14c09,651c1d8ea61bd918ce45769e,null,null,"<p style=""font-size: 60px; font-family: BACS"">cDOEBTRkY</p>",,,,,,,,,,
html-keyboard-response,231,301395,0.0-12.0-0.61,60eb26fb8db6845a14fe5a91,650c16f0f2faf8d7a0d14c09,651c1d8ea61bd918ce45769e,null,null,"<p style=""font-size: 60px; font-family: BACS"">auYAkNac</p>",,,,,,,,,,
html-keyboard-response,232,302412,0.0-12.0-0.62,60eb26fb8db6845a14fe5a91,650c16f0f2faf8d7a0d14c09,651c1d8ea61bd918ce45769e,null,null,"<p style=""font-size: 60px; font-family: BACS"">BECkcthB</p>",,,,,,,,,,
html-keyboard-response,233,303415,0.0-12.0-0.63,60eb26fb8db6845a14fe5a91,650c16f0f2faf8d7a0d14c09,651c1d8ea61bd918ce45769e,null,null,"<p style=""font-size: 60px; font-family: BACS"">aYQmJUG</p>",,,,,,,,,,
html-keyboard-response,234,304430,0.0-12.0-0.64,60eb26fb8db6845a14fe5a91,650c16f0f2faf8d7a0d14c09,651c1d8ea61bd918ce45769e,null,null,"<p style=""font-size: 60px; font-family: BACS"">bvuZNac</p>",,,,,,,,,,
html-keyboard-response,235,305446,0.0-12.0-0.65,60eb26fb8db6845a14fe5a91,650c16f0f2faf8d7a0d14c09,651c1d8ea61bd918ce45769e,null,null,"<p style=""font-size: 60px; font-family: BACS"">NQZvQONk</p>",,,,,,,,,,
html-keyboard-response,236,306448,0.0-12.0-0.66,60eb26fb8db6845a14fe5a91,650c16f0f2faf8d7a0d14c09,651c1d8ea61bd918ce45769e,null,null,"<p style=""font-size: 60px; font-family: BACS"">BdtACRCdc</p>",,,,,,,,,,
html-keyboard-response,237,307464,0.0-12.0-0.67,60eb26fb8db6845a14fe5a91,650c16f0f2faf8d7a0d14c09,651c1d8ea61bd918ce45769e,null,null,"<p style=""font-size: 60px; font-family: BACS"">LdQvrAm</p>",,,,,,,,,,
html-keyboard-response,238,308479,0.0-12.0-0.68,60eb26fb8db6845a14fe5a91,650c16f0f2faf8d7a0d14c09,651c1d8ea61bd918ce45769e,null,null,"<p style=""font-size: 60px; font-family: BACS"">TObCOTRkY</p>",,,,,,,,,,
html-keyboard-response,239,309496,0.0-12.0-0.69,60eb26fb8db6845a14fe5a91,650c16f0f2faf8d7a0d14c09,651c1d8ea61bd918ce45769e,null,null,"<p style=""font-size: 60px; font-family: BACS"">ODBDARCdc</p>",,,,,,,,,,
html-keyboard-response,240,310498,0.0-12.0-0.70,60eb26fb8db6845a14fe5a91,650c16f0f2faf8d7a0d14c09,651c1d8ea61bd918ce45769e,null,null,"<p style=""font-size: 60px; font-family: BACS"">RdPtDTRkY</p>",,,,,,,,,,
html-keyboard-response,241,311529,0.0-12.0-0.71,60eb26fb8db6845a14fe5a91,650c16f0f2faf8d7a0d14c09,651c1d8ea61bd918ce45769e,null,null,"<p style=""font-size: 60px; font-family: BACS"">aOLZUQONk</p>",,,,,,,,,,
html-keyboard-response,242,312547,0.0-12.0-0.72,60eb26fb8db6845a14fe5a91,650c16f0f2faf8d7a0d14c09,651c1d8ea61bd918ce45769e,null,null,"<p style=""font-size: 60px; font-family: BACS"">BECkPED</p>",,,,,,,,,,
html-keyboard-response,243,313562,0.0-12.0-0.73,60eb26fb8db6845a14fe5a91,650c16f0f2faf8d7a0d14c09,651c1d8ea61bd918ce45769e,null,null,"<p style=""font-size: 60px; font-family: BACS"">RdPtDcthB</p>",,,,,,,,,,
html-keyboard-response,244,314579,0.0-12.0-0.74,60eb26fb8db6845a14fe5a91,650c16f0f2faf8d7a0d14c09,651c1d8ea61bd918ce45769e,null,null,"<p style=""font-size: 60px; font-family: BACS"">RKYkPED</p>",,,,,,,,,,
html-keyboard-response,245,315581,0.0-12.0-0.75,60eb26fb8db6845a14fe5a91,650c16f0f2faf8d7a0d14c09,651c1d8ea61bd918ce45769e,null,null,"<p style=""font-size: 60px; font-family: BACS"">ODBDATRkY</p>",,,,,,,,,,
html-keyboard-response,246,316597,0.0-12.0-0.76,60eb26fb8db6845a14fe5a91,650c16f0f2faf8d7a0d14c09,651c1d8ea61bd918ce45769e,null,null,"<p style=""font-size: 60px; font-family: BACS"">kCRmTPOM</p>",,,,,,,,,,
html-keyboard-response,247,317614,0.0-12.0-0.77,60eb26fb8db6845a14fe5a91,650c16f0f2faf8d7a0d14c09,651c1d8ea61bd918ce45769e,null,null,"<p style=""font-size: 60px; font-family: BACS"">EltMBPED</p>",,,,,,,,,,
html-keyboard-response,248,318630,0.0-12.0-0.78,60eb26fb8db6845a14fe5a91,650c16f0f2faf8d7a0d14c09,651c1d8ea61bd918ce45769e,null,null,"<p style=""font-size: 60px; font-family: BACS"">aOLZUNac</p>",,,,,,,,,,
html-keyboard-response,249,319646,0.0-12.0-0.79,60eb26fb8db6845a14fe5a91,650c16f0f2faf8d7a0d14c09,651c1d8ea61bd918ce45769e,null,null,"<p style=""font-size: 60px; font-family: BACS"">NQZvJUG</p>",,,,,,,,,,
html-keyboard-response,250,324173,0.0-13.0,60eb26fb8db6845a14fe5a91,650c16f0f2faf8d7a0d14c09,651c1d8ea61bd918ce45769e,4526, ,"<p>Great, you've seen the third block of words. You may now take a short break.</p>
      <p>Press the spacebar when you're ready to continue.</p>",,,,,,,,,,
html-keyboard-response,251,325180,0.0-14.0-0.0,60eb26fb8db6845a14fe5a91,650c16f0f2faf8d7a0d14c09,651c1d8ea61bd918ce45769e,null,null,"<p style=""font-size: 60px; font-family: BACS"">RdPtDPED</p>",,,,,,,,,,
html-keyboard-response,252,326195,0.0-14.0-0.1,60eb26fb8db6845a14fe5a91,650c16f0f2faf8d7a0d14c09,651c1d8ea61bd918ce45769e,null,null,"<p style=""font-size: 60px; font-family: BACS"">TObCOTRkY</p>",,,,,,,,,,
html-keyboard-response,253,327229,0.0-14.0-0.2,60eb26fb8db6845a14fe5a91,650c16f0f2faf8d7a0d14c09,651c1d8ea61bd918ce45769e,null,null,"<p style=""font-size: 60px; font-family: BACS"">GNAcaJUG</p>",,,,,,,,,,
html-keyboard-response,254,328246,0.0-14.0-0.3,60eb26fb8db6845a14fe5a91,650c16f0f2faf8d7a0d14c09,651c1d8ea61bd918ce45769e,null,null,"<p style=""font-size: 60px; font-family: BACS"">aYQmQONk</p>",,,,,,,,,,
html-keyboard-response,255,329262,0.0-14.0-0.4,60eb26fb8db6845a14fe5a91,650c16f0f2faf8d7a0d14c09,651c1d8ea61bd918ce45769e,null,null,"<p style=""font-size: 60px; font-family: BACS"">auYAkLkNc</p>",,,,,,,,,,
html-keyboard-response,256,330264,0.0-14.0-0.5,60eb26fb8db6845a14fe5a91,650c16f0f2faf8d7a0d14c09,651c1d8ea61bd918ce45769e,null,null,"<p style=""font-size: 60px; font-family: BACS"">aYQmJUG</p>",,,,,,,,,,
html-keyboard-response,257,331278,0.0-14.0-0.6,60eb26fb8db6845a14fe5a91,650c16f0f2faf8d7a0d14c09,651c1d8ea61bd918ce45769e,null,null,"<p style=""font-size: 60px; font-family: BACS"">EltMBPED</p>",,,,,,,,,,
html-keyboard-response,258,332295,0.0-14.0-0.7,60eb26fb8db6845a14fe5a91,650c16f0f2faf8d7a0d14c09,651c1d8ea61bd918ce45769e,null,null,"<p style=""font-size: 60px; font-family: BACS"">NQZvQONk</p>",,,,,,,,,,
html-keyboard-response,259,333305,0.0-14.0-0.8,60eb26fb8db6845a14fe5a91,650c16f0f2faf8d7a0d14c09,651c1d8ea61bd918ce45769e,null,null,"<p style=""font-size: 60px; font-family: BACS"">AlUYLkNc</p>",,,,,,,,,,
html-keyboard-response,260,334312,0.0-14.0-0.9,60eb26fb8db6845a14fe5a91,650c16f0f2faf8d7a0d14c09,651c1d8ea61bd918ce45769e,null,null,"<p style=""font-size: 60px; font-family: BACS"">RCcETPOM</p>",,,,,,,,,,
html-keyboard-response,261,335329,0.0-14.0-0.10,60eb26fb8db6845a14fe5a91,650c16f0f2faf8d7a0d14c09,651c1d8ea61bd918ce45769e,null,null,"<p style=""font-size: 60px; font-family: BACS"">cDOEBTRkY</p>",,,,,,,,,,
html-keyboard-response,262,336346,0.0-14.0-0.11,60eb26fb8db6845a14fe5a91,650c16f0f2faf8d7a0d14c09,651c1d8ea61bd918ce45769e,null,null,"<p style=""font-size: 60px; font-family: BACS"">GNAcaQONk</p>",,,,,,,,,,
html-keyboard-response,263,337362,0.0-14.0-0.12,60eb26fb8db6845a14fe5a91,650c16f0f2faf8d7a0d14c09,651c1d8ea61bd918ce45769e,null,null,"<p style=""font-size: 60px; font-family: BACS"">ODBDAPED</p>",,,,,,,,,,
html-keyboard-response,264,338378,0.0-14.0-0.13,60eb26fb8db6845a14fe5a91,650c16f0f2faf8d7a0d14c09,651c1d8ea61bd918ce45769e,null,null,"<p style=""font-size: 60px; font-family: BACS"">auYAkrAm</p>",,,,,,,,,,
html-keyboard-response,265,339396,0.0-14.0-0.14,60eb26fb8db6845a14fe5a91,650c16f0f2faf8d7a0d14c09,651c1d8ea61bd918ce45769e,null,null,"<p style=""font-size: 60px; font-family: BACS"">aOLZUQONk</p>",,,,,,,,,,
html-keyboard-response,266,340413,0.0-14.0-0.15,60eb26fb8db6845a14fe5a91,650c16f0f2faf8d7a0d14c09,651c1d8ea61bd918ce45769e,null,null,"<p style=""font-size: 60px; font-family: BACS"">RCcEPED</p>",,,,,,,,,,
html-keyboard-response,267,341429,0.0-14.0-0.16,60eb26fb8db6845a14fe5a91,650c16f0f2faf8d7a0d14c09,651c1d8ea61bd918ce45769e,null,null,"<p style=""font-size: 60px; font-family: BACS"">bvuZJUG</p>",,,,,,,,,,
html-keyboard-response,268,342445,0.0-14.0-0.17,60eb26fb8db6845a14fe5a91,650c16f0f2faf8d7a0d14c09,651c1d8ea61bd918ce45769e,null,null,"<p style=""font-size: 60px; font-family: BACS"">AlUYrAm</p>",,,,,,,,,,
html-keyboard-response,269,343461,0.0-14.0-0.18,60eb26fb8db6845a14fe5a91,650c16f0f2faf8d7a0d14c09,651c1d8ea61bd918ce45769e,null,null,"<p style=""font-size: 60px; font-family: BACS"">TObCOPED</p>",,,,,,,,,,
html-keyboard-response,270,344478,0.0-14.0-0.19,60eb26fb8db6845a14fe5a91,650c16f0f2faf8d7a0d14c09,651c1d8ea61bd918ce45769e,null,null,"<p style=""font-size: 60px; font-family: BACS"">cDOEBcthB</p>",,,,,,,,,,
html-keyboard-response,271,345495,0.0-14.0-0.20,60eb26fb8db6845a14fe5a91,650c16f0f2faf8d7a0d14c09,651c1d8ea61bd918ce45769e,null,null,"<p style=""font-size: 60px; font-family: BACS"">aYQmrAm</p>",,,,,,,,,,
html-keyboard-response,272,346511,0.0-14.0-0.21,60eb26fb8db6845a14fe5a91,650c16f0f2faf8d7a0d14c09,651c1d8ea61bd918ce45769e,null,null,"<p style=""font-size: 60px; font-family: BACS"">cDOEBRCdc</p>",,,,,,,,,,
html-keyboard-response,273,347513,0.0-14.0-0.22,60eb26fb8db6845a14fe5a91,650c16f0f2faf8d7a0d14c09,651c1d8ea61bd918ce45769e,null,null,"<p style=""font-size: 60px; font-family: BACS"">BECkTRkY</p>",,,,,,,,,,
html-keyboard-response,274,348528,0.0-14.0-0.23,60eb26fb8db6845a14fe5a91,650c16f0f2faf8d7a0d14c09,651c1d8ea61bd918ce45769e,null,null,"<p style=""font-size: 60px; font-family: BACS"">aUZANac</p>",,,,,,,,,,
html-keyboard-response,275,349544,0.0-14.0-0.24,60eb26fb8db6845a14fe5a91,650c16f0f2faf8d7a0d14c09,651c1d8ea61bd918ce45769e,null,null,"<p style=""font-size: 60px; font-family: BACS"">GNAcaLkNc</p>",,,,,,,,,,
html-keyboard-response,276,350554,0.0-14.0-0.25,60eb26fb8db6845a14fe5a91,650c16f0f2faf8d7a0d14c09,651c1d8ea61bd918ce45769e,null,null,"<p style=""font-size: 60px; font-family: BACS"">UdumdQONk</p>",,,,,,,,,,
html-keyboard-response,277,351571,0.0-14.0-0.26,60eb26fb8db6845a14fe5a91,650c16f0f2faf8d7a0d14c09,651c1d8ea61bd918ce45769e,null,null,"<p style=""font-size: 60px; font-family: BACS"">kCRmRCdc</p>",,,,,,,,,,
html-keyboard-response,278,352578,0.0-14.0-0.27,60eb26fb8db6845a14fe5a91,650c16f0f2faf8d7a0d14c09,651c1d8ea61bd918ce45769e,null,null,"<p style=""font-size: 60px; font-family: BACS"">BECkcthB</p>",,,,,,,,,,
html-keyboard-response,279,353595,0.0-14.0-0.28,60eb26fb8db6845a14fe5a91,650c16f0f2faf8d7a0d14c09,651c1d8ea61bd918ce45769e,null,null,"<p style=""font-size: 60px; font-family: BACS"">BdtACTPOM</p>",,,,,,,,,,
html-keyboard-response,280,354612,0.0-14.0-0.29,60eb26fb8db6845a14fe5a91,650c16f0f2faf8d7a0d14c09,651c1d8ea61bd918ce45769e,null,null,"<p style=""font-size: 60px; font-family: BACS"">BECkPED</p>",,,,,,,,,,
html-keyboard-response,281,355629,0.0-14.0-0.30,60eb26fb8db6845a14fe5a91,650c16f0f2faf8d7a0d14c09,651c1d8ea61bd918ce45769e,null,null,"<p style=""font-size: 60px; font-family: BACS"">EltMBcthB</p>",,,,,,,,,,
html-keyboard-response,282,356643,0.0-14.0-0.31,60eb26fb8db6845a14fe5a91,650c16f0f2faf8d7a0d14c09,651c1d8ea61bd918ce45769e,null,null,"<p style=""font-size: 60px; font-family: BACS"">bvuZLkNc</p>",,,,,,,,,,
html-keyboard-response,283,357646,0.0-14.0-0.32,60eb26fb8db6845a14fe5a91,650c16f0f2faf8d7a0d14c09,651c1d8ea61bd918ce45769e,null,null,"<p style=""font-size: 60px; font-family: BACS"">AlUYJUG</p>",,,,,,,,,,
html-keyboard-response,284,358660,0.0-14.0-0.33,60eb26fb8db6845a14fe5a91,650c16f0f2faf8d7a0d14c09,651c1d8ea61bd918ce45769e,null,null,"<p style=""font-size: 60px; font-family: BACS"">BdtACRCdc</p>",,,,,,,,,,
html-keyboard-response,285,359677,0.0-14.0-0.34,60eb26fb8db6845a14fe5a91,650c16f0f2faf8d7a0d14c09,651c1d8ea61bd918ce45769e,null,null,"<p style=""font-size: 60px; font-family: BACS"">NQZvLkNc</p>",,,,,,,,,,
html-keyboard-response,286,360679,0.0-14.0-0.35,60eb26fb8db6845a14fe5a91,650c16f0f2faf8d7a0d14c09,651c1d8ea61bd918ce45769e,null,null,"<p style=""font-size: 60px; font-family: BACS"">bvuZrAm</p>",,,,,,,,,,
html-keyboard-response,287,361695,0.0-14.0-0.36,60eb26fb8db6845a14fe5a91,650c16f0f2faf8d7a0d14c09,651c1d8ea61bd918ce45769e,null,null,"<p style=""font-size: 60px; font-family: BACS"">BECkRCdc</p>",,,,,,,,,,
html-keyboard-response,288,362712,0.0-14.0-0.37,60eb26fb8db6845a14fe5a91,650c16f0f2faf8d7a0d14c09,651c1d8ea61bd918ce45769e,null,null,"<p style=""font-size: 60px; font-family: BACS"">BdtACTRkY</p>",,,,,,,,,,
html-keyboard-response,289,363726,0.0-14.0-0.38,60eb26fb8db6845a14fe5a91,650c16f0f2faf8d7a0d14c09,651c1d8ea61bd918ce45769e,null,null,"<p style=""font-size: 60px; font-family: BACS"">LdQvQONk</p>",,,,,,,,,,
html-keyboard-response,290,364743,0.0-14.0-0.39,60eb26fb8db6845a14fe5a91,650c16f0f2faf8d7a0d14c09,651c1d8ea61bd918ce45769e,null,null,"<p style=""font-size: 60px; font-family: BACS"">NQZvNac</p>",,,,,,,,,,
html-keyboard-response,291,365750,0.0-14.0-0.40,60eb26fb8db6845a14fe5a91,650c16f0f2faf8d7a0d14c09,651c1d8ea61bd918ce45769e,null,null,"<p style=""font-size: 60px; font-family: BACS"">RKYkPED</p>",,,,,,,,,,
html-keyboard-response,292,366760,0.0-14.0-0.41,60eb26fb8db6845a14fe5a91,650c16f0f2faf8d7a0d14c09,651c1d8ea61bd918ce45769e,null,null,"<p style=""font-size: 60px; font-family: BACS"">RCcERCdc</p>",,,,,,,,,,
html-keyboard-response,293,367778,0.0-14.0-0.42,60eb26fb8db6845a14fe5a91,650c16f0f2faf8d7a0d14c09,651c1d8ea61bd918ce45769e,null,null,"<p style=""font-size: 60px; font-family: BACS"">GNAcaNac</p>",,,,,,,,,,
html-keyboard-response,294,368787,0.0-14.0-0.43,60eb26fb8db6845a14fe5a91,650c16f0f2faf8d7a0d14c09,651c1d8ea61bd918ce45769e,null,null,"<p style=""font-size: 60px; font-family: BACS"">aOLZUrAm</p>",,,,,,,,,,
html-keyboard-response,295,369793,0.0-14.0-0.44,60eb26fb8db6845a14fe5a91,650c16f0f2faf8d7a0d14c09,651c1d8ea61bd918ce45769e,null,null,"<p style=""font-size: 60px; font-family: BACS"">RdPtDcthB</p>",,,,,,,,,,
html-keyboard-response,296,370804,0.0-14.0-0.45,60eb26fb8db6845a14fe5a91,650c16f0f2faf8d7a0d14c09,651c1d8ea61bd918ce45769e,null,null,"<p style=""font-size: 60px; font-family: BACS"">TObCOTPOM</p>",,,,,,,,,,
html-keyboard-response,297,371819,0.0-14.0-0.46,60eb26fb8db6845a14fe5a91,650c16f0f2faf8d7a0d14c09,651c1d8ea61bd918ce45769e,null,null,"<p style=""font-size: 60px; font-family: BACS"">auYAkNac</p>",,,,,,,,,,
html-keyboard-response,298,372828,0.0-14.0-0.47,60eb26fb8db6845a14fe5a91,650c16f0f2faf8d7a0d14c09,651c1d8ea61bd918ce45769e,null,null,"<p style=""font-size: 60px; font-family: BACS"">RKYkRCdc</p>",,,,,,,,,,
html-keyboard-response,299,373859,0.0-14.0-0.48,60eb26fb8db6845a14fe5a91,650c16f0f2faf8d7a0d14c09,651c1d8ea61bd918ce45769e,null,null,"<p style=""font-size: 60px; font-family: BACS"">cDOEBPED</p>",,,,,,,,,,
html-keyboard-response,300,374861,0.0-14.0-0.49,60eb26fb8db6845a14fe5a91,650c16f0f2faf8d7a0d14c09,651c1d8ea61bd918ce45769e,null,null,"<p style=""font-size: 60px; font-family: BACS"">UdumdrAm</p>",,,,,,,,,,
html-keyboard-response,301,375878,0.0-14.0-0.50,60eb26fb8db6845a14fe5a91,650c16f0f2faf8d7a0d14c09,651c1d8ea61bd918ce45769e,null,null,"<p style=""font-size: 60px; font-family: BACS"">BdtACcthB</p>",,,,,,,,,,
html-keyboard-response,302,376893,0.0-14.0-0.51,60eb26fb8db6845a14fe5a91,650c16f0f2faf8d7a0d14c09,651c1d8ea61bd918ce45769e,null,null,"<p style=""font-size: 60px; font-family: BACS"">UdumdNac</p>",,,,,,,,,,
html-keyboard-response,303,377909,0.0-14.0-0.52,60eb26fb8db6845a14fe5a91,650c16f0f2faf8d7a0d14c09,651c1d8ea61bd918ce45769e,null,null,"<p style=""font-size: 60px; font-family: BACS"">auYAkJUG</p>",,,,,,,,,,
html-keyboard-response,304,378926,0.0-14.0-0.53,60eb26fb8db6845a14fe5a91,650c16f0f2faf8d7a0d14c09,651c1d8ea61bd918ce45769e,null,null,"<p style=""font-size: 60px; font-family: BACS"">bvuZNac</p>",,,,,,,,,,
html-keyboard-response,305,379943,0.0-14.0-0.54,60eb26fb8db6845a14fe5a91,650c16f0f2faf8d7a0d14c09,651c1d8ea61bd918ce45769e,null,null,"<p style=""font-size: 60px; font-family: BACS"">NQZvJUG</p>",,,,,,,,,,
html-keyboard-response,306,380945,0.0-14.0-0.55,60eb26fb8db6845a14fe5a91,650c16f0f2faf8d7a0d14c09,651c1d8ea61bd918ce45769e,null,null,"<p style=""font-size: 60px; font-family: BACS"">kCRmcthB</p>",,,,,,,,,,
html-keyboard-response,307,381959,0.0-14.0-0.56,60eb26fb8db6845a14fe5a91,650c16f0f2faf8d7a0d14c09,651c1d8ea61bd918ce45769e,null,null,"<p style=""font-size: 60px; font-family: BACS"">EltMBRCdc</p>",,,,,,,,,,
html-keyboard-response,308,382976,0.0-14.0-0.57,60eb26fb8db6845a14fe5a91,650c16f0f2faf8d7a0d14c09,651c1d8ea61bd918ce45769e,null,null,"<p style=""font-size: 60px; font-family: BACS"">aYQmLkNc</p>",,,,,,,,,,
html-keyboard-response,309,383987,0.0-14.0-0.58,60eb26fb8db6845a14fe5a91,650c16f0f2faf8d7a0d14c09,651c1d8ea61bd918ce45769e,null,null,"<p style=""font-size: 60px; font-family: BACS"">ODBDARCdc</p>",,,,,,,,,,
html-keyboard-response,310,384995,0.0-14.0-0.59,60eb26fb8db6845a14fe5a91,650c16f0f2faf8d7a0d14c09,651c1d8ea61bd918ce45769e,null,null,"<p style=""font-size: 60px; font-family: BACS"">aUZAQONk</p>",,,,,,,,,,
html-keyboard-response,311,386011,0.0-14.0-0.60,60eb26fb8db6845a14fe5a91,650c16f0f2faf8d7a0d14c09,651c1d8ea61bd918ce45769e,null,null,"<p style=""font-size: 60px; font-family: BACS"">ODBDATRkY</p>",,,,,,,,,,
html-keyboard-response,312,387027,0.0-14.0-0.61,60eb26fb8db6845a14fe5a91,650c16f0f2faf8d7a0d14c09,651c1d8ea61bd918ce45769e,null,null,"<p style=""font-size: 60px; font-family: BACS"">TObCOcthB</p>",,,,,,,,,,
html-keyboard-response,313,388043,0.0-14.0-0.62,60eb26fb8db6845a14fe5a91,650c16f0f2faf8d7a0d14c09,651c1d8ea61bd918ce45769e,null,null,"<p style=""font-size: 60px; font-family: BACS"">ODBDATPOM</p>",,,,,,,,,,
html-keyboard-response,314,389045,0.0-14.0-0.63,60eb26fb8db6845a14fe5a91,650c16f0f2faf8d7a0d14c09,651c1d8ea61bd918ce45769e,null,null,"<p style=""font-size: 60px; font-family: BACS"">aOLZUNac</p>",,,,,,,,,,
html-keyboard-response,315,390058,0.0-14.0-0.64,60eb26fb8db6845a14fe5a91,650c16f0f2faf8d7a0d14c09,651c1d8ea61bd918ce45769e,null,null,"<p style=""font-size: 60px; font-family: BACS"">aUZAJUG</p>",,,,,,,,,,
html-keyboard-response,316,391060,0.0-14.0-0.65,60eb26fb8db6845a14fe5a91,650c16f0f2faf8d7a0d14c09,651c1d8ea61bd918ce45769e,null,null,"<p style=""font-size: 60px; font-family: BACS"">aOLZULkNc</p>",,,,,,,,,,
html-keyboard-response,317,392075,0.0-14.0-0.66,60eb26fb8db6845a14fe5a91,650c16f0f2faf8d7a0d14c09,651c1d8ea61bd918ce45769e,null,null,"<p style=""font-size: 60px; font-family: BACS"">kCRmTPOM</p>",,,,,,,,,,
html-keyboard-response,318,393078,0.0-14.0-0.67,60eb26fb8db6845a14fe5a91,650c16f0f2faf8d7a0d14c09,651c1d8ea61bd918ce45769e,null,null,"<p style=""font-size: 60px; font-family: BACS"">LdQvrAm</p>",,,,,,,,,,
html-keyboard-response,319,394091,0.0-14.0-0.68,60eb26fb8db6845a14fe5a91,650c16f0f2faf8d7a0d14c09,651c1d8ea61bd918ce45769e,null,null,"<p style=""font-size: 60px; font-family: BACS"">UdumdJUG</p>",,,,,,,,,,
html-keyboard-response,320,395093,0.0-14.0-0.69,60eb26fb8db6845a14fe5a91,650c16f0f2faf8d7a0d14c09,651c1d8ea61bd918ce45769e,null,null,"<p style=""font-size: 60px; font-family: BACS"">RKYkTPOM</p>",,,,,,,,,,
html-keyboard-response,321,396109,0.0-14.0-0.70,60eb26fb8db6845a14fe5a91,650c16f0f2faf8d7a0d14c09,651c1d8ea61bd918ce45769e,null,null,"<p style=""font-size: 60px; font-family: BACS"">RdPtDTRkY</p>",,,,,,,,,,
html-keyboard-response,322,397126,0.0-14.0-0.71,60eb26fb8db6845a14fe5a91,650c16f0f2faf8d7a0d14c09,651c1d8ea61bd918ce45769e,null,null,"<p style=""font-size: 60px; font-family: BACS"">aUZArAm</p>",,,,,,,,,,
html-keyboard-response,323,398142,0.0-14.0-0.72,60eb26fb8db6845a14fe5a91,650c16f0f2faf8d7a0d14c09,651c1d8ea61bd918ce45769e,null,null,"<p style=""font-size: 60px; font-family: BACS"">RKYkTRkY</p>",,,,,,,,,,
html-keyboard-response,324,399147,0.0-14.0-0.73,60eb26fb8db6845a14fe5a91,650c16f0f2faf8d7a0d14c09,651c1d8ea61bd918ce45769e,null,null,"<p style=""font-size: 60px; font-family: BACS"">LdQvNac</p>",,,,,,,,,,
html-keyboard-response,325,400149,0.0-14.0-0.74,60eb26fb8db6845a14fe5a91,650c16f0f2faf8d7a0d14c09,651c1d8ea61bd918ce45769e,null,null,"<p style=""font-size: 60px; font-family: BACS"">kCRmTRkY</p>",,,,,,,,,,
html-keyboard-response,326,401152,0.0-14.0-0.75,60eb26fb8db6845a14fe5a91,650c16f0f2faf8d7a0d14c09,651c1d8ea61bd918ce45769e,null,null,"<p style=""font-size: 60px; font-family: BACS"">RdPtDTPOM</p>",,,,,,,,,,
html-keyboard-response,327,402159,0.0-14.0-0.76,60eb26fb8db6845a14fe5a91,650c16f0f2faf8d7a0d14c09,651c1d8ea61bd918ce45769e,null,null,"<p style=""font-size: 60px; font-family: BACS"">RCcEcthB</p>",,,,,,,,,,
html-keyboard-response,328,403169,0.0-14.0-0.77,60eb26fb8db6845a14fe5a91,650c16f0f2faf8d7a0d14c09,651c1d8ea61bd918ce45769e,null,null,"<p style=""font-size: 60px; font-family: BACS"">AlUYQONk</p>",,,,,,,,,,
html-keyboard-response,329,404174,0.0-14.0-0.78,60eb26fb8db6845a14fe5a91,650c16f0f2faf8d7a0d14c09,651c1d8ea61bd918ce45769e,null,null,"<p style=""font-size: 60px; font-family: BACS"">LdQvLkNc</p>",,,,,,,,,,
html-keyboard-response,330,405176,0.0-14.0-0.79,60eb26fb8db6845a14fe5a91,650c16f0f2faf8d7a0d14c09,651c1d8ea61bd918ce45769e,null,null,"<p style=""font-size: 60px; font-family: BACS"">EltMBTPOM</p>",,,,,,,,,,
html-keyboard-response,331,425182,0.0-15.0,60eb26fb8db6845a14fe5a91,650c16f0f2faf8d7a0d14c09,651c1d8ea61bd918ce45769e,20005, ,"<p>Great, you've seen the fourth block of words. You may now take a short break.</p>
      <p>Press the spacebar when you're ready to continue.</p>",,,,,,,,,,
html-keyboard-response,332,426191,0.0-16.0-0.0,60eb26fb8db6845a14fe5a91,650c16f0f2faf8d7a0d14c09,651c1d8ea61bd918ce45769e,null,null,"<p style=""font-size: 60px; font-family: BACS"">NQZvNac</p>",,,,,,,,,,
html-keyboard-response,333,427208,0.0-16.0-0.1,60eb26fb8db6845a14fe5a91,650c16f0f2faf8d7a0d14c09,651c1d8ea61bd918ce45769e,null,null,"<p style=""font-size: 60px; font-family: BACS"">NQZvNac</p>",,,,,,,,,,
html-keyboard-response,334,428224,0.0-16.0-0.2,60eb26fb8db6845a14fe5a91,650c16f0f2faf8d7a0d14c09,651c1d8ea61bd918ce45769e,null,null,"<p style=""font-size: 60px; font-family: BACS"">NQZvNac</p>",,,,,,,,,,
html-keyboard-response,335,429227,0.0-16.0-0.3,60eb26fb8db6845a14fe5a91,650c16f0f2faf8d7a0d14c09,651c1d8ea61bd918ce45769e,null,null,"<p style=""font-size: 60px; font-family: BACS"">NQZvNac</p>",,,,,,,,,,
html-keyboard-response,336,430231,0.0-16.0-0.4,60eb26fb8db6845a14fe5a91,650c16f0f2faf8d7a0d14c09,651c1d8ea61bd918ce45769e,null,null,"<p style=""font-size: 60px; font-family: BACS"">NQZvNac</p>",,,,,,,,,,
html-keyboard-response,337,431248,0.0-16.0-0.5,60eb26fb8db6845a14fe5a91,650c16f0f2faf8d7a0d14c09,651c1d8ea61bd918ce45769e,null,null,"<p style=""font-size: 60px; font-family: BACS"">NQZvNac</p>",,,,,,,,,,
html-keyboard-response,338,432258,0.0-16.0-0.6,60eb26fb8db6845a14fe5a91,650c16f0f2faf8d7a0d14c09,651c1d8ea61bd918ce45769e,null,null,"<p style=""font-size: 60px; font-family: BACS"">NQZvNac</p>",,,,,,,,,,
html-keyboard-response,339,433268,0.0-16.0-0.7,60eb26fb8db6845a14fe5a91,650c16f0f2faf8d7a0d14c09,651c1d8ea61bd918ce45769e,null,null,"<p style=""font-size: 60px; font-family: BACS"">NQZvNac</p>",,,,,,,,,,
html-keyboard-response,340,434273,0.0-16.0-0.8,60eb26fb8db6845a14fe5a91,650c16f0f2faf8d7a0d14c09,651c1d8ea61bd918ce45769e,null,null,"<p style=""font-size: 60px; font-family: BACS"">NQZvNac</p>",,,,,,,,,,
html-keyboard-response,341,435276,0.0-16.0-0.9,60eb26fb8db6845a14fe5a91,650c16f0f2faf8d7a0d14c09,651c1d8ea61bd918ce45769e,null,null,"<p style=""font-size: 60px; font-family: BACS"">NQZvNac</p>",,,,,,,,,,
html-keyboard-response,342,436290,0.0-16.0-0.10,60eb26fb8db6845a14fe5a91,650c16f0f2faf8d7a0d14c09,651c1d8ea61bd918ce45769e,null,null,"<p style=""font-size: 60px; font-family: BACS"">NQZvNac</p>",,,,,,,,,,
html-keyboard-response,343,437292,0.0-16.0-0.11,60eb26fb8db6845a14fe5a91,650c16f0f2faf8d7a0d14c09,651c1d8ea61bd918ce45769e,null,null,"<p style=""font-size: 60px; font-family: BACS"">NQZvNac</p>",,,,,,,,,,
html-keyboard-response,344,438306,0.0-16.0-0.12,60eb26fb8db6845a14fe5a91,650c16f0f2faf8d7a0d14c09,651c1d8ea61bd918ce45769e,null,null,"<p style=""font-size: 60px; font-family: BACS"">NQZvNac</p>",,,,,,,,,,
html-keyboard-response,345,439308,0.0-16.0-0.13,60eb26fb8db6845a14fe5a91,650c16f0f2faf8d7a0d14c09,651c1d8ea61bd918ce45769e,null,null,"<p style=""font-size: 60px; font-family: BACS"">NQZvNac</p>",,,,,,,,,,
html-keyboard-response,346,440325,0.0-16.0-0.14,60eb26fb8db6845a14fe5a91,650c16f0f2faf8d7a0d14c09,651c1d8ea61bd918ce45769e,null,null,"<p style=""font-size: 60px; font-family: BACS"">NQZvNac</p>",,,,,,,,,,
html-keyboard-response,347,441342,0.0-16.0-0.15,60eb26fb8db6845a14fe5a91,650c16f0f2faf8d7a0d14c09,651c1d8ea61bd918ce45769e,null,null,"<p style=""font-size: 60px; font-family: BACS"">NQZvNac</p>",,,,,,,,,,
html-keyboard-response,348,442358,0.0-16.0-0.16,60eb26fb8db6845a14fe5a91,650c16f0f2faf8d7a0d14c09,651c1d8ea61bd918ce45769e,null,null,"<p style=""font-size: 60px; font-family: BACS"">NQZvNac</p>",,,,,,,,,,
html-keyboard-response,349,443366,0.0-16.0-0.17,60eb26fb8db6845a14fe5a91,650c16f0f2faf8d7a0d14c09,651c1d8ea61bd918ce45769e,null,null,"<p style=""font-size: 60px; font-family: BACS"">NQZvNac</p>",,,,,,,,,,
html-keyboard-response,350,444374,0.0-16.0-0.18,60eb26fb8db6845a14fe5a91,650c16f0f2faf8d7a0d14c09,651c1d8ea61bd918ce45769e,null,null,"<p style=""font-size: 60px; font-family: BACS"">NQZvNac</p>",,,,,,,,,,
html-keyboard-response,351,445383,0.0-16.0-0.19,60eb26fb8db6845a14fe5a91,650c16f0f2faf8d7a0d14c09,651c1d8ea61bd918ce45769e,null,null,"<p style=""font-size: 60px; font-family: BACS"">NQZvNac</p>",,,,,,,,,,
html-keyboard-response,352,446392,0.0-16.0-0.20,60eb26fb8db6845a14fe5a91,650c16f0f2faf8d7a0d14c09,651c1d8ea61bd918ce45769e,null,null,"<p style=""font-size: 60px; font-family: BACS"">NQZvNac</p>",,,,,,,,,,
html-keyboard-response,353,447406,0.0-16.0-0.21,60eb26fb8db6845a14fe5a91,650c16f0f2faf8d7a0d14c09,651c1d8ea61bd918ce45769e,null,null,"<p style=""font-size: 60px; font-family: BACS"">NQZvNac</p>",,,,,,,,,,
html-keyboard-response,354,448423,0.0-16.0-0.22,60eb26fb8db6845a14fe5a91,650c16f0f2faf8d7a0d14c09,651c1d8ea61bd918ce45769e,null,null,"<p style=""font-size: 60px; font-family: BACS"">NQZvNac</p>",,,,,,,,,,
html-keyboard-response,355,449441,0.0-16.0-0.23,60eb26fb8db6845a14fe5a91,650c16f0f2faf8d7a0d14c09,651c1d8ea61bd918ce45769e,null,null,"<p style=""font-size: 60px; font-family: BACS"">NQZvNac</p>",,,,,,,,,,
html-keyboard-response,356,450457,0.0-16.0-0.24,60eb26fb8db6845a14fe5a91,650c16f0f2faf8d7a0d14c09,651c1d8ea61bd918ce45769e,null,null,"<p style=""font-size: 60px; font-family: BACS"">NQZvNac</p>",,,,,,,,,,
html-keyboard-response,357,451472,0.0-16.0-0.25,60eb26fb8db6845a14fe5a91,650c16f0f2faf8d7a0d14c09,651c1d8ea61bd918ce45769e,null,null,"<p style=""font-size: 60px; font-family: BACS"">NQZvNac</p>",,,,,,,,,,
html-keyboard-response,358,452475,0.0-16.0-0.26,60eb26fb8db6845a14fe5a91,650c16f0f2faf8d7a0d14c09,651c1d8ea61bd918ce45769e,null,null,"<p style=""font-size: 60px; font-family: BACS"">NQZvNac</p>",,,,,,,,,,
html-keyboard-response,359,453490,0.0-16.0-0.27,60eb26fb8db6845a14fe5a91,650c16f0f2faf8d7a0d14c09,651c1d8ea61bd918ce45769e,null,null,"<p style=""font-size: 60px; font-family: BACS"">NQZvNac</p>",,,,,,,,,,
html-keyboard-response,360,454492,0.0-16.0-0.28,60eb26fb8db6845a14fe5a91,650c16f0f2faf8d7a0d14c09,651c1d8ea61bd918ce45769e,null,null,"<p style=""font-size: 60px; font-family: BACS"">NQZvNac</p>",,,,,,,,,,
html-keyboard-response,361,455507,0.0-16.0-0.29,60eb26fb8db6845a14fe5a91,650c16f0f2faf8d7a0d14c09,651c1d8ea61bd918ce45769e,null,null,"<p style=""font-size: 60px; font-family: BACS"">NQZvNac</p>",,,,,,,,,,
html-keyboard-response,362,456524,0.0-16.0-0.30,60eb26fb8db6845a14fe5a91,650c16f0f2faf8d7a0d14c09,651c1d8ea61bd918ce45769e,null,null,"<p style=""font-size: 60px; font-family: BACS"">NQZvNac</p>",,,,,,,,,,
html-keyboard-response,363,457540,0.0-16.0-0.31,60eb26fb8db6845a14fe5a91,650c16f0f2faf8d7a0d14c09,651c1d8ea61bd918ce45769e,null,null,"<p style=""font-size: 60px; font-family: BACS"">NQZvNac</p>",,,,,,,,,,
html-keyboard-response,364,458541,0.0-16.0-0.32,60eb26fb8db6845a14fe5a91,650c16f0f2faf8d7a0d14c09,651c1d8ea61bd918ce45769e,null,null,"<p style=""font-size: 60px; font-family: BACS"">NQZvNac</p>",,,,,,,,,,
html-keyboard-response,365,459557,0.0-16.0-0.33,60eb26fb8db6845a14fe5a91,650c16f0f2faf8d7a0d14c09,651c1d8ea61bd918ce45769e,null,null,"<p style=""font-size: 60px; font-family: BACS"">NQZvNac</p>",,,,,,,,,,
html-keyboard-response,366,460573,0.0-16.0-0.34,60eb26fb8db6845a14fe5a91,650c16f0f2faf8d7a0d14c09,651c1d8ea61bd918ce45769e,null,null,"<p style=""font-size: 60px; font-family: BACS"">NQZvNac</p>",,,,,,,,,,
html-keyboard-response,367,461589,0.0-16.0-0.35,60eb26fb8db6845a14fe5a91,650c16f0f2faf8d7a0d14c09,651c1d8ea61bd918ce45769e,null,null,"<p style=""font-size: 60px; font-family: BACS"">NQZvNac</p>",,,,,,,,,,
html-keyboard-response,368,462606,0.0-16.0-0.36,60eb26fb8db6845a14fe5a91,650c16f0f2faf8d7a0d14c09,651c1d8ea61bd918ce45769e,null,null,"<p style=""font-size: 60px; font-family: BACS"">NQZvNac</p>",,,,,,,,,,
html-keyboard-response,369,463622,0.0-16.0-0.37,60eb26fb8db6845a14fe5a91,650c16f0f2faf8d7a0d14c09,651c1d8ea61bd918ce45769e,null,null,"<p style=""font-size: 60px; font-family: BACS"">NQZvNac</p>",,,,,,,,,,
html-keyboard-response,370,464638,0.0-16.0-0.38,60eb26fb8db6845a14fe5a91,650c16f0f2faf8d7a0d14c09,651c1d8ea61bd918ce45769e,null,null,"<p style=""font-size: 60px; font-family: BACS"">NQZvNac</p>",,,,,,,,,,
html-keyboard-response,371,465640,0.0-16.0-0.39,60eb26fb8db6845a14fe5a91,650c16f0f2faf8d7a0d14c09,651c1d8ea61bd918ce45769e,null,null,"<p style=""font-size: 60px; font-family: BACS"">NQZvNac</p>",,,,,,,,,,
html-keyboard-response,372,466655,0.0-16.0-0.40,60eb26fb8db6845a14fe5a91,650c16f0f2faf8d7a0d14c09,651c1d8ea61bd918ce45769e,null,null,"<p style=""font-size: 60px; font-family: BACS"">NQZvNac</p>",,,,,,,,,,
html-keyboard-response,373,467670,0.0-16.0-0.41,60eb26fb8db6845a14fe5a91,650c16f0f2faf8d7a0d14c09,651c1d8ea61bd918ce45769e,null,null,"<p style=""font-size: 60px; font-family: BACS"">NQZvNac</p>",,,,,,,,,,
html-keyboard-response,374,468687,0.0-16.0-0.42,60eb26fb8db6845a14fe5a91,650c16f0f2faf8d7a0d14c09,651c1d8ea61bd918ce45769e,null,null,"<p style=""font-size: 60px; font-family: BACS"">NQZvNac</p>",,,,,,,,,,
html-keyboard-response,375,469690,0.0-16.0-0.43,60eb26fb8db6845a14fe5a91,650c16f0f2faf8d7a0d14c09,651c1d8ea61bd918ce45769e,null,null,"<p style=""font-size: 60px; font-family: BACS"">NQZvNac</p>",,,,,,,,,,
html-keyboard-response,376,470697,0.0-16.0-0.44,60eb26fb8db6845a14fe5a91,650c16f0f2faf8d7a0d14c09,651c1d8ea61bd918ce45769e,null,null,"<p style=""font-size: 60px; font-family: BACS"">NQZvNac</p>",,,,,,,,,,
html-keyboard-response,377,471715,0.0-16.0-0.45,60eb26fb8db6845a14fe5a91,650c16f0f2faf8d7a0d14c09,651c1d8ea61bd918ce45769e,null,null,"<p style=""font-size: 60px; font-family: BACS"">NQZvNac</p>",,,,,,,,,,
html-keyboard-response,378,472723,0.0-16.0-0.46,60eb26fb8db6845a14fe5a91,650c16f0f2faf8d7a0d14c09,651c1d8ea61bd918ce45769e,null,null,"<p style=""font-size: 60px; font-family: BACS"">NQZvNac</p>",,,,,,,,,,
html-keyboard-response,379,473730,0.0-16.0-0.47,60eb26fb8db6845a14fe5a91,650c16f0f2faf8d7a0d14c09,651c1d8ea61bd918ce45769e,null,null,"<p style=""font-size: 60px; font-family: BACS"">NQZvNac</p>",,,,,,,,,,
html-keyboard-response,380,474741,0.0-16.0-0.48,60eb26fb8db6845a14fe5a91,650c16f0f2faf8d7a0d14c09,651c1d8ea61bd918ce45769e,null,null,"<p style=""font-size: 60px; font-family: BACS"">NQZvNac</p>",,,,,,,,,,
html-keyboard-response,381,475749,0.0-16.0-0.49,60eb26fb8db6845a14fe5a91,650c16f0f2faf8d7a0d14c09,651c1d8ea61bd918ce45769e,null,null,"<p style=""font-size: 60px; font-family: BACS"">NQZvNac</p>",,,,,,,,,,
html-keyboard-response,382,476759,0.0-16.0-0.50,60eb26fb8db6845a14fe5a91,650c16f0f2faf8d7a0d14c09,651c1d8ea61bd918ce45769e,null,null,"<p style=""font-size: 60px; font-family: BACS"">NQZvNac</p>",,,,,,,,,,
html-keyboard-response,383,477772,0.0-16.0-0.51,60eb26fb8db6845a14fe5a91,650c16f0f2faf8d7a0d14c09,651c1d8ea61bd918ce45769e,null,null,"<p style=""font-size: 60px; font-family: BACS"">NQZvNac</p>",,,,,,,,,,
html-keyboard-response,384,478790,0.0-16.0-0.52,60eb26fb8db6845a14fe5a91,650c16f0f2faf8d7a0d14c09,651c1d8ea61bd918ce45769e,null,null,"<p style=""font-size: 60px; font-family: BACS"">NQZvNac</p>",,,,,,,,,,
html-keyboard-response,385,479805,0.0-16.0-0.53,60eb26fb8db6845a14fe5a91,650c16f0f2faf8d7a0d14c09,651c1d8ea61bd918ce45769e,null,null,"<p style=""font-size: 60px; font-family: BACS"">NQZvNac</p>",,,,,,,,,,
html-keyboard-response,386,480821,0.0-16.0-0.54,60eb26fb8db6845a14fe5a91,650c16f0f2faf8d7a0d14c09,651c1d8ea61bd918ce45769e,null,null,"<p style=""font-size: 60px; font-family: BACS"">NQZvNac</p>",,,,,,,,,,
html-keyboard-response,387,481838,0.0-16.0-0.55,60eb26fb8db6845a14fe5a91,650c16f0f2faf8d7a0d14c09,651c1d8ea61bd918ce45769e,null,null,"<p style=""font-size: 60px; font-family: BACS"">NQZvNac</p>",,,,,,,,,,
html-keyboard-response,388,482841,0.0-16.0-0.56,60eb26fb8db6845a14fe5a91,650c16f0f2faf8d7a0d14c09,651c1d8ea61bd918ce45769e,null,null,"<p style=""font-size: 60px; font-family: BACS"">NQZvNac</p>",,,,,,,,,,
html-keyboard-response,389,483854,0.0-16.0-0.57,60eb26fb8db6845a14fe5a91,650c16f0f2faf8d7a0d14c09,651c1d8ea61bd918ce45769e,null,null,"<p style=""font-size: 60px; font-family: BACS"">NQZvNac</p>",,,,,,,,,,
html-keyboard-response,390,484872,0.0-16.0-0.58,60eb26fb8db6845a14fe5a91,650c16f0f2faf8d7a0d14c09,651c1d8ea61bd918ce45769e,null,null,"<p style=""font-size: 60px; font-family: BACS"">NQZvNac</p>",,,,,,,,,,
html-keyboard-response,391,485888,0.0-16.0-0.59,60eb26fb8db6845a14fe5a91,650c16f0f2faf8d7a0d14c09,651c1d8ea61bd918ce45769e,null,null,"<p style=""font-size: 60px; font-family: BACS"">NQZvNac</p>",,,,,,,,,,
html-keyboard-response,392,486905,0.0-16.0-0.60,60eb26fb8db6845a14fe5a91,650c16f0f2faf8d7a0d14c09,651c1d8ea61bd918ce45769e,null,null,"<p style=""font-size: 60px; font-family: BACS"">NQZvNac</p>",,,,,,,,,,
html-keyboard-response,393,487921,0.0-16.0-0.61,60eb26fb8db6845a14fe5a91,650c16f0f2faf8d7a0d14c09,651c1d8ea61bd918ce45769e,null,null,"<p style=""font-size: 60px; font-family: BACS"">NQZvNac</p>",,,,,,,,,,
html-keyboard-response,394,488938,0.0-16.0-0.62,60eb26fb8db6845a14fe5a91,650c16f0f2faf8d7a0d14c09,651c1d8ea61bd918ce45769e,null,null,"<p style=""font-size: 60px; font-family: BACS"">NQZvNac</p>",,,,,,,,,,
html-keyboard-response,395,489940,0.0-16.0-0.63,60eb26fb8db6845a14fe5a91,650c16f0f2faf8d7a0d14c09,651c1d8ea61bd918ce45769e,null,null,"<p style=""font-size: 60px; font-family: BACS"">NQZvNac</p>",,,,,,,,,,
html-keyboard-response,396,490954,0.0-16.0-0.64,60eb26fb8db6845a14fe5a91,650c16f0f2faf8d7a0d14c09,651c1d8ea61bd918ce45769e,null,null,"<p style=""font-size: 60px; font-family: BACS"">NQZvNac</p>",,,,,,,,,,
html-keyboard-response,397,491956,0.0-16.0-0.65,60eb26fb8db6845a14fe5a91,650c16f0f2faf8d7a0d14c09,651c1d8ea61bd918ce45769e,null,null,"<p style=""font-size: 60px; font-family: BACS"">NQZvNac</p>",,,,,,,,,,
html-keyboard-response,398,492971,0.0-16.0-0.66,60eb26fb8db6845a14fe5a91,650c16f0f2faf8d7a0d14c09,651c1d8ea61bd918ce45769e,null,null,"<p style=""font-size: 60px; font-family: BACS"">NQZvNac</p>",,,,,,,,,,
html-keyboard-response,399,493981,0.0-16.0-0.67,60eb26fb8db6845a14fe5a91,650c16f0f2faf8d7a0d14c09,651c1d8ea61bd918ce45769e,null,null,"<p style=""font-size: 60px; font-family: BACS"">NQZvNac</p>",,,,,,,,,,
html-keyboard-response,400,494988,0.0-16.0-0.68,60eb26fb8db6845a14fe5a91,650c16f0f2faf8d7a0d14c09,651c1d8ea61bd918ce45769e,null,null,"<p style=""font-size: 60px; font-family: BACS"">NQZvNac</p>",,,,,,,,,,
html-keyboard-response,401,495989,0.0-16.0-0.69,60eb26fb8db6845a14fe5a91,650c16f0f2faf8d7a0d14c09,651c1d8ea61bd918ce45769e,null,null,"<p style=""font-size: 60px; font-family: BACS"">NQZvNac</p>",,,,,,,,,,
html-keyboard-response,402,497004,0.0-16.0-0.70,60eb26fb8db6845a14fe5a91,650c16f0f2faf8d7a0d14c09,651c1d8ea61bd918ce45769e,null,null,"<p style=""font-size: 60px; font-family: BACS"">NQZvNac</p>",,,,,,,,,,
html-keyboard-response,403,498021,0.0-16.0-0.71,60eb26fb8db6845a14fe5a91,650c16f0f2faf8d7a0d14c09,651c1d8ea61bd918ce45769e,null,null,"<p style=""font-size: 60px; font-family: BACS"">NQZvNac</p>",,,,,,,,,,
html-keyboard-response,404,499037,0.0-16.0-0.72,60eb26fb8db6845a14fe5a91,650c16f0f2faf8d7a0d14c09,651c1d8ea61bd918ce45769e,null,null,"<p style=""font-size: 60px; font-family: BACS"">NQZvNac</p>",,,,,,,,,,
html-keyboard-response,405,500054,0.0-16.0-0.73,60eb26fb8db6845a14fe5a91,650c16f0f2faf8d7a0d14c09,651c1d8ea61bd918ce45769e,null,null,"<p style=""font-size: 60px; font-family: BACS"">NQZvNac</p>",,,,,,,,,,
html-keyboard-response,406,501070,0.0-16.0-0.74,60eb26fb8db6845a14fe5a91,650c16f0f2faf8d7a0d14c09,651c1d8ea61bd918ce45769e,null,null,"<p style=""font-size: 60px; font-family: BACS"">NQZvNac</p>",,,,,,,,,,
html-keyboard-response,407,502087,0.0-16.0-0.75,60eb26fb8db6845a14fe5a91,650c16f0f2faf8d7a0d14c09,651c1d8ea61bd918ce45769e,null,null,"<p style=""font-size: 60px; font-family: BACS"">NQZvNac</p>",,,,,,,,,,
html-keyboard-response,408,503103,0.0-16.0-0.76,60eb26fb8db6845a14fe5a91,650c16f0f2faf8d7a0d14c09,651c1d8ea61bd918ce45769e,null,null,"<p style=""font-size: 60px; font-family: BACS"">NQZvNac</p>",,,,,,,,,,
html-keyboard-response,409,504120,0.0-16.0-0.77,60eb26fb8db6845a14fe5a91,650c16f0f2faf8d7a0d14c09,651c1d8ea61bd918ce45769e,null,null,"<p style=""font-size: 60px; font-family: BACS"">NQZvNac</p>",,,,,,,,,,
html-keyboard-response,410,505137,0.0-16.0-0.78,60eb26fb8db6845a14fe5a91,650c16f0f2faf8d7a0d14c09,651c1d8ea61bd918ce45769e,null,null,"<p style=""font-size: 60px; font-family: BACS"">NQZvNac</p>",,,,,,,,,,
html-keyboard-response,411,506139,0.0-16.0-0.79,60eb26fb8db6845a14fe5a91,650c16f0f2faf8d7a0d14c09,651c1d8ea61bd918ce45769e,null,null,"<p style=""font-size: 60px; font-family: BACS"">NQZvNac</p>",,,,,,,,,,
html-keyboard-response,412,511239,0.0-17.0,60eb26fb8db6845a14fe5a91,650c16f0f2faf8d7a0d14c09,651c1d8ea61bd918ce45769e,5098, ,"<p>Great, you've seen the fifth block of words. You may now take a short break.</p>
      <p>Press the spacebar when you're ready to continue.</p>",,,,,,,,,,
html-keyboard-response,413,512256,0.0-18.0-0.0,60eb26fb8db6845a14fe5a91,650c16f0f2faf8d7a0d14c09,651c1d8ea61bd918ce45769e,null,null,"<p style=""font-size: 60px; font-family: BACS"">ODBDATPOM</p>",,,,,,,,,,
html-keyboard-response,414,513263,0.0-18.0-0.1,60eb26fb8db6845a14fe5a91,650c16f0f2faf8d7a0d14c09,651c1d8ea61bd918ce45769e,null,null,"<p style=""font-size: 60px; font-family: BACS"">aOLZUQONk</p>",,,,,,,,,,
html-keyboard-response,415,514270,0.0-18.0-0.2,60eb26fb8db6845a14fe5a91,650c16f0f2faf8d7a0d14c09,651c1d8ea61bd918ce45769e,null,null,"<p style=""font-size: 60px; font-family: BACS"">RKYkTRkY</p>",,,,,,,,,,
html-keyboard-response,416,515286,0.0-18.0-0.3,60eb26fb8db6845a14fe5a91,650c16f0f2faf8d7a0d14c09,651c1d8ea61bd918ce45769e,null,null,"<p style=""font-size: 60px; font-family: BACS"">LdQvNac</p>",,,,,,,,,,
html-keyboard-response,417,516304,0.0-18.0-0.4,60eb26fb8db6845a14fe5a91,650c16f0f2faf8d7a0d14c09,651c1d8ea61bd918ce45769e,null,null,"<p style=""font-size: 60px; font-family: BACS"">aYQmJUG</p>",,,,,,,,,,
html-keyboard-response,418,517321,0.0-18.0-0.5,60eb26fb8db6845a14fe5a91,650c16f0f2faf8d7a0d14c09,651c1d8ea61bd918ce45769e,null,null,"<p style=""font-size: 60px; font-family: BACS"">EltMBTPOM</p>",,,,,,,,,,
html-keyboard-response,419,518335,0.0-18.0-0.6,60eb26fb8db6845a14fe5a91,650c16f0f2faf8d7a0d14c09,651c1d8ea61bd918ce45769e,null,null,"<p style=""font-size: 60px; font-family: BACS"">RKYkRCdc</p>",,,,,,,,,,
html-keyboard-response,420,519338,0.0-18.0-0.7,60eb26fb8db6845a14fe5a91,650c16f0f2faf8d7a0d14c09,651c1d8ea61bd918ce45769e,null,null,"<p style=""font-size: 60px; font-family: BACS"">ODBDATRkY</p>",,,,,,,,,,
html-keyboard-response,421,520354,0.0-18.0-0.8,60eb26fb8db6845a14fe5a91,650c16f0f2faf8d7a0d14c09,651c1d8ea61bd918ce45769e,null,null,"<p style=""font-size: 60px; font-family: BACS"">UdumdJUG</p>",,,,,,,,,,
html-keyboard-response,422,521370,0.0-18.0-0.9,60eb26fb8db6845a14fe5a91,650c16f0f2faf8d7a0d14c09,651c1d8ea61bd918ce45769e,null,null,"<p style=""font-size: 60px; font-family: BACS"">RdPtDcthB</p>",,,,,,,,,,
html-keyboard-response,423,522386,0.0-18.0-0.10,60eb26fb8db6845a14fe5a91,650c16f0f2faf8d7a0d14c09,651c1d8ea61bd918ce45769e,null,null,"<p style=""font-size: 60px; font-family: BACS"">bvuZJUG</p>",,,,,,,,,,
html-keyboard-response,424,523402,0.0-18.0-0.11,60eb26fb8db6845a14fe5a91,650c16f0f2faf8d7a0d14c09,651c1d8ea61bd918ce45769e,null,null,"<p style=""font-size: 60px; font-family: BACS"">RKYkTPOM</p>",,,,,,,,,,
html-keyboard-response,425,524420,0.0-18.0-0.12,60eb26fb8db6845a14fe5a91,650c16f0f2faf8d7a0d14c09,651c1d8ea61bd918ce45769e,null,null,"<p style=""font-size: 60px; font-family: BACS"">bvuZLkNc</p>",,,,,,,,,,
html-keyboard-response,426,525436,0.0-18.0-0.13,60eb26fb8db6845a14fe5a91,650c16f0f2faf8d7a0d14c09,651c1d8ea61bd918ce45769e,null,null,"<p style=""font-size: 60px; font-family: BACS"">RKYkPED</p>",,,,,,,,,,
html-keyboard-response,427,526454,0.0-18.0-0.14,60eb26fb8db6845a14fe5a91,650c16f0f2faf8d7a0d14c09,651c1d8ea61bd918ce45769e,null,null,"<p style=""font-size: 60px; font-family: BACS"">aUZAQONk</p>",,,,,,,,,,
html-keyboard-response,428,527484,0.0-18.0-0.15,60eb26fb8db6845a14fe5a91,650c16f0f2faf8d7a0d14c09,651c1d8ea61bd918ce45769e,null,null,"<p style=""font-size: 60px; font-family: BACS"">TObCOTPOM</p>",,,,,,,,,,
html-keyboard-response,429,528487,0.0-18.0-0.16,60eb26fb8db6845a14fe5a91,650c16f0f2faf8d7a0d14c09,651c1d8ea61bd918ce45769e,null,null,"<p style=""font-size: 60px; font-family: BACS"">NQZvJUG</p>",,,,,,,,,,
html-keyboard-response,430,529503,0.0-18.0-0.17,60eb26fb8db6845a14fe5a91,650c16f0f2faf8d7a0d14c09,651c1d8ea61bd918ce45769e,null,null,"<p style=""font-size: 60px; font-family: BACS"">BdtACRCdc</p>",,,,,,,,,,
html-keyboard-response,431,530520,0.0-18.0-0.18,60eb26fb8db6845a14fe5a91,650c16f0f2faf8d7a0d14c09,651c1d8ea61bd918ce45769e,null,null,"<p style=""font-size: 60px; font-family: BACS"">aUZAJUG</p>",,,,,,,,,,
html-keyboard-response,432,531523,0.0-18.0-0.19,60eb26fb8db6845a14fe5a91,650c16f0f2faf8d7a0d14c09,651c1d8ea61bd918ce45769e,null,null,"<p style=""font-size: 60px; font-family: BACS"">EltMBRCdc</p>",,,,,,,,,,
html-keyboard-response,433,532536,0.0-18.0-0.20,60eb26fb8db6845a14fe5a91,650c16f0f2faf8d7a0d14c09,651c1d8ea61bd918ce45769e,null,null,"<p style=""font-size: 60px; font-family: BACS"">aYQmLkNc</p>",,,,,,,,,,
html-keyboard-response,434,533540,0.0-18.0-0.21,60eb26fb8db6845a14fe5a91,650c16f0f2faf8d7a0d14c09,651c1d8ea61bd918ce45769e,null,null,"<p style=""font-size: 60px; font-family: BACS"">NQZvQONk</p>",,,,,,,,,,
html-keyboard-response,435,534545,0.0-18.0-0.22,60eb26fb8db6845a14fe5a91,650c16f0f2faf8d7a0d14c09,651c1d8ea61bd918ce45769e,null,null,"<p style=""font-size: 60px; font-family: BACS"">BdtACTPOM</p>",,,,,,,,,,
html-keyboard-response,436,535553,0.0-18.0-0.23,60eb26fb8db6845a14fe5a91,650c16f0f2faf8d7a0d14c09,651c1d8ea61bd918ce45769e,null,null,"<p style=""font-size: 60px; font-family: BACS"">kCRmTRkY</p>",,,,,,,,,,
html-keyboard-response,437,536568,0.0-18.0-0.24,60eb26fb8db6845a14fe5a91,650c16f0f2faf8d7a0d14c09,651c1d8ea61bd918ce45769e,null,null,"<p style=""font-size: 60px; font-family: BACS"">GNAcaJUG</p>",,,,,,,,,,
html-keyboard-response,438,537585,0.0-18.0-0.25,60eb26fb8db6845a14fe5a91,650c16f0f2faf8d7a0d14c09,651c1d8ea61bd918ce45769e,null,null,"<p style=""font-size: 60px; font-family: BACS"">aYQmrAm</p>",,,,,,,,,,
html-keyboard-response,439,538601,0.0-18.0-0.26,60eb26fb8db6845a14fe5a91,650c16f0f2faf8d7a0d14c09,651c1d8ea61bd918ce45769e,null,null,"<p style=""font-size: 60px; font-family: BACS"">ODBDARCdc</p>",,,,,,,,,,
html-keyboard-response,440,539603,0.0-18.0-0.27,60eb26fb8db6845a14fe5a91,650c16f0f2faf8d7a0d14c09,651c1d8ea61bd918ce45769e,null,null,"<p style=""font-size: 60px; font-family: BACS"">aYQmQONk</p>",,,,,,,,,,
html-keyboard-response,441,540620,0.0-18.0-0.28,60eb26fb8db6845a14fe5a91,650c16f0f2faf8d7a0d14c09,651c1d8ea61bd918ce45769e,null,null,"<p style=""font-size: 60px; font-family: BACS"">aUZArAm</p>",,,,,,,,,,
html-keyboard-response,442,541637,0.0-18.0-0.29,60eb26fb8db6845a14fe5a91,650c16f0f2faf8d7a0d14c09,651c1d8ea61bd918ce45769e,null,null,"<p style=""font-size: 60px; font-family: BACS"">RCcEcthB</p>",,,,,,,,,,
html-keyboard-response,443,542651,0.0-18.0-0.30,60eb26fb8db6845a14fe5a91,650c16f0f2faf8d7a0d14c09,651c1d8ea61bd918ce45769e,null,null,"<p style=""font-size: 60px; font-family: BACS"">RdPtDTPOM</p>",,,,,,,,,,
html-keyboard-response,444,543670,0.0-18.0-0.31,60eb26fb8db6845a14fe5a91,650c16f0f2faf8d7a0d14c09,651c1d8ea61bd918ce45769e,null,null,"<p style=""font-size: 60px; font-family: BACS"">auYAkJUG</p>",,,,,,,,,,
html-keyboard-response,445,544686,0.0-18.0-0.32,60eb26fb8db6845a14fe5a91,650c16f0f2faf8d7a0d14c09,651c1d8ea61bd918ce45769e,null,null,"<p style=""font-size: 60px; font-family: BACS"">aOLZULkNc</p>",,,,,,,,,,
html-keyboard-response,446,545692,0.0-18.0-0.33,60eb26fb8db6845a14fe5a91,650c16f0f2faf8d7a0d14c09,651c1d8ea61bd918ce45769e,null,null,"<p style=""font-size: 60px; font-family: BACS"">RdPtDTRkY</p>",,,,,,,,,,
html-keyboard-response,447,546694,0.0-18.0-0.34,60eb26fb8db6845a14fe5a91,650c16f0f2faf8d7a0d14c09,651c1d8ea61bd918ce45769e,null,null,"<p style=""font-size: 60px; font-family: BACS"">cDOEBPED</p>",,,,,,,,,,
html-keyboard-response,448,547702,0.0-18.0-0.35,60eb26fb8db6845a14fe5a91,650c16f0f2faf8d7a0d14c09,651c1d8ea61bd918ce45769e,null,null,"<p style=""font-size: 60px; font-family: BACS"">kCRmTPOM</p>",,,,,,,,,,
html-keyboard-response,449,548711,0.0-18.0-0.36,60eb26fb8db6845a14fe5a91,650c16f0f2faf8d7a0d14c09,651c1d8ea61bd918ce45769e,null,null,"<p style=""font-size: 60px; font-family: BACS"">bvuZNac</p>",,,,,,,,,,
html-keyboard-response,450,549719,0.0-18.0-0.37,60eb26fb8db6845a14fe5a91,650c16f0f2faf8d7a0d14c09,651c1d8ea61bd918ce45769e,null,null,"<p style=""font-size: 60px; font-family: BACS"">BdtACcthB</p>",,,,,,,,,,
html-keyboard-response,451,550734,0.0-18.0-0.38,60eb26fb8db6845a14fe5a91,650c16f0f2faf8d7a0d14c09,651c1d8ea61bd918ce45769e,null,null,"<p style=""font-size: 60px; font-family: BACS"">ODBDAPED</p>",,,,,,,,,,
html-keyboard-response,452,551750,0.0-18.0-0.39,60eb26fb8db6845a14fe5a91,650c16f0f2faf8d7a0d14c09,651c1d8ea61bd918ce45769e,null,null,"<p style=""font-size: 60px; font-family: BACS"">cDOEBcthB</p>",,,,,,,,,,
html-keyboard-response,453,552766,0.0-18.0-0.40,60eb26fb8db6845a14fe5a91,650c16f0f2faf8d7a0d14c09,651c1d8ea61bd918ce45769e,null,null,"<p style=""font-size: 60px; font-family: BACS"">AlUYLkNc</p>",,,,,,,,,,
html-keyboard-response,454,553770,0.0-18.0-0.41,60eb26fb8db6845a14fe5a91,650c16f0f2faf8d7a0d14c09,651c1d8ea61bd918ce45769e,null,null,"<p style=""font-size: 60px; font-family: BACS"">BECkPED</p>",,,,,,,,,,
html-keyboard-response,455,554786,0.0-18.0-0.42,60eb26fb8db6845a14fe5a91,650c16f0f2faf8d7a0d14c09,651c1d8ea61bd918ce45769e,null,null,"<p style=""font-size: 60px; font-family: BACS"">auYAkNac</p>",,,,,,,,,,
html-keyboard-response,456,555801,0.0-18.0-0.43,60eb26fb8db6845a14fe5a91,650c16f0f2faf8d7a0d14c09,651c1d8ea61bd918ce45769e,null,null,"<p style=""font-size: 60px; font-family: BACS"">BECkRCdc</p>",,,,,,,,,,
html-keyboard-response,457,556818,0.0-18.0-0.44,60eb26fb8db6845a14fe5a91,650c16f0f2faf8d7a0d14c09,651c1d8ea61bd918ce45769e,null,null,"<p style=""font-size: 60px; font-family: BACS"">aOLZUrAm</p>",,,,,,,,,,
html-keyboard-response,458,557834,0.0-18.0-0.45,60eb26fb8db6845a14fe5a91,650c16f0f2faf8d7a0d14c09,651c1d8ea61bd918ce45769e,null,null,"<p style=""font-size: 60px; font-family: BACS"">kCRmcthB</p>",,,,,,,,,,
html-keyboard-response,459,558849,0.0-18.0-0.46,60eb26fb8db6845a14fe5a91,650c16f0f2faf8d7a0d14c09,651c1d8ea61bd918ce45769e,null,null,"<p style=""font-size: 60px; font-family: BACS"">TObCOPED</p>",,,,,,,,,,
html-keyboard-response,460,559853,0.0-18.0-0.47,60eb26fb8db6845a14fe5a91,650c16f0f2faf8d7a0d14c09,651c1d8ea61bd918ce45769e,null,null,"<p style=""font-size: 60px; font-family: BACS"">BECkcthB</p>",,,,,,,,,,
html-keyboard-response,461,560867,0.0-18.0-0.48,60eb26fb8db6845a14fe5a91,650c16f0f2faf8d7a0d14c09,651c1d8ea61bd918ce45769e,null,null,"<p style=""font-size: 60px; font-family: BACS"">kCRmRCdc</p>",,,,,,,,,,
html-keyboard-response,462,561868,0.0-18.0-0.49,60eb26fb8db6845a14fe5a91,650c16f0f2faf8d7a0d14c09,651c1d8ea61bd918ce45769e,null,null,"<p style=""font-size: 60px; font-family: BACS"">auYAkrAm</p>",,,,,,,,,,
html-keyboard-response,463,562884,0.0-18.0-0.50,60eb26fb8db6845a14fe5a91,650c16f0f2faf8d7a0d14c09,651c1d8ea61bd918ce45769e,null,null,"<p style=""font-size: 60px; font-family: BACS"">RCcERCdc</p>",,,,,,,,,,
html-keyboard-response,464,563886,0.0-18.0-0.51,60eb26fb8db6845a14fe5a91,650c16f0f2faf8d7a0d14c09,651c1d8ea61bd918ce45769e,null,null,"<p style=""font-size: 60px; font-family: BACS"">NQZvLkNc</p>",,,,,,,,,,
html-keyboard-response,465,564902,0.0-18.0-0.52,60eb26fb8db6845a14fe5a91,650c16f0f2faf8d7a0d14c09,651c1d8ea61bd918ce45769e,null,null,"<p style=""font-size: 60px; font-family: BACS"">RdPtDPED</p>",,,,,,,,,,
