"trial_type","trial_index","time_elapsed","internal_node_id","subject_id","study_id","session_id","rt","response","stimulus","success","item","task","correct_response","testing_condition","correct","target","confound","name"
"pavlovia","0","832","0.0-0.0","5ed02ffb8090240f93ab74ad","64e77d7b61f440b60e28659d","64eca674c978ac79a747388d","","","","","","","","","","","",""
"survey-html-form","1","12943","0.0-1.0","5ed02ffb8090240f93ab74ad","64e77d7b61f440b60e28659d","64eca674c978ac79a747388d","12108","{""ID"":""5ed02ffb8090240f93ab74ad""}","","","","","","","","","",""
"html-keyboard-response","2","55589","0.0-2.0","5ed02ffb8090240f93ab74ad","64e77d7b61f440b60e28659d","64eca674c978ac79a747388d","42645"," ","<p style=""font-size: 15px;"">Before beginning, we ask that you read the consent information and confirm your agreement to participate in the experiment.</p>
      <p style=""font-size: 15px;""> We ask that you remember that this is a research project and that your participation is entirely voluntary. You can stop your participation at any time, without needing to provide any explanation. The study we're asking you to participate in aims at examining how readers process written words. You will be engaged in a session of apprximately 20 minutes, followed by a brief questionnaire. You will have the opportunity to take a few breaks during the experiment. You will be paid £4 for your participation, corresponding to a rate of £8/hour. While this experiment looks at cognitive faculties, this experiment doesn't constitute clinical proof of eventual pathologies.</p>
      <p style=""font-size: 15px;"">All of the information collected thanks to yours and others' participation will be held in a secure password-protected server, and will not be shared with anyone not authorised to view it. Your personal information will be kept with an arbitrary participant ID. Thanks to this data anonymity process, any researcher analysing the data won't be able to track the information back to a specific participant. Therefore, this process will make identifying you impossibile, even when results from the study will be published in scientific reviews, presented at congresses, or at any other public forum. More generally, the collected data will be treated in accordance with the laws on privacy and conformity to the Legislative Degree n. 196 ""Code regarding the protection of personal data"" of the 30th of June 2003 and to the European Regulation 2016/670 (General Data Protection Regulation - GDPR). The Data Protection Officer is Avv. Valentina Carollo, who can be contacted at the following email addresses: <a href=""mailto:dpo@sissa.it"">dpo@sissa.it</a> or <a href=""mailto:rpd@sissa.it"">rpd@sissa.it</a> - PEC: <a href=""mailto:protocollo@pec.sissa.it"">protocollo@pec.sissa.it</a>.</p>
      <p style=""font-size: 15px;""> Before expressing your consent to participate, we would like to remind you again that in case you need explanations on any aspect of the experimental procedure, the researcher is at your disposition (<a href=""mailto:aliebelt@sissa.it"">aliebelt@sissa.it</a>, <a href=""mailto:davide.crepaldi@sissa.it"">davide.crepaldi@sissa.it</a>).</p>
      <p style=""font-size: 15px;"">If you would like to download the informed consent form, you can do so here: <a href=""BASL-Informed_Consent.pdf"" download>informed consent form</a>.</p>
      <p style=""font-size: 15px;"">We ask that you press the spacebar to proceed to the consent section.</p>","","","","","","","","",""
"survey-html-form","3","64864","0.0-3.0","5ed02ffb8090240f93ab74ad","64e77d7b61f440b60e28659d","64eca674c978ac79a747388d","9274","{""consent1"":""YES"",""consent2"":""YES"",""consent3"":""YES"",""consent4"":""YES"",""consent5"":""YES"",""consent6"":""YES""}","","","","","","","","","",""
"fullscreen","4","70109","0.0-4.0","5ed02ffb8090240f93ab74ad","64e77d7b61f440b60e28659d","64eca674c978ac79a747388d","","","","true","","","","","","","",""
"html-keyboard-response","5","92985","0.0-5.0","5ed02ffb8090240f93ab74ad","64e77d7b61f440b60e28659d","64eca674c978ac79a747388d","22875"," ","<p>Welcome, and thank you very much for your time!</p>
      <p>In this experiment, you'll be a language expert who's been asked to take a look at words that Earth has received in its first communication with aliens. Your task, in this first part of the experiment, is to pay close attention to the words you'll be shown; later, world leaders will ask you questions on what you saw. The words will be shown to you quite quickly; it seems that the aliens were in a hurry :-)</p>
      <p>Press the spacebar to continue.<p>","","","","","","","","",""
"html-keyboard-response","6","98519","0.0-6.0","5ed02ffb8090240f93ab74ad","64e77d7b61f440b60e28659d","64eca674c978ac79a747388d","5533"," ","<p>Here is an example of the words you'll see:</p>
      <img src='esempio.png' height='400px'>
      <p>When you're ready to begin, press the spacebar.</p></div>","","","","","","","","",""
"html-keyboard-response","7","99531","0.0-7.0-0.0","5ed02ffb8090240f93ab74ad","64e77d7b61f440b60e28659d","64eca674c978ac79a747388d","null","null","<p style=""font-size: 60px; font-family: BACS"">CkBOPOPE</p>","","","","","","","","",""
"html-keyboard-response","8","100540","0.0-7.0-0.1","5ed02ffb8090240f93ab74ad","64e77d7b61f440b60e28659d","64eca674c978ac79a747388d","null","null","<p style=""font-size: 60px; font-family: BACS"">UdumdLaA</p>","","","","","","","","",""
"html-keyboard-response","9","101555","0.0-7.0-0.2","5ed02ffb8090240f93ab74ad","64e77d7b61f440b60e28659d","64eca674c978ac79a747388d","null","null","<p style=""font-size: 60px; font-family: BACS"">ArQuNmAG</p>","","","","","","","","",""
"html-keyboard-response","10","102569","0.0-7.0-0.3","5ed02ffb8090240f93ab74ad","64e77d7b61f440b60e28659d","64eca674c978ac79a747388d","null","null","<p style=""font-size: 60px; font-family: BACS"">krGuLaA</p>","","","","","","","","",""
"html-keyboard-response","11","103584","0.0-7.0-0.4","5ed02ffb8090240f93ab74ad","64e77d7b61f440b60e28659d","64eca674c978ac79a747388d","null","null","<p style=""font-size: 60px; font-family: BACS"">EhbtBYhT</p>","","","","","","","","",""
"html-keyboard-response","12","104600","0.0-7.0-0.5","5ed02ffb8090240f93ab74ad","64e77d7b61f440b60e28659d","64eca674c978ac79a747388d","null","null","<p style=""font-size: 60px; font-family: BACS"">LOLkUNYZu</p>","","","","","","","","",""
"html-keyboard-response","13","105612","0.0-7.0-0.6","5ed02ffb8090240f93ab74ad","64e77d7b61f440b60e28659d","64eca674c978ac79a747388d","null","null","<p style=""font-size: 60px; font-family: BACS"">krGuYZJO</p>","","","","","","","","",""
"html-keyboard-response","14","106627","0.0-7.0-0.7","5ed02ffb8090240f93ab74ad","64e77d7b61f440b60e28659d","64eca674c978ac79a747388d","null","null","<p style=""font-size: 60px; font-family: BACS"">cROMtYDTk</p>","","","","","","","","",""
"html-keyboard-response","15","107630","0.0-7.0-0.8","5ed02ffb8090240f93ab74ad","64e77d7b61f440b60e28659d","64eca674c978ac79a747388d","null","null","<p style=""font-size: 60px; font-family: BACS"">OdYPBYhT</p>","","","","","","","","",""
"html-keyboard-response","16","108646","0.0-7.0-0.9","5ed02ffb8090240f93ab74ad","64e77d7b61f440b60e28659d","64eca674c978ac79a747388d","null","null","<p style=""font-size: 60px; font-family: BACS"">JrGvYZJO</p>","","","","","","","","",""
"html-keyboard-response","17","109662","0.0-7.0-0.10","5ed02ffb8090240f93ab74ad","64e77d7b61f440b60e28659d","64eca674c978ac79a747388d","null","null","<p style=""font-size: 60px; font-family: BACS"">CkBOPYDTk</p>","","","","","","","","",""
"html-keyboard-response","18","110673","0.0-7.0-0.11","5ed02ffb8090240f93ab74ad","64e77d7b61f440b60e28659d","64eca674c978ac79a747388d","null","null","<p style=""font-size: 60px; font-family: BACS"">cROMtdPc</p>","","","","","","","","",""
"html-keyboard-response","19","111677","0.0-7.0-0.12","5ed02ffb8090240f93ab74ad","64e77d7b61f440b60e28659d","64eca674c978ac79a747388d","null","null","<p style=""font-size: 60px; font-family: BACS"">lkAkNYZu</p>","","","","","","","","",""
"html-keyboard-response","20","112691","0.0-7.0-0.13","5ed02ffb8090240f93ab74ad","64e77d7b61f440b60e28659d","64eca674c978ac79a747388d","null","null","<p style=""font-size: 60px; font-family: BACS"">UdumdYZJO</p>","","","","","","","","",""
"html-keyboard-response","21","113704","0.0-7.0-0.14","5ed02ffb8090240f93ab74ad","64e77d7b61f440b60e28659d","64eca674c978ac79a747388d","null","null","<p style=""font-size: 60px; font-family: BACS"">hYDmtOPE</p>","","","","","","","","",""
"html-keyboard-response","22","114718","0.0-7.0-0.15","5ed02ffb8090240f93ab74ad","64e77d7b61f440b60e28659d","64eca674c978ac79a747388d","null","null","<p style=""font-size: 60px; font-family: BACS"">KBKBEYDTk</p>","","","","","","","","",""
"html-keyboard-response","23","115720","0.0-7.0-0.16","5ed02ffb8090240f93ab74ad","64e77d7b61f440b60e28659d","64eca674c978ac79a747388d","null","null","<p style=""font-size: 60px; font-family: BACS"">JZOAkLaA</p>","","","","","","","","",""
"html-keyboard-response","24","116728","0.0-7.0-0.17","5ed02ffb8090240f93ab74ad","64e77d7b61f440b60e28659d","64eca674c978ac79a747388d","null","null","<p style=""font-size: 60px; font-family: BACS"">KBKBEBYhT</p>","","","","","","","","",""
"html-keyboard-response","25","117740","0.0-7.0-0.18","5ed02ffb8090240f93ab74ad","64e77d7b61f440b60e28659d","64eca674c978ac79a747388d","null","null","<p style=""font-size: 60px; font-family: BACS"">EhbtdPc</p>","","","","","","","","",""
"html-keyboard-response","26","118750","0.0-7.0-0.19","5ed02ffb8090240f93ab74ad","64e77d7b61f440b60e28659d","64eca674c978ac79a747388d","null","null","<p style=""font-size: 60px; font-family: BACS"">RlAKcCPMl</p>","","","","","","","","",""
"html-keyboard-response","27","119763","0.0-7.0-0.20","5ed02ffb8090240f93ab74ad","64e77d7b61f440b60e28659d","64eca674c978ac79a747388d","null","null","<p style=""font-size: 60px; font-family: BACS"">CkBOPBYhT</p>","","","","","","","","",""
"html-keyboard-response","28","120775","0.0-7.0-0.21","5ed02ffb8090240f93ab74ad","64e77d7b61f440b60e28659d","64eca674c978ac79a747388d","null","null","<p style=""font-size: 60px; font-family: BACS"">LOLkUNmAG</p>","","","","","","","","",""
"html-keyboard-response","29","121790","0.0-7.0-0.22","5ed02ffb8090240f93ab74ad","64e77d7b61f440b60e28659d","64eca674c978ac79a747388d","null","null","<p style=""font-size: 60px; font-family: BACS"">bcOROPE</p>","","","","","","","","",""
"html-keyboard-response","30","122796","0.0-7.0-0.23","5ed02ffb8090240f93ab74ad","64e77d7b61f440b60e28659d","64eca674c978ac79a747388d","null","null","<p style=""font-size: 60px; font-family: BACS"">Udumdrkra</p>","","","","","","","","",""
"html-keyboard-response","31","123807","0.0-7.0-0.24","5ed02ffb8090240f93ab74ad","64e77d7b61f440b60e28659d","64eca674c978ac79a747388d","null","null","<p style=""font-size: 60px; font-family: BACS"">lkAkNmAG</p>","","","","","","","","",""
"html-keyboard-response","32","124812","0.0-7.0-0.25","5ed02ffb8090240f93ab74ad","64e77d7b61f440b60e28659d","64eca674c978ac79a747388d","null","null","<p style=""font-size: 60px; font-family: BACS"">bcORBYhT</p>","","","","","","","","",""
"html-keyboard-response","33","125825","0.0-7.0-0.26","5ed02ffb8090240f93ab74ad","64e77d7b61f440b60e28659d","64eca674c978ac79a747388d","null","null","<p style=""font-size: 60px; font-family: BACS"">RCcEYDTk</p>","","","","","","","","",""
"html-keyboard-response","34","126829","0.0-7.0-0.27","5ed02ffb8090240f93ab74ad","64e77d7b61f440b60e28659d","64eca674c978ac79a747388d","null","null","<p style=""font-size: 60px; font-family: BACS"">LOLkULaA</p>","","","","","","","","",""
"html-keyboard-response","35","127844","0.0-7.0-0.28","5ed02ffb8090240f93ab74ad","64e77d7b61f440b60e28659d","64eca674c978ac79a747388d","null","null","<p style=""font-size: 60px; font-family: BACS"">bcORdPc</p>","","","","","","","","",""
"html-keyboard-response","36","128857","0.0-7.0-0.29","5ed02ffb8090240f93ab74ad","64e77d7b61f440b60e28659d","64eca674c978ac79a747388d","null","null","<p style=""font-size: 60px; font-family: BACS"">OdYPCPMl</p>","","","","","","","","",""
"html-keyboard-response","37","129859","0.0-7.0-0.30","5ed02ffb8090240f93ab74ad","64e77d7b61f440b60e28659d","64eca674c978ac79a747388d","null","null","<p style=""font-size: 60px; font-family: BACS"">BOCRMYDTk</p>","","","","","","","","",""
"html-keyboard-response","38","130860","0.0-7.0-0.31","5ed02ffb8090240f93ab74ad","64e77d7b61f440b60e28659d","64eca674c978ac79a747388d","null","null","<p style=""font-size: 60px; font-family: BACS"">OAblcrkra</p>","","","","","","","","",""
"html-keyboard-response","39","131871","0.0-7.0-0.32","5ed02ffb8090240f93ab74ad","64e77d7b61f440b60e28659d","64eca674c978ac79a747388d","null","null","<p style=""font-size: 60px; font-family: BACS"">ArQuLaA</p>","","","","","","","","",""
"html-keyboard-response","40","132886","0.0-7.0-0.33","5ed02ffb8090240f93ab74ad","64e77d7b61f440b60e28659d","64eca674c978ac79a747388d","null","null","<p style=""font-size: 60px; font-family: BACS"">cROMtCPMl</p>","","","","","","","","",""
"html-keyboard-response","41","133901","0.0-7.0-0.34","5ed02ffb8090240f93ab74ad","64e77d7b61f440b60e28659d","64eca674c978ac79a747388d","null","null","<p style=""font-size: 60px; font-family: BACS"">krGuNmAG</p>","","","","","","","","",""
"html-keyboard-response","42","134918","0.0-7.0-0.35","5ed02ffb8090240f93ab74ad","64e77d7b61f440b60e28659d","64eca674c978ac79a747388d","null","null","<p style=""font-size: 60px; font-family: BACS"">OdYPdPc</p>","","","","","","","","",""
"html-keyboard-response","43","135934","0.0-7.0-0.36","5ed02ffb8090240f93ab74ad","64e77d7b61f440b60e28659d","64eca674c978ac79a747388d","null","null","<p style=""font-size: 60px; font-family: BACS"">EhbtCPMl</p>","","","","","","","","",""
"html-keyboard-response","44","136949","0.0-7.0-0.37","5ed02ffb8090240f93ab74ad","64e77d7b61f440b60e28659d","64eca674c978ac79a747388d","null","null","<p style=""font-size: 60px; font-family: BACS"">QLrOJNmAG</p>","","","","","","","","",""
"html-keyboard-response","45","137965","0.0-7.0-0.38","5ed02ffb8090240f93ab74ad","64e77d7b61f440b60e28659d","64eca674c978ac79a747388d","null","null","<p style=""font-size: 60px; font-family: BACS"">lkAkLaA</p>","","","","","","","","",""
"html-keyboard-response","46","138980","0.0-7.0-0.39","5ed02ffb8090240f93ab74ad","64e77d7b61f440b60e28659d","64eca674c978ac79a747388d","null","null","<p style=""font-size: 60px; font-family: BACS"">RCcECPMl</p>","","","","","","","","",""
"html-keyboard-response","47","139996","0.0-7.0-0.40","5ed02ffb8090240f93ab74ad","64e77d7b61f440b60e28659d","64eca674c978ac79a747388d","null","null","<p style=""font-size: 60px; font-family: BACS"">NbmQUrkra</p>","","","","","","","","",""
"html-keyboard-response","48","141010","0.0-7.0-0.41","5ed02ffb8090240f93ab74ad","64e77d7b61f440b60e28659d","64eca674c978ac79a747388d","null","null","<p style=""font-size: 60px; font-family: BACS"">hYDmtBYhT</p>","","","","","","","","",""
"html-keyboard-response","49","142012","0.0-7.0-0.42","5ed02ffb8090240f93ab74ad","64e77d7b61f440b60e28659d","64eca674c978ac79a747388d","null","null","<p style=""font-size: 60px; font-family: BACS"">KBKBEOPE</p>","","","","","","","","",""
"html-keyboard-response","50","143028","0.0-7.0-0.43","5ed02ffb8090240f93ab74ad","64e77d7b61f440b60e28659d","64eca674c978ac79a747388d","null","null","<p style=""font-size: 60px; font-family: BACS"">NbmQULaA</p>","","","","","","","","",""
"html-keyboard-response","51","144030","0.0-7.0-0.44","5ed02ffb8090240f93ab74ad","64e77d7b61f440b60e28659d","64eca674c978ac79a747388d","null","null","<p style=""font-size: 60px; font-family: BACS"">JZOAkYZJO</p>","","","","","","","","",""
"html-keyboard-response","52","145046","0.0-7.0-0.45","5ed02ffb8090240f93ab74ad","64e77d7b61f440b60e28659d","64eca674c978ac79a747388d","null","null","<p style=""font-size: 60px; font-family: BACS"">NbmQUNYZu</p>","","","","","","","","",""
"html-keyboard-response","53","146058","0.0-7.0-0.46","5ed02ffb8090240f93ab74ad","64e77d7b61f440b60e28659d","64eca674c978ac79a747388d","null","null","<p style=""font-size: 60px; font-family: BACS"">RlAKcBYhT</p>","","","","","","","","",""
"html-keyboard-response","54","147071","0.0-7.0-0.47","5ed02ffb8090240f93ab74ad","64e77d7b61f440b60e28659d","64eca674c978ac79a747388d","null","null","<p style=""font-size: 60px; font-family: BACS"">ArQurkra</p>","","","","","","","","",""
"html-keyboard-response","55","148076","0.0-7.0-0.48","5ed02ffb8090240f93ab74ad","64e77d7b61f440b60e28659d","64eca674c978ac79a747388d","null","null","<p style=""font-size: 60px; font-family: BACS"">BOCRMBYhT</p>","","","","","","","","",""
"html-keyboard-response","56","149092","0.0-7.0-0.49","5ed02ffb8090240f93ab74ad","64e77d7b61f440b60e28659d","64eca674c978ac79a747388d","null","null","<p style=""font-size: 60px; font-family: BACS"">OdYPYDTk</p>","","","","","","","","",""
"html-keyboard-response","57","150093","0.0-7.0-0.50","5ed02ffb8090240f93ab74ad","64e77d7b61f440b60e28659d","64eca674c978ac79a747388d","null","null","<p style=""font-size: 60px; font-family: BACS"">bcORCPMl</p>","","","","","","","","",""
"html-keyboard-response","58","151108","0.0-7.0-0.51","5ed02ffb8090240f93ab74ad","64e77d7b61f440b60e28659d","64eca674c978ac79a747388d","null","null","<p style=""font-size: 60px; font-family: BACS"">QLrOJNYZu</p>","","","","","","","","",""
"html-keyboard-response","59","152124","0.0-7.0-0.52","5ed02ffb8090240f93ab74ad","64e77d7b61f440b60e28659d","64eca674c978ac79a747388d","null","null","<p style=""font-size: 60px; font-family: BACS"">OAblcLaA</p>","","","","","","","","",""
"html-keyboard-response","60","153128","0.0-7.0-0.53","5ed02ffb8090240f93ab74ad","64e77d7b61f440b60e28659d","64eca674c978ac79a747388d","null","null","<p style=""font-size: 60px; font-family: BACS"">BOCRMdPc</p>","","","","","","","","",""
"html-keyboard-response","61","154140","0.0-7.0-0.54","5ed02ffb8090240f93ab74ad","64e77d7b61f440b60e28659d","64eca674c978ac79a747388d","null","null","<p style=""font-size: 60px; font-family: BACS"">JZOAkNYZu</p>","","","","","","","","",""
"html-keyboard-response","62","155155","0.0-7.0-0.55","5ed02ffb8090240f93ab74ad","64e77d7b61f440b60e28659d","64eca674c978ac79a747388d","null","null","<p style=""font-size: 60px; font-family: BACS"">RCcEOPE</p>","","","","","","","","",""
"html-keyboard-response","63","156168","0.0-7.0-0.56","5ed02ffb8090240f93ab74ad","64e77d7b61f440b60e28659d","64eca674c978ac79a747388d","null","null","<p style=""font-size: 60px; font-family: BACS"">krGurkra</p>","","","","","","","","",""
"html-keyboard-response","64","157184","0.0-7.0-0.57","5ed02ffb8090240f93ab74ad","64e77d7b61f440b60e28659d","64eca674c978ac79a747388d","null","null","<p style=""font-size: 60px; font-family: BACS"">RCcEdPc</p>","","","","","","","","",""
"html-keyboard-response","65","158199","0.0-7.0-0.58","5ed02ffb8090240f93ab74ad","64e77d7b61f440b60e28659d","64eca674c978ac79a747388d","null","null","<p style=""font-size: 60px; font-family: BACS"">EhbtYDTk</p>","","","","","","","","",""
"html-keyboard-response","66","159214","0.0-7.0-0.59","5ed02ffb8090240f93ab74ad","64e77d7b61f440b60e28659d","64eca674c978ac79a747388d","null","null","<p style=""font-size: 60px; font-family: BACS"">JrGvrkra</p>","","","","","","","","",""
"html-keyboard-response","67","160219","0.0-7.0-0.60","5ed02ffb8090240f93ab74ad","64e77d7b61f440b60e28659d","64eca674c978ac79a747388d","null","null","<p style=""font-size: 60px; font-family: BACS"">ArQuNYZu</p>","","","","","","","","",""
"html-keyboard-response","68","161232","0.0-7.0-0.61","5ed02ffb8090240f93ab74ad","64e77d7b61f440b60e28659d","64eca674c978ac79a747388d","null","null","<p style=""font-size: 60px; font-family: BACS"">BOCRMOPE</p>","","","","","","","","",""
"html-keyboard-response","69","162234","0.0-7.0-0.62","5ed02ffb8090240f93ab74ad","64e77d7b61f440b60e28659d","64eca674c978ac79a747388d","null","null","<p style=""font-size: 60px; font-family: BACS"">UdumdNmAG</p>","","","","","","","","",""
"html-keyboard-response","70","163246","0.0-7.0-0.63","5ed02ffb8090240f93ab74ad","64e77d7b61f440b60e28659d","64eca674c978ac79a747388d","null","null","<p style=""font-size: 60px; font-family: BACS"">KBKBECPMl</p>","","","","","","","","",""
"html-keyboard-response","71","164262","0.0-7.0-0.64","5ed02ffb8090240f93ab74ad","64e77d7b61f440b60e28659d","64eca674c978ac79a747388d","null","null","<p style=""font-size: 60px; font-family: BACS"">NbmQUYZJO</p>","","","","","","","","",""
"html-keyboard-response","72","165278","0.0-7.0-0.65","5ed02ffb8090240f93ab74ad","64e77d7b61f440b60e28659d","64eca674c978ac79a747388d","null","null","<p style=""font-size: 60px; font-family: BACS"">hYDmtYDTk</p>","","","","","","","","",""
"html-keyboard-response","73","166294","0.0-7.0-0.66","5ed02ffb8090240f93ab74ad","64e77d7b61f440b60e28659d","64eca674c978ac79a747388d","null","null","<p style=""font-size: 60px; font-family: BACS"">LOLkUYZJO</p>","","","","","","","","",""
"html-keyboard-response","74","167307","0.0-7.0-0.67","5ed02ffb8090240f93ab74ad","64e77d7b61f440b60e28659d","64eca674c978ac79a747388d","null","null","<p style=""font-size: 60px; font-family: BACS"">RlAKcOPE</p>","","","","","","","","",""
"html-keyboard-response","75","168308","0.0-7.0-0.68","5ed02ffb8090240f93ab74ad","64e77d7b61f440b60e28659d","64eca674c978ac79a747388d","null","null","<p style=""font-size: 60px; font-family: BACS"">QLrOJrkra</p>","","","","","","","","",""
"html-keyboard-response","76","169319","0.0-7.0-0.69","5ed02ffb8090240f93ab74ad","64e77d7b61f440b60e28659d","64eca674c978ac79a747388d","null","null","<p style=""font-size: 60px; font-family: BACS"">OAblcNmAG</p>","","","","","","","","",""
"html-keyboard-response","77","170332","0.0-7.0-0.70","5ed02ffb8090240f93ab74ad","64e77d7b61f440b60e28659d","64eca674c978ac79a747388d","null","null","<p style=""font-size: 60px; font-family: BACS"">JZOAkrkra</p>","","","","","","","","",""
"html-keyboard-response","78","171345","0.0-7.0-0.71","5ed02ffb8090240f93ab74ad","64e77d7b61f440b60e28659d","64eca674c978ac79a747388d","null","null","<p style=""font-size: 60px; font-family: BACS"">hYDmtCPMl</p>","","","","","","","","",""
"html-keyboard-response","79","172349","0.0-7.0-0.72","5ed02ffb8090240f93ab74ad","64e77d7b61f440b60e28659d","64eca674c978ac79a747388d","null","null","<p style=""font-size: 60px; font-family: BACS"">JrGvNYZu</p>","","","","","","","","",""
"html-keyboard-response","80","173361","0.0-7.0-0.73","5ed02ffb8090240f93ab74ad","64e77d7b61f440b60e28659d","64eca674c978ac79a747388d","null","null","<p style=""font-size: 60px; font-family: BACS"">cROMtOPE</p>","","","","","","","","",""
"html-keyboard-response","81","174376","0.0-7.0-0.74","5ed02ffb8090240f93ab74ad","64e77d7b61f440b60e28659d","64eca674c978ac79a747388d","null","null","<p style=""font-size: 60px; font-family: BACS"">JrGvNmAG</p>","","","","","","","","",""
"html-keyboard-response","82","175390","0.0-7.0-0.75","5ed02ffb8090240f93ab74ad","64e77d7b61f440b60e28659d","64eca674c978ac79a747388d","null","null","<p style=""font-size: 60px; font-family: BACS"">lkAkYZJO</p>","","","","","","","","",""
"html-keyboard-response","83","176403","0.0-7.0-0.76","5ed02ffb8090240f93ab74ad","64e77d7b61f440b60e28659d","64eca674c978ac79a747388d","null","null","<p style=""font-size: 60px; font-family: BACS"">OAblcNYZu</p>","","","","","","","","",""
"html-keyboard-response","84","177405","0.0-7.0-0.77","5ed02ffb8090240f93ab74ad","64e77d7b61f440b60e28659d","64eca674c978ac79a747388d","null","null","<p style=""font-size: 60px; font-family: BACS"">RlAKcdPc</p>","","","","","","","","",""
"html-keyboard-response","85","178408","0.0-7.0-0.78","5ed02ffb8090240f93ab74ad","64e77d7b61f440b60e28659d","64eca674c978ac79a747388d","null","null","<p style=""font-size: 60px; font-family: BACS"">QLrOJYZJO</p>","","","","","","","","",""
"html-keyboard-response","86","179418","0.0-7.0-0.79","5ed02ffb8090240f93ab74ad","64e77d7b61f440b60e28659d","64eca674c978ac79a747388d","null","null","<p style=""font-size: 60px; font-family: BACS"">CkBOPdPc</p>","","","","","","","","",""
"html-keyboard-response","87","183686","0.0-8.0","5ed02ffb8090240f93ab74ad","64e77d7b61f440b60e28659d","64eca674c978ac79a747388d","4268"," ","<p>Great, you've seen the first block of words. You may now take a short break.</p>
      <p>Press the spacebar when you're ready to continue.</p>","","","","","","","","",""
"html-keyboard-response","88","184698","0.0-9.0-0.0","5ed02ffb8090240f93ab74ad","64e77d7b61f440b60e28659d","64eca674c978ac79a747388d","null","null","<p style=""font-size: 60px; font-family: BACS"">BOCRMOPE</p>","","","","","","","","",""
"html-keyboard-response","89","185712","0.0-9.0-0.1","5ed02ffb8090240f93ab74ad","64e77d7b61f440b60e28659d","64eca674c978ac79a747388d","null","null","<p style=""font-size: 60px; font-family: BACS"">RCcEdPc</p>","","","","","","","","",""
"html-keyboard-response","90","186727","0.0-9.0-0.2","5ed02ffb8090240f93ab74ad","64e77d7b61f440b60e28659d","64eca674c978ac79a747388d","null","null","<p style=""font-size: 60px; font-family: BACS"">JrGvYZJO</p>","","","","","","","","",""
"html-keyboard-response","91","187740","0.0-9.0-0.3","5ed02ffb8090240f93ab74ad","64e77d7b61f440b60e28659d","64eca674c978ac79a747388d","null","null","<p style=""font-size: 60px; font-family: BACS"">QLrOJNmAG</p>","","","","","","","","",""
"html-keyboard-response","92","188752","0.0-9.0-0.4","5ed02ffb8090240f93ab74ad","64e77d7b61f440b60e28659d","64eca674c978ac79a747388d","null","null","<p style=""font-size: 60px; font-family: BACS"">RlAKcCPMl</p>","","","","","","","","",""
"html-keyboard-response","93","189767","0.0-9.0-0.5","5ed02ffb8090240f93ab74ad","64e77d7b61f440b60e28659d","64eca674c978ac79a747388d","null","null","<p style=""font-size: 60px; font-family: BACS"">JZOAkYZJO</p>","","","","","","","","",""
"html-keyboard-response","94","190782","0.0-9.0-0.6","5ed02ffb8090240f93ab74ad","64e77d7b61f440b60e28659d","64eca674c978ac79a747388d","null","null","<p style=""font-size: 60px; font-family: BACS"">hYDmtBYhT</p>","","","","","","","","",""
"html-keyboard-response","95","191795","0.0-9.0-0.7","5ed02ffb8090240f93ab74ad","64e77d7b61f440b60e28659d","64eca674c978ac79a747388d","null","null","<p style=""font-size: 60px; font-family: BACS"">JZOAkrkra</p>","","","","","","","","",""
"html-keyboard-response","96","192811","0.0-9.0-0.8","5ed02ffb8090240f93ab74ad","64e77d7b61f440b60e28659d","64eca674c978ac79a747388d","null","null","<p style=""font-size: 60px; font-family: BACS"">RlAKcdPc</p>","","","","","","","","",""
"html-keyboard-response","97","193812","0.0-9.0-0.9","5ed02ffb8090240f93ab74ad","64e77d7b61f440b60e28659d","64eca674c978ac79a747388d","null","null","<p style=""font-size: 60px; font-family: BACS"">RCcEYDTk</p>","","","","","","","","",""
"html-keyboard-response","98","194827","0.0-9.0-0.10","5ed02ffb8090240f93ab74ad","64e77d7b61f440b60e28659d","64eca674c978ac79a747388d","null","null","<p style=""font-size: 60px; font-family: BACS"">CkBOPdPc</p>","","","","","","","","",""
"html-keyboard-response","99","195838","0.0-9.0-0.11","5ed02ffb8090240f93ab74ad","64e77d7b61f440b60e28659d","64eca674c978ac79a747388d","null","null","<p style=""font-size: 60px; font-family: BACS"">NbmQUNYZu</p>","","","","","","","","",""
"html-keyboard-response","100","196854","0.0-9.0-0.12","5ed02ffb8090240f93ab74ad","64e77d7b61f440b60e28659d","64eca674c978ac79a747388d","null","null","<p style=""font-size: 60px; font-family: BACS"">hYDmtOPE</p>","","","","","","","","",""
"html-keyboard-response","101","197869","0.0-9.0-0.13","5ed02ffb8090240f93ab74ad","64e77d7b61f440b60e28659d","64eca674c978ac79a747388d","null","null","<p style=""font-size: 60px; font-family: BACS"">UdumdYZJO</p>","","","","","","","","",""
"html-keyboard-response","102","198873","0.0-9.0-0.14","5ed02ffb8090240f93ab74ad","64e77d7b61f440b60e28659d","64eca674c978ac79a747388d","null","null","<p style=""font-size: 60px; font-family: BACS"">OAblcLaA</p>","","","","","","","","",""
"html-keyboard-response","103","199887","0.0-9.0-0.15","5ed02ffb8090240f93ab74ad","64e77d7b61f440b60e28659d","64eca674c978ac79a747388d","null","null","<p style=""font-size: 60px; font-family: BACS"">hYDmtYDTk</p>","","","","","","","","",""
"html-keyboard-response","104","200902","0.0-9.0-0.16","5ed02ffb8090240f93ab74ad","64e77d7b61f440b60e28659d","64eca674c978ac79a747388d","null","null","<p style=""font-size: 60px; font-family: BACS"">JZOAkNYZu</p>","","","","","","","","",""
"html-keyboard-response","105","201917","0.0-9.0-0.17","5ed02ffb8090240f93ab74ad","64e77d7b61f440b60e28659d","64eca674c978ac79a747388d","null","null","<p style=""font-size: 60px; font-family: BACS"">QLrOJYZJO</p>","","","","","","","","",""
"html-keyboard-response","106","202931","0.0-9.0-0.18","5ed02ffb8090240f93ab74ad","64e77d7b61f440b60e28659d","64eca674c978ac79a747388d","null","null","<p style=""font-size: 60px; font-family: BACS"">JrGvNmAG</p>","","","","","","","","",""
"html-keyboard-response","107","203934","0.0-9.0-0.19","5ed02ffb8090240f93ab74ad","64e77d7b61f440b60e28659d","64eca674c978ac79a747388d","null","null","<p style=""font-size: 60px; font-family: BACS"">QLrOJNYZu</p>","","","","","","","","",""
"html-keyboard-response","108","204945","0.0-9.0-0.20","5ed02ffb8090240f93ab74ad","64e77d7b61f440b60e28659d","64eca674c978ac79a747388d","null","null","<p style=""font-size: 60px; font-family: BACS"">cROMtdPc</p>","","","","","","","","",""
"html-keyboard-response","109","205949","0.0-9.0-0.21","5ed02ffb8090240f93ab74ad","64e77d7b61f440b60e28659d","64eca674c978ac79a747388d","null","null","<p style=""font-size: 60px; font-family: BACS"">KBKBEOPE</p>","","","","","","","","",""
"html-keyboard-response","110","206962","0.0-9.0-0.22","5ed02ffb8090240f93ab74ad","64e77d7b61f440b60e28659d","64eca674c978ac79a747388d","null","null","<p style=""font-size: 60px; font-family: BACS"">EhbtdPc</p>","","","","","","","","",""
"html-keyboard-response","111","207966","0.0-9.0-0.23","5ed02ffb8090240f93ab74ad","64e77d7b61f440b60e28659d","64eca674c978ac79a747388d","null","null","<p style=""font-size: 60px; font-family: BACS"">lkAkNYZu</p>","","","","","","","","",""
"html-keyboard-response","112","208979","0.0-9.0-0.24","5ed02ffb8090240f93ab74ad","64e77d7b61f440b60e28659d","64eca674c978ac79a747388d","null","null","<p style=""font-size: 60px; font-family: BACS"">RCcEOPE</p>","","","","","","","","",""
"html-keyboard-response","113","209980","0.0-9.0-0.25","5ed02ffb8090240f93ab74ad","64e77d7b61f440b60e28659d","64eca674c978ac79a747388d","null","null","<p style=""font-size: 60px; font-family: BACS"">cROMtYDTk</p>","","","","","","","","",""
"html-keyboard-response","114","210985","0.0-9.0-0.26","5ed02ffb8090240f93ab74ad","64e77d7b61f440b60e28659d","64eca674c978ac79a747388d","null","null","<p style=""font-size: 60px; font-family: BACS"">EhbtCPMl</p>","","","","","","","","",""
"html-keyboard-response","115","211999","0.0-9.0-0.27","5ed02ffb8090240f93ab74ad","64e77d7b61f440b60e28659d","64eca674c978ac79a747388d","null","null","<p style=""font-size: 60px; font-family: BACS"">JZOAkLaA</p>","","","","","","","","",""
"html-keyboard-response","116","213004","0.0-9.0-0.28","5ed02ffb8090240f93ab74ad","64e77d7b61f440b60e28659d","64eca674c978ac79a747388d","null","null","<p style=""font-size: 60px; font-family: BACS"">RlAKcOPE</p>","","","","","","","","",""
"html-keyboard-response","117","214020","0.0-9.0-0.29","5ed02ffb8090240f93ab74ad","64e77d7b61f440b60e28659d","64eca674c978ac79a747388d","null","null","<p style=""font-size: 60px; font-family: BACS"">bcORBYhT</p>","","","","","","","","",""
"html-keyboard-response","118","215023","0.0-9.0-0.30","5ed02ffb8090240f93ab74ad","64e77d7b61f440b60e28659d","64eca674c978ac79a747388d","null","null","<p style=""font-size: 60px; font-family: BACS"">UdumdLaA</p>","","","","","","","","",""
"html-keyboard-response","119","216028","0.0-9.0-0.31","5ed02ffb8090240f93ab74ad","64e77d7b61f440b60e28659d","64eca674c978ac79a747388d","null","null","<p style=""font-size: 60px; font-family: BACS"">CkBOPOPE</p>","","","","","","","","",""
"html-keyboard-response","120","217031","0.0-9.0-0.32","5ed02ffb8090240f93ab74ad","64e77d7b61f440b60e28659d","64eca674c978ac79a747388d","null","null","<p style=""font-size: 60px; font-family: BACS"">NbmQUYZJO</p>","","","","","","","","",""
"html-keyboard-response","121","218033","0.0-9.0-0.33","5ed02ffb8090240f93ab74ad","64e77d7b61f440b60e28659d","64eca674c978ac79a747388d","null","null","<p style=""font-size: 60px; font-family: BACS"">LOLkUNmAG</p>","","","","","","","","",""
"html-keyboard-response","122","219050","0.0-9.0-0.34","5ed02ffb8090240f93ab74ad","64e77d7b61f440b60e28659d","64eca674c978ac79a747388d","null","null","<p style=""font-size: 60px; font-family: BACS"">cROMtCPMl</p>","","","","","","","","",""
"html-keyboard-response","123","220060","0.0-9.0-0.35","5ed02ffb8090240f93ab74ad","64e77d7b61f440b60e28659d","64eca674c978ac79a747388d","null","null","<p style=""font-size: 60px; font-family: BACS"">NbmQULaA</p>","","","","","","","","",""
"html-keyboard-response","124","221070","0.0-9.0-0.36","5ed02ffb8090240f93ab74ad","64e77d7b61f440b60e28659d","64eca674c978ac79a747388d","null","null","<p style=""font-size: 60px; font-family: BACS"">EhbtBYhT</p>","","","","","","","","",""
"html-keyboard-response","125","222072","0.0-9.0-0.37","5ed02ffb8090240f93ab74ad","64e77d7b61f440b60e28659d","64eca674c978ac79a747388d","null","null","<p style=""font-size: 60px; font-family: BACS"">OAblcrkra</p>","","","","","","","","",""
"html-keyboard-response","126","223087","0.0-9.0-0.38","5ed02ffb8090240f93ab74ad","64e77d7b61f440b60e28659d","64eca674c978ac79a747388d","null","null","<p style=""font-size: 60px; font-family: BACS"">UdumdNmAG</p>","","","","","","","","",""
"html-keyboard-response","127","224090","0.0-9.0-0.39","5ed02ffb8090240f93ab74ad","64e77d7b61f440b60e28659d","64eca674c978ac79a747388d","null","null","<p style=""font-size: 60px; font-family: BACS"">bcORdPc</p>","","","","","","","","",""
"html-keyboard-response","128","225093","0.0-9.0-0.40","5ed02ffb8090240f93ab74ad","64e77d7b61f440b60e28659d","64eca674c978ac79a747388d","null","null","<p style=""font-size: 60px; font-family: BACS"">EhbtYDTk</p>","","","","","","","","",""
"html-keyboard-response","129","226106","0.0-9.0-0.41","5ed02ffb8090240f93ab74ad","64e77d7b61f440b60e28659d","64eca674c978ac79a747388d","null","null","<p style=""font-size: 60px; font-family: BACS"">ArQuNmAG</p>","","","","","","","","",""
"html-keyboard-response","130","227120","0.0-9.0-0.42","5ed02ffb8090240f93ab74ad","64e77d7b61f440b60e28659d","64eca674c978ac79a747388d","null","null","<p style=""font-size: 60px; font-family: BACS"">BOCRMdPc</p>","","","","","","","","",""
"html-keyboard-response","131","228124","0.0-9.0-0.43","5ed02ffb8090240f93ab74ad","64e77d7b61f440b60e28659d","64eca674c978ac79a747388d","null","null","<p style=""font-size: 60px; font-family: BACS"">LOLkULaA</p>","","","","","","","","",""
"html-keyboard-response","132","229129","0.0-9.0-0.44","5ed02ffb8090240f93ab74ad","64e77d7b61f440b60e28659d","64eca674c978ac79a747388d","null","null","<p style=""font-size: 60px; font-family: BACS"">Udumdrkra</p>","","","","","","","","",""
"html-keyboard-response","133","230142","0.0-9.0-0.45","5ed02ffb8090240f93ab74ad","64e77d7b61f440b60e28659d","64eca674c978ac79a747388d","null","null","<p style=""font-size: 60px; font-family: BACS"">BOCRMYDTk</p>","","","","","","","","",""
"html-keyboard-response","134","231157","0.0-9.0-0.46","5ed02ffb8090240f93ab74ad","64e77d7b61f440b60e28659d","64eca674c978ac79a747388d","null","null","<p style=""font-size: 60px; font-family: BACS"">cROMtOPE</p>","","","","","","","","",""
"html-keyboard-response","135","232172","0.0-9.0-0.47","5ed02ffb8090240f93ab74ad","64e77d7b61f440b60e28659d","64eca674c978ac79a747388d","null","null","<p style=""font-size: 60px; font-family: BACS"">krGuNmAG</p>","","","","","","","","",""
"html-keyboard-response","136","233183","0.0-9.0-0.48","5ed02ffb8090240f93ab74ad","64e77d7b61f440b60e28659d","64eca674c978ac79a747388d","null","null","<p style=""font-size: 60px; font-family: BACS"">JrGvrkra</p>","","","","","","","","",""
"html-keyboard-response","137","234198","0.0-9.0-0.49","5ed02ffb8090240f93ab74ad","64e77d7b61f440b60e28659d","64eca674c978ac79a747388d","null","null","<p style=""font-size: 60px; font-family: BACS"">OdYPdPc</p>","","","","","","","","",""
"html-keyboard-response","138","235213","0.0-9.0-0.50","5ed02ffb8090240f93ab74ad","64e77d7b61f440b60e28659d","64eca674c978ac79a747388d","null","null","<p style=""font-size: 60px; font-family: BACS"">lkAkNmAG</p>","","","","","","","","",""
"html-keyboard-response","139","236215","0.0-9.0-0.51","5ed02ffb8090240f93ab74ad","64e77d7b61f440b60e28659d","64eca674c978ac79a747388d","null","null","<p style=""font-size: 60px; font-family: BACS"">ArQurkra</p>","","","","","","","","",""
"html-keyboard-response","140","237229","0.0-9.0-0.52","5ed02ffb8090240f93ab74ad","64e77d7b61f440b60e28659d","64eca674c978ac79a747388d","null","null","<p style=""font-size: 60px; font-family: BACS"">OdYPCPMl</p>","","","","","","","","",""
"html-keyboard-response","141","238243","0.0-9.0-0.53","5ed02ffb8090240f93ab74ad","64e77d7b61f440b60e28659d","64eca674c978ac79a747388d","null","null","<p style=""font-size: 60px; font-family: BACS"">RlAKcBYhT</p>","","","","","","","","",""
"html-keyboard-response","142","239245","0.0-9.0-0.54","5ed02ffb8090240f93ab74ad","64e77d7b61f440b60e28659d","64eca674c978ac79a747388d","null","null","<p style=""font-size: 60px; font-family: BACS"">hYDmtCPMl</p>","","","","","","","","",""
"html-keyboard-response","143","240249","0.0-9.0-0.55","5ed02ffb8090240f93ab74ad","64e77d7b61f440b60e28659d","64eca674c978ac79a747388d","null","null","<p style=""font-size: 60px; font-family: BACS"">OAblcNYZu</p>","","","","","","","","",""
"html-keyboard-response","144","241262","0.0-9.0-0.56","5ed02ffb8090240f93ab74ad","64e77d7b61f440b60e28659d","64eca674c978ac79a747388d","null","null","<p style=""font-size: 60px; font-family: BACS"">krGuLaA</p>","","","","","","","","",""
"html-keyboard-response","145","242266","0.0-9.0-0.57","5ed02ffb8090240f93ab74ad","64e77d7b61f440b60e28659d","64eca674c978ac79a747388d","null","null","<p style=""font-size: 60px; font-family: BACS"">CkBOPBYhT</p>","","","","","","","","",""
"html-keyboard-response","146","243280","0.0-9.0-0.58","5ed02ffb8090240f93ab74ad","64e77d7b61f440b60e28659d","64eca674c978ac79a747388d","null","null","<p style=""font-size: 60px; font-family: BACS"">KBKBEYDTk</p>","","","","","","","","",""
"html-keyboard-response","147","244295","0.0-9.0-0.59","5ed02ffb8090240f93ab74ad","64e77d7b61f440b60e28659d","64eca674c978ac79a747388d","null","null","<p style=""font-size: 60px; font-family: BACS"">LOLkUNYZu</p>","","","","","","","","",""
"html-keyboard-response","148","245308","0.0-9.0-0.60","5ed02ffb8090240f93ab74ad","64e77d7b61f440b60e28659d","64eca674c978ac79a747388d","null","null","<p style=""font-size: 60px; font-family: BACS"">OdYPYDTk</p>","","","","","","","","",""
"html-keyboard-response","149","246309","0.0-9.0-0.61","5ed02ffb8090240f93ab74ad","64e77d7b61f440b60e28659d","64eca674c978ac79a747388d","null","null","<p style=""font-size: 60px; font-family: BACS"">lkAkLaA</p>","","","","","","","","",""
"html-keyboard-response","150","247324","0.0-9.0-0.62","5ed02ffb8090240f93ab74ad","64e77d7b61f440b60e28659d","64eca674c978ac79a747388d","null","null","<p style=""font-size: 60px; font-family: BACS"">QLrOJrkra</p>","","","","","","","","",""
"html-keyboard-response","151","248337","0.0-9.0-0.63","5ed02ffb8090240f93ab74ad","64e77d7b61f440b60e28659d","64eca674c978ac79a747388d","null","null","<p style=""font-size: 60px; font-family: BACS"">LOLkUYZJO</p>","","","","","","","","",""
"html-keyboard-response","152","249353","0.0-9.0-0.64","5ed02ffb8090240f93ab74ad","64e77d7b61f440b60e28659d","64eca674c978ac79a747388d","null","null","<p style=""font-size: 60px; font-family: BACS"">OdYPBYhT</p>","","","","","","","","",""
"html-keyboard-response","153","250366","0.0-9.0-0.65","5ed02ffb8090240f93ab74ad","64e77d7b61f440b60e28659d","64eca674c978ac79a747388d","null","null","<p style=""font-size: 60px; font-family: BACS"">KBKBECPMl</p>","","","","","","","","",""
"html-keyboard-response","154","251367","0.0-9.0-0.66","5ed02ffb8090240f93ab74ad","64e77d7b61f440b60e28659d","64eca674c978ac79a747388d","null","null","<p style=""font-size: 60px; font-family: BACS"">BOCRMBYhT</p>","","","","","","","","",""
"html-keyboard-response","155","252369","0.0-9.0-0.67","5ed02ffb8090240f93ab74ad","64e77d7b61f440b60e28659d","64eca674c978ac79a747388d","null","null","<p style=""font-size: 60px; font-family: BACS"">JrGvNYZu</p>","","","","","","","","",""
"html-keyboard-response","156","253372","0.0-9.0-0.68","5ed02ffb8090240f93ab74ad","64e77d7b61f440b60e28659d","64eca674c978ac79a747388d","null","null","<p style=""font-size: 60px; font-family: BACS"">krGurkra</p>","","","","","","","","",""
"html-keyboard-response","157","254385","0.0-9.0-0.69","5ed02ffb8090240f93ab74ad","64e77d7b61f440b60e28659d","64eca674c978ac79a747388d","null","null","<p style=""font-size: 60px; font-family: BACS"">lkAkYZJO</p>","","","","","","","","",""
"html-keyboard-response","158","255397","0.0-9.0-0.70","5ed02ffb8090240f93ab74ad","64e77d7b61f440b60e28659d","64eca674c978ac79a747388d","null","null","<p style=""font-size: 60px; font-family: BACS"">NbmQUrkra</p>","","","","","","","","",""
"html-keyboard-response","159","256411","0.0-9.0-0.71","5ed02ffb8090240f93ab74ad","64e77d7b61f440b60e28659d","64eca674c978ac79a747388d","null","null","<p style=""font-size: 60px; font-family: BACS"">CkBOPYDTk</p>","","","","","","","","",""
"html-keyboard-response","160","257423","0.0-9.0-0.72","5ed02ffb8090240f93ab74ad","64e77d7b61f440b60e28659d","64eca674c978ac79a747388d","null","null","<p style=""font-size: 60px; font-family: BACS"">KBKBEBYhT</p>","","","","","","","","",""
"html-keyboard-response","161","258437","0.0-9.0-0.73","5ed02ffb8090240f93ab74ad","64e77d7b61f440b60e28659d","64eca674c978ac79a747388d","null","null","<p style=""font-size: 60px; font-family: BACS"">krGuYZJO</p>","","","","","","","","",""
"html-keyboard-response","162","259452","0.0-9.0-0.74","5ed02ffb8090240f93ab74ad","64e77d7b61f440b60e28659d","64eca674c978ac79a747388d","null","null","<p style=""font-size: 60px; font-family: BACS"">ArQuLaA</p>","","","","","","","","",""
"html-keyboard-response","163","260464","0.0-9.0-0.75","5ed02ffb8090240f93ab74ad","64e77d7b61f440b60e28659d","64eca674c978ac79a747388d","null","null","<p style=""font-size: 60px; font-family: BACS"">RCcECPMl</p>","","","","","","","","",""
"html-keyboard-response","164","261465","0.0-9.0-0.76","5ed02ffb8090240f93ab74ad","64e77d7b61f440b60e28659d","64eca674c978ac79a747388d","null","null","<p style=""font-size: 60px; font-family: BACS"">bcOROPE</p>","","","","","","","","",""
"html-keyboard-response","165","262480","0.0-9.0-0.77","5ed02ffb8090240f93ab74ad","64e77d7b61f440b60e28659d","64eca674c978ac79a747388d","null","null","<p style=""font-size: 60px; font-family: BACS"">ArQuNYZu</p>","","","","","","","","",""
"html-keyboard-response","166","263494","0.0-9.0-0.78","5ed02ffb8090240f93ab74ad","64e77d7b61f440b60e28659d","64eca674c978ac79a747388d","null","null","<p style=""font-size: 60px; font-family: BACS"">bcORCPMl</p>","","","","","","","","",""
"html-keyboard-response","167","264508","0.0-9.0-0.79","5ed02ffb8090240f93ab74ad","64e77d7b61f440b60e28659d","64eca674c978ac79a747388d","null","null","<p style=""font-size: 60px; font-family: BACS"">OAblcNmAG</p>","","","","","","","","",""
"html-keyboard-response","168","268694","0.0-10.0","5ed02ffb8090240f93ab74ad","64e77d7b61f440b60e28659d","64eca674c978ac79a747388d","4185"," ","<p>Great, you've seen the second block of words. You may now take a short break.</p>
      <p>Press the spacebar when you're ready to continue.</p>","","","","","","","","",""
"html-keyboard-response","169","269698","0.0-11.0-0.0","5ed02ffb8090240f93ab74ad","64e77d7b61f440b60e28659d","64eca674c978ac79a747388d","null","null","<p style=""font-size: 60px; font-family: BACS"">hYDmtBYhT</p>","","","","","","","","",""
"html-keyboard-response","170","270700","0.0-11.0-0.1","5ed02ffb8090240f93ab74ad","64e77d7b61f440b60e28659d","64eca674c978ac79a747388d","null","null","<p style=""font-size: 60px; font-family: BACS"">QLrOJYZJO</p>","","","","","","","","",""
"html-keyboard-response","171","271701","0.0-11.0-0.2","5ed02ffb8090240f93ab74ad","64e77d7b61f440b60e28659d","64eca674c978ac79a747388d","null","null","<p style=""font-size: 60px; font-family: BACS"">UdumdNmAG</p>","","","","","","","","",""
"html-keyboard-response","172","272716","0.0-11.0-0.3","5ed02ffb8090240f93ab74ad","64e77d7b61f440b60e28659d","64eca674c978ac79a747388d","null","null","<p style=""font-size: 60px; font-family: BACS"">OAblcLaA</p>","","","","","","","","",""
"html-keyboard-response","173","273731","0.0-11.0-0.4","5ed02ffb8090240f93ab74ad","64e77d7b61f440b60e28659d","64eca674c978ac79a747388d","null","null","<p style=""font-size: 60px; font-family: BACS"">RlAKcBYhT</p>","","","","","","","","",""
"html-keyboard-response","174","274748","0.0-11.0-0.5","5ed02ffb8090240f93ab74ad","64e77d7b61f440b60e28659d","64eca674c978ac79a747388d","null","null","<p style=""font-size: 60px; font-family: BACS"">NbmQUNYZu</p>","","","","","","","","",""
"html-keyboard-response","175","275764","0.0-11.0-0.6","5ed02ffb8090240f93ab74ad","64e77d7b61f440b60e28659d","64eca674c978ac79a747388d","null","null","<p style=""font-size: 60px; font-family: BACS"">UdumdYZJO</p>","","","","","","","","",""
"html-keyboard-response","176","276779","0.0-11.0-0.7","5ed02ffb8090240f93ab74ad","64e77d7b61f440b60e28659d","64eca674c978ac79a747388d","null","null","<p style=""font-size: 60px; font-family: BACS"">ArQuNmAG</p>","","","","","","","","",""
"html-keyboard-response","177","277792","0.0-11.0-0.8","5ed02ffb8090240f93ab74ad","64e77d7b61f440b60e28659d","64eca674c978ac79a747388d","null","null","<p style=""font-size: 60px; font-family: BACS"">BOCRMOPE</p>","","","","","","","","",""
"html-keyboard-response","178","278797","0.0-11.0-0.9","5ed02ffb8090240f93ab74ad","64e77d7b61f440b60e28659d","64eca674c978ac79a747388d","null","null","<p style=""font-size: 60px; font-family: BACS"">QLrOJNmAG</p>","","","","","","","","",""
"html-keyboard-response","179","279809","0.0-11.0-0.10","5ed02ffb8090240f93ab74ad","64e77d7b61f440b60e28659d","64eca674c978ac79a747388d","null","null","<p style=""font-size: 60px; font-family: BACS"">LOLkUNYZu</p>","","","","","","","","",""
"html-keyboard-response","180","280823","0.0-11.0-0.11","5ed02ffb8090240f93ab74ad","64e77d7b61f440b60e28659d","64eca674c978ac79a747388d","null","null","<p style=""font-size: 60px; font-family: BACS"">BOCRMdPc</p>","","","","","","","","",""
"html-keyboard-response","181","281837","0.0-11.0-0.12","5ed02ffb8090240f93ab74ad","64e77d7b61f440b60e28659d","64eca674c978ac79a747388d","null","null","<p style=""font-size: 60px; font-family: BACS"">JZOAkYZJO</p>","","","","","","","","",""
"html-keyboard-response","182","282839","0.0-11.0-0.13","5ed02ffb8090240f93ab74ad","64e77d7b61f440b60e28659d","64eca674c978ac79a747388d","null","null","<p style=""font-size: 60px; font-family: BACS"">UdumdLaA</p>","","","","","","","","",""
"html-keyboard-response","183","283854","0.0-11.0-0.14","5ed02ffb8090240f93ab74ad","64e77d7b61f440b60e28659d","64eca674c978ac79a747388d","null","null","<p style=""font-size: 60px; font-family: BACS"">OdYPCPMl</p>","","","","","","","","",""
"html-keyboard-response","184","284865","0.0-11.0-0.15","5ed02ffb8090240f93ab74ad","64e77d7b61f440b60e28659d","64eca674c978ac79a747388d","null","null","<p style=""font-size: 60px; font-family: BACS"">ArQuLaA</p>","","","","","","","","",""
"html-keyboard-response","185","285879","0.0-11.0-0.16","5ed02ffb8090240f93ab74ad","64e77d7b61f440b60e28659d","64eca674c978ac79a747388d","null","null","<p style=""font-size: 60px; font-family: BACS"">LOLkUYZJO</p>","","","","","","","","",""
"html-keyboard-response","186","286892","0.0-11.0-0.17","5ed02ffb8090240f93ab74ad","64e77d7b61f440b60e28659d","64eca674c978ac79a747388d","null","null","<p style=""font-size: 60px; font-family: BACS"">JrGvrkra</p>","","","","","","","","",""
"html-keyboard-response","187","287905","0.0-11.0-0.18","5ed02ffb8090240f93ab74ad","64e77d7b61f440b60e28659d","64eca674c978ac79a747388d","null","null","<p style=""font-size: 60px; font-family: BACS"">krGuLaA</p>","","","","","","","","",""
"html-keyboard-response","188","288918","0.0-11.0-0.19","5ed02ffb8090240f93ab74ad","64e77d7b61f440b60e28659d","64eca674c978ac79a747388d","null","null","<p style=""font-size: 60px; font-family: BACS"">NbmQUYZJO</p>","","","","","","","","",""
"html-keyboard-response","189","289932","0.0-11.0-0.20","5ed02ffb8090240f93ab74ad","64e77d7b61f440b60e28659d","64eca674c978ac79a747388d","null","null","<p style=""font-size: 60px; font-family: BACS"">cROMtCPMl</p>","","","","","","","","",""
"html-keyboard-response","190","290943","0.0-11.0-0.21","5ed02ffb8090240f93ab74ad","64e77d7b61f440b60e28659d","64eca674c978ac79a747388d","null","null","<p style=""font-size: 60px; font-family: BACS"">JZOAkrkra</p>","","","","","","","","",""
"html-keyboard-response","191","291948","0.0-11.0-0.22","5ed02ffb8090240f93ab74ad","64e77d7b61f440b60e28659d","64eca674c978ac79a747388d","null","null","<p style=""font-size: 60px; font-family: BACS"">ArQuNYZu</p>","","","","","","","","",""
"html-keyboard-response","192","292951","0.0-11.0-0.23","5ed02ffb8090240f93ab74ad","64e77d7b61f440b60e28659d","64eca674c978ac79a747388d","null","null","<p style=""font-size: 60px; font-family: BACS"">bcORBYhT</p>","","","","","","","","",""
"html-keyboard-response","193","293965","0.0-11.0-0.24","5ed02ffb8090240f93ab74ad","64e77d7b61f440b60e28659d","64eca674c978ac79a747388d","null","null","<p style=""font-size: 60px; font-family: BACS"">lkAkLaA</p>","","","","","","","","",""
"html-keyboard-response","194","294977","0.0-11.0-0.25","5ed02ffb8090240f93ab74ad","64e77d7b61f440b60e28659d","64eca674c978ac79a747388d","null","null","<p style=""font-size: 60px; font-family: BACS"">EhbtBYhT</p>","","","","","","","","",""
"html-keyboard-response","195","295981","0.0-11.0-0.26","5ed02ffb8090240f93ab74ad","64e77d7b61f440b60e28659d","64eca674c978ac79a747388d","null","null","<p style=""font-size: 60px; font-family: BACS"">cROMtYDTk</p>","","","","","","","","",""
"html-keyboard-response","196","296983","0.0-11.0-0.27","5ed02ffb8090240f93ab74ad","64e77d7b61f440b60e28659d","64eca674c978ac79a747388d","null","null","<p style=""font-size: 60px; font-family: BACS"">EhbtdPc</p>","","","","","","","","",""
"html-keyboard-response","197","297996","0.0-11.0-0.28","5ed02ffb8090240f93ab74ad","64e77d7b61f440b60e28659d","64eca674c978ac79a747388d","null","null","<p style=""font-size: 60px; font-family: BACS"">krGuNmAG</p>","","","","","","","","",""
"html-keyboard-response","198","299011","0.0-11.0-0.29","5ed02ffb8090240f93ab74ad","64e77d7b61f440b60e28659d","64eca674c978ac79a747388d","null","null","<p style=""font-size: 60px; font-family: BACS"">QLrOJrkra</p>","","","","","","","","",""
"html-keyboard-response","199","300026","0.0-11.0-0.30","5ed02ffb8090240f93ab74ad","64e77d7b61f440b60e28659d","64eca674c978ac79a747388d","null","null","<p style=""font-size: 60px; font-family: BACS"">OAblcNYZu</p>","","","","","","","","",""
"html-keyboard-response","200","301038","0.0-11.0-0.31","5ed02ffb8090240f93ab74ad","64e77d7b61f440b60e28659d","64eca674c978ac79a747388d","null","null","<p style=""font-size: 60px; font-family: BACS"">LOLkULaA</p>","","","","","","","","",""
"html-keyboard-response","201","302039","0.0-11.0-0.32","5ed02ffb8090240f93ab74ad","64e77d7b61f440b60e28659d","64eca674c978ac79a747388d","null","null","<p style=""font-size: 60px; font-family: BACS"">RCcECPMl</p>","","","","","","","","",""
"html-keyboard-response","202","303048","0.0-11.0-0.33","5ed02ffb8090240f93ab74ad","64e77d7b61f440b60e28659d","64eca674c978ac79a747388d","null","null","<p style=""font-size: 60px; font-family: BACS"">CkBOPYDTk</p>","","","","","","","","",""
"html-keyboard-response","203","304062","0.0-11.0-0.34","5ed02ffb8090240f93ab74ad","64e77d7b61f440b60e28659d","64eca674c978ac79a747388d","null","null","<p style=""font-size: 60px; font-family: BACS"">OAblcNmAG</p>","","","","","","","","",""
"html-keyboard-response","204","305076","0.0-11.0-0.35","5ed02ffb8090240f93ab74ad","64e77d7b61f440b60e28659d","64eca674c978ac79a747388d","null","null","<p style=""font-size: 60px; font-family: BACS"">CkBOPdPc</p>","","","","","","","","",""
"html-keyboard-response","205","306088","0.0-11.0-0.36","5ed02ffb8090240f93ab74ad","64e77d7b61f440b60e28659d","64eca674c978ac79a747388d","null","null","<p style=""font-size: 60px; font-family: BACS"">Udumdrkra</p>","","","","","","","","",""
"html-keyboard-response","206","307103","0.0-11.0-0.37","5ed02ffb8090240f93ab74ad","64e77d7b61f440b60e28659d","64eca674c978ac79a747388d","null","null","<p style=""font-size: 60px; font-family: BACS"">KBKBEOPE</p>","","","","","","","","",""
"html-keyboard-response","207","308116","0.0-11.0-0.38","5ed02ffb8090240f93ab74ad","64e77d7b61f440b60e28659d","64eca674c978ac79a747388d","null","null","<p style=""font-size: 60px; font-family: BACS"">JrGvNmAG</p>","","","","","","","","",""
"html-keyboard-response","208","309132","0.0-11.0-0.39","5ed02ffb8090240f93ab74ad","64e77d7b61f440b60e28659d","64eca674c978ac79a747388d","null","null","<p style=""font-size: 60px; font-family: BACS"">KBKBEYDTk</p>","","","","","","","","",""
"html-keyboard-response","209","310144","0.0-11.0-0.40","5ed02ffb8090240f93ab74ad","64e77d7b61f440b60e28659d","64eca674c978ac79a747388d","null","null","<p style=""font-size: 60px; font-family: BACS"">RCcEdPc</p>","","","","","","","","",""
"html-keyboard-response","210","311159","0.0-11.0-0.41","5ed02ffb8090240f93ab74ad","64e77d7b61f440b60e28659d","64eca674c978ac79a747388d","null","null","<p style=""font-size: 60px; font-family: BACS"">EhbtYDTk</p>","","","","","","","","",""
"html-keyboard-response","211","312172","0.0-11.0-0.42","5ed02ffb8090240f93ab74ad","64e77d7b61f440b60e28659d","64eca674c978ac79a747388d","null","null","<p style=""font-size: 60px; font-family: BACS"">cROMtdPc</p>","","","","","","","","",""
"html-keyboard-response","212","313184","0.0-11.0-0.43","5ed02ffb8090240f93ab74ad","64e77d7b61f440b60e28659d","64eca674c978ac79a747388d","null","null","<p style=""font-size: 60px; font-family: BACS"">OdYPYDTk</p>","","","","","","","","",""
"html-keyboard-response","213","314188","0.0-11.0-0.44","5ed02ffb8090240f93ab74ad","64e77d7b61f440b60e28659d","64eca674c978ac79a747388d","null","null","<p style=""font-size: 60px; font-family: BACS"">JZOAkNYZu</p>","","","","","","","","",""
"html-keyboard-response","214","315199","0.0-11.0-0.45","5ed02ffb8090240f93ab74ad","64e77d7b61f440b60e28659d","64eca674c978ac79a747388d","null","null","<p style=""font-size: 60px; font-family: BACS"">RCcEOPE</p>","","","","","","","","",""
"html-keyboard-response","215","316205","0.0-11.0-0.46","5ed02ffb8090240f93ab74ad","64e77d7b61f440b60e28659d","64eca674c978ac79a747388d","null","null","<p style=""font-size: 60px; font-family: BACS"">RlAKcdPc</p>","","","","","","","","",""
"html-keyboard-response","216","317215","0.0-11.0-0.47","5ed02ffb8090240f93ab74ad","64e77d7b61f440b60e28659d","64eca674c978ac79a747388d","null","null","<p style=""font-size: 60px; font-family: BACS"">OdYPBYhT</p>","","","","","","","","",""
"html-keyboard-response","217","318231","0.0-11.0-0.48","5ed02ffb8090240f93ab74ad","64e77d7b61f440b60e28659d","64eca674c978ac79a747388d","null","null","<p style=""font-size: 60px; font-family: BACS"">krGuYZJO</p>","","","","","","","","",""
"html-keyboard-response","218","319232","0.0-11.0-0.49","5ed02ffb8090240f93ab74ad","64e77d7b61f440b60e28659d","64eca674c978ac79a747388d","null","null","<p style=""font-size: 60px; font-family: BACS"">hYDmtYDTk</p>","","","","","","","","",""
"html-keyboard-response","219","320237","0.0-11.0-0.50","5ed02ffb8090240f93ab74ad","64e77d7b61f440b60e28659d","64eca674c978ac79a747388d","null","null","<p style=""font-size: 60px; font-family: BACS"">bcOROPE</p>","","","","","","","","",""
"html-keyboard-response","220","321252","0.0-11.0-0.51","5ed02ffb8090240f93ab74ad","64e77d7b61f440b60e28659d","64eca674c978ac79a747388d","null","null","<p style=""font-size: 60px; font-family: BACS"">NbmQULaA</p>","","","","","","","","",""
"html-keyboard-response","221","322266","0.0-11.0-0.52","5ed02ffb8090240f93ab74ad","64e77d7b61f440b60e28659d","64eca674c978ac79a747388d","null","null","<p style=""font-size: 60px; font-family: BACS"">CkBOPOPE</p>","","","","","","","","",""
"html-keyboard-response","222","323279","0.0-11.0-0.53","5ed02ffb8090240f93ab74ad","64e77d7b61f440b60e28659d","64eca674c978ac79a747388d","null","null","<p style=""font-size: 60px; font-family: BACS"">bcORdPc</p>","","","","","","","","",""
"html-keyboard-response","223","324280","0.0-11.0-0.54","5ed02ffb8090240f93ab74ad","64e77d7b61f440b60e28659d","64eca674c978ac79a747388d","null","null","<p style=""font-size: 60px; font-family: BACS"">CkBOPBYhT</p>","","","","","","","","",""
"html-keyboard-response","224","325289","0.0-11.0-0.55","5ed02ffb8090240f93ab74ad","64e77d7b61f440b60e28659d","64eca674c978ac79a747388d","null","null","<p style=""font-size: 60px; font-family: BACS"">RCcEYDTk</p>","","","","","","","","",""
"html-keyboard-response","225","326294","0.0-11.0-0.56","5ed02ffb8090240f93ab74ad","64e77d7b61f440b60e28659d","64eca674c978ac79a747388d","null","null","<p style=""font-size: 60px; font-family: BACS"">KBKBECPMl</p>","","","","","","","","",""
"html-keyboard-response","226","327306","0.0-11.0-0.57","5ed02ffb8090240f93ab74ad","64e77d7b61f440b60e28659d","64eca674c978ac79a747388d","null","null","<p style=""font-size: 60px; font-family: BACS"">JrGvYZJO</p>","","","","","","","","",""
"html-keyboard-response","227","328318","0.0-11.0-0.58","5ed02ffb8090240f93ab74ad","64e77d7b61f440b60e28659d","64eca674c978ac79a747388d","null","null","<p style=""font-size: 60px; font-family: BACS"">EhbtCPMl</p>","","","","","","","","",""
"html-keyboard-response","228","329320","0.0-11.0-0.59","5ed02ffb8090240f93ab74ad","64e77d7b61f440b60e28659d","64eca674c978ac79a747388d","null","null","<p style=""font-size: 60px; font-family: BACS"">lkAkNYZu</p>","","","","","","","","",""
"html-keyboard-response","229","330335","0.0-11.0-0.60","5ed02ffb8090240f93ab74ad","64e77d7b61f440b60e28659d","64eca674c978ac79a747388d","null","null","<p style=""font-size: 60px; font-family: BACS"">BOCRMYDTk</p>","","","","","","","","",""
"html-keyboard-response","230","331341","0.0-11.0-0.61","5ed02ffb8090240f93ab74ad","64e77d7b61f440b60e28659d","64eca674c978ac79a747388d","null","null","<p style=""font-size: 60px; font-family: BACS"">lkAkYZJO</p>","","","","","","","","",""
"html-keyboard-response","231","332356","0.0-11.0-0.62","5ed02ffb8090240f93ab74ad","64e77d7b61f440b60e28659d","64eca674c978ac79a747388d","null","null","<p style=""font-size: 60px; font-family: BACS"">RlAKcOPE</p>","","","","","","","","",""
"html-keyboard-response","232","333373","0.0-11.0-0.63","5ed02ffb8090240f93ab74ad","64e77d7b61f440b60e28659d","64eca674c978ac79a747388d","null","null","<p style=""font-size: 60px; font-family: BACS"">lkAkNmAG</p>","","","","","","","","",""
"html-keyboard-response","233","334386","0.0-11.0-0.64","5ed02ffb8090240f93ab74ad","64e77d7b61f440b60e28659d","64eca674c978ac79a747388d","null","null","<p style=""font-size: 60px; font-family: BACS"">BOCRMBYhT</p>","","","","","","","","",""
"html-keyboard-response","234","335401","0.0-11.0-0.65","5ed02ffb8090240f93ab74ad","64e77d7b61f440b60e28659d","64eca674c978ac79a747388d","null","null","<p style=""font-size: 60px; font-family: BACS"">hYDmtOPE</p>","","","","","","","","",""
"html-keyboard-response","235","336416","0.0-11.0-0.66","5ed02ffb8090240f93ab74ad","64e77d7b61f440b60e28659d","64eca674c978ac79a747388d","null","null","<p style=""font-size: 60px; font-family: BACS"">JrGvNYZu</p>","","","","","","","","",""
"html-keyboard-response","236","337421","0.0-11.0-0.67","5ed02ffb8090240f93ab74ad","64e77d7b61f440b60e28659d","64eca674c978ac79a747388d","null","null","<p style=""font-size: 60px; font-family: BACS"">cROMtOPE</p>","","","","","","","","",""
"html-keyboard-response","237","338433","0.0-11.0-0.68","5ed02ffb8090240f93ab74ad","64e77d7b61f440b60e28659d","64eca674c978ac79a747388d","null","null","<p style=""font-size: 60px; font-family: BACS"">bcORCPMl</p>","","","","","","","","",""
"html-keyboard-response","238","339442","0.0-11.0-0.69","5ed02ffb8090240f93ab74ad","64e77d7b61f440b60e28659d","64eca674c978ac79a747388d","null","null","<p style=""font-size: 60px; font-family: BACS"">ArQurkra</p>","","","","","","","","",""
"html-keyboard-response","239","340445","0.0-11.0-0.70","5ed02ffb8090240f93ab74ad","64e77d7b61f440b60e28659d","64eca674c978ac79a747388d","null","null","<p style=""font-size: 60px; font-family: BACS"">KBKBEBYhT</p>","","","","","","","","",""
"html-keyboard-response","240","341457","0.0-11.0-0.71","5ed02ffb8090240f93ab74ad","64e77d7b61f440b60e28659d","64eca674c978ac79a747388d","null","null","<p style=""font-size: 60px; font-family: BACS"">hYDmtCPMl</p>","","","","","","","","",""
"html-keyboard-response","241","342471","0.0-11.0-0.72","5ed02ffb8090240f93ab74ad","64e77d7b61f440b60e28659d","64eca674c978ac79a747388d","null","null","<p style=""font-size: 60px; font-family: BACS"">QLrOJNYZu</p>","","","","","","","","",""
"html-keyboard-response","242","343486","0.0-11.0-0.73","5ed02ffb8090240f93ab74ad","64e77d7b61f440b60e28659d","64eca674c978ac79a747388d","null","null","<p style=""font-size: 60px; font-family: BACS"">NbmQUrkra</p>","","","","","","","","",""
"html-keyboard-response","243","344501","0.0-11.0-0.74","5ed02ffb8090240f93ab74ad","64e77d7b61f440b60e28659d","64eca674c978ac79a747388d","null","null","<p style=""font-size: 60px; font-family: BACS"">OdYPdPc</p>","","","","","","","","",""
"html-keyboard-response","244","345502","0.0-11.0-0.75","5ed02ffb8090240f93ab74ad","64e77d7b61f440b60e28659d","64eca674c978ac79a747388d","null","null","<p style=""font-size: 60px; font-family: BACS"">OAblcrkra</p>","","","","","","","","",""
"html-keyboard-response","245","346513","0.0-11.0-0.76","5ed02ffb8090240f93ab74ad","64e77d7b61f440b60e28659d","64eca674c978ac79a747388d","null","null","<p style=""font-size: 60px; font-family: BACS"">RlAKcCPMl</p>","","","","","","","","",""
"html-keyboard-response","246","347529","0.0-11.0-0.77","5ed02ffb8090240f93ab74ad","64e77d7b61f440b60e28659d","64eca674c978ac79a747388d","null","null","<p style=""font-size: 60px; font-family: BACS"">krGurkra</p>","","","","","","","","",""
"html-keyboard-response","247","348531","0.0-11.0-0.78","5ed02ffb8090240f93ab74ad","64e77d7b61f440b60e28659d","64eca674c978ac79a747388d","null","null","<p style=""font-size: 60px; font-family: BACS"">LOLkUNmAG</p>","","","","","","","","",""
"html-keyboard-response","248","349533","0.0-11.0-0.79","5ed02ffb8090240f93ab74ad","64e77d7b61f440b60e28659d","64eca674c978ac79a747388d","null","null","<p style=""font-size: 60px; font-family: BACS"">JZOAkLaA</p>","","","","","","","","",""
"html-keyboard-response","249","354656","0.0-12.0","5ed02ffb8090240f93ab74ad","64e77d7b61f440b60e28659d","64eca674c978ac79a747388d","5123"," ","<p>Great, you've seen the third block of words. You may now take a short break.</p>
      <p>Press the spacebar when you're ready to continue.</p>","","","","","","","","",""
"html-keyboard-response","250","355672","0.0-13.0-0.0","5ed02ffb8090240f93ab74ad","64e77d7b61f440b60e28659d","64eca674c978ac79a747388d","null","null","<p style=""font-size: 60px; font-family: BACS"">cROMtdPc</p>","","","","","","","","",""
"html-keyboard-response","251","356684","0.0-13.0-0.1","5ed02ffb8090240f93ab74ad","64e77d7b61f440b60e28659d","64eca674c978ac79a747388d","null","null","<p style=""font-size: 60px; font-family: BACS"">RlAKcBYhT</p>","","","","","","","","",""
"html-keyboard-response","252","357698","0.0-13.0-0.2","5ed02ffb8090240f93ab74ad","64e77d7b61f440b60e28659d","64eca674c978ac79a747388d","null","null","<p style=""font-size: 60px; font-family: BACS"">cROMtCPMl</p>","","","","","","","","",""
"html-keyboard-response","253","358714","0.0-13.0-0.3","5ed02ffb8090240f93ab74ad","64e77d7b61f440b60e28659d","64eca674c978ac79a747388d","null","null","<p style=""font-size: 60px; font-family: BACS"">QLrOJNYZu</p>","","","","","","","","",""
"html-keyboard-response","254","359727","0.0-13.0-0.4","5ed02ffb8090240f93ab74ad","64e77d7b61f440b60e28659d","64eca674c978ac79a747388d","null","null","<p style=""font-size: 60px; font-family: BACS"">lkAkYZJO</p>","","","","","","","","",""
"html-keyboard-response","255","360730","0.0-13.0-0.5","5ed02ffb8090240f93ab74ad","64e77d7b61f440b60e28659d","64eca674c978ac79a747388d","null","null","<p style=""font-size: 60px; font-family: BACS"">KBKBEOPE</p>","","","","","","","","",""
"html-keyboard-response","256","361744","0.0-13.0-0.6","5ed02ffb8090240f93ab74ad","64e77d7b61f440b60e28659d","64eca674c978ac79a747388d","null","null","<p style=""font-size: 60px; font-family: BACS"">lkAkNYZu</p>","","","","","","","","",""
"html-keyboard-response","257","362760","0.0-13.0-0.7","5ed02ffb8090240f93ab74ad","64e77d7b61f440b60e28659d","64eca674c978ac79a747388d","null","null","<p style=""font-size: 60px; font-family: BACS"">CkBOPOPE</p>","","","","","","","","",""
"html-keyboard-response","258","363773","0.0-13.0-0.8","5ed02ffb8090240f93ab74ad","64e77d7b61f440b60e28659d","64eca674c978ac79a747388d","null","null","<p style=""font-size: 60px; font-family: BACS"">QLrOJYZJO</p>","","","","","","","","",""
"html-keyboard-response","259","364780","0.0-13.0-0.9","5ed02ffb8090240f93ab74ad","64e77d7b61f440b60e28659d","64eca674c978ac79a747388d","null","null","<p style=""font-size: 60px; font-family: BACS"">lkAkLaA</p>","","","","","","","","",""
"html-keyboard-response","260","365794","0.0-13.0-0.10","5ed02ffb8090240f93ab74ad","64e77d7b61f440b60e28659d","64eca674c978ac79a747388d","null","null","<p style=""font-size: 60px; font-family: BACS"">bcORdPc</p>","","","","","","","","",""
"html-keyboard-response","261","366808","0.0-13.0-0.11","5ed02ffb8090240f93ab74ad","64e77d7b61f440b60e28659d","64eca674c978ac79a747388d","null","null","<p style=""font-size: 60px; font-family: BACS"">OAblcNYZu</p>","","","","","","","","",""
"html-keyboard-response","262","367821","0.0-13.0-0.12","5ed02ffb8090240f93ab74ad","64e77d7b61f440b60e28659d","64eca674c978ac79a747388d","null","null","<p style=""font-size: 60px; font-family: BACS"">krGurkra</p>","","","","","","","","",""
"html-keyboard-response","263","368835","0.0-13.0-0.13","5ed02ffb8090240f93ab74ad","64e77d7b61f440b60e28659d","64eca674c978ac79a747388d","null","null","<p style=""font-size: 60px; font-family: BACS"">UdumdNmAG</p>","","","","","","","","",""
"html-keyboard-response","264","369848","0.0-13.0-0.14","5ed02ffb8090240f93ab74ad","64e77d7b61f440b60e28659d","64eca674c978ac79a747388d","null","null","<p style=""font-size: 60px; font-family: BACS"">ArQuNYZu</p>","","","","","","","","",""
"html-keyboard-response","265","370864","0.0-13.0-0.15","5ed02ffb8090240f93ab74ad","64e77d7b61f440b60e28659d","64eca674c978ac79a747388d","null","null","<p style=""font-size: 60px; font-family: BACS"">JZOAkYZJO</p>","","","","","","","","",""
"html-keyboard-response","266","371867","0.0-13.0-0.16","5ed02ffb8090240f93ab74ad","64e77d7b61f440b60e28659d","64eca674c978ac79a747388d","null","null","<p style=""font-size: 60px; font-family: BACS"">BOCRMOPE</p>","","","","","","","","",""
"html-keyboard-response","267","372879","0.0-13.0-0.17","5ed02ffb8090240f93ab74ad","64e77d7b61f440b60e28659d","64eca674c978ac79a747388d","null","null","<p style=""font-size: 60px; font-family: BACS"">JrGvrkra</p>","","","","","","","","",""
"html-keyboard-response","268","373891","0.0-13.0-0.18","5ed02ffb8090240f93ab74ad","64e77d7b61f440b60e28659d","64eca674c978ac79a747388d","null","null","<p style=""font-size: 60px; font-family: BACS"">JZOAkNYZu</p>","","","","","","","","",""
"html-keyboard-response","269","374905","0.0-13.0-0.19","5ed02ffb8090240f93ab74ad","64e77d7b61f440b60e28659d","64eca674c978ac79a747388d","null","null","<p style=""font-size: 60px; font-family: BACS"">EhbtYDTk</p>","","","","","","","","",""
"html-keyboard-response","270","375918","0.0-13.0-0.20","5ed02ffb8090240f93ab74ad","64e77d7b61f440b60e28659d","64eca674c978ac79a747388d","null","null","<p style=""font-size: 60px; font-family: BACS"">JZOAkLaA</p>","","","","","","","","",""
"html-keyboard-response","271","376923","0.0-13.0-0.21","5ed02ffb8090240f93ab74ad","64e77d7b61f440b60e28659d","64eca674c978ac79a747388d","null","null","<p style=""font-size: 60px; font-family: BACS"">lkAkNmAG</p>","","","","","","","","",""
"html-keyboard-response","272","377934","0.0-13.0-0.22","5ed02ffb8090240f93ab74ad","64e77d7b61f440b60e28659d","64eca674c978ac79a747388d","null","null","<p style=""font-size: 60px; font-family: BACS"">ArQuLaA</p>","","","","","","","","",""
"html-keyboard-response","273","378941","0.0-13.0-0.23","5ed02ffb8090240f93ab74ad","64e77d7b61f440b60e28659d","64eca674c978ac79a747388d","null","null","<p style=""font-size: 60px; font-family: BACS"">BOCRMBYhT</p>","","","","","","","","",""
"html-keyboard-response","274","379952","0.0-13.0-0.24","5ed02ffb8090240f93ab74ad","64e77d7b61f440b60e28659d","64eca674c978ac79a747388d","null","null","<p style=""font-size: 60px; font-family: BACS"">CkBOPYDTk</p>","","","","","","","","",""
"html-keyboard-response","275","380956","0.0-13.0-0.25","5ed02ffb8090240f93ab74ad","64e77d7b61f440b60e28659d","64eca674c978ac79a747388d","null","null","<p style=""font-size: 60px; font-family: BACS"">bcORCPMl</p>","","","","","","","","",""
"html-keyboard-response","276","381970","0.0-13.0-0.26","5ed02ffb8090240f93ab74ad","64e77d7b61f440b60e28659d","64eca674c978ac79a747388d","null","null","<p style=""font-size: 60px; font-family: BACS"">hYDmtYDTk</p>","","","","","","","","",""
"html-keyboard-response","277","382973","0.0-13.0-0.27","5ed02ffb8090240f93ab74ad","64e77d7b61f440b60e28659d","64eca674c978ac79a747388d","null","null","<p style=""font-size: 60px; font-family: BACS"">krGuLaA</p>","","","","","","","","",""
"html-keyboard-response","278","383978","0.0-13.0-0.28","5ed02ffb8090240f93ab74ad","64e77d7b61f440b60e28659d","64eca674c978ac79a747388d","null","null","<p style=""font-size: 60px; font-family: BACS"">CkBOPBYhT</p>","","","","","","","","",""
"html-keyboard-response","279","384994","0.0-13.0-0.29","5ed02ffb8090240f93ab74ad","64e77d7b61f440b60e28659d","64eca674c978ac79a747388d","null","null","<p style=""font-size: 60px; font-family: BACS"">EhbtdPc</p>","","","","","","","","",""
"html-keyboard-response","280","385998","0.0-13.0-0.30","5ed02ffb8090240f93ab74ad","64e77d7b61f440b60e28659d","64eca674c978ac79a747388d","null","null","<p style=""font-size: 60px; font-family: BACS"">krGuNmAG</p>","","","","","","","","",""
"html-keyboard-response","281","387009","0.0-13.0-0.31","5ed02ffb8090240f93ab74ad","64e77d7b61f440b60e28659d","64eca674c978ac79a747388d","null","null","<p style=""font-size: 60px; font-family: BACS"">RlAKcCPMl</p>","","","","","","","","",""
"html-keyboard-response","282","388011","0.0-13.0-0.32","5ed02ffb8090240f93ab74ad","64e77d7b61f440b60e28659d","64eca674c978ac79a747388d","null","null","<p style=""font-size: 60px; font-family: BACS"">bcORBYhT</p>","","","","","","","","",""
"html-keyboard-response","283","389022","0.0-13.0-0.33","5ed02ffb8090240f93ab74ad","64e77d7b61f440b60e28659d","64eca674c978ac79a747388d","null","null","<p style=""font-size: 60px; font-family: BACS"">LOLkUNmAG</p>","","","","","","","","",""
"html-keyboard-response","284","390024","0.0-13.0-0.34","5ed02ffb8090240f93ab74ad","64e77d7b61f440b60e28659d","64eca674c978ac79a747388d","null","null","<p style=""font-size: 60px; font-family: BACS"">cROMtOPE</p>","","","","","","","","",""
"html-keyboard-response","285","391026","0.0-13.0-0.35","5ed02ffb8090240f93ab74ad","64e77d7b61f440b60e28659d","64eca674c978ac79a747388d","null","null","<p style=""font-size: 60px; font-family: BACS"">JrGvNYZu</p>","","","","","","","","",""
"html-keyboard-response","286","392028","0.0-13.0-0.36","5ed02ffb8090240f93ab74ad","64e77d7b61f440b60e28659d","64eca674c978ac79a747388d","null","null","<p style=""font-size: 60px; font-family: BACS"">RCcEdPc</p>","","","","","","","","",""
"html-keyboard-response","287","393044","0.0-13.0-0.37","5ed02ffb8090240f93ab74ad","64e77d7b61f440b60e28659d","64eca674c978ac79a747388d","null","null","<p style=""font-size: 60px; font-family: BACS"">ArQuNmAG</p>","","","","","","","","",""
"html-keyboard-response","288","394060","0.0-13.0-0.38","5ed02ffb8090240f93ab74ad","64e77d7b61f440b60e28659d","64eca674c978ac79a747388d","null","null","<p style=""font-size: 60px; font-family: BACS"">OAblcrkra</p>","","","","","","","","",""
"html-keyboard-response","289","395074","0.0-13.0-0.39","5ed02ffb8090240f93ab74ad","64e77d7b61f440b60e28659d","64eca674c978ac79a747388d","null","null","<p style=""font-size: 60px; font-family: BACS"">hYDmtBYhT</p>","","","","","","","","",""
"html-keyboard-response","290","396090","0.0-13.0-0.40","5ed02ffb8090240f93ab74ad","64e77d7b61f440b60e28659d","64eca674c978ac79a747388d","null","null","<p style=""font-size: 60px; font-family: BACS"">EhbtCPMl</p>","","","","","","","","",""
"html-keyboard-response","291","397091","0.0-13.0-0.41","5ed02ffb8090240f93ab74ad","64e77d7b61f440b60e28659d","64eca674c978ac79a747388d","null","null","<p style=""font-size: 60px; font-family: BACS"">OAblcNmAG</p>","","","","","","","","",""
"html-keyboard-response","292","398107","0.0-13.0-0.42","5ed02ffb8090240f93ab74ad","64e77d7b61f440b60e28659d","64eca674c978ac79a747388d","null","null","<p style=""font-size: 60px; font-family: BACS"">hYDmtCPMl</p>","","","","","","","","",""
"html-keyboard-response","293","399119","0.0-13.0-0.43","5ed02ffb8090240f93ab74ad","64e77d7b61f440b60e28659d","64eca674c978ac79a747388d","null","null","<p style=""font-size: 60px; font-family: BACS"">KBKBEYDTk</p>","","","","","","","","",""
"html-keyboard-response","294","400134","0.0-13.0-0.44","5ed02ffb8090240f93ab74ad","64e77d7b61f440b60e28659d","64eca674c978ac79a747388d","null","null","<p style=""font-size: 60px; font-family: BACS"">JrGvNmAG</p>","","","","","","","","",""
"html-keyboard-response","295","401148","0.0-13.0-0.45","5ed02ffb8090240f93ab74ad","64e77d7b61f440b60e28659d","64eca674c978ac79a747388d","null","null","<p style=""font-size: 60px; font-family: BACS"">RCcEYDTk</p>","","","","","","","","",""
"html-keyboard-response","296","402159","0.0-13.0-0.46","5ed02ffb8090240f93ab74ad","64e77d7b61f440b60e28659d","64eca674c978ac79a747388d","null","null","<p style=""font-size: 60px; font-family: BACS"">RlAKcdPc</p>","","","","","","","","",""
"html-keyboard-response","297","403161","0.0-13.0-0.47","5ed02ffb8090240f93ab74ad","64e77d7b61f440b60e28659d","64eca674c978ac79a747388d","null","null","<p style=""font-size: 60px; font-family: BACS"">OdYPYDTk</p>","","","","","","","","",""
"html-keyboard-response","298","404176","0.0-13.0-0.48","5ed02ffb8090240f93ab74ad","64e77d7b61f440b60e28659d","64eca674c978ac79a747388d","null","null","<p style=""font-size: 60px; font-family: BACS"">QLrOJrkra</p>","","","","","","","","",""
"html-keyboard-response","299","405181","0.0-13.0-0.49","5ed02ffb8090240f93ab74ad","64e77d7b61f440b60e28659d","64eca674c978ac79a747388d","null","null","<p style=""font-size: 60px; font-family: BACS"">KBKBECPMl</p>","","","","","","","","",""
"html-keyboard-response","300","406195","0.0-13.0-0.50","5ed02ffb8090240f93ab74ad","64e77d7b61f440b60e28659d","64eca674c978ac79a747388d","null","null","<p style=""font-size: 60px; font-family: BACS"">LOLkUNYZu</p>","","","","","","","","",""
"html-keyboard-response","301","407198","0.0-13.0-0.51","5ed02ffb8090240f93ab74ad","64e77d7b61f440b60e28659d","64eca674c978ac79a747388d","null","null","<p style=""font-size: 60px; font-family: BACS"">RlAKcOPE</p>","","","","","","","","",""
"html-keyboard-response","302","408200","0.0-13.0-0.52","5ed02ffb8090240f93ab74ad","64e77d7b61f440b60e28659d","64eca674c978ac79a747388d","null","null","<p style=""font-size: 60px; font-family: BACS"">ArQurkra</p>","","","","","","","","",""
"html-keyboard-response","303","409214","0.0-13.0-0.53","5ed02ffb8090240f93ab74ad","64e77d7b61f440b60e28659d","64eca674c978ac79a747388d","null","null","<p style=""font-size: 60px; font-family: BACS"">OdYPBYhT</p>","","","","","","","","",""
"html-keyboard-response","304","410221","0.0-13.0-0.54","5ed02ffb8090240f93ab74ad","64e77d7b61f440b60e28659d","64eca674c978ac79a747388d","null","null","<p style=""font-size: 60px; font-family: BACS"">OAblcLaA</p>","","","","","","","","",""
"html-keyboard-response","305","411234","0.0-13.0-0.55","5ed02ffb8090240f93ab74ad","64e77d7b61f440b60e28659d","64eca674c978ac79a747388d","null","null","<p style=""font-size: 60px; font-family: BACS"">JrGvYZJO</p>","","","","","","","","",""
"html-keyboard-response","306","412246","0.0-13.0-0.56","5ed02ffb8090240f93ab74ad","64e77d7b61f440b60e28659d","64eca674c978ac79a747388d","null","null","<p style=""font-size: 60px; font-family: BACS"">NbmQUNYZu</p>","","","","","","","","",""
"html-keyboard-response","307","413261","0.0-13.0-0.57","5ed02ffb8090240f93ab74ad","64e77d7b61f440b60e28659d","64eca674c978ac79a747388d","null","null","<p style=""font-size: 60px; font-family: BACS"">CkBOPdPc</p>","","","","","","","","",""
"html-keyboard-response","308","414276","0.0-13.0-0.58","5ed02ffb8090240f93ab74ad","64e77d7b61f440b60e28659d","64eca674c978ac79a747388d","null","null","<p style=""font-size: 60px; font-family: BACS"">QLrOJNmAG</p>","","","","","","","","",""
"html-keyboard-response","309","415276","0.0-13.0-0.59","5ed02ffb8090240f93ab74ad","64e77d7b61f440b60e28659d","64eca674c978ac79a747388d","null","null","<p style=""font-size: 60px; font-family: BACS"">hYDmtOPE</p>","","","","","","","","",""
"html-keyboard-response","310","416291","0.0-13.0-0.60","5ed02ffb8090240f93ab74ad","64e77d7b61f440b60e28659d","64eca674c978ac79a747388d","null","null","<p style=""font-size: 60px; font-family: BACS"">OdYPdPc</p>","","","","","","","","",""
"html-keyboard-response","311","417300","0.0-13.0-0.61","5ed02ffb8090240f93ab74ad","64e77d7b61f440b60e28659d","64eca674c978ac79a747388d","null","null","<p style=""font-size: 60px; font-family: BACS"">JZOAkrkra</p>","","","","","","","","",""
"html-keyboard-response","312","418314","0.0-13.0-0.62","5ed02ffb8090240f93ab74ad","64e77d7b61f440b60e28659d","64eca674c978ac79a747388d","null","null","<p style=""font-size: 60px; font-family: BACS"">krGuYZJO</p>","","","","","","","","",""
"html-keyboard-response","313","419324","0.0-13.0-0.63","5ed02ffb8090240f93ab74ad","64e77d7b61f440b60e28659d","64eca674c978ac79a747388d","null","null","<p style=""font-size: 60px; font-family: BACS"">UdumdLaA</p>","","","","","","","","",""
"html-keyboard-response","314","420333","0.0-13.0-0.64","5ed02ffb8090240f93ab74ad","64e77d7b61f440b60e28659d","64eca674c978ac79a747388d","null","null","<p style=""font-size: 60px; font-family: BACS"">KBKBEBYhT</p>","","","","","","","","",""
"html-keyboard-response","315","421336","0.0-13.0-0.65","5ed02ffb8090240f93ab74ad","64e77d7b61f440b60e28659d","64eca674c978ac79a747388d","null","null","<p style=""font-size: 60px; font-family: BACS"">RCcECPMl</p>","","","","","","","","",""
"html-keyboard-response","316","422352","0.0-13.0-0.66","5ed02ffb8090240f93ab74ad","64e77d7b61f440b60e28659d","64eca674c978ac79a747388d","null","null","<p style=""font-size: 60px; font-family: BACS"">BOCRMYDTk</p>","","","","","","","","",""
"html-keyboard-response","317","423358","0.0-13.0-0.67","5ed02ffb8090240f93ab74ad","64e77d7b61f440b60e28659d","64eca674c978ac79a747388d","null","null","<p style=""font-size: 60px; font-family: BACS"">NbmQUrkra</p>","","","","","","","","",""
"html-keyboard-response","318","424374","0.0-13.0-0.68","5ed02ffb8090240f93ab74ad","64e77d7b61f440b60e28659d","64eca674c978ac79a747388d","null","null","<p style=""font-size: 60px; font-family: BACS"">LOLkULaA</p>","","","","","","","","",""
"html-keyboard-response","319","425389","0.0-13.0-0.69","5ed02ffb8090240f93ab74ad","64e77d7b61f440b60e28659d","64eca674c978ac79a747388d","null","null","<p style=""font-size: 60px; font-family: BACS"">cROMtYDTk</p>","","","","","","","","",""
"html-keyboard-response","320","426400","0.0-13.0-0.70","5ed02ffb8090240f93ab74ad","64e77d7b61f440b60e28659d","64eca674c978ac79a747388d","null","null","<p style=""font-size: 60px; font-family: BACS"">NbmQULaA</p>","","","","","","","","",""
"html-keyboard-response","321","427404","0.0-13.0-0.71","5ed02ffb8090240f93ab74ad","64e77d7b61f440b60e28659d","64eca674c978ac79a747388d","null","null","<p style=""font-size: 60px; font-family: BACS"">EhbtBYhT</p>","","","","","","","","",""
"html-keyboard-response","322","428413","0.0-13.0-0.72","5ed02ffb8090240f93ab74ad","64e77d7b61f440b60e28659d","64eca674c978ac79a747388d","null","null","<p style=""font-size: 60px; font-family: BACS"">NbmQUYZJO</p>","","","","","","","","",""
"html-keyboard-response","323","429418","0.0-13.0-0.73","5ed02ffb8090240f93ab74ad","64e77d7b61f440b60e28659d","64eca674c978ac79a747388d","null","null","<p style=""font-size: 60px; font-family: BACS"">Udumdrkra</p>","","","","","","","","",""
"html-keyboard-response","324","430431","0.0-13.0-0.74","5ed02ffb8090240f93ab74ad","64e77d7b61f440b60e28659d","64eca674c978ac79a747388d","null","null","<p style=""font-size: 60px; font-family: BACS"">LOLkUYZJO</p>","","","","","","","","",""
"html-keyboard-response","325","431442","0.0-13.0-0.75","5ed02ffb8090240f93ab74ad","64e77d7b61f440b60e28659d","64eca674c978ac79a747388d","null","null","<p style=""font-size: 60px; font-family: BACS"">bcOROPE</p>","","","","","","","","",""
"html-keyboard-response","326","432458","0.0-13.0-0.76","5ed02ffb8090240f93ab74ad","64e77d7b61f440b60e28659d","64eca674c978ac79a747388d","null","null","<p style=""font-size: 60px; font-family: BACS"">UdumdYZJO</p>","","","","","","","","",""
"html-keyboard-response","327","433469","0.0-13.0-0.77","5ed02ffb8090240f93ab74ad","64e77d7b61f440b60e28659d","64eca674c978ac79a747388d","null","null","<p style=""font-size: 60px; font-family: BACS"">BOCRMdPc</p>","","","","","","","","",""
"html-keyboard-response","328","434471","0.0-13.0-0.78","5ed02ffb8090240f93ab74ad","64e77d7b61f440b60e28659d","64eca674c978ac79a747388d","null","null","<p style=""font-size: 60px; font-family: BACS"">OdYPCPMl</p>","","","","","","","","",""
"html-keyboard-response","329","435482","0.0-13.0-0.79","5ed02ffb8090240f93ab74ad","64e77d7b61f440b60e28659d","64eca674c978ac79a747388d","null","null","<p style=""font-size: 60px; font-family: BACS"">RCcEOPE</p>","","","","","","","","",""
"html-keyboard-response","330","438124","0.0-14.0","5ed02ffb8090240f93ab74ad","64e77d7b61f440b60e28659d","64eca674c978ac79a747388d","2641"," ","<p>Great, you've seen the fourth block of words. You may now take a short break.</p>
      <p>Press the spacebar when you're ready to continue.</p>","","","","","","","","",""
"html-keyboard-response","331","439139","0.0-15.0-0.0","5ed02ffb8090240f93ab74ad","64e77d7b61f440b60e28659d","64eca674c978ac79a747388d","null","null","<p style=""font-size: 60px; font-family: BACS"">CkBOPdPc</p>","","","","","","","","",""
"html-keyboard-response","332","440151","0.0-15.0-0.1","5ed02ffb8090240f93ab74ad","64e77d7b61f440b60e28659d","64eca674c978ac79a747388d","null","null","<p style=""font-size: 60px; font-family: BACS"">CkBOPdPc</p>","","","","","","","","",""
"html-keyboard-response","333","441167","0.0-15.0-0.2","5ed02ffb8090240f93ab74ad","64e77d7b61f440b60e28659d","64eca674c978ac79a747388d","null","null","<p style=""font-size: 60px; font-family: BACS"">CkBOPdPc</p>","","","","","","","","",""
"html-keyboard-response","334","442170","0.0-15.0-0.3","5ed02ffb8090240f93ab74ad","64e77d7b61f440b60e28659d","64eca674c978ac79a747388d","null","null","<p style=""font-size: 60px; font-family: BACS"">CkBOPdPc</p>","","","","","","","","",""
"html-keyboard-response","335","443182","0.0-15.0-0.4","5ed02ffb8090240f93ab74ad","64e77d7b61f440b60e28659d","64eca674c978ac79a747388d","null","null","<p style=""font-size: 60px; font-family: BACS"">CkBOPdPc</p>","","","","","","","","",""
"html-keyboard-response","336","444188","0.0-15.0-0.5","5ed02ffb8090240f93ab74ad","64e77d7b61f440b60e28659d","64eca674c978ac79a747388d","null","null","<p style=""font-size: 60px; font-family: BACS"">CkBOPdPc</p>","","","","","","","","",""
"html-keyboard-response","337","445201","0.0-15.0-0.6","5ed02ffb8090240f93ab74ad","64e77d7b61f440b60e28659d","64eca674c978ac79a747388d","null","null","<p style=""font-size: 60px; font-family: BACS"">CkBOPdPc</p>","","","","","","","","",""
"html-keyboard-response","338","446203","0.0-15.0-0.7","5ed02ffb8090240f93ab74ad","64e77d7b61f440b60e28659d","64eca674c978ac79a747388d","null","null","<p style=""font-size: 60px; font-family: BACS"">CkBOPdPc</p>","","","","","","","","",""
"html-keyboard-response","339","447214","0.0-15.0-0.8","5ed02ffb8090240f93ab74ad","64e77d7b61f440b60e28659d","64eca674c978ac79a747388d","null","null","<p style=""font-size: 60px; font-family: BACS"">CkBOPdPc</p>","","","","","","","","",""
"html-keyboard-response","340","448215","0.0-15.0-0.9","5ed02ffb8090240f93ab74ad","64e77d7b61f440b60e28659d","64eca674c978ac79a747388d","null","null","<p style=""font-size: 60px; font-family: BACS"">CkBOPdPc</p>","","","","","","","","",""
"html-keyboard-response","341","449231","0.0-15.0-0.10","5ed02ffb8090240f93ab74ad","64e77d7b61f440b60e28659d","64eca674c978ac79a747388d","null","null","<p style=""font-size: 60px; font-family: BACS"">CkBOPdPc</p>","","","","","","","","",""
"html-keyboard-response","342","450235","0.0-15.0-0.11","5ed02ffb8090240f93ab74ad","64e77d7b61f440b60e28659d","64eca674c978ac79a747388d","null","null","<p style=""font-size: 60px; font-family: BACS"">CkBOPdPc</p>","","","","","","","","",""
"html-keyboard-response","343","451249","0.0-15.0-0.12","5ed02ffb8090240f93ab74ad","64e77d7b61f440b60e28659d","64eca674c978ac79a747388d","null","null","<p style=""font-size: 60px; font-family: BACS"">CkBOPdPc</p>","","","","","","","","",""
"html-keyboard-response","344","452252","0.0-15.0-0.13","5ed02ffb8090240f93ab74ad","64e77d7b61f440b60e28659d","64eca674c978ac79a747388d","null","null","<p style=""font-size: 60px; font-family: BACS"">CkBOPdPc</p>","","","","","","","","",""
"html-keyboard-response","345","453262","0.0-15.0-0.14","5ed02ffb8090240f93ab74ad","64e77d7b61f440b60e28659d","64eca674c978ac79a747388d","null","null","<p style=""font-size: 60px; font-family: BACS"">CkBOPdPc</p>","","","","","","","","",""
"html-keyboard-response","346","454266","0.0-15.0-0.15","5ed02ffb8090240f93ab74ad","64e77d7b61f440b60e28659d","64eca674c978ac79a747388d","null","null","<p style=""font-size: 60px; font-family: BACS"">CkBOPdPc</p>","","","","","","","","",""
"html-keyboard-response","347","455279","0.0-15.0-0.16","5ed02ffb8090240f93ab74ad","64e77d7b61f440b60e28659d","64eca674c978ac79a747388d","null","null","<p style=""font-size: 60px; font-family: BACS"">CkBOPdPc</p>","","","","","","","","",""
"html-keyboard-response","348","456281","0.0-15.0-0.17","5ed02ffb8090240f93ab74ad","64e77d7b61f440b60e28659d","64eca674c978ac79a747388d","null","null","<p style=""font-size: 60px; font-family: BACS"">CkBOPdPc</p>","","","","","","","","",""
"html-keyboard-response","349","457292","0.0-15.0-0.18","5ed02ffb8090240f93ab74ad","64e77d7b61f440b60e28659d","64eca674c978ac79a747388d","null","null","<p style=""font-size: 60px; font-family: BACS"">CkBOPdPc</p>","","","","","","","","",""
"html-keyboard-response","350","458294","0.0-15.0-0.19","5ed02ffb8090240f93ab74ad","64e77d7b61f440b60e28659d","64eca674c978ac79a747388d","null","null","<p style=""font-size: 60px; font-family: BACS"">CkBOPdPc</p>","","","","","","","","",""
"html-keyboard-response","351","459295","0.0-15.0-0.20","5ed02ffb8090240f93ab74ad","64e77d7b61f440b60e28659d","64eca674c978ac79a747388d","null","null","<p style=""font-size: 60px; font-family: BACS"">CkBOPdPc</p>","","","","","","","","",""
"html-keyboard-response","352","460296","0.0-15.0-0.21","5ed02ffb8090240f93ab74ad","64e77d7b61f440b60e28659d","64eca674c978ac79a747388d","null","null","<p style=""font-size: 60px; font-family: BACS"">CkBOPdPc</p>","","","","","","","","",""
"html-keyboard-response","353","461309","0.0-15.0-0.22","5ed02ffb8090240f93ab74ad","64e77d7b61f440b60e28659d","64eca674c978ac79a747388d","null","null","<p style=""font-size: 60px; font-family: BACS"">CkBOPdPc</p>","","","","","","","","",""
"html-keyboard-response","354","462321","0.0-15.0-0.23","5ed02ffb8090240f93ab74ad","64e77d7b61f440b60e28659d","64eca674c978ac79a747388d","null","null","<p style=""font-size: 60px; font-family: BACS"">CkBOPdPc</p>","","","","","","","","",""
"html-keyboard-response","355","463323","0.0-15.0-0.24","5ed02ffb8090240f93ab74ad","64e77d7b61f440b60e28659d","64eca674c978ac79a747388d","null","null","<p style=""font-size: 60px; font-family: BACS"">CkBOPdPc</p>","","","","","","","","",""
"html-keyboard-response","356","464339","0.0-15.0-0.25","5ed02ffb8090240f93ab74ad","64e77d7b61f440b60e28659d","64eca674c978ac79a747388d","null","null","<p style=""font-size: 60px; font-family: BACS"">CkBOPdPc</p>","","","","","","","","",""
"html-keyboard-response","357","465356","0.0-15.0-0.26","5ed02ffb8090240f93ab74ad","64e77d7b61f440b60e28659d","64eca674c978ac79a747388d","null","null","<p style=""font-size: 60px; font-family: BACS"">CkBOPdPc</p>","","","","","","","","",""
"html-keyboard-response","358","466368","0.0-15.0-0.27","5ed02ffb8090240f93ab74ad","64e77d7b61f440b60e28659d","64eca674c978ac79a747388d","null","null","<p style=""font-size: 60px; font-family: BACS"">CkBOPdPc</p>","","","","","","","","",""
"html-keyboard-response","359","467370","0.0-15.0-0.28","5ed02ffb8090240f93ab74ad","64e77d7b61f440b60e28659d","64eca674c978ac79a747388d","null","null","<p style=""font-size: 60px; font-family: BACS"">CkBOPdPc</p>","","","","","","","","",""
"html-keyboard-response","360","468372","0.0-15.0-0.29","5ed02ffb8090240f93ab74ad","64e77d7b61f440b60e28659d","64eca674c978ac79a747388d","null","null","<p style=""font-size: 60px; font-family: BACS"">CkBOPdPc</p>","","","","","","","","",""
"html-keyboard-response","361","469388","0.0-15.0-0.30","5ed02ffb8090240f93ab74ad","64e77d7b61f440b60e28659d","64eca674c978ac79a747388d","null","null","<p style=""font-size: 60px; font-family: BACS"">CkBOPdPc</p>","","","","","","","","",""
"html-keyboard-response","362","470403","0.0-15.0-0.31","5ed02ffb8090240f93ab74ad","64e77d7b61f440b60e28659d","64eca674c978ac79a747388d","null","null","<p style=""font-size: 60px; font-family: BACS"">CkBOPdPc</p>","","","","","","","","",""
"html-keyboard-response","363","471420","0.0-15.0-0.32","5ed02ffb8090240f93ab74ad","64e77d7b61f440b60e28659d","64eca674c978ac79a747388d","null","null","<p style=""font-size: 60px; font-family: BACS"">CkBOPdPc</p>","","","","","","","","",""
"html-keyboard-response","364","472435","0.0-15.0-0.33","5ed02ffb8090240f93ab74ad","64e77d7b61f440b60e28659d","64eca674c978ac79a747388d","null","null","<p style=""font-size: 60px; font-family: BACS"">CkBOPdPc</p>","","","","","","","","",""
"html-keyboard-response","365","473452","0.0-15.0-0.34","5ed02ffb8090240f93ab74ad","64e77d7b61f440b60e28659d","64eca674c978ac79a747388d","null","null","<p style=""font-size: 60px; font-family: BACS"">CkBOPdPc</p>","","","","","","","","",""
"html-keyboard-response","366","474461","0.0-15.0-0.35","5ed02ffb8090240f93ab74ad","64e77d7b61f440b60e28659d","64eca674c978ac79a747388d","null","null","<p style=""font-size: 60px; font-family: BACS"">CkBOPdPc</p>","","","","","","","","",""
"html-keyboard-response","367","475478","0.0-15.0-0.36","5ed02ffb8090240f93ab74ad","64e77d7b61f440b60e28659d","64eca674c978ac79a747388d","null","null","<p style=""font-size: 60px; font-family: BACS"">CkBOPdPc</p>","","","","","","","","",""
"html-keyboard-response","368","476491","0.0-15.0-0.37","5ed02ffb8090240f93ab74ad","64e77d7b61f440b60e28659d","64eca674c978ac79a747388d","null","null","<p style=""font-size: 60px; font-family: BACS"">CkBOPdPc</p>","","","","","","","","",""
"html-keyboard-response","369","477504","0.0-15.0-0.38","5ed02ffb8090240f93ab74ad","64e77d7b61f440b60e28659d","64eca674c978ac79a747388d","null","null","<p style=""font-size: 60px; font-family: BACS"">CkBOPdPc</p>","","","","","","","","",""
"html-keyboard-response","370","478519","0.0-15.0-0.39","5ed02ffb8090240f93ab74ad","64e77d7b61f440b60e28659d","64eca674c978ac79a747388d","null","null","<p style=""font-size: 60px; font-family: BACS"">CkBOPdPc</p>","","","","","","","","",""
"html-keyboard-response","371","479533","0.0-15.0-0.40","5ed02ffb8090240f93ab74ad","64e77d7b61f440b60e28659d","64eca674c978ac79a747388d","null","null","<p style=""font-size: 60px; font-family: BACS"">CkBOPdPc</p>","","","","","","","","",""
"html-keyboard-response","372","480534","0.0-15.0-0.41","5ed02ffb8090240f93ab74ad","64e77d7b61f440b60e28659d","64eca674c978ac79a747388d","null","null","<p style=""font-size: 60px; font-family: BACS"">CkBOPdPc</p>","","","","","","","","",""
"html-keyboard-response","373","481548","0.0-15.0-0.42","5ed02ffb8090240f93ab74ad","64e77d7b61f440b60e28659d","64eca674c978ac79a747388d","null","null","<p style=""font-size: 60px; font-family: BACS"">CkBOPdPc</p>","","","","","","","","",""
"html-keyboard-response","374","482559","0.0-15.0-0.43","5ed02ffb8090240f93ab74ad","64e77d7b61f440b60e28659d","64eca674c978ac79a747388d","null","null","<p style=""font-size: 60px; font-family: BACS"">CkBOPdPc</p>","","","","","","","","",""
"html-keyboard-response","375","483575","0.0-15.0-0.44","5ed02ffb8090240f93ab74ad","64e77d7b61f440b60e28659d","64eca674c978ac79a747388d","null","null","<p style=""font-size: 60px; font-family: BACS"">CkBOPdPc</p>","","","","","","","","",""
"html-keyboard-response","376","484590","0.0-15.0-0.45","5ed02ffb8090240f93ab74ad","64e77d7b61f440b60e28659d","64eca674c978ac79a747388d","null","null","<p style=""font-size: 60px; font-family: BACS"">CkBOPdPc</p>","","","","","","","","",""
"html-keyboard-response","377","485602","0.0-15.0-0.46","5ed02ffb8090240f93ab74ad","64e77d7b61f440b60e28659d","64eca674c978ac79a747388d","null","null","<p style=""font-size: 60px; font-family: BACS"">CkBOPdPc</p>","","","","","","","","",""
"html-keyboard-response","378","486604","0.0-15.0-0.47","5ed02ffb8090240f93ab74ad","64e77d7b61f440b60e28659d","64eca674c978ac79a747388d","null","null","<p style=""font-size: 60px; font-family: BACS"">CkBOPdPc</p>","","","","","","","","",""
"html-keyboard-response","379","487618","0.0-15.0-0.48","5ed02ffb8090240f93ab74ad","64e77d7b61f440b60e28659d","64eca674c978ac79a747388d","null","null","<p style=""font-size: 60px; font-family: BACS"">CkBOPdPc</p>","","","","","","","","",""
"html-keyboard-response","380","488620","0.0-15.0-0.49","5ed02ffb8090240f93ab74ad","64e77d7b61f440b60e28659d","64eca674c978ac79a747388d","null","null","<p style=""font-size: 60px; font-family: BACS"">CkBOPdPc</p>","","","","","","","","",""
"html-keyboard-response","381","489636","0.0-15.0-0.50","5ed02ffb8090240f93ab74ad","64e77d7b61f440b60e28659d","64eca674c978ac79a747388d","null","null","<p style=""font-size: 60px; font-family: BACS"">CkBOPdPc</p>","","","","","","","","",""
"html-keyboard-response","382","490652","0.0-15.0-0.51","5ed02ffb8090240f93ab74ad","64e77d7b61f440b60e28659d","64eca674c978ac79a747388d","null","null","<p style=""font-size: 60px; font-family: BACS"">CkBOPdPc</p>","","","","","","","","",""
"html-keyboard-response","383","491667","0.0-15.0-0.52","5ed02ffb8090240f93ab74ad","64e77d7b61f440b60e28659d","64eca674c978ac79a747388d","null","null","<p style=""font-size: 60px; font-family: BACS"">CkBOPdPc</p>","","","","","","","","",""
"html-keyboard-response","384","492671","0.0-15.0-0.53","5ed02ffb8090240f93ab74ad","64e77d7b61f440b60e28659d","64eca674c978ac79a747388d","null","null","<p style=""font-size: 60px; font-family: BACS"">CkBOPdPc</p>","","","","","","","","",""
"html-keyboard-response","385","493688","0.0-15.0-0.54","5ed02ffb8090240f93ab74ad","64e77d7b61f440b60e28659d","64eca674c978ac79a747388d","null","null","<p style=""font-size: 60px; font-family: BACS"">CkBOPdPc</p>","","","","","","","","",""
"html-keyboard-response","386","494702","0.0-15.0-0.55","5ed02ffb8090240f93ab74ad","64e77d7b61f440b60e28659d","64eca674c978ac79a747388d","null","null","<p style=""font-size: 60px; font-family: BACS"">CkBOPdPc</p>","","","","","","","","",""
"html-keyboard-response","387","495715","0.0-15.0-0.56","5ed02ffb8090240f93ab74ad","64e77d7b61f440b60e28659d","64eca674c978ac79a747388d","null","null","<p style=""font-size: 60px; font-family: BACS"">CkBOPdPc</p>","","","","","","","","",""
"html-keyboard-response","388","496727","0.0-15.0-0.57","5ed02ffb8090240f93ab74ad","64e77d7b61f440b60e28659d","64eca674c978ac79a747388d","null","null","<p style=""font-size: 60px; font-family: BACS"">CkBOPdPc</p>","","","","","","","","",""
"html-keyboard-response","389","497731","0.0-15.0-0.58","5ed02ffb8090240f93ab74ad","64e77d7b61f440b60e28659d","64eca674c978ac79a747388d","null","null","<p style=""font-size: 60px; font-family: BACS"">CkBOPdPc</p>","","","","","","","","",""
"html-keyboard-response","390","498746","0.0-15.0-0.59","5ed02ffb8090240f93ab74ad","64e77d7b61f440b60e28659d","64eca674c978ac79a747388d","null","null","<p style=""font-size: 60px; font-family: BACS"">CkBOPdPc</p>","","","","","","","","",""
"html-keyboard-response","391","499749","0.0-15.0-0.60","5ed02ffb8090240f93ab74ad","64e77d7b61f440b60e28659d","64eca674c978ac79a747388d","null","null","<p style=""font-size: 60px; font-family: BACS"">CkBOPdPc</p>","","","","","","","","",""
"html-keyboard-response","392","500765","0.0-15.0-0.61","5ed02ffb8090240f93ab74ad","64e77d7b61f440b60e28659d","64eca674c978ac79a747388d","null","null","<p style=""font-size: 60px; font-family: BACS"">CkBOPdPc</p>","","","","","","","","",""
"html-keyboard-response","393","501777","0.0-15.0-0.62","5ed02ffb8090240f93ab74ad","64e77d7b61f440b60e28659d","64eca674c978ac79a747388d","null","null","<p style=""font-size: 60px; font-family: BACS"">CkBOPdPc</p>","","","","","","","","",""
"html-keyboard-response","394","502793","0.0-15.0-0.63","5ed02ffb8090240f93ab74ad","64e77d7b61f440b60e28659d","64eca674c978ac79a747388d","null","null","<p style=""font-size: 60px; font-family: BACS"">CkBOPdPc</p>","","","","","","","","",""
"html-keyboard-response","395","503796","0.0-15.0-0.64","5ed02ffb8090240f93ab74ad","64e77d7b61f440b60e28659d","64eca674c978ac79a747388d","null","null","<p style=""font-size: 60px; font-family: BACS"">CkBOPdPc</p>","","","","","","","","",""
"html-keyboard-response","396","504809","0.0-15.0-0.65","5ed02ffb8090240f93ab74ad","64e77d7b61f440b60e28659d","64eca674c978ac79a747388d","null","null","<p style=""font-size: 60px; font-family: BACS"">CkBOPdPc</p>","","","","","","","","",""
"html-keyboard-response","397","505818","0.0-15.0-0.66","5ed02ffb8090240f93ab74ad","64e77d7b61f440b60e28659d","64eca674c978ac79a747388d","null","null","<p style=""font-size: 60px; font-family: BACS"">CkBOPdPc</p>","","","","","","","","",""
"html-keyboard-response","398","506831","0.0-15.0-0.67","5ed02ffb8090240f93ab74ad","64e77d7b61f440b60e28659d","64eca674c978ac79a747388d","null","null","<p style=""font-size: 60px; font-family: BACS"">CkBOPdPc</p>","","","","","","","","",""
