trial_type,trial_index,time_elapsed,internal_node_id,subject_id,study_id,session_id,rt,response,stimulus,success,item,task,correct_response,testing_condition,correct,target,confound,name,view_history
pavlovia,0,965,0.0-0.0,64973d83e4fc64d6ae59c370,650c16f0f2faf8d7a0d14c09,651c1dc1f893ceabafc0058a,,,,,,,,,,,,,
survey-html-form,1,12039,0.0-1.0,64973d83e4fc64d6ae59c370,650c16f0f2faf8d7a0d14c09,651c1dc1f893ceabafc0058a,11073,"{""ID"":""64973d83e4fc64d6ae59c370""}",,,,,,,,,,,
html-keyboard-response,2,34249,0.0-2.0,64973d83e4fc64d6ae59c370,650c16f0f2faf8d7a0d14c09,651c1dc1f893ceabafc0058a,22209, ,"<p style=""font-size: 15px;"">Before beginning, we ask that you read the consent information and confirm your agreement to participate in the experiment.</p>
      <p style=""font-size: 15px;""> We ask that you remember that this is a research project and that your participation is entirely voluntary. You can stop your participation at any time, without needing to provide any explanation. The study we're asking you to participate in aims at examining how readers process written words. You will be engaged in a session of apprximately 20 minutes, followed by a brief questionnaire. You will have the opportunity to take a few breaks during the experiment. You will be paid £4 for your participation, corresponding to a rate of £8/hour. While this experiment looks at cognitive faculties, this experiment doesn't constitute clinical proof of eventual pathologies.</p>
      <p style=""font-size: 15px;"">All of the information collected thanks to yours and others' participation will be held in a secure password-protected server, and will not be shared with anyone not authorised to view it. Your personal information will be kept with an arbitrary participant ID. Thanks to this data anonymity process, any researcher analysing the data won't be able to track the information back to a specific participant. Therefore, this process will make identifying you impossibile, even when results from the study will be published in scientific reviews, presented at congresses, or at any other public forum. More generally, the collected data will be treated in accordance with the laws on privacy and conformity to the Legislative Degree n. 196 ""Code regarding the protection of personal data"" of the 30th of June 2003 and to the European Regulation 2016/670 (General Data Protection Regulation - GDPR). The Data Protection Officer is Avv. Valentina Carollo, who can be contacted at the following email addresses: <a href=""mailto:dpo@sissa.it"">dpo@sissa.it</a> or <a href=""mailto:rpd@sissa.it"">rpd@sissa.it</a> - PEC: <a href=""mailto:protocollo@pec.sissa.it"">protocollo@pec.sissa.it</a>.</p>
      <p style=""font-size: 15px;""> Before expressing your consent to participate, we would like to remind you again that in case you need explanations on any aspect of the experimental procedure, the researcher is at your disposition (<a href=""mailto:aliebelt@sissa.it"">aliebelt@sissa.it</a>, <a href=""mailto:davide.crepaldi@sissa.it"">davide.crepaldi@sissa.it</a>).</p>
      <p style=""font-size: 15px;"">If you would like to download the informed consent form, you can do so here: <a href=""BASL-Informed_Consent.pdf"" download>informed consent form</a>.</p>
      <p style=""font-size: 15px;"">We ask that you press the spacebar to proceed to the consent section.</p>",,,,,,,,,,
survey-html-form,3,49523,0.0-3.0,64973d83e4fc64d6ae59c370,650c16f0f2faf8d7a0d14c09,651c1dc1f893ceabafc0058a,15271,"{""consent1"":""YES"",""consent2"":""YES"",""consent3"":""YES"",""consent4"":""YES"",""consent5"":""YES"",""consent6"":""YES""}",,,,,,,,,,,
fullscreen,4,57664,0.0-4.0,64973d83e4fc64d6ae59c370,650c16f0f2faf8d7a0d14c09,651c1dc1f893ceabafc0058a,,,,TRUE,,,,,,,,,
html-keyboard-response,5,73588,0.0-5.0,64973d83e4fc64d6ae59c370,650c16f0f2faf8d7a0d14c09,651c1dc1f893ceabafc0058a,15922, ,"<p>Welcome, and thank you very much for your time!</p>
      <p>In this experiment, you'll be a language expert who's been asked to take a look at words that Earth has received in its first communication with aliens. Your task, in this first part of the experiment, is to pay close attention to the words you'll be shown; later, world leaders will ask you questions on what you saw. The words will be shown to you quite quickly; it seems that the aliens were in a hurry :-)</p>
      <p>Press the spacebar to continue.<p>",,,,,,,,,,
html-keyboard-response,6,73644,0.0-6.0,64973d83e4fc64d6ae59c370,650c16f0f2faf8d7a0d14c09,651c1dc1f893ceabafc0058a,null,null,"<p style=""font-size: 120px; font-family: BACS""> </p>",,,,,,,,,,
html-keyboard-response,7,78209,0.0-7.0,64973d83e4fc64d6ae59c370,650c16f0f2faf8d7a0d14c09,651c1dc1f893ceabafc0058a,4564, ,"<p>Here is an example of the words you'll see:</p>
      <img src='esempio.png' height='400px'>
      <p>When you're ready to begin, press the spacebar.</p></div>",,,,,,,,,,
html-keyboard-response,8,79218,0.0-8.0-0.0,64973d83e4fc64d6ae59c370,650c16f0f2faf8d7a0d14c09,651c1dc1f893ceabafc0058a,null,null,"<p style=""font-size: 60px; font-family: BACS"">NJZluOAO</p>",,,,,,,,,,
html-keyboard-response,9,80219,0.0-8.0-0.1,64973d83e4fc64d6ae59c370,650c16f0f2faf8d7a0d14c09,651c1dc1f893ceabafc0058a,null,null,"<p style=""font-size: 60px; font-family: BACS"">BPAlYDTk</p>",,,,,,,,,,
html-keyboard-response,10,81225,0.0-8.0-0.2,64973d83e4fc64d6ae59c370,650c16f0f2faf8d7a0d14c09,651c1dc1f893ceabafc0058a,null,null,"<p style=""font-size: 60px; font-family: BACS"">DOchlAlKD</p>",,,,,,,,,,
html-keyboard-response,11,82229,0.0-8.0-0.3,64973d83e4fc64d6ae59c370,650c16f0f2faf8d7a0d14c09,651c1dc1f893ceabafc0058a,null,null,"<p style=""font-size: 60px; font-family: BACS"">NaAQdYArG</p>",,,,,,,,,,
html-keyboard-response,12,83235,0.0-8.0-0.4,64973d83e4fc64d6ae59c370,650c16f0f2faf8d7a0d14c09,651c1dc1f893ceabafc0058a,null,null,"<p style=""font-size: 60px; font-family: BACS"">PDPhlKmE</p>",,,,,,,,,,
html-keyboard-response,13,84237,0.0-8.0-0.5,64973d83e4fc64d6ae59c370,650c16f0f2faf8d7a0d14c09,651c1dc1f893ceabafc0058a,null,null,"<p style=""font-size: 60px; font-family: BACS"">YOaAbuOAO</p>",,,,,,,,,,
html-keyboard-response,14,85242,0.0-8.0-0.6,64973d83e4fc64d6ae59c370,650c16f0f2faf8d7a0d14c09,651c1dc1f893ceabafc0058a,null,null,"<p style=""font-size: 60px; font-family: BACS"">aYaNAvdk</p>",,,,,,,,,,
html-keyboard-response,15,86250,0.0-8.0-0.7,64973d83e4fc64d6ae59c370,650c16f0f2faf8d7a0d14c09,651c1dc1f893ceabafc0058a,null,null,"<p style=""font-size: 60px; font-family: BACS"">BPAlKmE</p>",,,,,,,,,,
html-keyboard-response,16,87262,0.0-8.0-0.8,64973d83e4fc64d6ae59c370,650c16f0f2faf8d7a0d14c09,651c1dc1f893ceabafc0058a,null,null,"<p style=""font-size: 60px; font-family: BACS"">MhKdYTOM</p>",,,,,,,,,,
html-keyboard-response,17,88267,0.0-8.0-0.9,64973d83e4fc64d6ae59c370,650c16f0f2faf8d7a0d14c09,651c1dc1f893ceabafc0058a,null,null,"<p style=""font-size: 60px; font-family: BACS"">BPAlAlKD</p>",,,,,,,,,,
html-keyboard-response,18,89277,0.0-8.0-0.10,64973d83e4fc64d6ae59c370,650c16f0f2faf8d7a0d14c09,651c1dc1f893ceabafc0058a,null,null,"<p style=""font-size: 60px; font-family: BACS"">laYmrQGb</p>",,,,,,,,,,
html-keyboard-response,19,90283,0.0-8.0-0.11,64973d83e4fc64d6ae59c370,650c16f0f2faf8d7a0d14c09,651c1dc1f893ceabafc0058a,null,null,"<p style=""font-size: 60px; font-family: BACS"">KAERMAlKD</p>",,,,,,,,,,
html-keyboard-response,20,91290,0.0-8.0-0.12,64973d83e4fc64d6ae59c370,650c16f0f2faf8d7a0d14c09,651c1dc1f893ceabafc0058a,null,null,"<p style=""font-size: 60px; font-family: BACS"">UJmrYaum</p>",,,,,,,,,,
html-keyboard-response,21,92301,0.0-8.0-0.13,64973d83e4fc64d6ae59c370,650c16f0f2faf8d7a0d14c09,651c1dc1f893ceabafc0058a,null,null,"<p style=""font-size: 60px; font-family: BACS"">KAERMKmE</p>",,,,,,,,,,
html-keyboard-response,22,93307,0.0-8.0-0.14,64973d83e4fc64d6ae59c370,650c16f0f2faf8d7a0d14c09,651c1dc1f893ceabafc0058a,null,null,"<p style=""font-size: 60px; font-family: BACS"">laYmruOAO</p>",,,,,,,,,,
html-keyboard-response,23,94318,0.0-8.0-0.15,64973d83e4fc64d6ae59c370,650c16f0f2faf8d7a0d14c09,651c1dc1f893ceabafc0058a,null,null,"<p style=""font-size: 60px; font-family: BACS"">ECtbDYTOM</p>",,,,,,,,,,
html-keyboard-response,24,95326,0.0-8.0-0.16,64973d83e4fc64d6ae59c370,650c16f0f2faf8d7a0d14c09,651c1dc1f893ceabafc0058a,null,null,"<p style=""font-size: 60px; font-family: BACS"">laYmrYArG</p>",,,,,,,,,,
html-keyboard-response,25,96334,0.0-8.0-0.17,64973d83e4fc64d6ae59c370,650c16f0f2faf8d7a0d14c09,651c1dc1f893ceabafc0058a,null,null,"<p style=""font-size: 60px; font-family: BACS"">BPAlYTOM</p>",,,,,,,,,,
html-keyboard-response,26,97342,0.0-8.0-0.18,64973d83e4fc64d6ae59c370,650c16f0f2faf8d7a0d14c09,651c1dc1f893ceabafc0058a,null,null,"<p style=""font-size: 60px; font-family: BACS"">UJmrQGb</p>",,,,,,,,,,
html-keyboard-response,27,98344,0.0-8.0-0.19,64973d83e4fc64d6ae59c370,650c16f0f2faf8d7a0d14c09,651c1dc1f893ceabafc0058a,null,null,"<p style=""font-size: 60px; font-family: BACS"">NJZlYaum</p>",,,,,,,,,,
html-keyboard-response,28,99350,0.0-8.0-0.20,64973d83e4fc64d6ae59c370,650c16f0f2faf8d7a0d14c09,651c1dc1f893ceabafc0058a,null,null,"<p style=""font-size: 60px; font-family: BACS"">mhtcAlKD</p>",,,,,,,,,,
html-keyboard-response,29,100359,0.0-8.0-0.21,64973d83e4fc64d6ae59c370,650c16f0f2faf8d7a0d14c09,651c1dc1f893ceabafc0058a,null,null,"<p style=""font-size: 60px; font-family: BACS"">JmNkuOAO</p>",,,,,,,,,,
html-keyboard-response,30,101364,0.0-8.0-0.22,64973d83e4fc64d6ae59c370,650c16f0f2faf8d7a0d14c09,651c1dc1f893ceabafc0058a,null,null,"<p style=""font-size: 60px; font-family: BACS"">lYruaAvdk</p>",,,,,,,,,,
html-keyboard-response,31,102370,0.0-8.0-0.23,64973d83e4fc64d6ae59c370,650c16f0f2faf8d7a0d14c09,651c1dc1f893ceabafc0058a,null,null,"<p style=""font-size: 60px; font-family: BACS"">NaAQduOAO</p>",,,,,,,,,,
html-keyboard-response,32,103383,0.0-8.0-0.24,64973d83e4fc64d6ae59c370,650c16f0f2faf8d7a0d14c09,651c1dc1f893ceabafc0058a,null,null,"<p style=""font-size: 60px; font-family: BACS"">hYDmtCmYA</p>",,,,,,,,,,
html-keyboard-response,33,104390,0.0-8.0-0.25,64973d83e4fc64d6ae59c370,650c16f0f2faf8d7a0d14c09,651c1dc1f893ceabafc0058a,null,null,"<p style=""font-size: 60px; font-family: BACS"">lYruaYaum</p>",,,,,,,,,,
html-keyboard-response,34,105397,0.0-8.0-0.26,64973d83e4fc64d6ae59c370,650c16f0f2faf8d7a0d14c09,651c1dc1f893ceabafc0058a,null,null,"<p style=""font-size: 60px; font-family: BACS"">NJZlAvdk</p>",,,,,,,,,,
html-keyboard-response,35,106403,0.0-8.0-0.27,64973d83e4fc64d6ae59c370,650c16f0f2faf8d7a0d14c09,651c1dc1f893ceabafc0058a,null,null,"<p style=""font-size: 60px; font-family: BACS"">hYDmtKmE</p>",,,,,,,,,,
html-keyboard-response,36,107412,0.0-8.0-0.28,64973d83e4fc64d6ae59c370,650c16f0f2faf8d7a0d14c09,651c1dc1f893ceabafc0058a,null,null,"<p style=""font-size: 60px; font-family: BACS"">DOchlYDTk</p>",,,,,,,,,,
html-keyboard-response,37,108422,0.0-8.0-0.29,64973d83e4fc64d6ae59c370,650c16f0f2faf8d7a0d14c09,651c1dc1f893ceabafc0058a,null,null,"<p style=""font-size: 60px; font-family: BACS"">JmNkYaum</p>",,,,,,,,,,
html-keyboard-response,38,109428,0.0-8.0-0.30,64973d83e4fc64d6ae59c370,650c16f0f2faf8d7a0d14c09,651c1dc1f893ceabafc0058a,null,null,"<p style=""font-size: 60px; font-family: BACS"">YOaAbQGb</p>",,,,,,,,,,
html-keyboard-response,39,110434,0.0-8.0-0.31,64973d83e4fc64d6ae59c370,650c16f0f2faf8d7a0d14c09,651c1dc1f893ceabafc0058a,null,null,"<p style=""font-size: 60px; font-family: BACS"">ECtbDAlKD</p>",,,,,,,,,,
html-keyboard-response,40,111446,0.0-8.0-0.32,64973d83e4fc64d6ae59c370,650c16f0f2faf8d7a0d14c09,651c1dc1f893ceabafc0058a,null,null,"<p style=""font-size: 60px; font-family: BACS"">aYaNuOAO</p>",,,,,,,,,,
html-keyboard-response,41,112453,0.0-8.0-0.33,64973d83e4fc64d6ae59c370,650c16f0f2faf8d7a0d14c09,651c1dc1f893ceabafc0058a,null,null,"<p style=""font-size: 60px; font-family: BACS"">NaAQdQGb</p>",,,,,,,,,,
html-keyboard-response,42,113461,0.0-8.0-0.34,64973d83e4fc64d6ae59c370,650c16f0f2faf8d7a0d14c09,651c1dc1f893ceabafc0058a,null,null,"<p style=""font-size: 60px; font-family: BACS"">hYDmtAlKD</p>",,,,,,,,,,
html-keyboard-response,43,114471,0.0-8.0-0.35,64973d83e4fc64d6ae59c370,650c16f0f2faf8d7a0d14c09,651c1dc1f893ceabafc0058a,null,null,"<p style=""font-size: 60px; font-family: BACS"">DOchlKmE</p>",,,,,,,,,,
html-keyboard-response,44,115475,0.0-8.0-0.36,64973d83e4fc64d6ae59c370,650c16f0f2faf8d7a0d14c09,651c1dc1f893ceabafc0058a,null,null,"<p style=""font-size: 60px; font-family: BACS"">MhKdAlKD</p>",,,,,,,,,,
html-keyboard-response,45,116484,0.0-8.0-0.37,64973d83e4fc64d6ae59c370,650c16f0f2faf8d7a0d14c09,651c1dc1f893ceabafc0058a,null,null,"<p style=""font-size: 60px; font-family: BACS"">ukYZAvdk</p>",,,,,,,,,,
html-keyboard-response,46,117495,0.0-8.0-0.38,64973d83e4fc64d6ae59c370,650c16f0f2faf8d7a0d14c09,651c1dc1f893ceabafc0058a,null,null,"<p style=""font-size: 60px; font-family: BACS"">ECtbDCmYA</p>",,,,,,,,,,
html-keyboard-response,47,118501,0.0-8.0-0.39,64973d83e4fc64d6ae59c370,650c16f0f2faf8d7a0d14c09,651c1dc1f893ceabafc0058a,null,null,"<p style=""font-size: 60px; font-family: BACS"">CtmbKmE</p>",,,,,,,,,,
html-keyboard-response,48,119507,0.0-8.0-0.40,64973d83e4fc64d6ae59c370,650c16f0f2faf8d7a0d14c09,651c1dc1f893ceabafc0058a,null,null,"<p style=""font-size: 60px; font-family: BACS"">UJmrYArG</p>",,,,,,,,,,
html-keyboard-response,49,120514,0.0-8.0-0.41,64973d83e4fc64d6ae59c370,650c16f0f2faf8d7a0d14c09,651c1dc1f893ceabafc0058a,null,null,"<p style=""font-size: 60px; font-family: BACS"">mhtcYTOM</p>",,,,,,,,,,
html-keyboard-response,50,121524,0.0-8.0-0.42,64973d83e4fc64d6ae59c370,650c16f0f2faf8d7a0d14c09,651c1dc1f893ceabafc0058a,null,null,"<p style=""font-size: 60px; font-family: BACS"">KAERMYDTk</p>",,,,,,,,,,
html-keyboard-response,51,122534,0.0-8.0-0.43,64973d83e4fc64d6ae59c370,650c16f0f2faf8d7a0d14c09,651c1dc1f893ceabafc0058a,null,null,"<p style=""font-size: 60px; font-family: BACS"">hYDmtYTOM</p>",,,,,,,,,,
html-keyboard-response,52,123540,0.0-8.0-0.44,64973d83e4fc64d6ae59c370,650c16f0f2faf8d7a0d14c09,651c1dc1f893ceabafc0058a,null,null,"<p style=""font-size: 60px; font-family: BACS"">ZvalvYaum</p>",,,,,,,,,,
html-keyboard-response,53,124548,0.0-8.0-0.45,64973d83e4fc64d6ae59c370,650c16f0f2faf8d7a0d14c09,651c1dc1f893ceabafc0058a,null,null,"<p style=""font-size: 60px; font-family: BACS"">COtBDCmYA</p>",,,,,,,,,,
html-keyboard-response,54,125554,0.0-8.0-0.46,64973d83e4fc64d6ae59c370,650c16f0f2faf8d7a0d14c09,651c1dc1f893ceabafc0058a,null,null,"<p style=""font-size: 60px; font-family: BACS"">NJZlQGb</p>",,,,,,,,,,
html-keyboard-response,55,126563,0.0-8.0-0.47,64973d83e4fc64d6ae59c370,650c16f0f2faf8d7a0d14c09,651c1dc1f893ceabafc0058a,null,null,"<p style=""font-size: 60px; font-family: BACS"">PDPhlCmYA</p>",,,,,,,,,,
html-keyboard-response,56,127571,0.0-8.0-0.48,64973d83e4fc64d6ae59c370,650c16f0f2faf8d7a0d14c09,651c1dc1f893ceabafc0058a,null,null,"<p style=""font-size: 60px; font-family: BACS"">YOaAbYaum</p>",,,,,,,,,,
html-keyboard-response,57,128577,0.0-8.0-0.49,64973d83e4fc64d6ae59c370,650c16f0f2faf8d7a0d14c09,651c1dc1f893ceabafc0058a,null,null,"<p style=""font-size: 60px; font-family: BACS"">KAERMCmYA</p>",,,,,,,,,,
html-keyboard-response,58,129586,0.0-8.0-0.50,64973d83e4fc64d6ae59c370,650c16f0f2faf8d7a0d14c09,651c1dc1f893ceabafc0058a,null,null,"<p style=""font-size: 60px; font-family: BACS"">JmNkYArG</p>",,,,,,,,,,
html-keyboard-response,59,130596,0.0-8.0-0.51,64973d83e4fc64d6ae59c370,650c16f0f2faf8d7a0d14c09,651c1dc1f893ceabafc0058a,null,null,"<p style=""font-size: 60px; font-family: BACS"">MhKdKmE</p>",,,,,,,,,,
html-keyboard-response,60,131607,0.0-8.0-0.52,64973d83e4fc64d6ae59c370,650c16f0f2faf8d7a0d14c09,651c1dc1f893ceabafc0058a,null,null,"<p style=""font-size: 60px; font-family: BACS"">COtBDYDTk</p>",,,,,,,,,,
html-keyboard-response,61,132611,0.0-8.0-0.53,64973d83e4fc64d6ae59c370,650c16f0f2faf8d7a0d14c09,651c1dc1f893ceabafc0058a,null,null,"<p style=""font-size: 60px; font-family: BACS"">ukYZYArG</p>",,,,,,,,,,
html-keyboard-response,62,133621,0.0-8.0-0.54,64973d83e4fc64d6ae59c370,650c16f0f2faf8d7a0d14c09,651c1dc1f893ceabafc0058a,null,null,"<p style=""font-size: 60px; font-family: BACS"">MhKdCmYA</p>",,,,,,,,,,
html-keyboard-response,63,134626,0.0-8.0-0.55,64973d83e4fc64d6ae59c370,650c16f0f2faf8d7a0d14c09,651c1dc1f893ceabafc0058a,null,null,"<p style=""font-size: 60px; font-family: BACS"">lYruauOAO</p>",,,,,,,,,,
html-keyboard-response,64,135636,0.0-8.0-0.56,64973d83e4fc64d6ae59c370,650c16f0f2faf8d7a0d14c09,651c1dc1f893ceabafc0058a,null,null,"<p style=""font-size: 60px; font-family: BACS"">ZvalvAvdk</p>",,,,,,,,,,
html-keyboard-response,65,136646,0.0-8.0-0.57,64973d83e4fc64d6ae59c370,650c16f0f2faf8d7a0d14c09,651c1dc1f893ceabafc0058a,null,null,"<p style=""font-size: 60px; font-family: BACS"">aYaNYArG</p>",,,,,,,,,,
html-keyboard-response,66,137650,0.0-8.0-0.58,64973d83e4fc64d6ae59c370,650c16f0f2faf8d7a0d14c09,651c1dc1f893ceabafc0058a,null,null,"<p style=""font-size: 60px; font-family: BACS"">COtBDKmE</p>",,,,,,,,,,
html-keyboard-response,67,138660,0.0-8.0-0.59,64973d83e4fc64d6ae59c370,650c16f0f2faf8d7a0d14c09,651c1dc1f893ceabafc0058a,null,null,"<p style=""font-size: 60px; font-family: BACS"">ECtbDYDTk</p>",,,,,,,,,,
html-keyboard-response,68,139667,0.0-8.0-0.60,64973d83e4fc64d6ae59c370,650c16f0f2faf8d7a0d14c09,651c1dc1f893ceabafc0058a,null,null,"<p style=""font-size: 60px; font-family: BACS"">mhtcCmYA</p>",,,,,,,,,,
html-keyboard-response,69,140675,0.0-8.0-0.61,64973d83e4fc64d6ae59c370,650c16f0f2faf8d7a0d14c09,651c1dc1f893ceabafc0058a,null,null,"<p style=""font-size: 60px; font-family: BACS"">PDPhlYDTk</p>",,,,,,,,,,
html-keyboard-response,70,141684,0.0-8.0-0.62,64973d83e4fc64d6ae59c370,650c16f0f2faf8d7a0d14c09,651c1dc1f893ceabafc0058a,null,null,"<p style=""font-size: 60px; font-family: BACS"">CtmbYTOM</p>",,,,,,,,,,
html-keyboard-response,71,142693,0.0-8.0-0.63,64973d83e4fc64d6ae59c370,650c16f0f2faf8d7a0d14c09,651c1dc1f893ceabafc0058a,null,null,"<p style=""font-size: 60px; font-family: BACS"">DOchlCmYA</p>",,,,,,,,,,
html-keyboard-response,72,143701,0.0-8.0-0.64,64973d83e4fc64d6ae59c370,650c16f0f2faf8d7a0d14c09,651c1dc1f893ceabafc0058a,null,null,"<p style=""font-size: 60px; font-family: BACS"">lYruaYArG</p>",,,,,,,,,,
html-keyboard-response,73,144709,0.0-8.0-0.65,64973d83e4fc64d6ae59c370,650c16f0f2faf8d7a0d14c09,651c1dc1f893ceabafc0058a,null,null,"<p style=""font-size: 60px; font-family: BACS"">NaAQdYaum</p>",,,,,,,,,,
html-keyboard-response,74,145714,0.0-8.0-0.66,64973d83e4fc64d6ae59c370,650c16f0f2faf8d7a0d14c09,651c1dc1f893ceabafc0058a,null,null,"<p style=""font-size: 60px; font-family: BACS"">mhtcYDTk</p>",,,,,,,,,,
html-keyboard-response,75,146725,0.0-8.0-0.67,64973d83e4fc64d6ae59c370,650c16f0f2faf8d7a0d14c09,651c1dc1f893ceabafc0058a,null,null,"<p style=""font-size: 60px; font-family: BACS"">PDPhlYTOM</p>",,,,,,,,,,
html-keyboard-response,76,147734,0.0-8.0-0.68,64973d83e4fc64d6ae59c370,650c16f0f2faf8d7a0d14c09,651c1dc1f893ceabafc0058a,null,null,"<p style=""font-size: 60px; font-family: BACS"">YOaAbAvdk</p>",,,,,,,,,,
html-keyboard-response,77,148743,0.0-8.0-0.69,64973d83e4fc64d6ae59c370,650c16f0f2faf8d7a0d14c09,651c1dc1f893ceabafc0058a,null,null,"<p style=""font-size: 60px; font-family: BACS"">ukYZuOAO</p>",,,,,,,,,,
html-keyboard-response,78,149748,0.0-8.0-0.70,64973d83e4fc64d6ae59c370,650c16f0f2faf8d7a0d14c09,651c1dc1f893ceabafc0058a,null,null,"<p style=""font-size: 60px; font-family: BACS"">ZvalvQGb</p>",,,,,,,,,,
html-keyboard-response,79,150755,0.0-8.0-0.71,64973d83e4fc64d6ae59c370,650c16f0f2faf8d7a0d14c09,651c1dc1f893ceabafc0058a,null,null,"<p style=""font-size: 60px; font-family: BACS"">CtmbYDTk</p>",,,,,,,,,,
html-keyboard-response,80,151764,0.0-8.0-0.72,64973d83e4fc64d6ae59c370,650c16f0f2faf8d7a0d14c09,651c1dc1f893ceabafc0058a,null,null,"<p style=""font-size: 60px; font-family: BACS"">ZvalvYArG</p>",,,,,,,,,,
html-keyboard-response,81,152773,0.0-8.0-0.73,64973d83e4fc64d6ae59c370,650c16f0f2faf8d7a0d14c09,651c1dc1f893ceabafc0058a,null,null,"<p style=""font-size: 60px; font-family: BACS"">laYmrYaum</p>",,,,,,,,,,
html-keyboard-response,82,153782,0.0-8.0-0.74,64973d83e4fc64d6ae59c370,650c16f0f2faf8d7a0d14c09,651c1dc1f893ceabafc0058a,null,null,"<p style=""font-size: 60px; font-family: BACS"">UJmrAvdk</p>",,,,,,,,,,
html-keyboard-response,83,154789,0.0-8.0-0.75,64973d83e4fc64d6ae59c370,650c16f0f2faf8d7a0d14c09,651c1dc1f893ceabafc0058a,null,null,"<p style=""font-size: 60px; font-family: BACS"">aYaNQGb</p>",,,,,,,,,,
html-keyboard-response,84,155797,0.0-8.0-0.76,64973d83e4fc64d6ae59c370,650c16f0f2faf8d7a0d14c09,651c1dc1f893ceabafc0058a,null,null,"<p style=""font-size: 60px; font-family: BACS"">COtBDYTOM</p>",,,,,,,,,,
html-keyboard-response,85,156807,0.0-8.0-0.77,64973d83e4fc64d6ae59c370,650c16f0f2faf8d7a0d14c09,651c1dc1f893ceabafc0058a,null,null,"<p style=""font-size: 60px; font-family: BACS"">JmNkAvdk</p>",,,,,,,,,,
html-keyboard-response,86,157814,0.0-8.0-0.78,64973d83e4fc64d6ae59c370,650c16f0f2faf8d7a0d14c09,651c1dc1f893ceabafc0058a,null,null,"<p style=""font-size: 60px; font-family: BACS"">CtmbAlKD</p>",,,,,,,,,,
html-keyboard-response,87,158822,0.0-8.0-0.79,64973d83e4fc64d6ae59c370,650c16f0f2faf8d7a0d14c09,651c1dc1f893ceabafc0058a,null,null,"<p style=""font-size: 60px; font-family: BACS"">ukYZQGb</p>",,,,,,,,,,
html-keyboard-response,88,171948,0.0-9.0,64973d83e4fc64d6ae59c370,650c16f0f2faf8d7a0d14c09,651c1dc1f893ceabafc0058a,13125, ,"<p>Great, you've seen the first block of words. You may now take a short break.</p>
      <p>Press the spacebar when you're ready to continue.</p>",,,,,,,,,,
html-keyboard-response,89,172958,0.0-10.0-0.0,64973d83e4fc64d6ae59c370,650c16f0f2faf8d7a0d14c09,651c1dc1f893ceabafc0058a,null,null,"<p style=""font-size: 60px; font-family: BACS"">NaAQduOAO</p>",,,,,,,,,,
html-keyboard-response,90,173966,0.0-10.0-0.1,64973d83e4fc64d6ae59c370,650c16f0f2faf8d7a0d14c09,651c1dc1f893ceabafc0058a,null,null,"<p style=""font-size: 60px; font-family: BACS"">ukYZAvdk</p>",,,,,,,,,,
html-keyboard-response,91,174974,0.0-10.0-0.2,64973d83e4fc64d6ae59c370,650c16f0f2faf8d7a0d14c09,651c1dc1f893ceabafc0058a,null,null,"<p style=""font-size: 60px; font-family: BACS"">DOchlAlKD</p>",,,,,,,,,,
html-keyboard-response,92,175981,0.0-10.0-0.3,64973d83e4fc64d6ae59c370,650c16f0f2faf8d7a0d14c09,651c1dc1f893ceabafc0058a,null,null,"<p style=""font-size: 60px; font-family: BACS"">ECtbDYTOM</p>",,,,,,,,,,
html-keyboard-response,93,176987,0.0-10.0-0.4,64973d83e4fc64d6ae59c370,650c16f0f2faf8d7a0d14c09,651c1dc1f893ceabafc0058a,null,null,"<p style=""font-size: 60px; font-family: BACS"">KAERMKmE</p>",,,,,,,,,,
html-keyboard-response,94,177995,0.0-10.0-0.5,64973d83e4fc64d6ae59c370,650c16f0f2faf8d7a0d14c09,651c1dc1f893ceabafc0058a,null,null,"<p style=""font-size: 60px; font-family: BACS"">YOaAbQGb</p>",,,,,,,,,,
html-keyboard-response,95,179005,0.0-10.0-0.6,64973d83e4fc64d6ae59c370,650c16f0f2faf8d7a0d14c09,651c1dc1f893ceabafc0058a,null,null,"<p style=""font-size: 60px; font-family: BACS"">JmNkAvdk</p>",,,,,,,,,,
html-keyboard-response,96,180011,0.0-10.0-0.7,64973d83e4fc64d6ae59c370,650c16f0f2faf8d7a0d14c09,651c1dc1f893ceabafc0058a,null,null,"<p style=""font-size: 60px; font-family: BACS"">lYruaYaum</p>",,,,,,,,,,
html-keyboard-response,97,181020,0.0-10.0-0.8,64973d83e4fc64d6ae59c370,650c16f0f2faf8d7a0d14c09,651c1dc1f893ceabafc0058a,null,null,"<p style=""font-size: 60px; font-family: BACS"">UJmrQGb</p>",,,,,,,,,,
html-keyboard-response,98,182030,0.0-10.0-0.9,64973d83e4fc64d6ae59c370,650c16f0f2faf8d7a0d14c09,651c1dc1f893ceabafc0058a,null,null,"<p style=""font-size: 60px; font-family: BACS"">NJZlAvdk</p>",,,,,,,,,,
html-keyboard-response,99,183039,0.0-10.0-0.10,64973d83e4fc64d6ae59c370,650c16f0f2faf8d7a0d14c09,651c1dc1f893ceabafc0058a,null,null,"<p style=""font-size: 60px; font-family: BACS"">ZvalvYArG</p>",,,,,,,,,,
html-keyboard-response,100,184044,0.0-10.0-0.11,64973d83e4fc64d6ae59c370,650c16f0f2faf8d7a0d14c09,651c1dc1f893ceabafc0058a,null,null,"<p style=""font-size: 60px; font-family: BACS"">laYmrQGb</p>",,,,,,,,,,
html-keyboard-response,101,185054,0.0-10.0-0.12,64973d83e4fc64d6ae59c370,650c16f0f2faf8d7a0d14c09,651c1dc1f893ceabafc0058a,null,null,"<p style=""font-size: 60px; font-family: BACS"">PDPhlKmE</p>",,,,,,,,,,
html-keyboard-response,102,186063,0.0-10.0-0.13,64973d83e4fc64d6ae59c370,650c16f0f2faf8d7a0d14c09,651c1dc1f893ceabafc0058a,null,null,"<p style=""font-size: 60px; font-family: BACS"">KAERMYDTk</p>",,,,,,,,,,
html-keyboard-response,103,187069,0.0-10.0-0.14,64973d83e4fc64d6ae59c370,650c16f0f2faf8d7a0d14c09,651c1dc1f893ceabafc0058a,null,null,"<p style=""font-size: 60px; font-family: BACS"">BPAlYTOM</p>",,,,,,,,,,
html-keyboard-response,104,188079,0.0-10.0-0.15,64973d83e4fc64d6ae59c370,650c16f0f2faf8d7a0d14c09,651c1dc1f893ceabafc0058a,null,null,"<p style=""font-size: 60px; font-family: BACS"">CtmbAlKD</p>",,,,,,,,,,
html-keyboard-response,105,189083,0.0-10.0-0.16,64973d83e4fc64d6ae59c370,650c16f0f2faf8d7a0d14c09,651c1dc1f893ceabafc0058a,null,null,"<p style=""font-size: 60px; font-family: BACS"">UJmrYaum</p>",,,,,,,,,,
html-keyboard-response,106,190093,0.0-10.0-0.17,64973d83e4fc64d6ae59c370,650c16f0f2faf8d7a0d14c09,651c1dc1f893ceabafc0058a,null,null,"<p style=""font-size: 60px; font-family: BACS"">YOaAbAvdk</p>",,,,,,,,,,
html-keyboard-response,107,191103,0.0-10.0-0.18,64973d83e4fc64d6ae59c370,650c16f0f2faf8d7a0d14c09,651c1dc1f893ceabafc0058a,null,null,"<p style=""font-size: 60px; font-family: BACS"">PDPhlYTOM</p>",,,,,,,,,,
html-keyboard-response,108,192110,0.0-10.0-0.19,64973d83e4fc64d6ae59c370,650c16f0f2faf8d7a0d14c09,651c1dc1f893ceabafc0058a,null,null,"<p style=""font-size: 60px; font-family: BACS"">UJmrAvdk</p>",,,,,,,,,,
html-keyboard-response,109,193117,0.0-10.0-0.20,64973d83e4fc64d6ae59c370,650c16f0f2faf8d7a0d14c09,651c1dc1f893ceabafc0058a,null,null,"<p style=""font-size: 60px; font-family: BACS"">aYaNQGb</p>",,,,,,,,,,
html-keyboard-response,110,194126,0.0-10.0-0.21,64973d83e4fc64d6ae59c370,650c16f0f2faf8d7a0d14c09,651c1dc1f893ceabafc0058a,null,null,"<p style=""font-size: 60px; font-family: BACS"">ukYZYArG</p>",,,,,,,,,,
html-keyboard-response,111,195132,0.0-10.0-0.22,64973d83e4fc64d6ae59c370,650c16f0f2faf8d7a0d14c09,651c1dc1f893ceabafc0058a,null,null,"<p style=""font-size: 60px; font-family: BACS"">PDPhlYDTk</p>",,,,,,,,,,
html-keyboard-response,112,196142,0.0-10.0-0.23,64973d83e4fc64d6ae59c370,650c16f0f2faf8d7a0d14c09,651c1dc1f893ceabafc0058a,null,null,"<p style=""font-size: 60px; font-family: BACS"">ZvalvYaum</p>",,,,,,,,,,
html-keyboard-response,113,197152,0.0-10.0-0.24,64973d83e4fc64d6ae59c370,650c16f0f2faf8d7a0d14c09,651c1dc1f893ceabafc0058a,null,null,"<p style=""font-size: 60px; font-family: BACS"">COtBDKmE</p>",,,,,,,,,,
html-keyboard-response,114,198158,0.0-10.0-0.25,64973d83e4fc64d6ae59c370,650c16f0f2faf8d7a0d14c09,651c1dc1f893ceabafc0058a,null,null,"<p style=""font-size: 60px; font-family: BACS"">ECtbDCmYA</p>",,,,,,,,,,
html-keyboard-response,115,199164,0.0-10.0-0.26,64973d83e4fc64d6ae59c370,650c16f0f2faf8d7a0d14c09,651c1dc1f893ceabafc0058a,null,null,"<p style=""font-size: 60px; font-family: BACS"">aYaNYArG</p>",,,,,,,,,,
html-keyboard-response,116,200175,0.0-10.0-0.27,64973d83e4fc64d6ae59c370,650c16f0f2faf8d7a0d14c09,651c1dc1f893ceabafc0058a,null,null,"<p style=""font-size: 60px; font-family: BACS"">CtmbYTOM</p>",,,,,,,,,,
html-keyboard-response,117,201181,0.0-10.0-0.28,64973d83e4fc64d6ae59c370,650c16f0f2faf8d7a0d14c09,651c1dc1f893ceabafc0058a,null,null,"<p style=""font-size: 60px; font-family: BACS"">mhtcYDTk</p>",,,,,,,,,,
html-keyboard-response,118,202191,0.0-10.0-0.29,64973d83e4fc64d6ae59c370,650c16f0f2faf8d7a0d14c09,651c1dc1f893ceabafc0058a,null,null,"<p style=""font-size: 60px; font-family: BACS"">aYaNuOAO</p>",,,,,,,,,,
html-keyboard-response,119,203195,0.0-10.0-0.30,64973d83e4fc64d6ae59c370,650c16f0f2faf8d7a0d14c09,651c1dc1f893ceabafc0058a,null,null,"<p style=""font-size: 60px; font-family: BACS"">ECtbDYDTk</p>",,,,,,,,,,
html-keyboard-response,120,204205,0.0-10.0-0.31,64973d83e4fc64d6ae59c370,650c16f0f2faf8d7a0d14c09,651c1dc1f893ceabafc0058a,null,null,"<p style=""font-size: 60px; font-family: BACS"">MhKdKmE</p>",,,,,,,,,,
html-keyboard-response,121,205215,0.0-10.0-0.32,64973d83e4fc64d6ae59c370,650c16f0f2faf8d7a0d14c09,651c1dc1f893ceabafc0058a,null,null,"<p style=""font-size: 60px; font-family: BACS"">COtBDYDTk</p>",,,,,,,,,,
html-keyboard-response,122,206221,0.0-10.0-0.33,64973d83e4fc64d6ae59c370,650c16f0f2faf8d7a0d14c09,651c1dc1f893ceabafc0058a,null,null,"<p style=""font-size: 60px; font-family: BACS"">UJmrYArG</p>",,,,,,,,,,
html-keyboard-response,123,207229,0.0-10.0-0.34,64973d83e4fc64d6ae59c370,650c16f0f2faf8d7a0d14c09,651c1dc1f893ceabafc0058a,null,null,"<p style=""font-size: 60px; font-family: BACS"">YOaAbuOAO</p>",,,,,,,,,,
html-keyboard-response,124,208236,0.0-10.0-0.35,64973d83e4fc64d6ae59c370,650c16f0f2faf8d7a0d14c09,651c1dc1f893ceabafc0058a,null,null,"<p style=""font-size: 60px; font-family: BACS"">NJZlYaum</p>",,,,,,,,,,
html-keyboard-response,125,209247,0.0-10.0-0.36,64973d83e4fc64d6ae59c370,650c16f0f2faf8d7a0d14c09,651c1dc1f893ceabafc0058a,null,null,"<p style=""font-size: 60px; font-family: BACS"">hYDmtAlKD</p>",,,,,,,,,,
html-keyboard-response,126,210253,0.0-10.0-0.37,64973d83e4fc64d6ae59c370,650c16f0f2faf8d7a0d14c09,651c1dc1f893ceabafc0058a,null,null,"<p style=""font-size: 60px; font-family: BACS"">laYmruOAO</p>",,,,,,,,,,
html-keyboard-response,127,211264,0.0-10.0-0.38,64973d83e4fc64d6ae59c370,650c16f0f2faf8d7a0d14c09,651c1dc1f893ceabafc0058a,null,null,"<p style=""font-size: 60px; font-family: BACS"">mhtcYTOM</p>",,,,,,,,,,
html-keyboard-response,128,212269,0.0-10.0-0.39,64973d83e4fc64d6ae59c370,650c16f0f2faf8d7a0d14c09,651c1dc1f893ceabafc0058a,null,null,"<p style=""font-size: 60px; font-family: BACS"">BPAlYDTk</p>",,,,,,,,,,
html-keyboard-response,129,213278,0.0-10.0-0.40,64973d83e4fc64d6ae59c370,650c16f0f2faf8d7a0d14c09,651c1dc1f893ceabafc0058a,null,null,"<p style=""font-size: 60px; font-family: BACS"">JmNkuOAO</p>",,,,,,,,,,
html-keyboard-response,130,214284,0.0-10.0-0.41,64973d83e4fc64d6ae59c370,650c16f0f2faf8d7a0d14c09,651c1dc1f893ceabafc0058a,null,null,"<p style=""font-size: 60px; font-family: BACS"">DOchlCmYA</p>",,,,,,,,,,
html-keyboard-response,131,215291,0.0-10.0-0.42,64973d83e4fc64d6ae59c370,650c16f0f2faf8d7a0d14c09,651c1dc1f893ceabafc0058a,null,null,"<p style=""font-size: 60px; font-family: BACS"">laYmrYaum</p>",,,,,,,,,,
html-keyboard-response,132,216303,0.0-10.0-0.43,64973d83e4fc64d6ae59c370,650c16f0f2faf8d7a0d14c09,651c1dc1f893ceabafc0058a,null,null,"<p style=""font-size: 60px; font-family: BACS"">KAERMAlKD</p>",,,,,,,,,,
html-keyboard-response,133,217307,0.0-10.0-0.44,64973d83e4fc64d6ae59c370,650c16f0f2faf8d7a0d14c09,651c1dc1f893ceabafc0058a,null,null,"<p style=""font-size: 60px; font-family: BACS"">hYDmtYTOM</p>",,,,,,,,,,
html-keyboard-response,134,218317,0.0-10.0-0.45,64973d83e4fc64d6ae59c370,650c16f0f2faf8d7a0d14c09,651c1dc1f893ceabafc0058a,null,null,"<p style=""font-size: 60px; font-family: BACS"">JmNkYArG</p>",,,,,,,,,,
html-keyboard-response,135,219323,0.0-10.0-0.46,64973d83e4fc64d6ae59c370,650c16f0f2faf8d7a0d14c09,651c1dc1f893ceabafc0058a,null,null,"<p style=""font-size: 60px; font-family: BACS"">hYDmtCmYA</p>",,,,,,,,,,
html-keyboard-response,136,220332,0.0-10.0-0.47,64973d83e4fc64d6ae59c370,650c16f0f2faf8d7a0d14c09,651c1dc1f893ceabafc0058a,null,null,"<p style=""font-size: 60px; font-family: BACS"">MhKdAlKD</p>",,,,,,,,,,
html-keyboard-response,137,221342,0.0-10.0-0.48,64973d83e4fc64d6ae59c370,650c16f0f2faf8d7a0d14c09,651c1dc1f893ceabafc0058a,null,null,"<p style=""font-size: 60px; font-family: BACS"">DOchlYDTk</p>",,,,,,,,,,
html-keyboard-response,138,222351,0.0-10.0-0.49,64973d83e4fc64d6ae59c370,650c16f0f2faf8d7a0d14c09,651c1dc1f893ceabafc0058a,null,null,"<p style=""font-size: 60px; font-family: BACS"">lYruaYArG</p>",,,,,,,,,,
html-keyboard-response,139,223356,0.0-10.0-0.50,64973d83e4fc64d6ae59c370,650c16f0f2faf8d7a0d14c09,651c1dc1f893ceabafc0058a,null,null,"<p style=""font-size: 60px; font-family: BACS"">PDPhlCmYA</p>",,,,,,,,,,
html-keyboard-response,140,224366,0.0-10.0-0.51,64973d83e4fc64d6ae59c370,650c16f0f2faf8d7a0d14c09,651c1dc1f893ceabafc0058a,null,null,"<p style=""font-size: 60px; font-family: BACS"">CtmbKmE</p>",,,,,,,,,,
html-keyboard-response,141,225376,0.0-10.0-0.52,64973d83e4fc64d6ae59c370,650c16f0f2faf8d7a0d14c09,651c1dc1f893ceabafc0058a,null,null,"<p style=""font-size: 60px; font-family: BACS"">NaAQdQGb</p>",,,,,,,,,,
html-keyboard-response,142,226381,0.0-10.0-0.53,64973d83e4fc64d6ae59c370,650c16f0f2faf8d7a0d14c09,651c1dc1f893ceabafc0058a,null,null,"<p style=""font-size: 60px; font-family: BACS"">mhtcCmYA</p>",,,,,,,,,,
html-keyboard-response,143,227391,0.0-10.0-0.54,64973d83e4fc64d6ae59c370,650c16f0f2faf8d7a0d14c09,651c1dc1f893ceabafc0058a,null,null,"<p style=""font-size: 60px; font-family: BACS"">DOchlKmE</p>",,,,,,,,,,
html-keyboard-response,144,228396,0.0-10.0-0.55,64973d83e4fc64d6ae59c370,650c16f0f2faf8d7a0d14c09,651c1dc1f893ceabafc0058a,null,null,"<p style=""font-size: 60px; font-family: BACS"">ukYZQGb</p>",,,,,,,,,,
html-keyboard-response,145,229406,0.0-10.0-0.56,64973d83e4fc64d6ae59c370,650c16f0f2faf8d7a0d14c09,651c1dc1f893ceabafc0058a,null,null,"<p style=""font-size: 60px; font-family: BACS"">MhKdCmYA</p>",,,,,,,,,,
html-keyboard-response,146,230413,0.0-10.0-0.57,64973d83e4fc64d6ae59c370,650c16f0f2faf8d7a0d14c09,651c1dc1f893ceabafc0058a,null,null,"<p style=""font-size: 60px; font-family: BACS"">BPAlAlKD</p>",,,,,,,,,,
html-keyboard-response,147,231419,0.0-10.0-0.58,64973d83e4fc64d6ae59c370,650c16f0f2faf8d7a0d14c09,651c1dc1f893ceabafc0058a,null,null,"<p style=""font-size: 60px; font-family: BACS"">YOaAbYaum</p>",,,,,,,,,,
html-keyboard-response,148,232429,0.0-10.0-0.59,64973d83e4fc64d6ae59c370,650c16f0f2faf8d7a0d14c09,651c1dc1f893ceabafc0058a,null,null,"<p style=""font-size: 60px; font-family: BACS"">COtBDCmYA</p>",,,,,,,,,,
html-keyboard-response,149,233440,0.0-10.0-0.60,64973d83e4fc64d6ae59c370,650c16f0f2faf8d7a0d14c09,651c1dc1f893ceabafc0058a,null,null,"<p style=""font-size: 60px; font-family: BACS"">NJZluOAO</p>",,,,,,,,,,
html-keyboard-response,150,234445,0.0-10.0-0.61,64973d83e4fc64d6ae59c370,650c16f0f2faf8d7a0d14c09,651c1dc1f893ceabafc0058a,null,null,"<p style=""font-size: 60px; font-family: BACS"">mhtcAlKD</p>",,,,,,,,,,
html-keyboard-response,151,235451,0.0-10.0-0.62,64973d83e4fc64d6ae59c370,650c16f0f2faf8d7a0d14c09,651c1dc1f893ceabafc0058a,null,null,"<p style=""font-size: 60px; font-family: BACS"">lYruauOAO</p>",,,,,,,,,,
html-keyboard-response,152,236463,0.0-10.0-0.63,64973d83e4fc64d6ae59c370,650c16f0f2faf8d7a0d14c09,651c1dc1f893ceabafc0058a,null,null,"<p style=""font-size: 60px; font-family: BACS"">laYmrYArG</p>",,,,,,,,,,
html-keyboard-response,153,237468,0.0-10.0-0.64,64973d83e4fc64d6ae59c370,650c16f0f2faf8d7a0d14c09,651c1dc1f893ceabafc0058a,null,null,"<p style=""font-size: 60px; font-family: BACS"">MhKdYTOM</p>",,,,,,,,,,
html-keyboard-response,154,238478,0.0-10.0-0.65,64973d83e4fc64d6ae59c370,650c16f0f2faf8d7a0d14c09,651c1dc1f893ceabafc0058a,null,null,"<p style=""font-size: 60px; font-family: BACS"">CtmbYDTk</p>",,,,,,,,,,
html-keyboard-response,155,239485,0.0-10.0-0.66,64973d83e4fc64d6ae59c370,650c16f0f2faf8d7a0d14c09,651c1dc1f893ceabafc0058a,null,null,"<p style=""font-size: 60px; font-family: BACS"">ZvalvAvdk</p>",,,,,,,,,,
html-keyboard-response,156,240494,0.0-10.0-0.67,64973d83e4fc64d6ae59c370,650c16f0f2faf8d7a0d14c09,651c1dc1f893ceabafc0058a,null,null,"<p style=""font-size: 60px; font-family: BACS"">ECtbDAlKD</p>",,,,,,,,,,
html-keyboard-response,157,241502,0.0-10.0-0.68,64973d83e4fc64d6ae59c370,650c16f0f2faf8d7a0d14c09,651c1dc1f893ceabafc0058a,null,null,"<p style=""font-size: 60px; font-family: BACS"">KAERMCmYA</p>",,,,,,,,,,
html-keyboard-response,158,242507,0.0-10.0-0.69,64973d83e4fc64d6ae59c370,650c16f0f2faf8d7a0d14c09,651c1dc1f893ceabafc0058a,null,null,"<p style=""font-size: 60px; font-family: BACS"">aYaNAvdk</p>",,,,,,,,,,
html-keyboard-response,159,243515,0.0-10.0-0.70,64973d83e4fc64d6ae59c370,650c16f0f2faf8d7a0d14c09,651c1dc1f893ceabafc0058a,null,null,"<p style=""font-size: 60px; font-family: BACS"">NaAQdYaum</p>",,,,,,,,,,
html-keyboard-response,160,244525,0.0-10.0-0.71,64973d83e4fc64d6ae59c370,650c16f0f2faf8d7a0d14c09,651c1dc1f893ceabafc0058a,null,null,"<p style=""font-size: 60px; font-family: BACS"">lYruaAvdk</p>",,,,,,,,,,
html-keyboard-response,161,245532,0.0-10.0-0.72,64973d83e4fc64d6ae59c370,650c16f0f2faf8d7a0d14c09,651c1dc1f893ceabafc0058a,null,null,"<p style=""font-size: 60px; font-family: BACS"">BPAlKmE</p>",,,,,,,,,,
html-keyboard-response,162,246537,0.0-10.0-0.73,64973d83e4fc64d6ae59c370,650c16f0f2faf8d7a0d14c09,651c1dc1f893ceabafc0058a,null,null,"<p style=""font-size: 60px; font-family: BACS"">NaAQdYArG</p>",,,,,,,,,,
html-keyboard-response,163,247548,0.0-10.0-0.74,64973d83e4fc64d6ae59c370,650c16f0f2faf8d7a0d14c09,651c1dc1f893ceabafc0058a,null,null,"<p style=""font-size: 60px; font-family: BACS"">COtBDYTOM</p>",,,,,,,,,,
html-keyboard-response,164,248553,0.0-10.0-0.75,64973d83e4fc64d6ae59c370,650c16f0f2faf8d7a0d14c09,651c1dc1f893ceabafc0058a,null,null,"<p style=""font-size: 60px; font-family: BACS"">NJZlQGb</p>",,,,,,,,,,
html-keyboard-response,165,249561,0.0-10.0-0.76,64973d83e4fc64d6ae59c370,650c16f0f2faf8d7a0d14c09,651c1dc1f893ceabafc0058a,null,null,"<p style=""font-size: 60px; font-family: BACS"">ukYZuOAO</p>",,,,,,,,,,
html-keyboard-response,166,250571,0.0-10.0-0.77,64973d83e4fc64d6ae59c370,650c16f0f2faf8d7a0d14c09,651c1dc1f893ceabafc0058a,null,null,"<p style=""font-size: 60px; font-family: BACS"">ZvalvQGb</p>",,,,,,,,,,
html-keyboard-response,167,251575,0.0-10.0-0.78,64973d83e4fc64d6ae59c370,650c16f0f2faf8d7a0d14c09,651c1dc1f893ceabafc0058a,null,null,"<p style=""font-size: 60px; font-family: BACS"">JmNkYaum</p>",,,,,,,,,,
html-keyboard-response,168,252585,0.0-10.0-0.79,64973d83e4fc64d6ae59c370,650c16f0f2faf8d7a0d14c09,651c1dc1f893ceabafc0058a,null,null,"<p style=""font-size: 60px; font-family: BACS"">hYDmtKmE</p>",,,,,,,,,,
html-keyboard-response,169,255103,0.0-11.0,64973d83e4fc64d6ae59c370,650c16f0f2faf8d7a0d14c09,651c1dc1f893ceabafc0058a,2519, ,"<p>Great, you've seen the second block of words. You may now take a short break.</p>
      <p>Press the spacebar when you're ready to continue.</p>",,,,,,,,,,
html-keyboard-response,170,256113,0.0-12.0-0.0,64973d83e4fc64d6ae59c370,650c16f0f2faf8d7a0d14c09,651c1dc1f893ceabafc0058a,null,null,"<p style=""font-size: 60px; font-family: BACS"">hYDmtYTOM</p>",,,,,,,,,,
html-keyboard-response,171,257119,0.0-12.0-0.1,64973d83e4fc64d6ae59c370,650c16f0f2faf8d7a0d14c09,651c1dc1f893ceabafc0058a,null,null,"<p style=""font-size: 60px; font-family: BACS"">mhtcYDTk</p>",,,,,,,,,,
html-keyboard-response,172,258129,0.0-12.0-0.2,64973d83e4fc64d6ae59c370,650c16f0f2faf8d7a0d14c09,651c1dc1f893ceabafc0058a,null,null,"<p style=""font-size: 60px; font-family: BACS"">PDPhlKmE</p>",,,,,,,,,,
html-keyboard-response,173,259137,0.0-12.0-0.3,64973d83e4fc64d6ae59c370,650c16f0f2faf8d7a0d14c09,651c1dc1f893ceabafc0058a,null,null,"<p style=""font-size: 60px; font-family: BACS"">ZvalvQGb</p>",,,,,,,,,,
html-keyboard-response,174,260141,0.0-12.0-0.4,64973d83e4fc64d6ae59c370,650c16f0f2faf8d7a0d14c09,651c1dc1f893ceabafc0058a,null,null,"<p style=""font-size: 60px; font-family: BACS"">laYmrYArG</p>",,,,,,,,,,
html-keyboard-response,175,261151,0.0-12.0-0.5,64973d83e4fc64d6ae59c370,650c16f0f2faf8d7a0d14c09,651c1dc1f893ceabafc0058a,null,null,"<p style=""font-size: 60px; font-family: BACS"">UJmrAvdk</p>",,,,,,,,,,
html-keyboard-response,176,262161,0.0-12.0-0.6,64973d83e4fc64d6ae59c370,650c16f0f2faf8d7a0d14c09,651c1dc1f893ceabafc0058a,null,null,"<p style=""font-size: 60px; font-family: BACS"">laYmrYaum</p>",,,,,,,,,,
html-keyboard-response,177,263165,0.0-12.0-0.7,64973d83e4fc64d6ae59c370,650c16f0f2faf8d7a0d14c09,651c1dc1f893ceabafc0058a,null,null,"<p style=""font-size: 60px; font-family: BACS"">hYDmtAlKD</p>",,,,,,,,,,
html-keyboard-response,178,264175,0.0-12.0-0.8,64973d83e4fc64d6ae59c370,650c16f0f2faf8d7a0d14c09,651c1dc1f893ceabafc0058a,null,null,"<p style=""font-size: 60px; font-family: BACS"">NaAQdQGb</p>",,,,,,,,,,
html-keyboard-response,179,265179,0.0-12.0-0.9,64973d83e4fc64d6ae59c370,650c16f0f2faf8d7a0d14c09,651c1dc1f893ceabafc0058a,null,null,"<p style=""font-size: 60px; font-family: BACS"">KAERMCmYA</p>",,,,,,,,,,
html-keyboard-response,180,266189,0.0-12.0-0.10,64973d83e4fc64d6ae59c370,650c16f0f2faf8d7a0d14c09,651c1dc1f893ceabafc0058a,null,null,"<p style=""font-size: 60px; font-family: BACS"">YOaAbuOAO</p>",,,,,,,,,,
html-keyboard-response,181,267199,0.0-12.0-0.11,64973d83e4fc64d6ae59c370,650c16f0f2faf8d7a0d14c09,651c1dc1f893ceabafc0058a,null,null,"<p style=""font-size: 60px; font-family: BACS"">MhKdCmYA</p>",,,,,,,,,,
html-keyboard-response,182,268203,0.0-12.0-0.12,64973d83e4fc64d6ae59c370,650c16f0f2faf8d7a0d14c09,651c1dc1f893ceabafc0058a,null,null,"<p style=""font-size: 60px; font-family: BACS"">ZvalvAvdk</p>",,,,,,,,,,
html-keyboard-response,183,269213,0.0-12.0-0.13,64973d83e4fc64d6ae59c370,650c16f0f2faf8d7a0d14c09,651c1dc1f893ceabafc0058a,null,null,"<p style=""font-size: 60px; font-family: BACS"">laYmrQGb</p>",,,,,,,,,,
html-keyboard-response,184,270223,0.0-12.0-0.14,64973d83e4fc64d6ae59c370,650c16f0f2faf8d7a0d14c09,651c1dc1f893ceabafc0058a,null,null,"<p style=""font-size: 60px; font-family: BACS"">MhKdAlKD</p>",,,,,,,,,,
html-keyboard-response,185,271227,0.0-12.0-0.15,64973d83e4fc64d6ae59c370,650c16f0f2faf8d7a0d14c09,651c1dc1f893ceabafc0058a,null,null,"<p style=""font-size: 60px; font-family: BACS"">YOaAbAvdk</p>",,,,,,,,,,
html-keyboard-response,186,272237,0.0-12.0-0.16,64973d83e4fc64d6ae59c370,650c16f0f2faf8d7a0d14c09,651c1dc1f893ceabafc0058a,null,null,"<p style=""font-size: 60px; font-family: BACS"">CtmbYTOM</p>",,,,,,,,,,
html-keyboard-response,187,273247,0.0-12.0-0.17,64973d83e4fc64d6ae59c370,650c16f0f2faf8d7a0d14c09,651c1dc1f893ceabafc0058a,null,null,"<p style=""font-size: 60px; font-family: BACS"">ECtbDYDTk</p>",,,,,,,,,,
html-keyboard-response,188,274253,0.0-12.0-0.18,64973d83e4fc64d6ae59c370,650c16f0f2faf8d7a0d14c09,651c1dc1f893ceabafc0058a,null,null,"<p style=""font-size: 60px; font-family: BACS"">ukYZYArG</p>",,,,,,,,,,
html-keyboard-response,189,275261,0.0-12.0-0.19,64973d83e4fc64d6ae59c370,650c16f0f2faf8d7a0d14c09,651c1dc1f893ceabafc0058a,null,null,"<p style=""font-size: 60px; font-family: BACS"">hYDmtKmE</p>",,,,,,,,,,
html-keyboard-response,190,276271,0.0-12.0-0.20,64973d83e4fc64d6ae59c370,650c16f0f2faf8d7a0d14c09,651c1dc1f893ceabafc0058a,null,null,"<p style=""font-size: 60px; font-family: BACS"">NJZlAvdk</p>",,,,,,,,,,
html-keyboard-response,191,277276,0.0-12.0-0.21,64973d83e4fc64d6ae59c370,650c16f0f2faf8d7a0d14c09,651c1dc1f893ceabafc0058a,null,null,"<p style=""font-size: 60px; font-family: BACS"">lYruaYArG</p>",,,,,,,,,,
html-keyboard-response,192,278286,0.0-12.0-0.22,64973d83e4fc64d6ae59c370,650c16f0f2faf8d7a0d14c09,651c1dc1f893ceabafc0058a,null,null,"<p style=""font-size: 60px; font-family: BACS"">hYDmtCmYA</p>",,,,,,,,,,
html-keyboard-response,193,279295,0.0-12.0-0.23,64973d83e4fc64d6ae59c370,650c16f0f2faf8d7a0d14c09,651c1dc1f893ceabafc0058a,null,null,"<p style=""font-size: 60px; font-family: BACS"">NJZlYaum</p>",,,,,,,,,,
html-keyboard-response,194,280300,0.0-12.0-0.24,64973d83e4fc64d6ae59c370,650c16f0f2faf8d7a0d14c09,651c1dc1f893ceabafc0058a,null,null,"<p style=""font-size: 60px; font-family: BACS"">BPAlYTOM</p>",,,,,,,,,,
html-keyboard-response,195,281311,0.0-12.0-0.25,64973d83e4fc64d6ae59c370,650c16f0f2faf8d7a0d14c09,651c1dc1f893ceabafc0058a,null,null,"<p style=""font-size: 60px; font-family: BACS"">UJmrYaum</p>",,,,,,,,,,
html-keyboard-response,196,282315,0.0-12.0-0.26,64973d83e4fc64d6ae59c370,650c16f0f2faf8d7a0d14c09,651c1dc1f893ceabafc0058a,null,null,"<p style=""font-size: 60px; font-family: BACS"">COtBDCmYA</p>",,,,,,,,,,
html-keyboard-response,197,283326,0.0-12.0-0.27,64973d83e4fc64d6ae59c370,650c16f0f2faf8d7a0d14c09,651c1dc1f893ceabafc0058a,null,null,"<p style=""font-size: 60px; font-family: BACS"">DOchlAlKD</p>",,,,,,,,,,
html-keyboard-response,198,284334,0.0-12.0-0.28,64973d83e4fc64d6ae59c370,650c16f0f2faf8d7a0d14c09,651c1dc1f893ceabafc0058a,null,null,"<p style=""font-size: 60px; font-family: BACS"">aYaNAvdk</p>",,,,,,,,,,
html-keyboard-response,199,285342,0.0-12.0-0.29,64973d83e4fc64d6ae59c370,650c16f0f2faf8d7a0d14c09,651c1dc1f893ceabafc0058a,null,null,"<p style=""font-size: 60px; font-family: BACS"">BPAlAlKD</p>",,,,,,,,,,
html-keyboard-response,200,286349,0.0-12.0-0.30,64973d83e4fc64d6ae59c370,650c16f0f2faf8d7a0d14c09,651c1dc1f893ceabafc0058a,null,null,"<p style=""font-size: 60px; font-family: BACS"">CtmbKmE</p>",,,,,,,,,,
html-keyboard-response,201,287359,0.0-12.0-0.31,64973d83e4fc64d6ae59c370,650c16f0f2faf8d7a0d14c09,651c1dc1f893ceabafc0058a,null,null,"<p style=""font-size: 60px; font-family: BACS"">aYaNQGb</p>",,,,,,,,,,
html-keyboard-response,202,288363,0.0-12.0-0.32,64973d83e4fc64d6ae59c370,650c16f0f2faf8d7a0d14c09,651c1dc1f893ceabafc0058a,null,null,"<p style=""font-size: 60px; font-family: BACS"">CtmbAlKD</p>",,,,,,,,,,
html-keyboard-response,203,289373,0.0-12.0-0.33,64973d83e4fc64d6ae59c370,650c16f0f2faf8d7a0d14c09,651c1dc1f893ceabafc0058a,null,null,"<p style=""font-size: 60px; font-family: BACS"">JmNkYaum</p>",,,,,,,,,,
html-keyboard-response,204,290383,0.0-12.0-0.34,64973d83e4fc64d6ae59c370,650c16f0f2faf8d7a0d14c09,651c1dc1f893ceabafc0058a,null,null,"<p style=""font-size: 60px; font-family: BACS"">UJmrQGb</p>",,,,,,,,,,
html-keyboard-response,205,291387,0.0-12.0-0.35,64973d83e4fc64d6ae59c370,650c16f0f2faf8d7a0d14c09,651c1dc1f893ceabafc0058a,null,null,"<p style=""font-size: 60px; font-family: BACS"">PDPhlYDTk</p>",,,,,,,,,,
html-keyboard-response,206,292394,0.0-12.0-0.36,64973d83e4fc64d6ae59c370,650c16f0f2faf8d7a0d14c09,651c1dc1f893ceabafc0058a,null,null,"<p style=""font-size: 60px; font-family: BACS"">COtBDYTOM</p>",,,,,,,,,,
html-keyboard-response,207,293404,0.0-12.0-0.37,64973d83e4fc64d6ae59c370,650c16f0f2faf8d7a0d14c09,651c1dc1f893ceabafc0058a,null,null,"<p style=""font-size: 60px; font-family: BACS"">ukYZQGb</p>",,,,,,,,,,
html-keyboard-response,208,294412,0.0-12.0-0.38,64973d83e4fc64d6ae59c370,650c16f0f2faf8d7a0d14c09,651c1dc1f893ceabafc0058a,null,null,"<p style=""font-size: 60px; font-family: BACS"">JmNkYArG</p>",,,,,,,,,,
html-keyboard-response,209,295422,0.0-12.0-0.39,64973d83e4fc64d6ae59c370,650c16f0f2faf8d7a0d14c09,651c1dc1f893ceabafc0058a,null,null,"<p style=""font-size: 60px; font-family: BACS"">MhKdKmE</p>",,,,,,,,,,
html-keyboard-response,210,296427,0.0-12.0-0.40,64973d83e4fc64d6ae59c370,650c16f0f2faf8d7a0d14c09,651c1dc1f893ceabafc0058a,null,null,"<p style=""font-size: 60px; font-family: BACS"">DOchlYDTk</p>",,,,,,,,,,
html-keyboard-response,211,297434,0.0-12.0-0.41,64973d83e4fc64d6ae59c370,650c16f0f2faf8d7a0d14c09,651c1dc1f893ceabafc0058a,null,null,"<p style=""font-size: 60px; font-family: BACS"">aYaNYArG</p>",,,,,,,,,,
html-keyboard-response,212,298446,0.0-12.0-0.42,64973d83e4fc64d6ae59c370,650c16f0f2faf8d7a0d14c09,651c1dc1f893ceabafc0058a,null,null,"<p style=""font-size: 60px; font-family: BACS"">DOchlCmYA</p>",,,,,,,,,,
html-keyboard-response,213,299450,0.0-12.0-0.43,64973d83e4fc64d6ae59c370,650c16f0f2faf8d7a0d14c09,651c1dc1f893ceabafc0058a,null,null,"<p style=""font-size: 60px; font-family: BACS"">mhtcYTOM</p>",,,,,,,,,,
html-keyboard-response,214,300460,0.0-12.0-0.44,64973d83e4fc64d6ae59c370,650c16f0f2faf8d7a0d14c09,651c1dc1f893ceabafc0058a,null,null,"<p style=""font-size: 60px; font-family: BACS"">JmNkAvdk</p>",,,,,,,,,,
html-keyboard-response,215,301467,0.0-12.0-0.45,64973d83e4fc64d6ae59c370,650c16f0f2faf8d7a0d14c09,651c1dc1f893ceabafc0058a,null,null,"<p style=""font-size: 60px; font-family: BACS"">CtmbYDTk</p>",,,,,,,,,,
html-keyboard-response,216,302475,0.0-12.0-0.46,64973d83e4fc64d6ae59c370,650c16f0f2faf8d7a0d14c09,651c1dc1f893ceabafc0058a,null,null,"<p style=""font-size: 60px; font-family: BACS"">NaAQdYaum</p>",,,,,,,,,,
html-keyboard-response,217,303485,0.0-12.0-0.47,64973d83e4fc64d6ae59c370,650c16f0f2faf8d7a0d14c09,651c1dc1f893ceabafc0058a,null,null,"<p style=""font-size: 60px; font-family: BACS"">aYaNuOAO</p>",,,,,,,,,,
html-keyboard-response,218,304495,0.0-12.0-0.48,64973d83e4fc64d6ae59c370,650c16f0f2faf8d7a0d14c09,651c1dc1f893ceabafc0058a,null,null,"<p style=""font-size: 60px; font-family: BACS"">UJmrYArG</p>",,,,,,,,,,
html-keyboard-response,219,305499,0.0-12.0-0.49,64973d83e4fc64d6ae59c370,650c16f0f2faf8d7a0d14c09,651c1dc1f893ceabafc0058a,null,null,"<p style=""font-size: 60px; font-family: BACS"">YOaAbYaum</p>",,,,,,,,,,
html-keyboard-response,220,306509,0.0-12.0-0.50,64973d83e4fc64d6ae59c370,650c16f0f2faf8d7a0d14c09,651c1dc1f893ceabafc0058a,null,null,"<p style=""font-size: 60px; font-family: BACS"">NaAQdYArG</p>",,,,,,,,,,
html-keyboard-response,221,307515,0.0-12.0-0.51,64973d83e4fc64d6ae59c370,650c16f0f2faf8d7a0d14c09,651c1dc1f893ceabafc0058a,null,null,"<p style=""font-size: 60px; font-family: BACS"">KAERMKmE</p>",,,,,,,,,,
html-keyboard-response,222,308525,0.0-12.0-0.52,64973d83e4fc64d6ae59c370,650c16f0f2faf8d7a0d14c09,651c1dc1f893ceabafc0058a,null,null,"<p style=""font-size: 60px; font-family: BACS"">YOaAbQGb</p>",,,,,,,,,,
html-keyboard-response,223,309534,0.0-12.0-0.53,64973d83e4fc64d6ae59c370,650c16f0f2faf8d7a0d14c09,651c1dc1f893ceabafc0058a,null,null,"<p style=""font-size: 60px; font-family: BACS"">MhKdYTOM</p>",,,,,,,,,,
html-keyboard-response,224,310537,0.0-12.0-0.54,64973d83e4fc64d6ae59c370,650c16f0f2faf8d7a0d14c09,651c1dc1f893ceabafc0058a,null,null,"<p style=""font-size: 60px; font-family: BACS"">KAERMAlKD</p>",,,,,,,,,,
html-keyboard-response,225,311548,0.0-12.0-0.55,64973d83e4fc64d6ae59c370,650c16f0f2faf8d7a0d14c09,651c1dc1f893ceabafc0058a,null,null,"<p style=""font-size: 60px; font-family: BACS"">PDPhlYTOM</p>",,,,,,,,,,
html-keyboard-response,226,312558,0.0-12.0-0.56,64973d83e4fc64d6ae59c370,650c16f0f2faf8d7a0d14c09,651c1dc1f893ceabafc0058a,null,null,"<p style=""font-size: 60px; font-family: BACS"">ECtbDAlKD</p>",,,,,,,,,,
html-keyboard-response,227,313562,0.0-12.0-0.57,64973d83e4fc64d6ae59c370,650c16f0f2faf8d7a0d14c09,651c1dc1f893ceabafc0058a,null,null,"<p style=""font-size: 60px; font-family: BACS"">laYmruOAO</p>",,,,,,,,,,
html-keyboard-response,228,314572,0.0-12.0-0.58,64973d83e4fc64d6ae59c370,650c16f0f2faf8d7a0d14c09,651c1dc1f893ceabafc0058a,null,null,"<p style=""font-size: 60px; font-family: BACS"">COtBDYDTk</p>",,,,,,,,,,
html-keyboard-response,229,315582,0.0-12.0-0.59,64973d83e4fc64d6ae59c370,650c16f0f2faf8d7a0d14c09,651c1dc1f893ceabafc0058a,null,null,"<p style=""font-size: 60px; font-family: BACS"">ukYZAvdk</p>",,,,,,,,,,
html-keyboard-response,230,316587,0.0-12.0-0.60,64973d83e4fc64d6ae59c370,650c16f0f2faf8d7a0d14c09,651c1dc1f893ceabafc0058a,null,null,"<p style=""font-size: 60px; font-family: BACS"">ZvalvYaum</p>",,,,,,,,,,
html-keyboard-response,231,317597,0.0-12.0-0.61,64973d83e4fc64d6ae59c370,650c16f0f2faf8d7a0d14c09,651c1dc1f893ceabafc0058a,null,null,"<p style=""font-size: 60px; font-family: BACS"">PDPhlCmYA</p>",,,,,,,,,,
html-keyboard-response,232,318602,0.0-12.0-0.62,64973d83e4fc64d6ae59c370,650c16f0f2faf8d7a0d14c09,651c1dc1f893ceabafc0058a,null,null,"<p style=""font-size: 60px; font-family: BACS"">ukYZuOAO</p>",,,,,,,,,,
html-keyboard-response,233,319611,0.0-12.0-0.63,64973d83e4fc64d6ae59c370,650c16f0f2faf8d7a0d14c09,651c1dc1f893ceabafc0058a,null,null,"<p style=""font-size: 60px; font-family: BACS"">KAERMYDTk</p>",,,,,,,,,,
html-keyboard-response,234,320621,0.0-12.0-0.64,64973d83e4fc64d6ae59c370,650c16f0f2faf8d7a0d14c09,651c1dc1f893ceabafc0058a,null,null,"<p style=""font-size: 60px; font-family: BACS"">mhtcCmYA</p>",,,,,,,,,,
html-keyboard-response,235,321631,0.0-12.0-0.65,64973d83e4fc64d6ae59c370,650c16f0f2faf8d7a0d14c09,651c1dc1f893ceabafc0058a,null,null,"<p style=""font-size: 60px; font-family: BACS"">BPAlYDTk</p>",,,,,,,,,,
html-keyboard-response,236,322635,0.0-12.0-0.66,64973d83e4fc64d6ae59c370,650c16f0f2faf8d7a0d14c09,651c1dc1f893ceabafc0058a,null,null,"<p style=""font-size: 60px; font-family: BACS"">mhtcAlKD</p>",,,,,,,,,,
html-keyboard-response,237,323646,0.0-12.0-0.67,64973d83e4fc64d6ae59c370,650c16f0f2faf8d7a0d14c09,651c1dc1f893ceabafc0058a,null,null,"<p style=""font-size: 60px; font-family: BACS"">NJZlQGb</p>",,,,,,,,,,
html-keyboard-response,238,324652,0.0-12.0-0.68,64973d83e4fc64d6ae59c370,650c16f0f2faf8d7a0d14c09,651c1dc1f893ceabafc0058a,null,null,"<p style=""font-size: 60px; font-family: BACS"">ZvalvYArG</p>",,,,,,,,,,
html-keyboard-response,239,325660,0.0-12.0-0.69,64973d83e4fc64d6ae59c370,650c16f0f2faf8d7a0d14c09,651c1dc1f893ceabafc0058a,null,null,"<p style=""font-size: 60px; font-family: BACS"">lYruauOAO</p>",,,,,,,,,,
html-keyboard-response,240,326669,0.0-12.0-0.70,64973d83e4fc64d6ae59c370,650c16f0f2faf8d7a0d14c09,651c1dc1f893ceabafc0058a,null,null,"<p style=""font-size: 60px; font-family: BACS"">COtBDKmE</p>",,,,,,,,,,
html-keyboard-response,241,327674,0.0-12.0-0.71,64973d83e4fc64d6ae59c370,650c16f0f2faf8d7a0d14c09,651c1dc1f893ceabafc0058a,null,null,"<p style=""font-size: 60px; font-family: BACS"">lYruaYaum</p>",,,,,,,,,,
html-keyboard-response,242,328684,0.0-12.0-0.72,64973d83e4fc64d6ae59c370,650c16f0f2faf8d7a0d14c09,651c1dc1f893ceabafc0058a,null,null,"<p style=""font-size: 60px; font-family: BACS"">BPAlKmE</p>",,,,,,,,,,
html-keyboard-response,243,329694,0.0-12.0-0.73,64973d83e4fc64d6ae59c370,650c16f0f2faf8d7a0d14c09,651c1dc1f893ceabafc0058a,null,null,"<p style=""font-size: 60px; font-family: BACS"">lYruaAvdk</p>",,,,,,,,,,
html-keyboard-response,244,330699,0.0-12.0-0.74,64973d83e4fc64d6ae59c370,650c16f0f2faf8d7a0d14c09,651c1dc1f893ceabafc0058a,null,null,"<p style=""font-size: 60px; font-family: BACS"">DOchlKmE</p>",,,,,,,,,,
html-keyboard-response,245,331709,0.0-12.0-0.75,64973d83e4fc64d6ae59c370,650c16f0f2faf8d7a0d14c09,651c1dc1f893ceabafc0058a,null,null,"<p style=""font-size: 60px; font-family: BACS"">NaAQduOAO</p>",,,,,,,,,,
html-keyboard-response,246,332717,0.0-12.0-0.76,64973d83e4fc64d6ae59c370,650c16f0f2faf8d7a0d14c09,651c1dc1f893ceabafc0058a,null,null,"<p style=""font-size: 60px; font-family: BACS"">ECtbDCmYA</p>",,,,,,,,,,
html-keyboard-response,247,333726,0.0-12.0-0.77,64973d83e4fc64d6ae59c370,650c16f0f2faf8d7a0d14c09,651c1dc1f893ceabafc0058a,null,null,"<p style=""font-size: 60px; font-family: BACS"">JmNkuOAO</p>",,,,,,,,,,
html-keyboard-response,248,334733,0.0-12.0-0.78,64973d83e4fc64d6ae59c370,650c16f0f2faf8d7a0d14c09,651c1dc1f893ceabafc0058a,null,null,"<p style=""font-size: 60px; font-family: BACS"">ECtbDYTOM</p>",,,,,,,,,,
html-keyboard-response,249,335743,0.0-12.0-0.79,64973d83e4fc64d6ae59c370,650c16f0f2faf8d7a0d14c09,651c1dc1f893ceabafc0058a,null,null,"<p style=""font-size: 60px; font-family: BACS"">NJZluOAO</p>",,,,,,,,,,
html-keyboard-response,250,339273,0.0-13.0,64973d83e4fc64d6ae59c370,650c16f0f2faf8d7a0d14c09,651c1dc1f893ceabafc0058a,3530, ,"<p>Great, you've seen the third block of words. You may now take a short break.</p>
      <p>Press the spacebar when you're ready to continue.</p>",,,,,,,,,,
html-keyboard-response,251,340283,0.0-14.0-0.0,64973d83e4fc64d6ae59c370,650c16f0f2faf8d7a0d14c09,651c1dc1f893ceabafc0058a,null,null,"<p style=""font-size: 60px; font-family: BACS"">ZvalvAvdk</p>",,,,,,,,,,
html-keyboard-response,252,341293,0.0-14.0-0.1,64973d83e4fc64d6ae59c370,650c16f0f2faf8d7a0d14c09,651c1dc1f893ceabafc0058a,null,null,"<p style=""font-size: 60px; font-family: BACS"">CtmbYTOM</p>",,,,,,,,,,
html-keyboard-response,253,342299,0.0-14.0-0.2,64973d83e4fc64d6ae59c370,650c16f0f2faf8d7a0d14c09,651c1dc1f893ceabafc0058a,null,null,"<p style=""font-size: 60px; font-family: BACS"">KAERMYDTk</p>",,,,,,,,,,
html-keyboard-response,254,343307,0.0-14.0-0.3,64973d83e4fc64d6ae59c370,650c16f0f2faf8d7a0d14c09,651c1dc1f893ceabafc0058a,null,null,"<p style=""font-size: 60px; font-family: BACS"">UJmrYArG</p>",,,,,,,,,,
html-keyboard-response,255,344317,0.0-14.0-0.4,64973d83e4fc64d6ae59c370,650c16f0f2faf8d7a0d14c09,651c1dc1f893ceabafc0058a,null,null,"<p style=""font-size: 60px; font-family: BACS"">NaAQduOAO</p>",,,,,,,,,,
html-keyboard-response,256,345326,0.0-14.0-0.5,64973d83e4fc64d6ae59c370,650c16f0f2faf8d7a0d14c09,651c1dc1f893ceabafc0058a,null,null,"<p style=""font-size: 60px; font-family: BACS"">DOchlYDTk</p>",,,,,,,,,,
html-keyboard-response,257,346334,0.0-14.0-0.6,64973d83e4fc64d6ae59c370,650c16f0f2faf8d7a0d14c09,651c1dc1f893ceabafc0058a,null,null,"<p style=""font-size: 60px; font-family: BACS"">PDPhlYTOM</p>",,,,,,,,,,
html-keyboard-response,258,347342,0.0-14.0-0.7,64973d83e4fc64d6ae59c370,650c16f0f2faf8d7a0d14c09,651c1dc1f893ceabafc0058a,null,null,"<p style=""font-size: 60px; font-family: BACS"">CtmbAlKD</p>",,,,,,,,,,
html-keyboard-response,259,348346,0.0-14.0-0.8,64973d83e4fc64d6ae59c370,650c16f0f2faf8d7a0d14c09,651c1dc1f893ceabafc0058a,null,null,"<p style=""font-size: 60px; font-family: BACS"">lYruauOAO</p>",,,,,,,,,,
html-keyboard-response,260,349356,0.0-14.0-0.9,64973d83e4fc64d6ae59c370,650c16f0f2faf8d7a0d14c09,651c1dc1f893ceabafc0058a,null,null,"<p style=""font-size: 60px; font-family: BACS"">laYmrQGb</p>",,,,,,,,,,
html-keyboard-response,261,350366,0.0-14.0-0.10,64973d83e4fc64d6ae59c370,650c16f0f2faf8d7a0d14c09,651c1dc1f893ceabafc0058a,null,null,"<p style=""font-size: 60px; font-family: BACS"">hYDmtYTOM</p>",,,,,,,,,,
html-keyboard-response,262,351370,0.0-14.0-0.11,64973d83e4fc64d6ae59c370,650c16f0f2faf8d7a0d14c09,651c1dc1f893ceabafc0058a,null,null,"<p style=""font-size: 60px; font-family: BACS"">ZvalvYaum</p>",,,,,,,,,,
html-keyboard-response,263,352380,0.0-14.0-0.12,64973d83e4fc64d6ae59c370,650c16f0f2faf8d7a0d14c09,651c1dc1f893ceabafc0058a,null,null,"<p style=""font-size: 60px; font-family: BACS"">BPAlKmE</p>",,,,,,,,,,
html-keyboard-response,264,353391,0.0-14.0-0.13,64973d83e4fc64d6ae59c370,650c16f0f2faf8d7a0d14c09,651c1dc1f893ceabafc0058a,null,null,"<p style=""font-size: 60px; font-family: BACS"">lYruaAvdk</p>",,,,,,,,,,
html-keyboard-response,265,354396,0.0-14.0-0.14,64973d83e4fc64d6ae59c370,650c16f0f2faf8d7a0d14c09,651c1dc1f893ceabafc0058a,null,null,"<p style=""font-size: 60px; font-family: BACS"">mhtcYDTk</p>",,,,,,,,,,
html-keyboard-response,266,355405,0.0-14.0-0.15,64973d83e4fc64d6ae59c370,650c16f0f2faf8d7a0d14c09,651c1dc1f893ceabafc0058a,null,null,"<p style=""font-size: 60px; font-family: BACS"">JmNkYArG</p>",,,,,,,,,,
html-keyboard-response,267,356415,0.0-14.0-0.16,64973d83e4fc64d6ae59c370,650c16f0f2faf8d7a0d14c09,651c1dc1f893ceabafc0058a,null,null,"<p style=""font-size: 60px; font-family: BACS"">YOaAbYaum</p>",,,,,,,,,,
html-keyboard-response,268,357421,0.0-14.0-0.17,64973d83e4fc64d6ae59c370,650c16f0f2faf8d7a0d14c09,651c1dc1f893ceabafc0058a,null,null,"<p style=""font-size: 60px; font-family: BACS"">BPAlYTOM</p>",,,,,,,,,,
html-keyboard-response,269,358426,0.0-14.0-0.18,64973d83e4fc64d6ae59c370,650c16f0f2faf8d7a0d14c09,651c1dc1f893ceabafc0058a,null,null,"<p style=""font-size: 60px; font-family: BACS"">aYaNuOAO</p>",,,,,,,,,,
html-keyboard-response,270,359439,0.0-14.0-0.19,64973d83e4fc64d6ae59c370,650c16f0f2faf8d7a0d14c09,651c1dc1f893ceabafc0058a,null,null,"<p style=""font-size: 60px; font-family: BACS"">KAERMCmYA</p>",,,,,,,,,,
html-keyboard-response,271,360444,0.0-14.0-0.20,64973d83e4fc64d6ae59c370,650c16f0f2faf8d7a0d14c09,651c1dc1f893ceabafc0058a,null,null,"<p style=""font-size: 60px; font-family: BACS"">aYaNQGb</p>",,,,,,,,,,
html-keyboard-response,272,361453,0.0-14.0-0.21,64973d83e4fc64d6ae59c370,650c16f0f2faf8d7a0d14c09,651c1dc1f893ceabafc0058a,null,null,"<p style=""font-size: 60px; font-family: BACS"">ECtbDAlKD</p>",,,,,,,,,,
html-keyboard-response,273,362463,0.0-14.0-0.22,64973d83e4fc64d6ae59c370,650c16f0f2faf8d7a0d14c09,651c1dc1f893ceabafc0058a,null,null,"<p style=""font-size: 60px; font-family: BACS"">NJZluOAO</p>",,,,,,,,,,
html-keyboard-response,274,363468,0.0-14.0-0.23,64973d83e4fc64d6ae59c370,650c16f0f2faf8d7a0d14c09,651c1dc1f893ceabafc0058a,null,null,"<p style=""font-size: 60px; font-family: BACS"">MhKdAlKD</p>",,,,,,,,,,
html-keyboard-response,275,364478,0.0-14.0-0.24,64973d83e4fc64d6ae59c370,650c16f0f2faf8d7a0d14c09,651c1dc1f893ceabafc0058a,null,null,"<p style=""font-size: 60px; font-family: BACS"">lYruaYArG</p>",,,,,,,,,,
html-keyboard-response,276,365483,0.0-14.0-0.25,64973d83e4fc64d6ae59c370,650c16f0f2faf8d7a0d14c09,651c1dc1f893ceabafc0058a,null,null,"<p style=""font-size: 60px; font-family: BACS"">MhKdYTOM</p>",,,,,,,,,,
html-keyboard-response,277,366493,0.0-14.0-0.26,64973d83e4fc64d6ae59c370,650c16f0f2faf8d7a0d14c09,651c1dc1f893ceabafc0058a,null,null,"<p style=""font-size: 60px; font-family: BACS"">hYDmtKmE</p>",,,,,,,,,,
html-keyboard-response,278,367503,0.0-14.0-0.27,64973d83e4fc64d6ae59c370,650c16f0f2faf8d7a0d14c09,651c1dc1f893ceabafc0058a,null,null,"<p style=""font-size: 60px; font-family: BACS"">laYmrYArG</p>",,,,,,,,,,
html-keyboard-response,279,368508,0.0-14.0-0.28,64973d83e4fc64d6ae59c370,650c16f0f2faf8d7a0d14c09,651c1dc1f893ceabafc0058a,null,null,"<p style=""font-size: 60px; font-family: BACS"">MhKdCmYA</p>",,,,,,,,,,
html-keyboard-response,280,369517,0.0-14.0-0.29,64973d83e4fc64d6ae59c370,650c16f0f2faf8d7a0d14c09,651c1dc1f893ceabafc0058a,null,null,"<p style=""font-size: 60px; font-family: BACS"">lYruaYaum</p>",,,,,,,,,,
html-keyboard-response,281,370526,0.0-14.0-0.30,64973d83e4fc64d6ae59c370,650c16f0f2faf8d7a0d14c09,651c1dc1f893ceabafc0058a,null,null,"<p style=""font-size: 60px; font-family: BACS"">ukYZuOAO</p>",,,,,,,,,,
html-keyboard-response,282,371531,0.0-14.0-0.31,64973d83e4fc64d6ae59c370,650c16f0f2faf8d7a0d14c09,651c1dc1f893ceabafc0058a,null,null,"<p style=""font-size: 60px; font-family: BACS"">laYmrYaum</p>",,,,,,,,,,
html-keyboard-response,283,372542,0.0-14.0-0.32,64973d83e4fc64d6ae59c370,650c16f0f2faf8d7a0d14c09,651c1dc1f893ceabafc0058a,null,null,"<p style=""font-size: 60px; font-family: BACS"">COtBDYTOM</p>",,,,,,,,,,
html-keyboard-response,284,373547,0.0-14.0-0.33,64973d83e4fc64d6ae59c370,650c16f0f2faf8d7a0d14c09,651c1dc1f893ceabafc0058a,null,null,"<p style=""font-size: 60px; font-family: BACS"">UJmrAvdk</p>",,,,,,,,,,
html-keyboard-response,285,374556,0.0-14.0-0.34,64973d83e4fc64d6ae59c370,650c16f0f2faf8d7a0d14c09,651c1dc1f893ceabafc0058a,null,null,"<p style=""font-size: 60px; font-family: BACS"">DOchlCmYA</p>",,,,,,,,,,
html-keyboard-response,286,375566,0.0-14.0-0.35,64973d83e4fc64d6ae59c370,650c16f0f2faf8d7a0d14c09,651c1dc1f893ceabafc0058a,null,null,"<p style=""font-size: 60px; font-family: BACS"">BPAlYDTk</p>",,,,,,,,,,
html-keyboard-response,287,376575,0.0-14.0-0.36,64973d83e4fc64d6ae59c370,650c16f0f2faf8d7a0d14c09,651c1dc1f893ceabafc0058a,null,null,"<p style=""font-size: 60px; font-family: BACS"">hYDmtCmYA</p>",,,,,,,,,,
html-keyboard-response,288,377580,0.0-14.0-0.37,64973d83e4fc64d6ae59c370,650c16f0f2faf8d7a0d14c09,651c1dc1f893ceabafc0058a,null,null,"<p style=""font-size: 60px; font-family: BACS"">DOchlAlKD</p>",,,,,,,,,,
html-keyboard-response,289,378590,0.0-14.0-0.38,64973d83e4fc64d6ae59c370,650c16f0f2faf8d7a0d14c09,651c1dc1f893ceabafc0058a,null,null,"<p style=""font-size: 60px; font-family: BACS"">PDPhlYDTk</p>",,,,,,,,,,
html-keyboard-response,290,379596,0.0-14.0-0.39,64973d83e4fc64d6ae59c370,650c16f0f2faf8d7a0d14c09,651c1dc1f893ceabafc0058a,null,null,"<p style=""font-size: 60px; font-family: BACS"">ukYZYArG</p>",,,,,,,,,,
html-keyboard-response,291,380605,0.0-14.0-0.40,64973d83e4fc64d6ae59c370,650c16f0f2faf8d7a0d14c09,651c1dc1f893ceabafc0058a,null,null,"<p style=""font-size: 60px; font-family: BACS"">PDPhlCmYA</p>",,,,,,,,,,
html-keyboard-response,292,381610,0.0-14.0-0.41,64973d83e4fc64d6ae59c370,650c16f0f2faf8d7a0d14c09,651c1dc1f893ceabafc0058a,null,null,"<p style=""font-size: 60px; font-family: BACS"">ukYZQGb</p>",,,,,,,,,,
html-keyboard-response,293,382619,0.0-14.0-0.42,64973d83e4fc64d6ae59c370,650c16f0f2faf8d7a0d14c09,651c1dc1f893ceabafc0058a,null,null,"<p style=""font-size: 60px; font-family: BACS"">KAERMKmE</p>",,,,,,,,,,
html-keyboard-response,294,383629,0.0-14.0-0.43,64973d83e4fc64d6ae59c370,650c16f0f2faf8d7a0d14c09,651c1dc1f893ceabafc0058a,null,null,"<p style=""font-size: 60px; font-family: BACS"">mhtcYTOM</p>",,,,,,,,,,
html-keyboard-response,295,384635,0.0-14.0-0.44,64973d83e4fc64d6ae59c370,650c16f0f2faf8d7a0d14c09,651c1dc1f893ceabafc0058a,null,null,"<p style=""font-size: 60px; font-family: BACS"">YOaAbQGb</p>",,,,,,,,,,
html-keyboard-response,296,385643,0.0-14.0-0.45,64973d83e4fc64d6ae59c370,650c16f0f2faf8d7a0d14c09,651c1dc1f893ceabafc0058a,null,null,"<p style=""font-size: 60px; font-family: BACS"">NJZlYaum</p>",,,,,,,,,,
html-keyboard-response,297,386654,0.0-14.0-0.46,64973d83e4fc64d6ae59c370,650c16f0f2faf8d7a0d14c09,651c1dc1f893ceabafc0058a,null,null,"<p style=""font-size: 60px; font-family: BACS"">mhtcAlKD</p>",,,,,,,,,,
html-keyboard-response,298,387664,0.0-14.0-0.47,64973d83e4fc64d6ae59c370,650c16f0f2faf8d7a0d14c09,651c1dc1f893ceabafc0058a,null,null,"<p style=""font-size: 60px; font-family: BACS"">YOaAbuOAO</p>",,,,,,,,,,
html-keyboard-response,299,388669,0.0-14.0-0.48,64973d83e4fc64d6ae59c370,650c16f0f2faf8d7a0d14c09,651c1dc1f893ceabafc0058a,null,null,"<p style=""font-size: 60px; font-family: BACS"">NJZlAvdk</p>",,,,,,,,,,
html-keyboard-response,300,389677,0.0-14.0-0.49,64973d83e4fc64d6ae59c370,650c16f0f2faf8d7a0d14c09,651c1dc1f893ceabafc0058a,null,null,"<p style=""font-size: 60px; font-family: BACS"">laYmruOAO</p>",,,,,,,,,,
html-keyboard-response,301,390688,0.0-14.0-0.50,64973d83e4fc64d6ae59c370,650c16f0f2faf8d7a0d14c09,651c1dc1f893ceabafc0058a,null,null,"<p style=""font-size: 60px; font-family: BACS"">NaAQdYArG</p>",,,,,,,,,,
html-keyboard-response,302,391692,0.0-14.0-0.51,64973d83e4fc64d6ae59c370,650c16f0f2faf8d7a0d14c09,651c1dc1f893ceabafc0058a,null,null,"<p style=""font-size: 60px; font-family: BACS"">ECtbDYTOM</p>",,,,,,,,,,
html-keyboard-response,303,392704,0.0-14.0-0.52,64973d83e4fc64d6ae59c370,650c16f0f2faf8d7a0d14c09,651c1dc1f893ceabafc0058a,null,null,"<p style=""font-size: 60px; font-family: BACS"">CtmbKmE</p>",,,,,,,,,,
html-keyboard-response,304,393706,0.0-14.0-0.53,64973d83e4fc64d6ae59c370,650c16f0f2faf8d7a0d14c09,651c1dc1f893ceabafc0058a,null,null,"<p style=""font-size: 60px; font-family: BACS"">ZvalvQGb</p>",,,,,,,,,,
html-keyboard-response,305,394717,0.0-14.0-0.54,64973d83e4fc64d6ae59c370,650c16f0f2faf8d7a0d14c09,651c1dc1f893ceabafc0058a,null,null,"<p style=""font-size: 60px; font-family: BACS"">hYDmtAlKD</p>",,,,,,,,,,
html-keyboard-response,306,395727,0.0-14.0-0.55,64973d83e4fc64d6ae59c370,650c16f0f2faf8d7a0d14c09,651c1dc1f893ceabafc0058a,null,null,"<p style=""font-size: 60px; font-family: BACS"">PDPhlKmE</p>",,,,,,,,,,
html-keyboard-response,307,396731,0.0-14.0-0.56,64973d83e4fc64d6ae59c370,650c16f0f2faf8d7a0d14c09,651c1dc1f893ceabafc0058a,null,null,"<p style=""font-size: 60px; font-family: BACS"">ECtbDCmYA</p>",,,,,,,,,,
html-keyboard-response,308,397741,0.0-14.0-0.57,64973d83e4fc64d6ae59c370,650c16f0f2faf8d7a0d14c09,651c1dc1f893ceabafc0058a,null,null,"<p style=""font-size: 60px; font-family: BACS"">ZvalvYArG</p>",,,,,,,,,,
html-keyboard-response,309,398751,0.0-14.0-0.58,64973d83e4fc64d6ae59c370,650c16f0f2faf8d7a0d14c09,651c1dc1f893ceabafc0058a,null,null,"<p style=""font-size: 60px; font-family: BACS"">NaAQdYaum</p>",,,,,,,,,,
html-keyboard-response,310,399758,0.0-14.0-0.59,64973d83e4fc64d6ae59c370,650c16f0f2faf8d7a0d14c09,651c1dc1f893ceabafc0058a,null,null,"<p style=""font-size: 60px; font-family: BACS"">YOaAbAvdk</p>",,,,,,,,,,
html-keyboard-response,311,400766,0.0-14.0-0.60,64973d83e4fc64d6ae59c370,650c16f0f2faf8d7a0d14c09,651c1dc1f893ceabafc0058a,null,null,"<p style=""font-size: 60px; font-family: BACS"">JmNkuOAO</p>",,,,,,,,,,
html-keyboard-response,312,401775,0.0-14.0-0.61,64973d83e4fc64d6ae59c370,650c16f0f2faf8d7a0d14c09,651c1dc1f893ceabafc0058a,null,null,"<p style=""font-size: 60px; font-family: BACS"">UJmrQGb</p>",,,,,,,,,,
html-keyboard-response,313,402783,0.0-14.0-0.62,64973d83e4fc64d6ae59c370,650c16f0f2faf8d7a0d14c09,651c1dc1f893ceabafc0058a,null,null,"<p style=""font-size: 60px; font-family: BACS"">JmNkYaum</p>",,,,,,,,,,
html-keyboard-response,314,403790,0.0-14.0-0.63,64973d83e4fc64d6ae59c370,650c16f0f2faf8d7a0d14c09,651c1dc1f893ceabafc0058a,null,null,"<p style=""font-size: 60px; font-family: BACS"">KAERMAlKD</p>",,,,,,,,,,
html-keyboard-response,315,404794,0.0-14.0-0.64,64973d83e4fc64d6ae59c370,650c16f0f2faf8d7a0d14c09,651c1dc1f893ceabafc0058a,null,null,"<p style=""font-size: 60px; font-family: BACS"">aYaNAvdk</p>",,,,,,,,,,
html-keyboard-response,316,405808,0.0-14.0-0.65,64973d83e4fc64d6ae59c370,650c16f0f2faf8d7a0d14c09,651c1dc1f893ceabafc0058a,null,null,"<p style=""font-size: 60px; font-family: BACS"">UJmrYaum</p>",,,,,,,,,,
html-keyboard-response,317,406814,0.0-14.0-0.66,64973d83e4fc64d6ae59c370,650c16f0f2faf8d7a0d14c09,651c1dc1f893ceabafc0058a,null,null,"<p style=""font-size: 60px; font-family: BACS"">COtBDYDTk</p>",,,,,,,,,,
html-keyboard-response,318,407821,0.0-14.0-0.67,64973d83e4fc64d6ae59c370,650c16f0f2faf8d7a0d14c09,651c1dc1f893ceabafc0058a,null,null,"<p style=""font-size: 60px; font-family: BACS"">BPAlAlKD</p>",,,,,,,,,,
html-keyboard-response,319,408829,0.0-14.0-0.68,64973d83e4fc64d6ae59c370,650c16f0f2faf8d7a0d14c09,651c1dc1f893ceabafc0058a,null,null,"<p style=""font-size: 60px; font-family: BACS"">COtBDCmYA</p>",,,,,,,,,,
html-keyboard-response,320,409834,0.0-14.0-0.69,64973d83e4fc64d6ae59c370,650c16f0f2faf8d7a0d14c09,651c1dc1f893ceabafc0058a,null,null,"<p style=""font-size: 60px; font-family: BACS"">ECtbDYDTk</p>",,,,,,,,,,
html-keyboard-response,321,410843,0.0-14.0-0.70,64973d83e4fc64d6ae59c370,650c16f0f2faf8d7a0d14c09,651c1dc1f893ceabafc0058a,null,null,"<p style=""font-size: 60px; font-family: BACS"">DOchlKmE</p>",,,,,,,,,,
html-keyboard-response,322,411853,0.0-14.0-0.71,64973d83e4fc64d6ae59c370,650c16f0f2faf8d7a0d14c09,651c1dc1f893ceabafc0058a,null,null,"<p style=""font-size: 60px; font-family: BACS"">CtmbYDTk</p>",,,,,,,,,,
html-keyboard-response,323,412863,0.0-14.0-0.72,64973d83e4fc64d6ae59c370,650c16f0f2faf8d7a0d14c09,651c1dc1f893ceabafc0058a,null,null,"<p style=""font-size: 60px; font-family: BACS"">JmNkAvdk</p>",,,,,,,,,,
html-keyboard-response,324,413867,0.0-14.0-0.73,64973d83e4fc64d6ae59c370,650c16f0f2faf8d7a0d14c09,651c1dc1f893ceabafc0058a,null,null,"<p style=""font-size: 60px; font-family: BACS"">NJZlQGb</p>",,,,,,,,,,
html-keyboard-response,325,414877,0.0-14.0-0.74,64973d83e4fc64d6ae59c370,650c16f0f2faf8d7a0d14c09,651c1dc1f893ceabafc0058a,null,null,"<p style=""font-size: 60px; font-family: BACS"">ukYZAvdk</p>",,,,,,,,,,
html-keyboard-response,326,415883,0.0-14.0-0.75,64973d83e4fc64d6ae59c370,650c16f0f2faf8d7a0d14c09,651c1dc1f893ceabafc0058a,null,null,"<p style=""font-size: 60px; font-family: BACS"">mhtcCmYA</p>",,,,,,,,,,
html-keyboard-response,327,416892,0.0-14.0-0.76,64973d83e4fc64d6ae59c370,650c16f0f2faf8d7a0d14c09,651c1dc1f893ceabafc0058a,null,null,"<p style=""font-size: 60px; font-family: BACS"">COtBDKmE</p>",,,,,,,,,,
html-keyboard-response,328,417902,0.0-14.0-0.77,64973d83e4fc64d6ae59c370,650c16f0f2faf8d7a0d14c09,651c1dc1f893ceabafc0058a,null,null,"<p style=""font-size: 60px; font-family: BACS"">NaAQdQGb</p>",,,,,,,,,,
html-keyboard-response,329,418911,0.0-14.0-0.78,64973d83e4fc64d6ae59c370,650c16f0f2faf8d7a0d14c09,651c1dc1f893ceabafc0058a,null,null,"<p style=""font-size: 60px; font-family: BACS"">MhKdKmE</p>",,,,,,,,,,
html-keyboard-response,330,419915,0.0-14.0-0.79,64973d83e4fc64d6ae59c370,650c16f0f2faf8d7a0d14c09,651c1dc1f893ceabafc0058a,null,null,"<p style=""font-size: 60px; font-family: BACS"">aYaNYArG</p>",,,,,,,,,,
html-keyboard-response,331,423601,0.0-15.0,64973d83e4fc64d6ae59c370,650c16f0f2faf8d7a0d14c09,651c1dc1f893ceabafc0058a,3686, ,"<p>Great, you've seen the fourth block of words. You may now take a short break.</p>
      <p>Press the spacebar when you're ready to continue.</p>",,,,,,,,,,
html-keyboard-response,332,424605,0.0-16.0-0.0,64973d83e4fc64d6ae59c370,650c16f0f2faf8d7a0d14c09,651c1dc1f893ceabafc0058a,null,null,"<p style=""font-size: 60px; font-family: BACS"">ukYZQGb</p>",,,,,,,,,,
html-keyboard-response,333,425611,0.0-16.0-0.1,64973d83e4fc64d6ae59c370,650c16f0f2faf8d7a0d14c09,651c1dc1f893ceabafc0058a,null,null,"<p style=""font-size: 60px; font-family: BACS"">ukYZQGb</p>",,,,,,,,,,
html-keyboard-response,334,426621,0.0-16.0-0.2,64973d83e4fc64d6ae59c370,650c16f0f2faf8d7a0d14c09,651c1dc1f893ceabafc0058a,null,null,"<p style=""font-size: 60px; font-family: BACS"">ukYZQGb</p>",,,,,,,,,,
html-keyboard-response,335,427631,0.0-16.0-0.3,64973d83e4fc64d6ae59c370,650c16f0f2faf8d7a0d14c09,651c1dc1f893ceabafc0058a,null,null,"<p style=""font-size: 60px; font-family: BACS"">ukYZQGb</p>",,,,,,,,,,
html-keyboard-response,336,428636,0.0-16.0-0.4,64973d83e4fc64d6ae59c370,650c16f0f2faf8d7a0d14c09,651c1dc1f893ceabafc0058a,null,null,"<p style=""font-size: 60px; font-family: BACS"">ukYZQGb</p>",,,,,,,,,,
html-keyboard-response,337,429646,0.0-16.0-0.5,64973d83e4fc64d6ae59c370,650c16f0f2faf8d7a0d14c09,651c1dc1f893ceabafc0058a,null,null,"<p style=""font-size: 60px; font-family: BACS"">ukYZQGb</p>",,,,,,,,,,
html-keyboard-response,338,430651,0.0-16.0-0.6,64973d83e4fc64d6ae59c370,650c16f0f2faf8d7a0d14c09,651c1dc1f893ceabafc0058a,null,null,"<p style=""font-size: 60px; font-family: BACS"">ukYZQGb</p>",,,,,,,,,,
html-keyboard-response,339,431660,0.0-16.0-0.7,64973d83e4fc64d6ae59c370,650c16f0f2faf8d7a0d14c09,651c1dc1f893ceabafc0058a,null,null,"<p style=""font-size: 60px; font-family: BACS"">ukYZQGb</p>",,,,,,,,,,
html-keyboard-response,340,432670,0.0-16.0-0.8,64973d83e4fc64d6ae59c370,650c16f0f2faf8d7a0d14c09,651c1dc1f893ceabafc0058a,null,null,"<p style=""font-size: 60px; font-family: BACS"">ukYZQGb</p>",,,,,,,,,,
html-keyboard-response,341,433676,0.0-16.0-0.9,64973d83e4fc64d6ae59c370,650c16f0f2faf8d7a0d14c09,651c1dc1f893ceabafc0058a,null,null,"<p style=""font-size: 60px; font-family: BACS"">ukYZQGb</p>",,,,,,,,,,
html-keyboard-response,342,434684,0.0-16.0-0.10,64973d83e4fc64d6ae59c370,650c16f0f2faf8d7a0d14c09,651c1dc1f893ceabafc0058a,null,null,"<p style=""font-size: 60px; font-family: BACS"">ukYZQGb</p>",,,,,,,,,,
html-keyboard-response,343,435695,0.0-16.0-0.11,64973d83e4fc64d6ae59c370,650c16f0f2faf8d7a0d14c09,651c1dc1f893ceabafc0058a,null,null,"<p style=""font-size: 60px; font-family: BACS"">ukYZQGb</p>",,,,,,,,,,
html-keyboard-response,344,436700,0.0-16.0-0.12,64973d83e4fc64d6ae59c370,650c16f0f2faf8d7a0d14c09,651c1dc1f893ceabafc0058a,null,null,"<p style=""font-size: 60px; font-family: BACS"">ukYZQGb</p>",,,,,,,,,,
html-keyboard-response,345,437708,0.0-16.0-0.13,64973d83e4fc64d6ae59c370,650c16f0f2faf8d7a0d14c09,651c1dc1f893ceabafc0058a,null,null,"<p style=""font-size: 60px; font-family: BACS"">ukYZQGb</p>",,,,,,,,,,
html-keyboard-response,346,438719,0.0-16.0-0.14,64973d83e4fc64d6ae59c370,650c16f0f2faf8d7a0d14c09,651c1dc1f893ceabafc0058a,null,null,"<p style=""font-size: 60px; font-family: BACS"">ukYZQGb</p>",,,,,,,,,,
html-keyboard-response,347,439727,0.0-16.0-0.15,64973d83e4fc64d6ae59c370,650c16f0f2faf8d7a0d14c09,651c1dc1f893ceabafc0058a,null,null,"<p style=""font-size: 60px; font-family: BACS"">ukYZQGb</p>",,,,,,,,,,
html-keyboard-response,348,440733,0.0-16.0-0.16,64973d83e4fc64d6ae59c370,650c16f0f2faf8d7a0d14c09,651c1dc1f893ceabafc0058a,null,null,"<p style=""font-size: 60px; font-family: BACS"">ukYZQGb</p>",,,,,,,,,,
html-keyboard-response,349,441744,0.0-16.0-0.17,64973d83e4fc64d6ae59c370,650c16f0f2faf8d7a0d14c09,651c1dc1f893ceabafc0058a,null,null,"<p style=""font-size: 60px; font-family: BACS"">ukYZQGb</p>",,,,,,,,,,
html-keyboard-response,350,442748,0.0-16.0-0.18,64973d83e4fc64d6ae59c370,650c16f0f2faf8d7a0d14c09,651c1dc1f893ceabafc0058a,null,null,"<p style=""font-size: 60px; font-family: BACS"">ukYZQGb</p>",,,,,,,,,,
html-keyboard-response,351,443757,0.0-16.0-0.19,64973d83e4fc64d6ae59c370,650c16f0f2faf8d7a0d14c09,651c1dc1f893ceabafc0058a,null,null,"<p style=""font-size: 60px; font-family: BACS"">ukYZQGb</p>",,,,,,,,,,
html-keyboard-response,352,444767,0.0-16.0-0.20,64973d83e4fc64d6ae59c370,650c16f0f2faf8d7a0d14c09,651c1dc1f893ceabafc0058a,null,null,"<p style=""font-size: 60px; font-family: BACS"">ukYZQGb</p>",,,,,,,,,,
html-keyboard-response,353,445772,0.0-16.0-0.21,64973d83e4fc64d6ae59c370,650c16f0f2faf8d7a0d14c09,651c1dc1f893ceabafc0058a,null,null,"<p style=""font-size: 60px; font-family: BACS"">ukYZQGb</p>",,,,,,,,,,
html-keyboard-response,354,446780,0.0-16.0-0.22,64973d83e4fc64d6ae59c370,650c16f0f2faf8d7a0d14c09,651c1dc1f893ceabafc0058a,null,null,"<p style=""font-size: 60px; font-family: BACS"">ukYZQGb</p>",,,,,,,,,,
html-keyboard-response,355,447792,0.0-16.0-0.23,64973d83e4fc64d6ae59c370,650c16f0f2faf8d7a0d14c09,651c1dc1f893ceabafc0058a,null,null,"<p style=""font-size: 60px; font-family: BACS"">ukYZQGb</p>",,,,,,,,,,
html-keyboard-response,356,448798,0.0-16.0-0.24,64973d83e4fc64d6ae59c370,650c16f0f2faf8d7a0d14c09,651c1dc1f893ceabafc0058a,null,null,"<p style=""font-size: 60px; font-family: BACS"">ukYZQGb</p>",,,,,,,,,,
html-keyboard-response,357,449804,0.0-16.0-0.25,64973d83e4fc64d6ae59c370,650c16f0f2faf8d7a0d14c09,651c1dc1f893ceabafc0058a,null,null,"<p style=""font-size: 60px; font-family: BACS"">ukYZQGb</p>",,,,,,,,,,
html-keyboard-response,358,450816,0.0-16.0-0.26,64973d83e4fc64d6ae59c370,650c16f0f2faf8d7a0d14c09,651c1dc1f893ceabafc0058a,null,null,"<p style=""font-size: 60px; font-family: BACS"">ukYZQGb</p>",,,,,,,,,,
html-keyboard-response,359,451821,0.0-16.0-0.27,64973d83e4fc64d6ae59c370,650c16f0f2faf8d7a0d14c09,651c1dc1f893ceabafc0058a,null,null,"<p style=""font-size: 60px; font-family: BACS"">ukYZQGb</p>",,,,,,,,,,
html-keyboard-response,360,452827,0.0-16.0-0.28,64973d83e4fc64d6ae59c370,650c16f0f2faf8d7a0d14c09,651c1dc1f893ceabafc0058a,null,null,"<p style=""font-size: 60px; font-family: BACS"">ukYZQGb</p>",,,,,,,,,,
html-keyboard-response,361,453836,0.0-16.0-0.29,64973d83e4fc64d6ae59c370,650c16f0f2faf8d7a0d14c09,651c1dc1f893ceabafc0058a,null,null,"<p style=""font-size: 60px; font-family: BACS"">ukYZQGb</p>",,,,,,,,,,
html-keyboard-response,362,454845,0.0-16.0-0.30,64973d83e4fc64d6ae59c370,650c16f0f2faf8d7a0d14c09,651c1dc1f893ceabafc0058a,null,null,"<p style=""font-size: 60px; font-family: BACS"">ukYZQGb</p>",,,,,,,,,,
html-keyboard-response,363,455855,0.0-16.0-0.31,64973d83e4fc64d6ae59c370,650c16f0f2faf8d7a0d14c09,651c1dc1f893ceabafc0058a,null,null,"<p style=""font-size: 60px; font-family: BACS"">ukYZQGb</p>",,,,,,,,,,
html-keyboard-response,364,456861,0.0-16.0-0.32,64973d83e4fc64d6ae59c370,650c16f0f2faf8d7a0d14c09,651c1dc1f893ceabafc0058a,null,null,"<p style=""font-size: 60px; font-family: BACS"">ukYZQGb</p>",,,,,,,,,,
html-keyboard-response,365,457867,0.0-16.0-0.33,64973d83e4fc64d6ae59c370,650c16f0f2faf8d7a0d14c09,651c1dc1f893ceabafc0058a,null,null,"<p style=""font-size: 60px; font-family: BACS"">ukYZQGb</p>",,,,,,,,,,
html-keyboard-response,366,458877,0.0-16.0-0.34,64973d83e4fc64d6ae59c370,650c16f0f2faf8d7a0d14c09,651c1dc1f893ceabafc0058a,null,null,"<p style=""font-size: 60px; font-family: BACS"">ukYZQGb</p>",,,,,,,,,,
html-keyboard-response,367,459884,0.0-16.0-0.35,64973d83e4fc64d6ae59c370,650c16f0f2faf8d7a0d14c09,651c1dc1f893ceabafc0058a,null,null,"<p style=""font-size: 60px; font-family: BACS"">ukYZQGb</p>",,,,,,,,,,
html-keyboard-response,368,460894,0.0-16.0-0.36,64973d83e4fc64d6ae59c370,650c16f0f2faf8d7a0d14c09,651c1dc1f893ceabafc0058a,null,null,"<p style=""font-size: 60px; font-family: BACS"">ukYZQGb</p>",,,,,,,,,,
html-keyboard-response,369,461904,0.0-16.0-0.37,64973d83e4fc64d6ae59c370,650c16f0f2faf8d7a0d14c09,651c1dc1f893ceabafc0058a,null,null,"<p style=""font-size: 60px; font-family: BACS"">ukYZQGb</p>",,,,,,,,,,
html-keyboard-response,370,462910,0.0-16.0-0.38,64973d83e4fc64d6ae59c370,650c16f0f2faf8d7a0d14c09,651c1dc1f893ceabafc0058a,null,null,"<p style=""font-size: 60px; font-family: BACS"">ukYZQGb</p>",,,,,,,,,,
html-keyboard-response,371,463916,0.0-16.0-0.39,64973d83e4fc64d6ae59c370,650c16f0f2faf8d7a0d14c09,651c1dc1f893ceabafc0058a,null,null,"<p style=""font-size: 60px; font-family: BACS"">ukYZQGb</p>",,,,,,,,,,
html-keyboard-response,372,464923,0.0-16.0-0.40,64973d83e4fc64d6ae59c370,650c16f0f2faf8d7a0d14c09,651c1dc1f893ceabafc0058a,null,null,"<p style=""font-size: 60px; font-family: BACS"">ukYZQGb</p>",,,,,,,,,,
html-keyboard-response,373,465933,0.0-16.0-0.41,64973d83e4fc64d6ae59c370,650c16f0f2faf8d7a0d14c09,651c1dc1f893ceabafc0058a,null,null,"<p style=""font-size: 60px; font-family: BACS"">ukYZQGb</p>",,,,,,,,,,
html-keyboard-response,374,466939,0.0-16.0-0.42,64973d83e4fc64d6ae59c370,650c16f0f2faf8d7a0d14c09,651c1dc1f893ceabafc0058a,null,null,"<p style=""font-size: 60px; font-family: BACS"">ukYZQGb</p>",,,,,,,,,,
html-keyboard-response,375,467947,0.0-16.0-0.43,64973d83e4fc64d6ae59c370,650c16f0f2faf8d7a0d14c09,651c1dc1f893ceabafc0058a,null,null,"<p style=""font-size: 60px; font-family: BACS"">ukYZQGb</p>",,,,,,,,,,
html-keyboard-response,376,468957,0.0-16.0-0.44,64973d83e4fc64d6ae59c370,650c16f0f2faf8d7a0d14c09,651c1dc1f893ceabafc0058a,null,null,"<p style=""font-size: 60px; font-family: BACS"">ukYZQGb</p>",,,,,,,,,,
html-keyboard-response,377,469967,0.0-16.0-0.45,64973d83e4fc64d6ae59c370,650c16f0f2faf8d7a0d14c09,651c1dc1f893ceabafc0058a,null,null,"<p style=""font-size: 60px; font-family: BACS"">ukYZQGb</p>",,,,,,,,,,
html-keyboard-response,378,470972,0.0-16.0-0.46,64973d83e4fc64d6ae59c370,650c16f0f2faf8d7a0d14c09,651c1dc1f893ceabafc0058a,null,null,"<p style=""font-size: 60px; font-family: BACS"">ukYZQGb</p>",,,,,,,,,,
html-keyboard-response,379,471982,0.0-16.0-0.47,64973d83e4fc64d6ae59c370,650c16f0f2faf8d7a0d14c09,651c1dc1f893ceabafc0058a,null,null,"<p style=""font-size: 60px; font-family: BACS"">ukYZQGb</p>",,,,,,,,,,
html-keyboard-response,380,472992,0.0-16.0-0.48,64973d83e4fc64d6ae59c370,650c16f0f2faf8d7a0d14c09,651c1dc1f893ceabafc0058a,null,null,"<p style=""font-size: 60px; font-family: BACS"">ukYZQGb</p>",,,,,,,,,,
html-keyboard-response,381,473997,0.0-16.0-0.49,64973d83e4fc64d6ae59c370,650c16f0f2faf8d7a0d14c09,651c1dc1f893ceabafc0058a,null,null,"<p style=""font-size: 60px; font-family: BACS"">ukYZQGb</p>",,,,,,,,,,
html-keyboard-response,382,475004,0.0-16.0-0.50,64973d83e4fc64d6ae59c370,650c16f0f2faf8d7a0d14c09,651c1dc1f893ceabafc0058a,null,null,"<p style=""font-size: 60px; font-family: BACS"">ukYZQGb</p>",,,,,,,,,,
html-keyboard-response,383,476016,0.0-16.0-0.51,64973d83e4fc64d6ae59c370,650c16f0f2faf8d7a0d14c09,651c1dc1f893ceabafc0058a,null,null,"<p style=""font-size: 60px; font-family: BACS"">ukYZQGb</p>",,,,,,,,,,
html-keyboard-response,384,477022,0.0-16.0-0.52,64973d83e4fc64d6ae59c370,650c16f0f2faf8d7a0d14c09,651c1dc1f893ceabafc0058a,null,null,"<p style=""font-size: 60px; font-family: BACS"">ukYZQGb</p>",,,,,,,,,,
html-keyboard-response,385,478031,0.0-16.0-0.53,64973d83e4fc64d6ae59c370,650c16f0f2faf8d7a0d14c09,651c1dc1f893ceabafc0058a,null,null,"<p style=""font-size: 60px; font-family: BACS"">ukYZQGb</p>",,,,,,,,,,
html-keyboard-response,386,479040,0.0-16.0-0.54,64973d83e4fc64d6ae59c370,650c16f0f2faf8d7a0d14c09,651c1dc1f893ceabafc0058a,null,null,"<p style=""font-size: 60px; font-family: BACS"">ukYZQGb</p>",,,,,,,,,,
html-keyboard-response,387,480044,0.0-16.0-0.55,64973d83e4fc64d6ae59c370,650c16f0f2faf8d7a0d14c09,651c1dc1f893ceabafc0058a,null,null,"<p style=""font-size: 60px; font-family: BACS"">ukYZQGb</p>",,,,,,,,,,
html-keyboard-response,388,481055,0.0-16.0-0.56,64973d83e4fc64d6ae59c370,650c16f0f2faf8d7a0d14c09,651c1dc1f893ceabafc0058a,null,null,"<p style=""font-size: 60px; font-family: BACS"">ukYZQGb</p>",,,,,,,,,,
html-keyboard-response,389,482061,0.0-16.0-0.57,64973d83e4fc64d6ae59c370,650c16f0f2faf8d7a0d14c09,651c1dc1f893ceabafc0058a,null,null,"<p style=""font-size: 60px; font-family: BACS"">ukYZQGb</p>",,,,,,,,,,
html-keyboard-response,390,483068,0.0-16.0-0.58,64973d83e4fc64d6ae59c370,650c16f0f2faf8d7a0d14c09,651c1dc1f893ceabafc0058a,null,null,"<p style=""font-size: 60px; font-family: BACS"">ukYZQGb</p>",,,,,,,,,,
html-keyboard-response,391,484079,0.0-16.0-0.59,64973d83e4fc64d6ae59c370,650c16f0f2faf8d7a0d14c09,651c1dc1f893ceabafc0058a,null,null,"<p style=""font-size: 60px; font-family: BACS"">ukYZQGb</p>",,,,,,,,,,
html-keyboard-response,392,485087,0.0-16.0-0.60,64973d83e4fc64d6ae59c370,650c16f0f2faf8d7a0d14c09,651c1dc1f893ceabafc0058a,null,null,"<p style=""font-size: 60px; font-family: BACS"">ukYZQGb</p>",,,,,,,,,,
html-keyboard-response,393,486094,0.0-16.0-0.61,64973d83e4fc64d6ae59c370,650c16f0f2faf8d7a0d14c09,651c1dc1f893ceabafc0058a,null,null,"<p style=""font-size: 60px; font-family: BACS"">ukYZQGb</p>",,,,,,,,,,
html-keyboard-response,394,487104,0.0-16.0-0.62,64973d83e4fc64d6ae59c370,650c16f0f2faf8d7a0d14c09,651c1dc1f893ceabafc0058a,null,null,"<p style=""font-size: 60px; font-family: BACS"">ukYZQGb</p>",,,,,,,,,,
html-keyboard-response,395,488107,0.0-16.0-0.63,64973d83e4fc64d6ae59c370,650c16f0f2faf8d7a0d14c09,651c1dc1f893ceabafc0058a,null,null,"<p style=""font-size: 60px; font-family: BACS"">ukYZQGb</p>",,,,,,,,,,
html-keyboard-response,396,489117,0.0-16.0-0.64,64973d83e4fc64d6ae59c370,650c16f0f2faf8d7a0d14c09,651c1dc1f893ceabafc0058a,null,null,"<p style=""font-size: 60px; font-family: BACS"">ukYZQGb</p>",,,,,,,,,,
html-keyboard-response,397,490128,0.0-16.0-0.65,64973d83e4fc64d6ae59c370,650c16f0f2faf8d7a0d14c09,651c1dc1f893ceabafc0058a,null,null,"<p style=""font-size: 60px; font-family: BACS"">ukYZQGb</p>",,,,,,,,,,
html-keyboard-response,398,491133,0.0-16.0-0.66,64973d83e4fc64d6ae59c370,650c16f0f2faf8d7a0d14c09,651c1dc1f893ceabafc0058a,null,null,"<p style=""font-size: 60px; font-family: BACS"">ukYZQGb</p>",,,,,,,,,,
html-keyboard-response,399,492134,0.0-16.0-0.67,64973d83e4fc64d6ae59c370,650c16f0f2faf8d7a0d14c09,651c1dc1f893ceabafc0058a,null,null,"<p style=""font-size: 60px; font-family: BACS"">ukYZQGb</p>",,,,,,,,,,
html-keyboard-response,400,493143,0.0-16.0-0.68,64973d83e4fc64d6ae59c370,650c16f0f2faf8d7a0d14c09,651c1dc1f893ceabafc0058a,null,null,"<p style=""font-size: 60px; font-family: BACS"">ukYZQGb</p>",,,,,,,,,,
html-keyboard-response,401,494151,0.0-16.0-0.69,64973d83e4fc64d6ae59c370,650c16f0f2faf8d7a0d14c09,651c1dc1f893ceabafc0058a,null,null,"<p style=""font-size: 60px; font-family: BACS"">ukYZQGb</p>",,,,,,,,,,
html-keyboard-response,402,495156,0.0-16.0-0.70,64973d83e4fc64d6ae59c370,650c16f0f2faf8d7a0d14c09,651c1dc1f893ceabafc0058a,null,null,"<p style=""font-size: 60px; font-family: BACS"">ukYZQGb</p>",,,,,,,,,,
html-keyboard-response,403,496167,0.0-16.0-0.71,64973d83e4fc64d6ae59c370,650c16f0f2faf8d7a0d14c09,651c1dc1f893ceabafc0058a,null,null,"<p style=""font-size: 60px; font-family: BACS"">ukYZQGb</p>",,,,,,,,,,
html-keyboard-response,404,497176,0.0-16.0-0.72,64973d83e4fc64d6ae59c370,650c16f0f2faf8d7a0d14c09,651c1dc1f893ceabafc0058a,null,null,"<p style=""font-size: 60px; font-family: BACS"">ukYZQGb</p>",,,,,,,,,,
html-keyboard-response,405,498180,0.0-16.0-0.73,64973d83e4fc64d6ae59c370,650c16f0f2faf8d7a0d14c09,651c1dc1f893ceabafc0058a,null,null,"<p style=""font-size: 60px; font-family: BACS"">ukYZQGb</p>",,,,,,,,,,
html-keyboard-response,406,499190,0.0-16.0-0.74,64973d83e4fc64d6ae59c370,650c16f0f2faf8d7a0d14c09,651c1dc1f893ceabafc0058a,null,null,"<p style=""font-size: 60px; font-family: BACS"">ukYZQGb</p>",,,,,,,,,,
html-keyboard-response,407,500200,0.0-16.0-0.75,64973d83e4fc64d6ae59c370,650c16f0f2faf8d7a0d14c09,651c1dc1f893ceabafc0058a,null,null,"<p style=""font-size: 60px; font-family: BACS"">ukYZQGb</p>",,,,,,,,,,
html-keyboard-response,408,501205,0.0-16.0-0.76,64973d83e4fc64d6ae59c370,650c16f0f2faf8d7a0d14c09,651c1dc1f893ceabafc0058a,null,null,"<p style=""font-size: 60px; font-family: BACS"">ukYZQGb</p>",,,,,,,,,,
html-keyboard-response,409,502214,0.0-16.0-0.77,64973d83e4fc64d6ae59c370,650c16f0f2faf8d7a0d14c09,651c1dc1f893ceabafc0058a,null,null,"<p style=""font-size: 60px; font-family: BACS"">ukYZQGb</p>",,,,,,,,,,
html-keyboard-response,410,503224,0.0-16.0-0.78,64973d83e4fc64d6ae59c370,650c16f0f2faf8d7a0d14c09,651c1dc1f893ceabafc0058a,null,null,"<p style=""font-size: 60px; font-family: BACS"">ukYZQGb</p>",,,,,,,,,,
html-keyboard-response,411,504229,0.0-16.0-0.79,64973d83e4fc64d6ae59c370,650c16f0f2faf8d7a0d14c09,651c1dc1f893ceabafc0058a,null,null,"<p style=""font-size: 60px; font-family: BACS"">ukYZQGb</p>",,,,,,,,,,
html-keyboard-response,412,506089,0.0-17.0,64973d83e4fc64d6ae59c370,650c16f0f2faf8d7a0d14c09,651c1dc1f893ceabafc0058a,1859, ,"<p>Great, you've seen the fifth block of words. You may now take a short break.</p>
      <p>Press the spacebar when you're ready to continue.</p>",,,,,,,,,,
html-keyboard-response,413,507094,0.0-18.0-0.0,64973d83e4fc64d6ae59c370,650c16f0f2faf8d7a0d14c09,651c1dc1f893ceabafc0058a,null,null,"<p style=""font-size: 60px; font-family: BACS"">UJmrYArG</p>",,,,,,,,,,
html-keyboard-response,414,508100,0.0-18.0-0.1,64973d83e4fc64d6ae59c370,650c16f0f2faf8d7a0d14c09,651c1dc1f893ceabafc0058a,null,null,"<p style=""font-size: 60px; font-family: BACS"">laYmrYaum</p>",,,,,,,,,,
html-keyboard-response,415,509111,0.0-18.0-0.2,64973d83e4fc64d6ae59c370,650c16f0f2faf8d7a0d14c09,651c1dc1f893ceabafc0058a,null,null,"<p style=""font-size: 60px; font-family: BACS"">BPAlYTOM</p>",,,,,,,,,,
html-keyboard-response,416,510117,0.0-18.0-0.3,64973d83e4fc64d6ae59c370,650c16f0f2faf8d7a0d14c09,651c1dc1f893ceabafc0058a,null,null,"<p style=""font-size: 60px; font-family: BACS"">aYaNAvdk</p>",,,,,,,,,,
html-keyboard-response,417,511128,0.0-18.0-0.4,64973d83e4fc64d6ae59c370,650c16f0f2faf8d7a0d14c09,651c1dc1f893ceabafc0058a,null,null,"<p style=""font-size: 60px; font-family: BACS"">ECtbDAlKD</p>",,,,,,,,,,
html-keyboard-response,418,512135,0.0-18.0-0.5,64973d83e4fc64d6ae59c370,650c16f0f2faf8d7a0d14c09,651c1dc1f893ceabafc0058a,null,null,"<p style=""font-size: 60px; font-family: BACS"">mhtcYDTk</p>",,,,,,,,,,
html-keyboard-response,419,513141,0.0-18.0-0.6,64973d83e4fc64d6ae59c370,650c16f0f2faf8d7a0d14c09,651c1dc1f893ceabafc0058a,null,null,"<p style=""font-size: 60px; font-family: BACS"">MhKdKmE</p>",,,,,,,,,,
html-keyboard-response,420,514150,0.0-18.0-0.7,64973d83e4fc64d6ae59c370,650c16f0f2faf8d7a0d14c09,651c1dc1f893ceabafc0058a,null,null,"<p style=""font-size: 60px; font-family: BACS"">ECtbDYTOM</p>",,,,,,,,,,
html-keyboard-response,421,515160,0.0-18.0-0.8,64973d83e4fc64d6ae59c370,650c16f0f2faf8d7a0d14c09,651c1dc1f893ceabafc0058a,null,null,"<p style=""font-size: 60px; font-family: BACS"">MhKdCmYA</p>",,,,,,,,,,
html-keyboard-response,422,516167,0.0-18.0-0.9,64973d83e4fc64d6ae59c370,650c16f0f2faf8d7a0d14c09,651c1dc1f893ceabafc0058a,null,null,"<p style=""font-size: 60px; font-family: BACS"">hYDmtYTOM</p>",,,,,,,,,,
html-keyboard-response,423,517176,0.0-18.0-0.10,64973d83e4fc64d6ae59c370,650c16f0f2faf8d7a0d14c09,651c1dc1f893ceabafc0058a,null,null,"<p style=""font-size: 60px; font-family: BACS"">UJmrQGb</p>",,,,,,,,,,
html-keyboard-response,424,518184,0.0-18.0-0.11,64973d83e4fc64d6ae59c370,650c16f0f2faf8d7a0d14c09,651c1dc1f893ceabafc0058a,null,null,"<p style=""font-size: 60px; font-family: BACS"">JmNkYArG</p>",,,,,,,,,,
html-keyboard-response,425,519190,0.0-18.0-0.12,64973d83e4fc64d6ae59c370,650c16f0f2faf8d7a0d14c09,651c1dc1f893ceabafc0058a,null,null,"<p style=""font-size: 60px; font-family: BACS"">BPAlAlKD</p>",,,,,,,,,,
html-keyboard-response,426,520200,0.0-18.0-0.13,64973d83e4fc64d6ae59c370,650c16f0f2faf8d7a0d14c09,651c1dc1f893ceabafc0058a,null,null,"<p style=""font-size: 60px; font-family: BACS"">aYaNYArG</p>",,,,,,,,,,
html-keyboard-response,427,521207,0.0-18.0-0.14,64973d83e4fc64d6ae59c370,650c16f0f2faf8d7a0d14c09,651c1dc1f893ceabafc0058a,null,null,"<p style=""font-size: 60px; font-family: BACS"">lYruaYaum</p>",,,,,,,,,,
html-keyboard-response,428,522213,0.0-18.0-0.15,64973d83e4fc64d6ae59c370,650c16f0f2faf8d7a0d14c09,651c1dc1f893ceabafc0058a,null,null,"<p style=""font-size: 60px; font-family: BACS"">YOaAbAvdk</p>",,,,,,,,,,
html-keyboard-response,429,523223,0.0-18.0-0.16,64973d83e4fc64d6ae59c370,650c16f0f2faf8d7a0d14c09,651c1dc1f893ceabafc0058a,null,null,"<p style=""font-size: 60px; font-family: BACS"">MhKdYTOM</p>",,,,,,,,,,
html-keyboard-response,430,524227,0.0-18.0-0.17,64973d83e4fc64d6ae59c370,650c16f0f2faf8d7a0d14c09,651c1dc1f893ceabafc0058a,null,null,"<p style=""font-size: 60px; font-family: BACS"">BPAlYDTk</p>",,,,,,,,,,
html-keyboard-response,431,525237,0.0-18.0-0.18,64973d83e4fc64d6ae59c370,650c16f0f2faf8d7a0d14c09,651c1dc1f893ceabafc0058a,null,null,"<p style=""font-size: 60px; font-family: BACS"">YOaAbYaum</p>",,,,,,,,,,
html-keyboard-response,432,526247,0.0-18.0-0.19,64973d83e4fc64d6ae59c370,650c16f0f2faf8d7a0d14c09,651c1dc1f893ceabafc0058a,null,null,"<p style=""font-size: 60px; font-family: BACS"">NaAQduOAO</p>",,,,,,,,,,
html-keyboard-response,433,527253,0.0-18.0-0.20,64973d83e4fc64d6ae59c370,650c16f0f2faf8d7a0d14c09,651c1dc1f893ceabafc0058a,null,null,"<p style=""font-size: 60px; font-family: BACS"">COtBDKmE</p>",,,,,,,,,,
html-keyboard-response,434,528262,0.0-18.0-0.21,64973d83e4fc64d6ae59c370,650c16f0f2faf8d7a0d14c09,651c1dc1f893ceabafc0058a,null,null,"<p style=""font-size: 60px; font-family: BACS"">ECtbDCmYA</p>",,,,,,,,,,
html-keyboard-response,435,529272,0.0-18.0-0.22,64973d83e4fc64d6ae59c370,650c16f0f2faf8d7a0d14c09,651c1dc1f893ceabafc0058a,null,null,"<p style=""font-size: 60px; font-family: BACS"">hYDmtKmE</p>",,,,,,,,,,
html-keyboard-response,436,530278,0.0-18.0-0.23,64973d83e4fc64d6ae59c370,650c16f0f2faf8d7a0d14c09,651c1dc1f893ceabafc0058a,null,null,"<p style=""font-size: 60px; font-family: BACS"">mhtcCmYA</p>",,,,,,,,,,
html-keyboard-response,437,531286,0.0-18.0-0.24,64973d83e4fc64d6ae59c370,650c16f0f2faf8d7a0d14c09,651c1dc1f893ceabafc0058a,null,null,"<p style=""font-size: 60px; font-family: BACS"">MhKdAlKD</p>",,,,,,,,,,
html-keyboard-response,438,532296,0.0-18.0-0.25,64973d83e4fc64d6ae59c370,650c16f0f2faf8d7a0d14c09,651c1dc1f893ceabafc0058a,null,null,"<p style=""font-size: 60px; font-family: BACS"">mhtcYTOM</p>",,,,,,,,,,
html-keyboard-response,439,533302,0.0-18.0-0.26,64973d83e4fc64d6ae59c370,650c16f0f2faf8d7a0d14c09,651c1dc1f893ceabafc0058a,null,null,"<p style=""font-size: 60px; font-family: BACS"">ukYZAvdk</p>",,,,,,,,,,
html-keyboard-response,440,534311,0.0-18.0-0.27,64973d83e4fc64d6ae59c370,650c16f0f2faf8d7a0d14c09,651c1dc1f893ceabafc0058a,null,null,"<p style=""font-size: 60px; font-family: BACS"">hYDmtAlKD</p>",,,,,,,,,,
html-keyboard-response,441,535318,0.0-18.0-0.28,64973d83e4fc64d6ae59c370,650c16f0f2faf8d7a0d14c09,651c1dc1f893ceabafc0058a,null,null,"<p style=""font-size: 60px; font-family: BACS"">PDPhlYDTk</p>",,,,,,,,,,
html-keyboard-response,442,536329,0.0-18.0-0.29,64973d83e4fc64d6ae59c370,650c16f0f2faf8d7a0d14c09,651c1dc1f893ceabafc0058a,null,null,"<p style=""font-size: 60px; font-family: BACS"">JmNkYaum</p>",,,,,,,,,,
html-keyboard-response,443,537335,0.0-18.0-0.30,64973d83e4fc64d6ae59c370,650c16f0f2faf8d7a0d14c09,651c1dc1f893ceabafc0058a,null,null,"<p style=""font-size: 60px; font-family: BACS"">KAERMAlKD</p>",,,,,,,,,,
html-keyboard-response,444,538341,0.0-18.0-0.31,64973d83e4fc64d6ae59c370,650c16f0f2faf8d7a0d14c09,651c1dc1f893ceabafc0058a,null,null,"<p style=""font-size: 60px; font-family: BACS"">PDPhlKmE</p>",,,,,,,,,,
html-keyboard-response,445,539349,0.0-18.0-0.32,64973d83e4fc64d6ae59c370,650c16f0f2faf8d7a0d14c09,651c1dc1f893ceabafc0058a,null,null,"<p style=""font-size: 60px; font-family: BACS"">COtBDYDTk</p>",,,,,,,,,,
html-keyboard-response,446,540359,0.0-18.0-0.33,64973d83e4fc64d6ae59c370,650c16f0f2faf8d7a0d14c09,651c1dc1f893ceabafc0058a,null,null,"<p style=""font-size: 60px; font-family: BACS"">laYmrYArG</p>",,,,,,,,,,
html-keyboard-response,447,541364,0.0-18.0-0.34,64973d83e4fc64d6ae59c370,650c16f0f2faf8d7a0d14c09,651c1dc1f893ceabafc0058a,null,null,"<p style=""font-size: 60px; font-family: BACS"">JmNkuOAO</p>",,,,,,,,,,
html-keyboard-response,448,542375,0.0-18.0-0.35,64973d83e4fc64d6ae59c370,650c16f0f2faf8d7a0d14c09,651c1dc1f893ceabafc0058a,null,null,"<p style=""font-size: 60px; font-family: BACS"">KAERMYDTk</p>",,,,,,,,,,
html-keyboard-response,449,543380,0.0-18.0-0.36,64973d83e4fc64d6ae59c370,650c16f0f2faf8d7a0d14c09,651c1dc1f893ceabafc0058a,null,null,"<p style=""font-size: 60px; font-family: BACS"">ZvalvYaum</p>",,,,,,,,,,
html-keyboard-response,450,544388,0.0-18.0-0.37,64973d83e4fc64d6ae59c370,650c16f0f2faf8d7a0d14c09,651c1dc1f893ceabafc0058a,null,null,"<p style=""font-size: 60px; font-family: BACS"">BPAlKmE</p>",,,,,,,,,,
html-keyboard-response,451,545398,0.0-18.0-0.38,64973d83e4fc64d6ae59c370,650c16f0f2faf8d7a0d14c09,651c1dc1f893ceabafc0058a,null,null,"<p style=""font-size: 60px; font-family: BACS"">ZvalvAvdk</p>",,,,,,,,,,
html-keyboard-response,452,546408,0.0-18.0-0.39,64973d83e4fc64d6ae59c370,650c16f0f2faf8d7a0d14c09,651c1dc1f893ceabafc0058a,null,null,"<p style=""font-size: 60px; font-family: BACS"">DOchlAlKD</p>",,,,,,,,,,
html-keyboard-response,453,547414,0.0-18.0-0.40,64973d83e4fc64d6ae59c370,650c16f0f2faf8d7a0d14c09,651c1dc1f893ceabafc0058a,null,null,"<p style=""font-size: 60px; font-family: BACS"">JmNkAvdk</p>",,,,,,,,,,
html-keyboard-response,454,548423,0.0-18.0-0.41,64973d83e4fc64d6ae59c370,650c16f0f2faf8d7a0d14c09,651c1dc1f893ceabafc0058a,null,null,"<p style=""font-size: 60px; font-family: BACS"">lYruaYArG</p>",,,,,,,,,,
html-keyboard-response,455,549433,0.0-18.0-0.42,64973d83e4fc64d6ae59c370,650c16f0f2faf8d7a0d14c09,651c1dc1f893ceabafc0058a,null,null,"<p style=""font-size: 60px; font-family: BACS"">NJZluOAO</p>",,,,,,,,,,
html-keyboard-response,456,550437,0.0-18.0-0.43,64973d83e4fc64d6ae59c370,650c16f0f2faf8d7a0d14c09,651c1dc1f893ceabafc0058a,null,null,"<p style=""font-size: 60px; font-family: BACS"">PDPhlYTOM</p>",,,,,,,,,,
html-keyboard-response,457,551447,0.0-18.0-0.44,64973d83e4fc64d6ae59c370,650c16f0f2faf8d7a0d14c09,651c1dc1f893ceabafc0058a,null,null,"<p style=""font-size: 60px; font-family: BACS"">ukYZQGb</p>",,,,,,,,,,
html-keyboard-response,458,552457,0.0-18.0-0.45,64973d83e4fc64d6ae59c370,650c16f0f2faf8d7a0d14c09,651c1dc1f893ceabafc0058a,null,null,"<p style=""font-size: 60px; font-family: BACS"">CtmbYTOM</p>",,,,,,,,,,
html-keyboard-response,459,553463,0.0-18.0-0.46,64973d83e4fc64d6ae59c370,650c16f0f2faf8d7a0d14c09,651c1dc1f893ceabafc0058a,null,null,"<p style=""font-size: 60px; font-family: BACS"">NaAQdYaum</p>",,,,,,,,,,
html-keyboard-response,460,554469,0.0-18.0-0.47,64973d83e4fc64d6ae59c370,650c16f0f2faf8d7a0d14c09,651c1dc1f893ceabafc0058a,null,null,"<p style=""font-size: 60px; font-family: BACS"">lYruauOAO</p>",,,,,,,,,,
html-keyboard-response,461,555478,0.0-18.0-0.48,64973d83e4fc64d6ae59c370,650c16f0f2faf8d7a0d14c09,651c1dc1f893ceabafc0058a,null,null,"<p style=""font-size: 60px; font-family: BACS"">DOchlYDTk</p>",,,,,,,,,,
html-keyboard-response,462,556486,0.0-18.0-0.49,64973d83e4fc64d6ae59c370,650c16f0f2faf8d7a0d14c09,651c1dc1f893ceabafc0058a,null,null,"<p style=""font-size: 60px; font-family: BACS"">ukYZYArG</p>",,,,,,,,,,
html-keyboard-response,463,557496,0.0-18.0-0.50,64973d83e4fc64d6ae59c370,650c16f0f2faf8d7a0d14c09,651c1dc1f893ceabafc0058a,null,null,"<p style=""font-size: 60px; font-family: BACS"">aYaNuOAO</p>",,,,,,,,,,
html-keyboard-response,464,558505,0.0-18.0-0.51,64973d83e4fc64d6ae59c370,650c16f0f2faf8d7a0d14c09,651c1dc1f893ceabafc0058a,null,null,"<p style=""font-size: 60px; font-family: BACS"">KAERMKmE</p>",,,,,,,,,,
html-keyboard-response,465,559510,0.0-18.0-0.52,64973d83e4fc64d6ae59c370,650c16f0f2faf8d7a0d14c09,651c1dc1f893ceabafc0058a,null,null,"<p style=""font-size: 60px; font-family: BACS"">laYmrQGb</p>",,,,,,,,,,
