"trial_type","trial_index","time_elapsed","internal_node_id","subject_id","study_id","session_id","rt","response","stimulus","success","item","task","correct_response","testing_condition","correct","target","confound","name"
"pavlovia","0","689","0.0-0.0","60ec51c51a3158a50ded8a3e","650c16f0f2faf8d7a0d14c09","651c1cd0d24a0d706e070b12","","","","","","","","","","","",""
"survey-html-form","1","6602","0.0-1.0","60ec51c51a3158a50ded8a3e","650c16f0f2faf8d7a0d14c09","651c1cd0d24a0d706e070b12","5913","{""ID"":""60ec51c51a3158a50ded8a3e""}","","","","","","","","","",""
"html-keyboard-response","2","9334","0.0-2.0","60ec51c51a3158a50ded8a3e","650c16f0f2faf8d7a0d14c09","651c1cd0d24a0d706e070b12","2731"," ","<p style=""font-size: 15px;"">Before beginning, we ask that you read the consent information and confirm your agreement to participate in the experiment.</p>
      <p style=""font-size: 15px;""> We ask that you remember that this is a research project and that your participation is entirely voluntary. You can stop your participation at any time, without needing to provide any explanation. The study we're asking you to participate in aims at examining how readers process written words. You will be engaged in a session of apprximately 20 minutes, followed by a brief questionnaire. You will have the opportunity to take a few breaks during the experiment. You will be paid £4 for your participation, corresponding to a rate of £8/hour. While this experiment looks at cognitive faculties, this experiment doesn't constitute clinical proof of eventual pathologies.</p>
      <p style=""font-size: 15px;"">All of the information collected thanks to yours and others' participation will be held in a secure password-protected server, and will not be shared with anyone not authorised to view it. Your personal information will be kept with an arbitrary participant ID. Thanks to this data anonymity process, any researcher analysing the data won't be able to track the information back to a specific participant. Therefore, this process will make identifying you impossibile, even when results from the study will be published in scientific reviews, presented at congresses, or at any other public forum. More generally, the collected data will be treated in accordance with the laws on privacy and conformity to the Legislative Degree n. 196 ""Code regarding the protection of personal data"" of the 30th of June 2003 and to the European Regulation 2016/670 (General Data Protection Regulation - GDPR). The Data Protection Officer is Avv. Valentina Carollo, who can be contacted at the following email addresses: <a href=""mailto:dpo@sissa.it"">dpo@sissa.it</a> or <a href=""mailto:rpd@sissa.it"">rpd@sissa.it</a> - PEC: <a href=""mailto:protocollo@pec.sissa.it"">protocollo@pec.sissa.it</a>.</p>
      <p style=""font-size: 15px;""> Before expressing your consent to participate, we would like to remind you again that in case you need explanations on any aspect of the experimental procedure, the researcher is at your disposition (<a href=""mailto:aliebelt@sissa.it"">aliebelt@sissa.it</a>, <a href=""mailto:davide.crepaldi@sissa.it"">davide.crepaldi@sissa.it</a>).</p>
      <p style=""font-size: 15px;"">If you would like to download the informed consent form, you can do so here: <a href=""BASL-Informed_Consent.pdf"" download>informed consent form</a>.</p>
      <p style=""font-size: 15px;"">We ask that you press the spacebar to proceed to the consent section.</p>","","","","","","","","",""
"survey-html-form","3","19792","0.0-3.0","60ec51c51a3158a50ded8a3e","650c16f0f2faf8d7a0d14c09","651c1cd0d24a0d706e070b12","10457","{""consent1"":""YES"",""consent2"":""YES"",""consent3"":""YES"",""consent4"":""YES"",""consent5"":""YES"",""consent6"":""YES""}","","","","","","","","","",""
"fullscreen","4","32866","0.0-4.0","60ec51c51a3158a50ded8a3e","650c16f0f2faf8d7a0d14c09","651c1cd0d24a0d706e070b12","","","","true","","","","","","","",""
"html-keyboard-response","5","63516","0.0-5.0","60ec51c51a3158a50ded8a3e","650c16f0f2faf8d7a0d14c09","651c1cd0d24a0d706e070b12","30649"," ","<p>Welcome, and thank you very much for your time!</p>
      <p>In this experiment, you'll be a language expert who's been asked to take a look at words that Earth has received in its first communication with aliens. Your task, in this first part of the experiment, is to pay close attention to the words you'll be shown; later, world leaders will ask you questions on what you saw. The words will be shown to you quite quickly; it seems that the aliens were in a hurry :-)</p>
      <p>Press the spacebar to continue.<p>","","","","","","","","",""
"html-keyboard-response","6","63567","0.0-6.0","60ec51c51a3158a50ded8a3e","650c16f0f2faf8d7a0d14c09","651c1cd0d24a0d706e070b12","null","null","<p style=""font-size: 120px; font-family: BACS""> </p>","","","","","","","","",""
"html-keyboard-response","7","67529","0.0-7.0","60ec51c51a3158a50ded8a3e","650c16f0f2faf8d7a0d14c09","651c1cd0d24a0d706e070b12","3962"," ","<p>Here is an example of the words you'll see:</p>
      <img src='esempio.png' height='400px'>
      <p>When you're ready to begin, press the spacebar.</p></div>","","","","","","","","",""
"html-keyboard-response","8","68543","0.0-8.0-0.0","60ec51c51a3158a50ded8a3e","650c16f0f2faf8d7a0d14c09","651c1cd0d24a0d706e070b12","null","null","<p style=""font-size: 60px; font-family: BACS"">ZcGdNJcUk</p>","","","","","","","","",""
"html-keyboard-response","9","69548","0.0-8.0-0.1","60ec51c51a3158a50ded8a3e","650c16f0f2faf8d7a0d14c09","651c1cd0d24a0d706e070b12","null","null","<p style=""font-size: 60px; font-family: BACS"">GabkYZJO</p>","","","","","","","","",""
"html-keyboard-response","10","70558","0.0-8.0-0.2","60ec51c51a3158a50ded8a3e","650c16f0f2faf8d7a0d14c09","651c1cd0d24a0d706e070b12","null","null","<p style=""font-size: 60px; font-family: BACS"">UdYUQaQr</p>","","","","","","","","",""
"html-keyboard-response","11","71563","0.0-8.0-0.3","60ec51c51a3158a50ded8a3e","650c16f0f2faf8d7a0d14c09","651c1cd0d24a0d706e070b12","null","null","<p style=""font-size: 60px; font-family: BACS"">CkBOPmtKP</p>","","","","","","","","",""
"html-keyboard-response","12","72571","0.0-8.0-0.4","60ec51c51a3158a50ded8a3e","650c16f0f2faf8d7a0d14c09","651c1cd0d24a0d706e070b12","null","null","<p style=""font-size: 60px; font-family: BACS"">PlEKkMEC</p>","","","","","","","","",""
"html-keyboard-response","13","73578","0.0-8.0-0.5","60ec51c51a3158a50ded8a3e","650c16f0f2faf8d7a0d14c09","651c1cd0d24a0d706e070b12","null","null","<p style=""font-size: 60px; font-family: BACS"">dKRDbTE</p>","","","","","","","","",""
"html-keyboard-response","14","74587","0.0-8.0-0.6","60ec51c51a3158a50ded8a3e","650c16f0f2faf8d7a0d14c09","651c1cd0d24a0d706e070b12","null","null","<p style=""font-size: 60px; font-family: BACS"">COTKkKE</p>","","","","","","","","",""
"html-keyboard-response","15","75594","0.0-8.0-0.7","60ec51c51a3158a50ded8a3e","650c16f0f2faf8d7a0d14c09","651c1cd0d24a0d706e070b12","null","null","<p style=""font-size: 60px; font-family: BACS"">MlthBCAd</p>","","","","","","","","",""
"html-keyboard-response","16","76599","0.0-8.0-0.8","60ec51c51a3158a50ded8a3e","650c16f0f2faf8d7a0d14c09","651c1cd0d24a0d706e070b12","null","null","<p style=""font-size: 60px; font-family: BACS"">UdYUQrNlZ</p>","","","","","","","","",""
"html-keyboard-response","17","77606","0.0-8.0-0.9","60ec51c51a3158a50ded8a3e","650c16f0f2faf8d7a0d14c09","651c1cd0d24a0d706e070b12","null","null","<p style=""font-size: 60px; font-family: BACS"">CRdBdbTE</p>","","","","","","","","",""
"html-keyboard-response","18","78611","0.0-8.0-0.10","60ec51c51a3158a50ded8a3e","650c16f0f2faf8d7a0d14c09","651c1cd0d24a0d706e070b12","null","null","<p style=""font-size: 60px; font-family: BACS"">AlQaQdYAJ</p>","","","","","","","","",""
"html-keyboard-response","19","79619","0.0-8.0-0.11","60ec51c51a3158a50ded8a3e","650c16f0f2faf8d7a0d14c09","651c1cd0d24a0d706e070b12","null","null","<p style=""font-size: 60px; font-family: BACS"">hbkdBCAd</p>","","","","","","","","",""
"html-keyboard-response","20","80630","0.0-8.0-0.12","60ec51c51a3158a50ded8a3e","650c16f0f2faf8d7a0d14c09","651c1cd0d24a0d706e070b12","null","null","<p style=""font-size: 60px; font-family: BACS"">ArQurNlZ</p>","","","","","","","","",""
"html-keyboard-response","21","81635","0.0-8.0-0.13","60ec51c51a3158a50ded8a3e","650c16f0f2faf8d7a0d14c09","651c1cd0d24a0d706e070b12","null","null","<p style=""font-size: 60px; font-family: BACS"">lhCTCBCAd</p>","","","","","","","","",""
"html-keyboard-response","22","82639","0.0-8.0-0.14","60ec51c51a3158a50ded8a3e","650c16f0f2faf8d7a0d14c09","651c1cd0d24a0d706e070b12","null","null","<p style=""font-size: 60px; font-family: BACS"">GabkrNlZ</p>","","","","","","","","",""
"html-keyboard-response","23","83640","0.0-8.0-0.15","60ec51c51a3158a50ded8a3e","650c16f0f2faf8d7a0d14c09","651c1cd0d24a0d706e070b12","null","null","<p style=""font-size: 60px; font-family: BACS"">rvOvUJcUk</p>","","","","","","","","",""
"html-keyboard-response","24","84643","0.0-8.0-0.16","60ec51c51a3158a50ded8a3e","650c16f0f2faf8d7a0d14c09","651c1cd0d24a0d706e070b12","null","null","<p style=""font-size: 60px; font-family: BACS"">CkBOPBCAd</p>","","","","","","","","",""
"html-keyboard-response","25","85647","0.0-8.0-0.17","60ec51c51a3158a50ded8a3e","650c16f0f2faf8d7a0d14c09","651c1cd0d24a0d706e070b12","null","null","<p style=""font-size: 60px; font-family: BACS"">lhCTCkKE</p>","","","","","","","","",""
"html-keyboard-response","26","86659","0.0-8.0-0.18","60ec51c51a3158a50ded8a3e","650c16f0f2faf8d7a0d14c09","651c1cd0d24a0d706e070b12","null","null","<p style=""font-size: 60px; font-family: BACS"">MlthmtKP</p>","","","","","","","","",""
"html-keyboard-response","27","87663","0.0-8.0-0.19","60ec51c51a3158a50ded8a3e","650c16f0f2faf8d7a0d14c09","651c1cd0d24a0d706e070b12","null","null","<p style=""font-size: 60px; font-family: BACS"">CkBOPbTE</p>","","","","","","","","",""
"html-keyboard-response","28","88668","0.0-8.0-0.20","60ec51c51a3158a50ded8a3e","650c16f0f2faf8d7a0d14c09","651c1cd0d24a0d706e070b12","null","null","<p style=""font-size: 60px; font-family: BACS"">GabkdYAJ</p>","","","","","","","","",""
"html-keyboard-response","29","89676","0.0-8.0-0.21","60ec51c51a3158a50ded8a3e","650c16f0f2faf8d7a0d14c09","651c1cd0d24a0d706e070b12","null","null","<p style=""font-size: 60px; font-family: BACS"">UAcduaQr</p>","","","","","","","","",""
"html-keyboard-response","30","90690","0.0-8.0-0.22","60ec51c51a3158a50ded8a3e","650c16f0f2faf8d7a0d14c09","651c1cd0d24a0d706e070b12","null","null","<p style=""font-size: 60px; font-family: BACS"">dKRDkKE</p>","","","","","","","","",""
"html-keyboard-response","31","91695","0.0-8.0-0.23","60ec51c51a3158a50ded8a3e","650c16f0f2faf8d7a0d14c09","651c1cd0d24a0d706e070b12","null","null","<p style=""font-size: 60px; font-family: BACS"">MlthbTE</p>","","","","","","","","",""
"html-keyboard-response","32","92699","0.0-8.0-0.24","60ec51c51a3158a50ded8a3e","650c16f0f2faf8d7a0d14c09","651c1cd0d24a0d706e070b12","null","null","<p style=""font-size: 60px; font-family: BACS"">rvOvUdYAJ</p>","","","","","","","","",""
"html-keyboard-response","33","93713","0.0-8.0-0.25","60ec51c51a3158a50ded8a3e","650c16f0f2faf8d7a0d14c09","651c1cd0d24a0d706e070b12","null","null","<p style=""font-size: 60px; font-family: BACS"">bGuOrNlZ</p>","","","","","","","","",""
"html-keyboard-response","34","94722","0.0-8.0-0.26","60ec51c51a3158a50ded8a3e","650c16f0f2faf8d7a0d14c09","651c1cd0d24a0d706e070b12","null","null","<p style=""font-size: 60px; font-family: BACS"">rvOvUaQr</p>","","","","","","","","",""
"html-keyboard-response","35","95732","0.0-8.0-0.27","60ec51c51a3158a50ded8a3e","650c16f0f2faf8d7a0d14c09","651c1cd0d24a0d706e070b12","null","null","<p style=""font-size: 60px; font-family: BACS"">hBmMCkMEC</p>","","","","","","","","",""
"html-keyboard-response","36","96737","0.0-8.0-0.28","60ec51c51a3158a50ded8a3e","650c16f0f2faf8d7a0d14c09","651c1cd0d24a0d706e070b12","null","null","<p style=""font-size: 60px; font-family: BACS"">hbkdbTE</p>","","","","","","","","",""
"html-keyboard-response","37","97744","0.0-8.0-0.29","60ec51c51a3158a50ded8a3e","650c16f0f2faf8d7a0d14c09","651c1cd0d24a0d706e070b12","null","null","<p style=""font-size: 60px; font-family: BACS"">GabkaQr</p>","","","","","","","","",""
"html-keyboard-response","38","98747","0.0-8.0-0.30","60ec51c51a3158a50ded8a3e","650c16f0f2faf8d7a0d14c09","651c1cd0d24a0d706e070b12","null","null","<p style=""font-size: 60px; font-family: BACS"">UAcdudYAJ</p>","","","","","","","","",""
"html-keyboard-response","39","99753","0.0-8.0-0.31","60ec51c51a3158a50ded8a3e","650c16f0f2faf8d7a0d14c09","651c1cd0d24a0d706e070b12","null","null","<p style=""font-size: 60px; font-family: BACS"">lhCTCkMEC</p>","","","","","","","","",""
"html-keyboard-response","40","100765","0.0-8.0-0.32","60ec51c51a3158a50ded8a3e","650c16f0f2faf8d7a0d14c09","651c1cd0d24a0d706e070b12","null","null","<p style=""font-size: 60px; font-family: BACS"">bGuOaQr</p>","","","","","","","","",""
"html-keyboard-response","41","101769","0.0-8.0-0.33","60ec51c51a3158a50ded8a3e","650c16f0f2faf8d7a0d14c09","651c1cd0d24a0d706e070b12","null","null","<p style=""font-size: 60px; font-family: BACS"">UdYUQYZJO</p>","","","","","","","","",""
"html-keyboard-response","42","102779","0.0-8.0-0.34","60ec51c51a3158a50ded8a3e","650c16f0f2faf8d7a0d14c09","651c1cd0d24a0d706e070b12","null","null","<p style=""font-size: 60px; font-family: BACS"">bGuOJcUk</p>","","","","","","","","",""
"html-keyboard-response","43","103783","0.0-8.0-0.35","60ec51c51a3158a50ded8a3e","650c16f0f2faf8d7a0d14c09","651c1cd0d24a0d706e070b12","null","null","<p style=""font-size: 60px; font-family: BACS"">OcYMkMEC</p>","","","","","","","","",""
"html-keyboard-response","44","104788","0.0-8.0-0.36","60ec51c51a3158a50ded8a3e","650c16f0f2faf8d7a0d14c09","651c1cd0d24a0d706e070b12","null","null","<p style=""font-size: 60px; font-family: BACS"">ArQuYZJO</p>","","","","","","","","",""
"html-keyboard-response","45","105794","0.0-8.0-0.37","60ec51c51a3158a50ded8a3e","650c16f0f2faf8d7a0d14c09","651c1cd0d24a0d706e070b12","null","null","<p style=""font-size: 60px; font-family: BACS"">OcYMmtKP</p>","","","","","","","","",""
"html-keyboard-response","46","106800","0.0-8.0-0.38","60ec51c51a3158a50ded8a3e","650c16f0f2faf8d7a0d14c09","651c1cd0d24a0d706e070b12","null","null","<p style=""font-size: 60px; font-family: BACS"">kLvdNrNlZ</p>","","","","","","","","",""
"html-keyboard-response","47","107808","0.0-8.0-0.39","60ec51c51a3158a50ded8a3e","650c16f0f2faf8d7a0d14c09","651c1cd0d24a0d706e070b12","null","null","<p style=""font-size: 60px; font-family: BACS"">ArQuaQr</p>","","","","","","","","",""
"html-keyboard-response","48","108812","0.0-8.0-0.40","60ec51c51a3158a50ded8a3e","650c16f0f2faf8d7a0d14c09","651c1cd0d24a0d706e070b12","null","null","<p style=""font-size: 60px; font-family: BACS"">krGudYAJ</p>","","","","","","","","",""
"html-keyboard-response","49","109818","0.0-8.0-0.41","60ec51c51a3158a50ded8a3e","650c16f0f2faf8d7a0d14c09","651c1cd0d24a0d706e070b12","null","null","<p style=""font-size: 60px; font-family: BACS"">UAcduYZJO</p>","","","","","","","","",""
"html-keyboard-response","50","110820","0.0-8.0-0.42","60ec51c51a3158a50ded8a3e","650c16f0f2faf8d7a0d14c09","651c1cd0d24a0d706e070b12","null","null","<p style=""font-size: 60px; font-family: BACS"">PlEKkKE</p>","","","","","","","","",""
"html-keyboard-response","51","111828","0.0-8.0-0.43","60ec51c51a3158a50ded8a3e","650c16f0f2faf8d7a0d14c09","651c1cd0d24a0d706e070b12","null","null","<p style=""font-size: 60px; font-family: BACS"">OcYMbTE</p>","","","","","","","","",""
"html-keyboard-response","52","112833","0.0-8.0-0.44","60ec51c51a3158a50ded8a3e","650c16f0f2faf8d7a0d14c09","651c1cd0d24a0d706e070b12","null","null","<p style=""font-size: 60px; font-family: BACS"">rvOvUrNlZ</p>","","","","","","","","",""
"html-keyboard-response","53","113839","0.0-8.0-0.45","60ec51c51a3158a50ded8a3e","650c16f0f2faf8d7a0d14c09","651c1cd0d24a0d706e070b12","null","null","<p style=""font-size: 60px; font-family: BACS"">PlEKmtKP</p>","","","","","","","","",""
"html-keyboard-response","54","114849","0.0-8.0-0.46","60ec51c51a3158a50ded8a3e","650c16f0f2faf8d7a0d14c09","651c1cd0d24a0d706e070b12","null","null","<p style=""font-size: 60px; font-family: BACS"">ZcGdNYZJO</p>","","","","","","","","",""
"html-keyboard-response","55","115854","0.0-8.0-0.47","60ec51c51a3158a50ded8a3e","650c16f0f2faf8d7a0d14c09","651c1cd0d24a0d706e070b12","null","null","<p style=""font-size: 60px; font-family: BACS"">krGuJcUk</p>","","","","","","","","",""
"html-keyboard-response","56","116859","0.0-8.0-0.48","60ec51c51a3158a50ded8a3e","650c16f0f2faf8d7a0d14c09","651c1cd0d24a0d706e070b12","null","null","<p style=""font-size: 60px; font-family: BACS"">hBmMCBCAd</p>","","","","","","","","",""
"html-keyboard-response","57","117864","0.0-8.0-0.49","60ec51c51a3158a50ded8a3e","650c16f0f2faf8d7a0d14c09","651c1cd0d24a0d706e070b12","null","null","<p style=""font-size: 60px; font-family: BACS"">AlQaQrNlZ</p>","","","","","","","","",""
"html-keyboard-response","58","118871","0.0-8.0-0.50","60ec51c51a3158a50ded8a3e","650c16f0f2faf8d7a0d14c09","651c1cd0d24a0d706e070b12","null","null","<p style=""font-size: 60px; font-family: BACS"">COTKmtKP</p>","","","","","","","","",""
"html-keyboard-response","59","119874","0.0-8.0-0.51","60ec51c51a3158a50ded8a3e","650c16f0f2faf8d7a0d14c09","651c1cd0d24a0d706e070b12","null","null","<p style=""font-size: 60px; font-family: BACS"">AlQaQYZJO</p>","","","","","","","","",""
"html-keyboard-response","60","120886","0.0-8.0-0.52","60ec51c51a3158a50ded8a3e","650c16f0f2faf8d7a0d14c09","651c1cd0d24a0d706e070b12","null","null","<p style=""font-size: 60px; font-family: BACS"">hbkdkKE</p>","","","","","","","","",""
"html-keyboard-response","61","121898","0.0-8.0-0.53","60ec51c51a3158a50ded8a3e","650c16f0f2faf8d7a0d14c09","651c1cd0d24a0d706e070b12","null","null","<p style=""font-size: 60px; font-family: BACS"">bGuOdYAJ</p>","","","","","","","","",""
"html-keyboard-response","62","122903","0.0-8.0-0.54","60ec51c51a3158a50ded8a3e","650c16f0f2faf8d7a0d14c09","651c1cd0d24a0d706e070b12","null","null","<p style=""font-size: 60px; font-family: BACS"">kLvdNJcUk</p>","","","","","","","","",""
"html-keyboard-response","63","123906","0.0-8.0-0.55","60ec51c51a3158a50ded8a3e","650c16f0f2faf8d7a0d14c09","651c1cd0d24a0d706e070b12","null","null","<p style=""font-size: 60px; font-family: BACS"">ZcGdNaQr</p>","","","","","","","","",""
"html-keyboard-response","64","124918","0.0-8.0-0.56","60ec51c51a3158a50ded8a3e","650c16f0f2faf8d7a0d14c09","651c1cd0d24a0d706e070b12","null","null","<p style=""font-size: 60px; font-family: BACS"">COTKbTE</p>","","","","","","","","",""
"html-keyboard-response","65","125919","0.0-8.0-0.57","60ec51c51a3158a50ded8a3e","650c16f0f2faf8d7a0d14c09","651c1cd0d24a0d706e070b12","null","null","<p style=""font-size: 60px; font-family: BACS"">krGuYZJO</p>","","","","","","","","",""
"html-keyboard-response","66","126929","0.0-8.0-0.58","60ec51c51a3158a50ded8a3e","650c16f0f2faf8d7a0d14c09","651c1cd0d24a0d706e070b12","null","null","<p style=""font-size: 60px; font-family: BACS"">ArQuJcUk</p>","","","","","","","","",""
"html-keyboard-response","67","127930","0.0-8.0-0.59","60ec51c51a3158a50ded8a3e","650c16f0f2faf8d7a0d14c09","651c1cd0d24a0d706e070b12","null","null","<p style=""font-size: 60px; font-family: BACS"">CRdBdkKE</p>","","","","","","","","",""
"html-keyboard-response","68","128942","0.0-8.0-0.60","60ec51c51a3158a50ded8a3e","650c16f0f2faf8d7a0d14c09","651c1cd0d24a0d706e070b12","null","null","<p style=""font-size: 60px; font-family: BACS"">COTKkMEC</p>","","","","","","","","",""
"html-keyboard-response","69","129944","0.0-8.0-0.61","60ec51c51a3158a50ded8a3e","650c16f0f2faf8d7a0d14c09","651c1cd0d24a0d706e070b12","null","null","<p style=""font-size: 60px; font-family: BACS"">krGuaQr</p>","","","","","","","","",""
"html-keyboard-response","70","130960","0.0-8.0-0.62","60ec51c51a3158a50ded8a3e","650c16f0f2faf8d7a0d14c09","651c1cd0d24a0d706e070b12","null","null","<p style=""font-size: 60px; font-family: BACS"">kLvdNdYAJ</p>","","","","","","","","",""
"html-keyboard-response","71","131964","0.0-8.0-0.63","60ec51c51a3158a50ded8a3e","650c16f0f2faf8d7a0d14c09","651c1cd0d24a0d706e070b12","null","null","<p style=""font-size: 60px; font-family: BACS"">OcYMBCAd</p>","","","","","","","","",""
"html-keyboard-response","72","132974","0.0-8.0-0.64","60ec51c51a3158a50ded8a3e","650c16f0f2faf8d7a0d14c09","651c1cd0d24a0d706e070b12","null","null","<p style=""font-size: 60px; font-family: BACS"">PlEKbTE</p>","","","","","","","","",""
"html-keyboard-response","73","133985","0.0-8.0-0.65","60ec51c51a3158a50ded8a3e","650c16f0f2faf8d7a0d14c09","651c1cd0d24a0d706e070b12","null","null","<p style=""font-size: 60px; font-family: BACS"">MlthkKE</p>","","","","","","","","",""
"html-keyboard-response","74","134999","0.0-8.0-0.66","60ec51c51a3158a50ded8a3e","650c16f0f2faf8d7a0d14c09","651c1cd0d24a0d706e070b12","null","null","<p style=""font-size: 60px; font-family: BACS"">AlQaQJcUk</p>","","","","","","","","",""
"html-keyboard-response","75","136009","0.0-8.0-0.67","60ec51c51a3158a50ded8a3e","650c16f0f2faf8d7a0d14c09","651c1cd0d24a0d706e070b12","null","null","<p style=""font-size: 60px; font-family: BACS"">lhCTCmtKP</p>","","","","","","","","",""
"html-keyboard-response","76","137019","0.0-8.0-0.68","60ec51c51a3158a50ded8a3e","650c16f0f2faf8d7a0d14c09","651c1cd0d24a0d706e070b12","null","null","<p style=""font-size: 60px; font-family: BACS"">CkBOPkMEC</p>","","","","","","","","",""
"html-keyboard-response","77","138031","0.0-8.0-0.69","60ec51c51a3158a50ded8a3e","650c16f0f2faf8d7a0d14c09","651c1cd0d24a0d706e070b12","null","null","<p style=""font-size: 60px; font-family: BACS"">ZcGdNdYAJ</p>","","","","","","","","",""
"html-keyboard-response","78","139035","0.0-8.0-0.70","60ec51c51a3158a50ded8a3e","650c16f0f2faf8d7a0d14c09","651c1cd0d24a0d706e070b12","null","null","<p style=""font-size: 60px; font-family: BACS"">dKRDBCAd</p>","","","","","","","","",""
"html-keyboard-response","79","140041","0.0-8.0-0.71","60ec51c51a3158a50ded8a3e","650c16f0f2faf8d7a0d14c09","651c1cd0d24a0d706e070b12","null","null","<p style=""font-size: 60px; font-family: BACS"">hBmMCkKE</p>","","","","","","","","",""
"html-keyboard-response","80","141046","0.0-8.0-0.72","60ec51c51a3158a50ded8a3e","650c16f0f2faf8d7a0d14c09","651c1cd0d24a0d706e070b12","null","null","<p style=""font-size: 60px; font-family: BACS"">CRdBdkMEC</p>","","","","","","","","",""
"html-keyboard-response","81","142061","0.0-8.0-0.73","60ec51c51a3158a50ded8a3e","650c16f0f2faf8d7a0d14c09","651c1cd0d24a0d706e070b12","null","null","<p style=""font-size: 60px; font-family: BACS"">UAcdurNlZ</p>","","","","","","","","",""
"html-keyboard-response","82","143066","0.0-8.0-0.74","60ec51c51a3158a50ded8a3e","650c16f0f2faf8d7a0d14c09","651c1cd0d24a0d706e070b12","null","null","<p style=""font-size: 60px; font-family: BACS"">dKRDkMEC</p>","","","","","","","","",""
"html-keyboard-response","83","144074","0.0-8.0-0.75","60ec51c51a3158a50ded8a3e","650c16f0f2faf8d7a0d14c09","651c1cd0d24a0d706e070b12","null","null","<p style=""font-size: 60px; font-family: BACS"">UdYUQJcUk</p>","","","","","","","","",""
"html-keyboard-response","84","145089","0.0-8.0-0.76","60ec51c51a3158a50ded8a3e","650c16f0f2faf8d7a0d14c09","651c1cd0d24a0d706e070b12","null","null","<p style=""font-size: 60px; font-family: BACS"">hbkdmtKP</p>","","","","","","","","",""
"html-keyboard-response","85","146098","0.0-8.0-0.77","60ec51c51a3158a50ded8a3e","650c16f0f2faf8d7a0d14c09","651c1cd0d24a0d706e070b12","null","null","<p style=""font-size: 60px; font-family: BACS"">kLvdNYZJO</p>","","","","","","","","",""
"html-keyboard-response","86","147106","0.0-8.0-0.78","60ec51c51a3158a50ded8a3e","650c16f0f2faf8d7a0d14c09","651c1cd0d24a0d706e070b12","null","null","<p style=""font-size: 60px; font-family: BACS"">CRdBdBCAd</p>","","","","","","","","",""
"html-keyboard-response","87","148120","0.0-8.0-0.79","60ec51c51a3158a50ded8a3e","650c16f0f2faf8d7a0d14c09","651c1cd0d24a0d706e070b12","null","null","<p style=""font-size: 60px; font-family: BACS"">hBmMCmtKP</p>","","","","","","","","",""
"html-keyboard-response","88","161025","0.0-9.0","60ec51c51a3158a50ded8a3e","650c16f0f2faf8d7a0d14c09","651c1cd0d24a0d706e070b12","12905"," ","<p>Great, you've seen the first block of words. You may now take a short break.</p>
      <p>Press the spacebar when you're ready to continue.</p>","","","","","","","","",""
"html-keyboard-response","89","162034","0.0-10.0-0.0","60ec51c51a3158a50ded8a3e","650c16f0f2faf8d7a0d14c09","651c1cd0d24a0d706e070b12","null","null","<p style=""font-size: 60px; font-family: BACS"">COTKbTE</p>","","","","","","","","",""
"html-keyboard-response","90","163044","0.0-10.0-0.1","60ec51c51a3158a50ded8a3e","650c16f0f2faf8d7a0d14c09","651c1cd0d24a0d706e070b12","null","null","<p style=""font-size: 60px; font-family: BACS"">ArQuYZJO</p>","","","","","","","","",""
"html-keyboard-response","91","164052","0.0-10.0-0.2","60ec51c51a3158a50ded8a3e","650c16f0f2faf8d7a0d14c09","651c1cd0d24a0d706e070b12","null","null","<p style=""font-size: 60px; font-family: BACS"">CRdBdkMEC</p>","","","","","","","","",""
"html-keyboard-response","92","165057","0.0-10.0-0.3","60ec51c51a3158a50ded8a3e","650c16f0f2faf8d7a0d14c09","651c1cd0d24a0d706e070b12","null","null","<p style=""font-size: 60px; font-family: BACS"">ArQuJcUk</p>","","","","","","","","",""
"html-keyboard-response","93","166062","0.0-10.0-0.4","60ec51c51a3158a50ded8a3e","650c16f0f2faf8d7a0d14c09","651c1cd0d24a0d706e070b12","null","null","<p style=""font-size: 60px; font-family: BACS"">CkBOPbTE</p>","","","","","","","","",""
"html-keyboard-response","94","167071","0.0-10.0-0.5","60ec51c51a3158a50ded8a3e","650c16f0f2faf8d7a0d14c09","651c1cd0d24a0d706e070b12","null","null","<p style=""font-size: 60px; font-family: BACS"">OcYMBCAd</p>","","","","","","","","",""
"html-keyboard-response","95","168078","0.0-10.0-0.6","60ec51c51a3158a50ded8a3e","650c16f0f2faf8d7a0d14c09","651c1cd0d24a0d706e070b12","null","null","<p style=""font-size: 60px; font-family: BACS"">hbkdkKE</p>","","","","","","","","",""
"html-keyboard-response","96","169082","0.0-10.0-0.7","60ec51c51a3158a50ded8a3e","650c16f0f2faf8d7a0d14c09","651c1cd0d24a0d706e070b12","null","null","<p style=""font-size: 60px; font-family: BACS"">ZcGdNaQr</p>","","","","","","","","",""
"html-keyboard-response","97","170094","0.0-10.0-0.8","60ec51c51a3158a50ded8a3e","650c16f0f2faf8d7a0d14c09","651c1cd0d24a0d706e070b12","null","null","<p style=""font-size: 60px; font-family: BACS"">kLvdNrNlZ</p>","","","","","","","","",""
"html-keyboard-response","98","171110","0.0-10.0-0.9","60ec51c51a3158a50ded8a3e","650c16f0f2faf8d7a0d14c09","651c1cd0d24a0d706e070b12","null","null","<p style=""font-size: 60px; font-family: BACS"">hBmMCkKE</p>","","","","","","","","",""
"html-keyboard-response","99","172114","0.0-10.0-0.10","60ec51c51a3158a50ded8a3e","650c16f0f2faf8d7a0d14c09","651c1cd0d24a0d706e070b12","null","null","<p style=""font-size: 60px; font-family: BACS"">COTKmtKP</p>","","","","","","","","",""
"html-keyboard-response","100","173115","0.0-10.0-0.11","60ec51c51a3158a50ded8a3e","650c16f0f2faf8d7a0d14c09","651c1cd0d24a0d706e070b12","null","null","<p style=""font-size: 60px; font-family: BACS"">UdYUQJcUk</p>","","","","","","","","",""
"html-keyboard-response","101","174129","0.0-10.0-0.12","60ec51c51a3158a50ded8a3e","650c16f0f2faf8d7a0d14c09","651c1cd0d24a0d706e070b12","null","null","<p style=""font-size: 60px; font-family: BACS"">lhCTCBCAd</p>","","","","","","","","",""
"html-keyboard-response","102","175139","0.0-10.0-0.13","60ec51c51a3158a50ded8a3e","650c16f0f2faf8d7a0d14c09","651c1cd0d24a0d706e070b12","null","null","<p style=""font-size: 60px; font-family: BACS"">krGudYAJ</p>","","","","","","","","",""
"html-keyboard-response","103","176149","0.0-10.0-0.14","60ec51c51a3158a50ded8a3e","650c16f0f2faf8d7a0d14c09","651c1cd0d24a0d706e070b12","null","null","<p style=""font-size: 60px; font-family: BACS"">CkBOPkMEC</p>","","","","","","","","",""
"html-keyboard-response","104","177154","0.0-10.0-0.15","60ec51c51a3158a50ded8a3e","650c16f0f2faf8d7a0d14c09","651c1cd0d24a0d706e070b12","null","null","<p style=""font-size: 60px; font-family: BACS"">MlthBCAd</p>","","","","","","","","",""
"html-keyboard-response","105","178161","0.0-10.0-0.16","60ec51c51a3158a50ded8a3e","650c16f0f2faf8d7a0d14c09","651c1cd0d24a0d706e070b12","null","null","<p style=""font-size: 60px; font-family: BACS"">OcYMbTE</p>","","","","","","","","",""
"html-keyboard-response","106","179176","0.0-10.0-0.17","60ec51c51a3158a50ded8a3e","650c16f0f2faf8d7a0d14c09","651c1cd0d24a0d706e070b12","null","null","<p style=""font-size: 60px; font-family: BACS"">PlEKmtKP</p>","","","","","","","","",""
"html-keyboard-response","107","180188","0.0-10.0-0.18","60ec51c51a3158a50ded8a3e","650c16f0f2faf8d7a0d14c09","651c1cd0d24a0d706e070b12","null","null","<p style=""font-size: 60px; font-family: BACS"">dKRDBCAd</p>","","","","","","","","",""
"html-keyboard-response","108","181197","0.0-10.0-0.19","60ec51c51a3158a50ded8a3e","650c16f0f2faf8d7a0d14c09","651c1cd0d24a0d706e070b12","null","null","<p style=""font-size: 60px; font-family: BACS"">bGuOaQr</p>","","","","","","","","",""
"html-keyboard-response","109","182204","0.0-10.0-0.20","60ec51c51a3158a50ded8a3e","650c16f0f2faf8d7a0d14c09","651c1cd0d24a0d706e070b12","null","null","<p style=""font-size: 60px; font-family: BACS"">hBmMCBCAd</p>","","","","","","","","",""
"html-keyboard-response","110","183216","0.0-10.0-0.21","60ec51c51a3158a50ded8a3e","650c16f0f2faf8d7a0d14c09","651c1cd0d24a0d706e070b12","null","null","<p style=""font-size: 60px; font-family: BACS"">dKRDbTE</p>","","","","","","","","",""
"html-keyboard-response","111","184229","0.0-10.0-0.22","60ec51c51a3158a50ded8a3e","650c16f0f2faf8d7a0d14c09","651c1cd0d24a0d706e070b12","null","null","<p style=""font-size: 60px; font-family: BACS"">lhCTCkMEC</p>","","","","","","","","",""
"html-keyboard-response","112","185235","0.0-10.0-0.23","60ec51c51a3158a50ded8a3e","650c16f0f2faf8d7a0d14c09","651c1cd0d24a0d706e070b12","null","null","<p style=""font-size: 60px; font-family: BACS"">kLvdNJcUk</p>","","","","","","","","",""
"html-keyboard-response","113","186244","0.0-10.0-0.24","60ec51c51a3158a50ded8a3e","650c16f0f2faf8d7a0d14c09","651c1cd0d24a0d706e070b12","null","null","<p style=""font-size: 60px; font-family: BACS"">OcYMmtKP</p>","","","","","","","","",""
"html-keyboard-response","114","187257","0.0-10.0-0.25","60ec51c51a3158a50ded8a3e","650c16f0f2faf8d7a0d14c09","651c1cd0d24a0d706e070b12","null","null","<p style=""font-size: 60px; font-family: BACS"">rvOvUrNlZ</p>","","","","","","","","",""
"html-keyboard-response","115","188258","0.0-10.0-0.26","60ec51c51a3158a50ded8a3e","650c16f0f2faf8d7a0d14c09","651c1cd0d24a0d706e070b12","null","null","<p style=""font-size: 60px; font-family: BACS"">hbkdmtKP</p>","","","","","","","","",""
"html-keyboard-response","116","189267","0.0-10.0-0.27","60ec51c51a3158a50ded8a3e","650c16f0f2faf8d7a0d14c09","651c1cd0d24a0d706e070b12","null","null","<p style=""font-size: 60px; font-family: BACS"">CRdBdbTE</p>","","","","","","","","",""
"html-keyboard-response","117","190277","0.0-10.0-0.28","60ec51c51a3158a50ded8a3e","650c16f0f2faf8d7a0d14c09","651c1cd0d24a0d706e070b12","null","null","<p style=""font-size: 60px; font-family: BACS"">hbkdBCAd</p>","","","","","","","","",""
"html-keyboard-response","118","191292","0.0-10.0-0.29","60ec51c51a3158a50ded8a3e","650c16f0f2faf8d7a0d14c09","651c1cd0d24a0d706e070b12","null","null","<p style=""font-size: 60px; font-family: BACS"">CRdBdkKE</p>","","","","","","","","",""
"html-keyboard-response","119","192302","0.0-10.0-0.30","60ec51c51a3158a50ded8a3e","650c16f0f2faf8d7a0d14c09","651c1cd0d24a0d706e070b12","null","null","<p style=""font-size: 60px; font-family: BACS"">GabkdYAJ</p>","","","","","","","","",""
"html-keyboard-response","120","193314","0.0-10.0-0.31","60ec51c51a3158a50ded8a3e","650c16f0f2faf8d7a0d14c09","651c1cd0d24a0d706e070b12","null","null","<p style=""font-size: 60px; font-family: BACS"">UAcdurNlZ</p>","","","","","","","","",""
"html-keyboard-response","121","194330","0.0-10.0-0.32","60ec51c51a3158a50ded8a3e","650c16f0f2faf8d7a0d14c09","651c1cd0d24a0d706e070b12","null","null","<p style=""font-size: 60px; font-family: BACS"">lhCTCkKE</p>","","","","","","","","",""
"html-keyboard-response","122","195339","0.0-10.0-0.33","60ec51c51a3158a50ded8a3e","650c16f0f2faf8d7a0d14c09","651c1cd0d24a0d706e070b12","null","null","<p style=""font-size: 60px; font-family: BACS"">PlEKkMEC</p>","","","","","","","","",""
"html-keyboard-response","123","196350","0.0-10.0-0.34","60ec51c51a3158a50ded8a3e","650c16f0f2faf8d7a0d14c09","651c1cd0d24a0d706e070b12","null","null","<p style=""font-size: 60px; font-family: BACS"">bGuOJcUk</p>","","","","","","","","",""
"html-keyboard-response","124","197363","0.0-10.0-0.35","60ec51c51a3158a50ded8a3e","650c16f0f2faf8d7a0d14c09","651c1cd0d24a0d706e070b12","null","null","<p style=""font-size: 60px; font-family: BACS"">CkBOPmtKP</p>","","","","","","","","",""
"html-keyboard-response","125","198372","0.0-10.0-0.36","60ec51c51a3158a50ded8a3e","650c16f0f2faf8d7a0d14c09","651c1cd0d24a0d706e070b12","null","null","<p style=""font-size: 60px; font-family: BACS"">GabkrNlZ</p>","","","","","","","","",""
"html-keyboard-response","126","199383","0.0-10.0-0.37","60ec51c51a3158a50ded8a3e","650c16f0f2faf8d7a0d14c09","651c1cd0d24a0d706e070b12","null","null","<p style=""font-size: 60px; font-family: BACS"">PlEKbTE</p>","","","","","","","","",""
"html-keyboard-response","127","200397","0.0-10.0-0.38","60ec51c51a3158a50ded8a3e","650c16f0f2faf8d7a0d14c09","651c1cd0d24a0d706e070b12","null","null","<p style=""font-size: 60px; font-family: BACS"">ZcGdNdYAJ</p>","","","","","","","","",""
"html-keyboard-response","128","201406","0.0-10.0-0.39","60ec51c51a3158a50ded8a3e","650c16f0f2faf8d7a0d14c09","651c1cd0d24a0d706e070b12","null","null","<p style=""font-size: 60px; font-family: BACS"">UdYUQYZJO</p>","","","","","","","","",""
"html-keyboard-response","129","202420","0.0-10.0-0.40","60ec51c51a3158a50ded8a3e","650c16f0f2faf8d7a0d14c09","651c1cd0d24a0d706e070b12","null","null","<p style=""font-size: 60px; font-family: BACS"">UAcdudYAJ</p>","","","","","","","","",""
"html-keyboard-response","130","203422","0.0-10.0-0.41","60ec51c51a3158a50ded8a3e","650c16f0f2faf8d7a0d14c09","651c1cd0d24a0d706e070b12","null","null","<p style=""font-size: 60px; font-family: BACS"">AlQaQrNlZ</p>","","","","","","","","",""
"html-keyboard-response","131","204423","0.0-10.0-0.42","60ec51c51a3158a50ded8a3e","650c16f0f2faf8d7a0d14c09","651c1cd0d24a0d706e070b12","null","null","<p style=""font-size: 60px; font-family: BACS"">GabkaQr</p>","","","","","","","","",""
"html-keyboard-response","132","205431","0.0-10.0-0.43","60ec51c51a3158a50ded8a3e","650c16f0f2faf8d7a0d14c09","651c1cd0d24a0d706e070b12","null","null","<p style=""font-size: 60px; font-family: BACS"">ZcGdNJcUk</p>","","","","","","","","",""
"html-keyboard-response","133","206438","0.0-10.0-0.44","60ec51c51a3158a50ded8a3e","650c16f0f2faf8d7a0d14c09","651c1cd0d24a0d706e070b12","null","null","<p style=""font-size: 60px; font-family: BACS"">ArQurNlZ</p>","","","","","","","","",""
"html-keyboard-response","134","207442","0.0-10.0-0.45","60ec51c51a3158a50ded8a3e","650c16f0f2faf8d7a0d14c09","651c1cd0d24a0d706e070b12","null","null","<p style=""font-size: 60px; font-family: BACS"">CkBOPBCAd</p>","","","","","","","","",""
"html-keyboard-response","135","208454","0.0-10.0-0.46","60ec51c51a3158a50ded8a3e","650c16f0f2faf8d7a0d14c09","651c1cd0d24a0d706e070b12","null","null","<p style=""font-size: 60px; font-family: BACS"">kLvdNYZJO</p>","","","","","","","","",""
"html-keyboard-response","136","209462","0.0-10.0-0.47","60ec51c51a3158a50ded8a3e","650c16f0f2faf8d7a0d14c09","651c1cd0d24a0d706e070b12","null","null","<p style=""font-size: 60px; font-family: BACS"">UdYUQrNlZ</p>","","","","","","","","",""
"html-keyboard-response","137","210473","0.0-10.0-0.48","60ec51c51a3158a50ded8a3e","650c16f0f2faf8d7a0d14c09","651c1cd0d24a0d706e070b12","null","null","<p style=""font-size: 60px; font-family: BACS"">kLvdNdYAJ</p>","","","","","","","","",""
"html-keyboard-response","138","211483","0.0-10.0-0.49","60ec51c51a3158a50ded8a3e","650c16f0f2faf8d7a0d14c09","651c1cd0d24a0d706e070b12","null","null","<p style=""font-size: 60px; font-family: BACS"">UdYUQaQr</p>","","","","","","","","",""
"html-keyboard-response","139","212496","0.0-10.0-0.50","60ec51c51a3158a50ded8a3e","650c16f0f2faf8d7a0d14c09","651c1cd0d24a0d706e070b12","null","null","<p style=""font-size: 60px; font-family: BACS"">hbkdbTE</p>","","","","","","","","",""
"html-keyboard-response","140","213507","0.0-10.0-0.51","60ec51c51a3158a50ded8a3e","650c16f0f2faf8d7a0d14c09","651c1cd0d24a0d706e070b12","null","null","<p style=""font-size: 60px; font-family: BACS"">dKRDkMEC</p>","","","","","","","","",""
"html-keyboard-response","141","214520","0.0-10.0-0.52","60ec51c51a3158a50ded8a3e","650c16f0f2faf8d7a0d14c09","651c1cd0d24a0d706e070b12","null","null","<p style=""font-size: 60px; font-family: BACS"">COTKkKE</p>","","","","","","","","",""
"html-keyboard-response","142","215528","0.0-10.0-0.53","60ec51c51a3158a50ded8a3e","650c16f0f2faf8d7a0d14c09","651c1cd0d24a0d706e070b12","null","null","<p style=""font-size: 60px; font-family: BACS"">krGuaQr</p>","","","","","","","","",""
"html-keyboard-response","143","216532","0.0-10.0-0.54","60ec51c51a3158a50ded8a3e","650c16f0f2faf8d7a0d14c09","651c1cd0d24a0d706e070b12","null","null","<p style=""font-size: 60px; font-family: BACS"">AlQaQJcUk</p>","","","","","","","","",""
"html-keyboard-response","144","217537","0.0-10.0-0.55","60ec51c51a3158a50ded8a3e","650c16f0f2faf8d7a0d14c09","651c1cd0d24a0d706e070b12","null","null","<p style=""font-size: 60px; font-family: BACS"">dKRDkKE</p>","","","","","","","","",""
"html-keyboard-response","145","218545","0.0-10.0-0.56","60ec51c51a3158a50ded8a3e","650c16f0f2faf8d7a0d14c09","651c1cd0d24a0d706e070b12","null","null","<p style=""font-size: 60px; font-family: BACS"">ArQuaQr</p>","","","","","","","","",""
"html-keyboard-response","146","219555","0.0-10.0-0.57","60ec51c51a3158a50ded8a3e","650c16f0f2faf8d7a0d14c09","651c1cd0d24a0d706e070b12","null","null","<p style=""font-size: 60px; font-family: BACS"">UAcduYZJO</p>","","","","","","","","",""
"html-keyboard-response","147","220567","0.0-10.0-0.58","60ec51c51a3158a50ded8a3e","650c16f0f2faf8d7a0d14c09","651c1cd0d24a0d706e070b12","null","null","<p style=""font-size: 60px; font-family: BACS"">CRdBdBCAd</p>","","","","","","","","",""
"html-keyboard-response","148","221580","0.0-10.0-0.59","60ec51c51a3158a50ded8a3e","650c16f0f2faf8d7a0d14c09","651c1cd0d24a0d706e070b12","null","null","<p style=""font-size: 60px; font-family: BACS"">GabkYZJO</p>","","","","","","","","",""
"html-keyboard-response","149","222591","0.0-10.0-0.60","60ec51c51a3158a50ded8a3e","650c16f0f2faf8d7a0d14c09","651c1cd0d24a0d706e070b12","null","null","<p style=""font-size: 60px; font-family: BACS"">MlthkKE</p>","","","","","","","","",""
"html-keyboard-response","150","223593","0.0-10.0-0.61","60ec51c51a3158a50ded8a3e","650c16f0f2faf8d7a0d14c09","651c1cd0d24a0d706e070b12","null","null","<p style=""font-size: 60px; font-family: BACS"">bGuOdYAJ</p>","","","","","","","","",""
"html-keyboard-response","151","224608","0.0-10.0-0.62","60ec51c51a3158a50ded8a3e","650c16f0f2faf8d7a0d14c09","651c1cd0d24a0d706e070b12","null","null","<p style=""font-size: 60px; font-family: BACS"">PlEKkKE</p>","","","","","","","","",""
"html-keyboard-response","152","225622","0.0-10.0-0.63","60ec51c51a3158a50ded8a3e","650c16f0f2faf8d7a0d14c09","651c1cd0d24a0d706e070b12","null","null","<p style=""font-size: 60px; font-family: BACS"">rvOvUJcUk</p>","","","","","","","","",""
"html-keyboard-response","153","226634","0.0-10.0-0.64","60ec51c51a3158a50ded8a3e","650c16f0f2faf8d7a0d14c09","651c1cd0d24a0d706e070b12","null","null","<p style=""font-size: 60px; font-family: BACS"">MlthbTE</p>","","","","","","","","",""
"html-keyboard-response","154","227644","0.0-10.0-0.65","60ec51c51a3158a50ded8a3e","650c16f0f2faf8d7a0d14c09","651c1cd0d24a0d706e070b12","null","null","<p style=""font-size: 60px; font-family: BACS"">lhCTCmtKP</p>","","","","","","","","",""
"html-keyboard-response","155","228653","0.0-10.0-0.66","60ec51c51a3158a50ded8a3e","650c16f0f2faf8d7a0d14c09","651c1cd0d24a0d706e070b12","null","null","<p style=""font-size: 60px; font-family: BACS"">bGuOrNlZ</p>","","","","","","","","",""
"html-keyboard-response","156","229657","0.0-10.0-0.67","60ec51c51a3158a50ded8a3e","650c16f0f2faf8d7a0d14c09","651c1cd0d24a0d706e070b12","null","null","<p style=""font-size: 60px; font-family: BACS"">UAcduaQr</p>","","","","","","","","",""
"html-keyboard-response","157","230662","0.0-10.0-0.68","60ec51c51a3158a50ded8a3e","650c16f0f2faf8d7a0d14c09","651c1cd0d24a0d706e070b12","null","null","<p style=""font-size: 60px; font-family: BACS"">krGuJcUk</p>","","","","","","","","",""
"html-keyboard-response","158","231669","0.0-10.0-0.69","60ec51c51a3158a50ded8a3e","650c16f0f2faf8d7a0d14c09","651c1cd0d24a0d706e070b12","null","null","<p style=""font-size: 60px; font-family: BACS"">ZcGdNYZJO</p>","","","","","","","","",""
"html-keyboard-response","159","232676","0.0-10.0-0.70","60ec51c51a3158a50ded8a3e","650c16f0f2faf8d7a0d14c09","651c1cd0d24a0d706e070b12","null","null","<p style=""font-size: 60px; font-family: BACS"">COTKkMEC</p>","","","","","","","","",""
"html-keyboard-response","160","233683","0.0-10.0-0.71","60ec51c51a3158a50ded8a3e","650c16f0f2faf8d7a0d14c09","651c1cd0d24a0d706e070b12","null","null","<p style=""font-size: 60px; font-family: BACS"">AlQaQdYAJ</p>","","","","","","","","",""
"html-keyboard-response","161","234691","0.0-10.0-0.72","60ec51c51a3158a50ded8a3e","650c16f0f2faf8d7a0d14c09","651c1cd0d24a0d706e070b12","null","null","<p style=""font-size: 60px; font-family: BACS"">hBmMCmtKP</p>","","","","","","","","",""
"html-keyboard-response","162","235694","0.0-10.0-0.73","60ec51c51a3158a50ded8a3e","650c16f0f2faf8d7a0d14c09","651c1cd0d24a0d706e070b12","null","null","<p style=""font-size: 60px; font-family: BACS"">AlQaQYZJO</p>","","","","","","","","",""
"html-keyboard-response","163","236698","0.0-10.0-0.74","60ec51c51a3158a50ded8a3e","650c16f0f2faf8d7a0d14c09","651c1cd0d24a0d706e070b12","null","null","<p style=""font-size: 60px; font-family: BACS"">MlthmtKP</p>","","","","","","","","",""
"html-keyboard-response","164","237703","0.0-10.0-0.75","60ec51c51a3158a50ded8a3e","650c16f0f2faf8d7a0d14c09","651c1cd0d24a0d706e070b12","null","null","<p style=""font-size: 60px; font-family: BACS"">krGuYZJO</p>","","","","","","","","",""
"html-keyboard-response","165","238710","0.0-10.0-0.76","60ec51c51a3158a50ded8a3e","650c16f0f2faf8d7a0d14c09","651c1cd0d24a0d706e070b12","null","null","<p style=""font-size: 60px; font-family: BACS"">OcYMkMEC</p>","","","","","","","","",""
"html-keyboard-response","166","239713","0.0-10.0-0.77","60ec51c51a3158a50ded8a3e","650c16f0f2faf8d7a0d14c09","651c1cd0d24a0d706e070b12","null","null","<p style=""font-size: 60px; font-family: BACS"">rvOvUaQr</p>","","","","","","","","",""
"html-keyboard-response","167","240720","0.0-10.0-0.78","60ec51c51a3158a50ded8a3e","650c16f0f2faf8d7a0d14c09","651c1cd0d24a0d706e070b12","null","null","<p style=""font-size: 60px; font-family: BACS"">hBmMCkMEC</p>","","","","","","","","",""
"html-keyboard-response","168","241723","0.0-10.0-0.79","60ec51c51a3158a50ded8a3e","650c16f0f2faf8d7a0d14c09","651c1cd0d24a0d706e070b12","null","null","<p style=""font-size: 60px; font-family: BACS"">rvOvUdYAJ</p>","","","","","","","","",""
"html-keyboard-response","169","249252","0.0-11.0","60ec51c51a3158a50ded8a3e","650c16f0f2faf8d7a0d14c09","651c1cd0d24a0d706e070b12","7529"," ","<p>Great, you've seen the second block of words. You may now take a short break.</p>
      <p>Press the spacebar when you're ready to continue.</p>","","","","","","","","",""
"html-keyboard-response","170","250257","0.0-12.0-0.0","60ec51c51a3158a50ded8a3e","650c16f0f2faf8d7a0d14c09","651c1cd0d24a0d706e070b12","null","null","<p style=""font-size: 60px; font-family: BACS"">PlEKmtKP</p>","","","","","","","","",""
"html-keyboard-response","171","251269","0.0-12.0-0.1","60ec51c51a3158a50ded8a3e","650c16f0f2faf8d7a0d14c09","651c1cd0d24a0d706e070b12","null","null","<p style=""font-size: 60px; font-family: BACS"">UdYUQaQr</p>","","","","","","","","",""
"html-keyboard-response","172","252270","0.0-12.0-0.2","60ec51c51a3158a50ded8a3e","650c16f0f2faf8d7a0d14c09","651c1cd0d24a0d706e070b12","null","null","<p style=""font-size: 60px; font-family: BACS"">MlthbTE</p>","","","","","","","","",""
"html-keyboard-response","173","253285","0.0-12.0-0.3","60ec51c51a3158a50ded8a3e","650c16f0f2faf8d7a0d14c09","651c1cd0d24a0d706e070b12","null","null","<p style=""font-size: 60px; font-family: BACS"">ZcGdNJcUk</p>","","","","","","","","",""
"html-keyboard-response","174","254297","0.0-12.0-0.4","60ec51c51a3158a50ded8a3e","650c16f0f2faf8d7a0d14c09","651c1cd0d24a0d706e070b12","null","null","<p style=""font-size: 60px; font-family: BACS"">PlEKkMEC</p>","","","","","","","","",""
"html-keyboard-response","175","255309","0.0-12.0-0.5","60ec51c51a3158a50ded8a3e","650c16f0f2faf8d7a0d14c09","651c1cd0d24a0d706e070b12","null","null","<p style=""font-size: 60px; font-family: BACS"">UdYUQYZJO</p>","","","","","","","","",""
"html-keyboard-response","176","256311","0.0-12.0-0.6","60ec51c51a3158a50ded8a3e","650c16f0f2faf8d7a0d14c09","651c1cd0d24a0d706e070b12","null","null","<p style=""font-size: 60px; font-family: BACS"">COTKkKE</p>","","","","","","","","",""
"html-keyboard-response","177","257324","0.0-12.0-0.7","60ec51c51a3158a50ded8a3e","650c16f0f2faf8d7a0d14c09","651c1cd0d24a0d706e070b12","null","null","<p style=""font-size: 60px; font-family: BACS"">hbkdbTE</p>","","","","","","","","",""
"html-keyboard-response","178","258336","0.0-12.0-0.8","60ec51c51a3158a50ded8a3e","650c16f0f2faf8d7a0d14c09","651c1cd0d24a0d706e070b12","null","null","<p style=""font-size: 60px; font-family: BACS"">bGuOrNlZ</p>","","","","","","","","",""
"html-keyboard-response","179","259345","0.0-12.0-0.9","60ec51c51a3158a50ded8a3e","650c16f0f2faf8d7a0d14c09","651c1cd0d24a0d706e070b12","null","null","<p style=""font-size: 60px; font-family: BACS"">AlQaQdYAJ</p>","","","","","","","","",""
"html-keyboard-response","180","260349","0.0-12.0-0.10","60ec51c51a3158a50ded8a3e","650c16f0f2faf8d7a0d14c09","651c1cd0d24a0d706e070b12","null","null","<p style=""font-size: 60px; font-family: BACS"">OcYMmtKP</p>","","","","","","","","",""
"html-keyboard-response","181","261359","0.0-12.0-0.11","60ec51c51a3158a50ded8a3e","650c16f0f2faf8d7a0d14c09","651c1cd0d24a0d706e070b12","null","null","<p style=""font-size: 60px; font-family: BACS"">bGuOJcUk</p>","","","","","","","","",""
"html-keyboard-response","182","262367","0.0-12.0-0.12","60ec51c51a3158a50ded8a3e","650c16f0f2faf8d7a0d14c09","651c1cd0d24a0d706e070b12","null","null","<p style=""font-size: 60px; font-family: BACS"">krGuaQr</p>","","","","","","","","",""
"html-keyboard-response","183","263370","0.0-12.0-0.13","60ec51c51a3158a50ded8a3e","650c16f0f2faf8d7a0d14c09","651c1cd0d24a0d706e070b12","null","null","<p style=""font-size: 60px; font-family: BACS"">UAcdudYAJ</p>","","","","","","","","",""
"html-keyboard-response","184","264371","0.0-12.0-0.14","60ec51c51a3158a50ded8a3e","650c16f0f2faf8d7a0d14c09","651c1cd0d24a0d706e070b12","null","null","<p style=""font-size: 60px; font-family: BACS"">hbkdkKE</p>","","","","","","","","",""
"html-keyboard-response","185","265373","0.0-12.0-0.15","60ec51c51a3158a50ded8a3e","650c16f0f2faf8d7a0d14c09","651c1cd0d24a0d706e070b12","null","null","<p style=""font-size: 60px; font-family: BACS"">CRdBdbTE</p>","","","","","","","","",""
"html-keyboard-response","186","266374","0.0-12.0-0.16","60ec51c51a3158a50ded8a3e","650c16f0f2faf8d7a0d14c09","651c1cd0d24a0d706e070b12","null","null","<p style=""font-size: 60px; font-family: BACS"">ZcGdNaQr</p>","","","","","","","","",""
"html-keyboard-response","187","267378","0.0-12.0-0.17","60ec51c51a3158a50ded8a3e","650c16f0f2faf8d7a0d14c09","651c1cd0d24a0d706e070b12","null","null","<p style=""font-size: 60px; font-family: BACS"">krGuYZJO</p>","","","","","","","","",""
"html-keyboard-response","188","268386","0.0-12.0-0.18","60ec51c51a3158a50ded8a3e","650c16f0f2faf8d7a0d14c09","651c1cd0d24a0d706e070b12","null","null","<p style=""font-size: 60px; font-family: BACS"">dKRDbTE</p>","","","","","","","","",""
"html-keyboard-response","189","269395","0.0-12.0-0.19","60ec51c51a3158a50ded8a3e","650c16f0f2faf8d7a0d14c09","651c1cd0d24a0d706e070b12","null","null","<p style=""font-size: 60px; font-family: BACS"">COTKkMEC</p>","","","","","","","","",""
"html-keyboard-response","190","270400","0.0-12.0-0.20","60ec51c51a3158a50ded8a3e","650c16f0f2faf8d7a0d14c09","651c1cd0d24a0d706e070b12","null","null","<p style=""font-size: 60px; font-family: BACS"">kLvdNYZJO</p>","","","","","","","","",""
"html-keyboard-response","191","271405","0.0-12.0-0.21","60ec51c51a3158a50ded8a3e","650c16f0f2faf8d7a0d14c09","651c1cd0d24a0d706e070b12","null","null","<p style=""font-size: 60px; font-family: BACS"">OcYMkMEC</p>","","","","","","","","",""
"html-keyboard-response","192","272410","0.0-12.0-0.22","60ec51c51a3158a50ded8a3e","650c16f0f2faf8d7a0d14c09","651c1cd0d24a0d706e070b12","null","null","<p style=""font-size: 60px; font-family: BACS"">CkBOPmtKP</p>","","","","","","","","",""
"html-keyboard-response","193","273417","0.0-12.0-0.23","60ec51c51a3158a50ded8a3e","650c16f0f2faf8d7a0d14c09","651c1cd0d24a0d706e070b12","null","null","<p style=""font-size: 60px; font-family: BACS"">COTKbTE</p>","","","","","","","","",""
"html-keyboard-response","194","274421","0.0-12.0-0.24","60ec51c51a3158a50ded8a3e","650c16f0f2faf8d7a0d14c09","651c1cd0d24a0d706e070b12","null","null","<p style=""font-size: 60px; font-family: BACS"">lhCTCBCAd</p>","","","","","","","","",""
"html-keyboard-response","195","275428","0.0-12.0-0.25","60ec51c51a3158a50ded8a3e","650c16f0f2faf8d7a0d14c09","651c1cd0d24a0d706e070b12","null","null","<p style=""font-size: 60px; font-family: BACS"">UAcduYZJO</p>","","","","","","","","",""
"html-keyboard-response","196","276433","0.0-12.0-0.26","60ec51c51a3158a50ded8a3e","650c16f0f2faf8d7a0d14c09","651c1cd0d24a0d706e070b12","null","null","<p style=""font-size: 60px; font-family: BACS"">AlQaQrNlZ</p>","","","","","","","","",""
"html-keyboard-response","197","277440","0.0-12.0-0.27","60ec51c51a3158a50ded8a3e","650c16f0f2faf8d7a0d14c09","651c1cd0d24a0d706e070b12","null","null","<p style=""font-size: 60px; font-family: BACS"">UAcduaQr</p>","","","","","","","","",""
"html-keyboard-response","198","278445","0.0-12.0-0.28","60ec51c51a3158a50ded8a3e","650c16f0f2faf8d7a0d14c09","651c1cd0d24a0d706e070b12","null","null","<p style=""font-size: 60px; font-family: BACS"">dKRDBCAd</p>","","","","","","","","",""
"html-keyboard-response","199","279449","0.0-12.0-0.29","60ec51c51a3158a50ded8a3e","650c16f0f2faf8d7a0d14c09","651c1cd0d24a0d706e070b12","null","null","<p style=""font-size: 60px; font-family: BACS"">GabkaQr</p>","","","","","","","","",""
"html-keyboard-response","200","280461","0.0-12.0-0.30","60ec51c51a3158a50ded8a3e","650c16f0f2faf8d7a0d14c09","651c1cd0d24a0d706e070b12","null","null","<p style=""font-size: 60px; font-family: BACS"">hbkdmtKP</p>","","","","","","","","",""
"html-keyboard-response","201","281478","0.0-12.0-0.31","60ec51c51a3158a50ded8a3e","650c16f0f2faf8d7a0d14c09","651c1cd0d24a0d706e070b12","null","null","<p style=""font-size: 60px; font-family: BACS"">AlQaQJcUk</p>","","","","","","","","",""
"html-keyboard-response","202","282485","0.0-12.0-0.32","60ec51c51a3158a50ded8a3e","650c16f0f2faf8d7a0d14c09","651c1cd0d24a0d706e070b12","null","null","<p style=""font-size: 60px; font-family: BACS"">rvOvUrNlZ</p>","","","","","","","","",""
"html-keyboard-response","203","283493","0.0-12.0-0.33","60ec51c51a3158a50ded8a3e","650c16f0f2faf8d7a0d14c09","651c1cd0d24a0d706e070b12","null","null","<p style=""font-size: 60px; font-family: BACS"">CRdBdBCAd</p>","","","","","","","","",""
"html-keyboard-response","204","284501","0.0-12.0-0.34","60ec51c51a3158a50ded8a3e","650c16f0f2faf8d7a0d14c09","651c1cd0d24a0d706e070b12","null","null","<p style=""font-size: 60px; font-family: BACS"">CkBOPbTE</p>","","","","","","","","",""
"html-keyboard-response","205","285503","0.0-12.0-0.35","60ec51c51a3158a50ded8a3e","650c16f0f2faf8d7a0d14c09","651c1cd0d24a0d706e070b12","null","null","<p style=""font-size: 60px; font-family: BACS"">hBmMCkKE</p>","","","","","","","","",""
"html-keyboard-response","206","286510","0.0-12.0-0.36","60ec51c51a3158a50ded8a3e","650c16f0f2faf8d7a0d14c09","651c1cd0d24a0d706e070b12","null","null","<p style=""font-size: 60px; font-family: BACS"">rvOvUJcUk</p>","","","","","","","","",""
"html-keyboard-response","207","287514","0.0-12.0-0.37","60ec51c51a3158a50ded8a3e","650c16f0f2faf8d7a0d14c09","651c1cd0d24a0d706e070b12","null","null","<p style=""font-size: 60px; font-family: BACS"">GabkdYAJ</p>","","","","","","","","",""
"html-keyboard-response","208","288518","0.0-12.0-0.38","60ec51c51a3158a50ded8a3e","650c16f0f2faf8d7a0d14c09","651c1cd0d24a0d706e070b12","null","null","<p style=""font-size: 60px; font-family: BACS"">lhCTCkKE</p>","","","","","","","","",""
"html-keyboard-response","209","289524","0.0-12.0-0.39","60ec51c51a3158a50ded8a3e","650c16f0f2faf8d7a0d14c09","651c1cd0d24a0d706e070b12","null","null","<p style=""font-size: 60px; font-family: BACS"">kLvdNrNlZ</p>","","","","","","","","",""
"html-keyboard-response","210","290530","0.0-12.0-0.40","60ec51c51a3158a50ded8a3e","650c16f0f2faf8d7a0d14c09","651c1cd0d24a0d706e070b12","null","null","<p style=""font-size: 60px; font-family: BACS"">PlEKbTE</p>","","","","","","","","",""
"html-keyboard-response","211","291540","0.0-12.0-0.41","60ec51c51a3158a50ded8a3e","650c16f0f2faf8d7a0d14c09","651c1cd0d24a0d706e070b12","null","null","<p style=""font-size: 60px; font-family: BACS"">hBmMCkMEC</p>","","","","","","","","",""
"html-keyboard-response","212","292544","0.0-12.0-0.42","60ec51c51a3158a50ded8a3e","650c16f0f2faf8d7a0d14c09","651c1cd0d24a0d706e070b12","null","null","<p style=""font-size: 60px; font-family: BACS"">CRdBdkKE</p>","","","","","","","","",""
"html-keyboard-response","213","293549","0.0-12.0-0.43","60ec51c51a3158a50ded8a3e","650c16f0f2faf8d7a0d14c09","651c1cd0d24a0d706e070b12","null","null","<p style=""font-size: 60px; font-family: BACS"">bGuOdYAJ</p>","","","","","","","","",""
"html-keyboard-response","214","294550","0.0-12.0-0.44","60ec51c51a3158a50ded8a3e","650c16f0f2faf8d7a0d14c09","651c1cd0d24a0d706e070b12","null","null","<p style=""font-size: 60px; font-family: BACS"">rvOvUaQr</p>","","","","","","","","",""
"html-keyboard-response","215","295555","0.0-12.0-0.45","60ec51c51a3158a50ded8a3e","650c16f0f2faf8d7a0d14c09","651c1cd0d24a0d706e070b12","null","null","<p style=""font-size: 60px; font-family: BACS"">kLvdNdYAJ</p>","","","","","","","","",""
"html-keyboard-response","216","296561","0.0-12.0-0.46","60ec51c51a3158a50ded8a3e","650c16f0f2faf8d7a0d14c09","651c1cd0d24a0d706e070b12","null","null","<p style=""font-size: 60px; font-family: BACS"">OcYMbTE</p>","","","","","","","","",""
"html-keyboard-response","217","297562","0.0-12.0-0.47","60ec51c51a3158a50ded8a3e","650c16f0f2faf8d7a0d14c09","651c1cd0d24a0d706e070b12","null","null","<p style=""font-size: 60px; font-family: BACS"">hBmMCmtKP</p>","","","","","","","","",""
"html-keyboard-response","218","298566","0.0-12.0-0.48","60ec51c51a3158a50ded8a3e","650c16f0f2faf8d7a0d14c09","651c1cd0d24a0d706e070b12","null","null","<p style=""font-size: 60px; font-family: BACS"">bGuOaQr</p>","","","","","","","","",""
"html-keyboard-response","219","299569","0.0-12.0-0.49","60ec51c51a3158a50ded8a3e","650c16f0f2faf8d7a0d14c09","651c1cd0d24a0d706e070b12","null","null","<p style=""font-size: 60px; font-family: BACS"">ZcGdNdYAJ</p>","","","","","","","","",""
"html-keyboard-response","220","300575","0.0-12.0-0.50","60ec51c51a3158a50ded8a3e","650c16f0f2faf8d7a0d14c09","651c1cd0d24a0d706e070b12","null","null","<p style=""font-size: 60px; font-family: BACS"">lhCTCmtKP</p>","","","","","","","","",""
"html-keyboard-response","221","301579","0.0-12.0-0.51","60ec51c51a3158a50ded8a3e","650c16f0f2faf8d7a0d14c09","651c1cd0d24a0d706e070b12","null","null","<p style=""font-size: 60px; font-family: BACS"">PlEKkKE</p>","","","","","","","","",""
"html-keyboard-response","222","302583","0.0-12.0-0.52","60ec51c51a3158a50ded8a3e","650c16f0f2faf8d7a0d14c09","651c1cd0d24a0d706e070b12","null","null","<p style=""font-size: 60px; font-family: BACS"">CkBOPkMEC</p>","","","","","","","","",""
"html-keyboard-response","223","303594","0.0-12.0-0.53","60ec51c51a3158a50ded8a3e","650c16f0f2faf8d7a0d14c09","651c1cd0d24a0d706e070b12","null","null","<p style=""font-size: 60px; font-family: BACS"">MlthkKE</p>","","","","","","","","",""
"html-keyboard-response","224","304597","0.0-12.0-0.54","60ec51c51a3158a50ded8a3e","650c16f0f2faf8d7a0d14c09","651c1cd0d24a0d706e070b12","null","null","<p style=""font-size: 60px; font-family: BACS"">CkBOPBCAd</p>","","","","","","","","",""
"html-keyboard-response","225","305602","0.0-12.0-0.55","60ec51c51a3158a50ded8a3e","650c16f0f2faf8d7a0d14c09","651c1cd0d24a0d706e070b12","null","null","<p style=""font-size: 60px; font-family: BACS"">lhCTCkMEC</p>","","","","","","","","",""
"html-keyboard-response","226","306609","0.0-12.0-0.56","60ec51c51a3158a50ded8a3e","650c16f0f2faf8d7a0d14c09","651c1cd0d24a0d706e070b12","null","null","<p style=""font-size: 60px; font-family: BACS"">AlQaQYZJO</p>","","","","","","","","",""
"html-keyboard-response","227","307619","0.0-12.0-0.57","60ec51c51a3158a50ded8a3e","650c16f0f2faf8d7a0d14c09","651c1cd0d24a0d706e070b12","null","null","<p style=""font-size: 60px; font-family: BACS"">MlthBCAd</p>","","","","","","","","",""
"html-keyboard-response","228","308624","0.0-12.0-0.58","60ec51c51a3158a50ded8a3e","650c16f0f2faf8d7a0d14c09","651c1cd0d24a0d706e070b12","null","null","<p style=""font-size: 60px; font-family: BACS"">GabkrNlZ</p>","","","","","","","","",""
"html-keyboard-response","229","309632","0.0-12.0-0.59","60ec51c51a3158a50ded8a3e","650c16f0f2faf8d7a0d14c09","651c1cd0d24a0d706e070b12","null","null","<p style=""font-size: 60px; font-family: BACS"">ArQuJcUk</p>","","","","","","","","",""
"html-keyboard-response","230","310641","0.0-12.0-0.60","60ec51c51a3158a50ded8a3e","650c16f0f2faf8d7a0d14c09","651c1cd0d24a0d706e070b12","null","null","<p style=""font-size: 60px; font-family: BACS"">UdYUQrNlZ</p>","","","","","","","","",""
"html-keyboard-response","231","311644","0.0-12.0-0.61","60ec51c51a3158a50ded8a3e","650c16f0f2faf8d7a0d14c09","651c1cd0d24a0d706e070b12","null","null","<p style=""font-size: 60px; font-family: BACS"">hBmMCBCAd</p>","","","","","","","","",""
"html-keyboard-response","232","312652","0.0-12.0-0.62","60ec51c51a3158a50ded8a3e","650c16f0f2faf8d7a0d14c09","651c1cd0d24a0d706e070b12","null","null","<p style=""font-size: 60px; font-family: BACS"">GabkYZJO</p>","","","","","","","","",""
"html-keyboard-response","233","313656","0.0-12.0-0.63","60ec51c51a3158a50ded8a3e","650c16f0f2faf8d7a0d14c09","651c1cd0d24a0d706e070b12","null","null","<p style=""font-size: 60px; font-family: BACS"">COTKmtKP</p>","","","","","","","","",""
"html-keyboard-response","234","314669","0.0-12.0-0.64","60ec51c51a3158a50ded8a3e","650c16f0f2faf8d7a0d14c09","651c1cd0d24a0d706e070b12","null","null","<p style=""font-size: 60px; font-family: BACS"">ArQuaQr</p>","","","","","","","","",""
"html-keyboard-response","235","315679","0.0-12.0-0.65","60ec51c51a3158a50ded8a3e","650c16f0f2faf8d7a0d14c09","651c1cd0d24a0d706e070b12","null","null","<p style=""font-size: 60px; font-family: BACS"">krGuJcUk</p>","","","","","","","","",""
"html-keyboard-response","236","316683","0.0-12.0-0.66","60ec51c51a3158a50ded8a3e","650c16f0f2faf8d7a0d14c09","651c1cd0d24a0d706e070b12","null","null","<p style=""font-size: 60px; font-family: BACS"">MlthmtKP</p>","","","","","","","","",""
"html-keyboard-response","237","317698","0.0-12.0-0.67","60ec51c51a3158a50ded8a3e","650c16f0f2faf8d7a0d14c09","651c1cd0d24a0d706e070b12","null","null","<p style=""font-size: 60px; font-family: BACS"">dKRDkKE</p>","","","","","","","","",""
"html-keyboard-response","238","318711","0.0-12.0-0.68","60ec51c51a3158a50ded8a3e","650c16f0f2faf8d7a0d14c09","651c1cd0d24a0d706e070b12","null","null","<p style=""font-size: 60px; font-family: BACS"">krGudYAJ</p>","","","","","","","","",""
"html-keyboard-response","239","319720","0.0-12.0-0.69","60ec51c51a3158a50ded8a3e","650c16f0f2faf8d7a0d14c09","651c1cd0d24a0d706e070b12","null","null","<p style=""font-size: 60px; font-family: BACS"">ArQuYZJO</p>","","","","","","","","",""
"html-keyboard-response","240","320722","0.0-12.0-0.70","60ec51c51a3158a50ded8a3e","650c16f0f2faf8d7a0d14c09","651c1cd0d24a0d706e070b12","null","null","<p style=""font-size: 60px; font-family: BACS"">hbkdBCAd</p>","","","","","","","","",""
"html-keyboard-response","241","321734","0.0-12.0-0.71","60ec51c51a3158a50ded8a3e","650c16f0f2faf8d7a0d14c09","651c1cd0d24a0d706e070b12","null","null","<p style=""font-size: 60px; font-family: BACS"">rvOvUdYAJ</p>","","","","","","","","",""
"html-keyboard-response","242","322742","0.0-12.0-0.72","60ec51c51a3158a50ded8a3e","650c16f0f2faf8d7a0d14c09","651c1cd0d24a0d706e070b12","null","null","<p style=""font-size: 60px; font-family: BACS"">dKRDkMEC</p>","","","","","","","","",""
"html-keyboard-response","243","323754","0.0-12.0-0.73","60ec51c51a3158a50ded8a3e","650c16f0f2faf8d7a0d14c09","651c1cd0d24a0d706e070b12","null","null","<p style=""font-size: 60px; font-family: BACS"">UdYUQJcUk</p>","","","","","","","","",""
"html-keyboard-response","244","324759","0.0-12.0-0.74","60ec51c51a3158a50ded8a3e","650c16f0f2faf8d7a0d14c09","651c1cd0d24a0d706e070b12","null","null","<p style=""font-size: 60px; font-family: BACS"">ArQurNlZ</p>","","","","","","","","",""
"html-keyboard-response","245","325766","0.0-12.0-0.75","60ec51c51a3158a50ded8a3e","650c16f0f2faf8d7a0d14c09","651c1cd0d24a0d706e070b12","null","null","<p style=""font-size: 60px; font-family: BACS"">OcYMBCAd</p>","","","","","","","","",""
"html-keyboard-response","246","326780","0.0-12.0-0.76","60ec51c51a3158a50ded8a3e","650c16f0f2faf8d7a0d14c09","651c1cd0d24a0d706e070b12","null","null","<p style=""font-size: 60px; font-family: BACS"">ZcGdNYZJO</p>","","","","","","","","",""
"html-keyboard-response","247","327791","0.0-12.0-0.77","60ec51c51a3158a50ded8a3e","650c16f0f2faf8d7a0d14c09","651c1cd0d24a0d706e070b12","null","null","<p style=""font-size: 60px; font-family: BACS"">UAcdurNlZ</p>","","","","","","","","",""
"html-keyboard-response","248","328801","0.0-12.0-0.78","60ec51c51a3158a50ded8a3e","650c16f0f2faf8d7a0d14c09","651c1cd0d24a0d706e070b12","null","null","<p style=""font-size: 60px; font-family: BACS"">kLvdNJcUk</p>","","","","","","","","",""
"html-keyboard-response","249","329809","0.0-12.0-0.79","60ec51c51a3158a50ded8a3e","650c16f0f2faf8d7a0d14c09","651c1cd0d24a0d706e070b12","null","null","<p style=""font-size: 60px; font-family: BACS"">CRdBdkMEC</p>","","","","","","","","",""
"html-keyboard-response","250","337541","0.0-13.0","60ec51c51a3158a50ded8a3e","650c16f0f2faf8d7a0d14c09","651c1cd0d24a0d706e070b12","7732"," ","<p>Great, you've seen the third block of words. You may now take a short break.</p>
      <p>Press the spacebar when you're ready to continue.</p>","","","","","","","","",""
"html-keyboard-response","251","338557","0.0-14.0-0.0","60ec51c51a3158a50ded8a3e","650c16f0f2faf8d7a0d14c09","651c1cd0d24a0d706e070b12","null","null","<p style=""font-size: 60px; font-family: BACS"">CRdBdkMEC</p>","","","","","","","","",""
"html-keyboard-response","252","339565","0.0-14.0-0.1","60ec51c51a3158a50ded8a3e","650c16f0f2faf8d7a0d14c09","651c1cd0d24a0d706e070b12","null","null","<p style=""font-size: 60px; font-family: BACS"">UAcduYZJO</p>","","","","","","","","",""
"html-keyboard-response","253","340573","0.0-14.0-0.2","60ec51c51a3158a50ded8a3e","650c16f0f2faf8d7a0d14c09","651c1cd0d24a0d706e070b12","null","null","<p style=""font-size: 60px; font-family: BACS"">rvOvUaQr</p>","","","","","","","","",""
"html-keyboard-response","254","341585","0.0-14.0-0.3","60ec51c51a3158a50ded8a3e","650c16f0f2faf8d7a0d14c09","651c1cd0d24a0d706e070b12","null","null","<p style=""font-size: 60px; font-family: BACS"">ZcGdNJcUk</p>","","","","","","","","",""
"html-keyboard-response","255","342594","0.0-14.0-0.4","60ec51c51a3158a50ded8a3e","650c16f0f2faf8d7a0d14c09","651c1cd0d24a0d706e070b12","null","null","<p style=""font-size: 60px; font-family: BACS"">CkBOPbTE</p>","","","","","","","","",""
"html-keyboard-response","256","343608","0.0-14.0-0.5","60ec51c51a3158a50ded8a3e","650c16f0f2faf8d7a0d14c09","651c1cd0d24a0d706e070b12","null","null","<p style=""font-size: 60px; font-family: BACS"">hBmMCmtKP</p>","","","","","","","","",""
"html-keyboard-response","257","344618","0.0-14.0-0.6","60ec51c51a3158a50ded8a3e","650c16f0f2faf8d7a0d14c09","651c1cd0d24a0d706e070b12","null","null","<p style=""font-size: 60px; font-family: BACS"">ArQuJcUk</p>","","","","","","","","",""
"html-keyboard-response","258","345630","0.0-14.0-0.7","60ec51c51a3158a50ded8a3e","650c16f0f2faf8d7a0d14c09","651c1cd0d24a0d706e070b12","null","null","<p style=""font-size: 60px; font-family: BACS"">GabkdYAJ</p>","","","","","","","","",""
"html-keyboard-response","259","346641","0.0-14.0-0.8","60ec51c51a3158a50ded8a3e","650c16f0f2faf8d7a0d14c09","651c1cd0d24a0d706e070b12","null","null","<p style=""font-size: 60px; font-family: BACS"">AlQaQJcUk</p>","","","","","","","","",""
"html-keyboard-response","260","347651","0.0-14.0-0.9","60ec51c51a3158a50ded8a3e","650c16f0f2faf8d7a0d14c09","651c1cd0d24a0d706e070b12","null","null","<p style=""font-size: 60px; font-family: BACS"">OcYMbTE</p>","","","","","","","","",""
"html-keyboard-response","261","348662","0.0-14.0-0.10","60ec51c51a3158a50ded8a3e","650c16f0f2faf8d7a0d14c09","651c1cd0d24a0d706e070b12","null","null","<p style=""font-size: 60px; font-family: BACS"">kLvdNrNlZ</p>","","","","","","","","",""
"html-keyboard-response","262","349670","0.0-14.0-0.11","60ec51c51a3158a50ded8a3e","650c16f0f2faf8d7a0d14c09","651c1cd0d24a0d706e070b12","null","null","<p style=""font-size: 60px; font-family: BACS"">bGuOJcUk</p>","","","","","","","","",""
"html-keyboard-response","263","350680","0.0-14.0-0.12","60ec51c51a3158a50ded8a3e","650c16f0f2faf8d7a0d14c09","651c1cd0d24a0d706e070b12","null","null","<p style=""font-size: 60px; font-family: BACS"">PlEKkKE</p>","","","","","","","","",""
"html-keyboard-response","264","351683","0.0-14.0-0.13","60ec51c51a3158a50ded8a3e","650c16f0f2faf8d7a0d14c09","651c1cd0d24a0d706e070b12","null","null","<p style=""font-size: 60px; font-family: BACS"">AlQaQdYAJ</p>","","","","","","","","",""
"html-keyboard-response","265","352689","0.0-14.0-0.14","60ec51c51a3158a50ded8a3e","650c16f0f2faf8d7a0d14c09","651c1cd0d24a0d706e070b12","null","null","<p style=""font-size: 60px; font-family: BACS"">OcYMkMEC</p>","","","","","","","","",""
"html-keyboard-response","266","353697","0.0-14.0-0.15","60ec51c51a3158a50ded8a3e","650c16f0f2faf8d7a0d14c09","651c1cd0d24a0d706e070b12","null","null","<p style=""font-size: 60px; font-family: BACS"">kLvdNdYAJ</p>","","","","","","","","",""
"html-keyboard-response","267","354707","0.0-14.0-0.16","60ec51c51a3158a50ded8a3e","650c16f0f2faf8d7a0d14c09","651c1cd0d24a0d706e070b12","null","null","<p style=""font-size: 60px; font-family: BACS"">ZcGdNaQr</p>","","","","","","","","",""
"html-keyboard-response","268","355715","0.0-14.0-0.17","60ec51c51a3158a50ded8a3e","650c16f0f2faf8d7a0d14c09","651c1cd0d24a0d706e070b12","null","null","<p style=""font-size: 60px; font-family: BACS"">hBmMCkMEC</p>","","","","","","","","",""
"html-keyboard-response","269","356728","0.0-14.0-0.18","60ec51c51a3158a50ded8a3e","650c16f0f2faf8d7a0d14c09","651c1cd0d24a0d706e070b12","null","null","<p style=""font-size: 60px; font-family: BACS"">MlthkKE</p>","","","","","","","","",""
"html-keyboard-response","270","357738","0.0-14.0-0.19","60ec51c51a3158a50ded8a3e","650c16f0f2faf8d7a0d14c09","651c1cd0d24a0d706e070b12","null","null","<p style=""font-size: 60px; font-family: BACS"">krGuaQr</p>","","","","","","","","",""
"html-keyboard-response","271","358751","0.0-14.0-0.20","60ec51c51a3158a50ded8a3e","650c16f0f2faf8d7a0d14c09","651c1cd0d24a0d706e070b12","null","null","<p style=""font-size: 60px; font-family: BACS"">GabkrNlZ</p>","","","","","","","","",""
"html-keyboard-response","272","359762","0.0-14.0-0.21","60ec51c51a3158a50ded8a3e","650c16f0f2faf8d7a0d14c09","651c1cd0d24a0d706e070b12","null","null","<p style=""font-size: 60px; font-family: BACS"">PlEKbTE</p>","","","","","","","","",""
"html-keyboard-response","273","360767","0.0-14.0-0.22","60ec51c51a3158a50ded8a3e","650c16f0f2faf8d7a0d14c09","651c1cd0d24a0d706e070b12","null","null","<p style=""font-size: 60px; font-family: BACS"">MlthBCAd</p>","","","","","","","","",""
"html-keyboard-response","274","361782","0.0-14.0-0.23","60ec51c51a3158a50ded8a3e","650c16f0f2faf8d7a0d14c09","651c1cd0d24a0d706e070b12","null","null","<p style=""font-size: 60px; font-family: BACS"">dKRDkKE</p>","","","","","","","","",""
"html-keyboard-response","275","362798","0.0-14.0-0.24","60ec51c51a3158a50ded8a3e","650c16f0f2faf8d7a0d14c09","651c1cd0d24a0d706e070b12","null","null","<p style=""font-size: 60px; font-family: BACS"">bGuOaQr</p>","","","","","","","","",""
"html-keyboard-response","276","363811","0.0-14.0-0.25","60ec51c51a3158a50ded8a3e","650c16f0f2faf8d7a0d14c09","651c1cd0d24a0d706e070b12","null","null","<p style=""font-size: 60px; font-family: BACS"">ZcGdNYZJO</p>","","","","","","","","",""
"html-keyboard-response","277","364824","0.0-14.0-0.26","60ec51c51a3158a50ded8a3e","650c16f0f2faf8d7a0d14c09","651c1cd0d24a0d706e070b12","null","null","<p style=""font-size: 60px; font-family: BACS"">UAcdudYAJ</p>","","","","","","","","",""
"html-keyboard-response","278","365837","0.0-14.0-0.27","60ec51c51a3158a50ded8a3e","650c16f0f2faf8d7a0d14c09","651c1cd0d24a0d706e070b12","null","null","<p style=""font-size: 60px; font-family: BACS"">hBmMCBCAd</p>","","","","","","","","",""
"html-keyboard-response","279","366839","0.0-14.0-0.28","60ec51c51a3158a50ded8a3e","650c16f0f2faf8d7a0d14c09","651c1cd0d24a0d706e070b12","null","null","<p style=""font-size: 60px; font-family: BACS"">kLvdNJcUk</p>","","","","","","","","",""
"html-keyboard-response","280","367849","0.0-14.0-0.29","60ec51c51a3158a50ded8a3e","650c16f0f2faf8d7a0d14c09","651c1cd0d24a0d706e070b12","null","null","<p style=""font-size: 60px; font-family: BACS"">COTKkKE</p>","","","","","","","","",""
"html-keyboard-response","281","368859","0.0-14.0-0.30","60ec51c51a3158a50ded8a3e","650c16f0f2faf8d7a0d14c09","651c1cd0d24a0d706e070b12","null","null","<p style=""font-size: 60px; font-family: BACS"">dKRDbTE</p>","","","","","","","","",""
"html-keyboard-response","282","369874","0.0-14.0-0.31","60ec51c51a3158a50ded8a3e","650c16f0f2faf8d7a0d14c09","651c1cd0d24a0d706e070b12","null","null","<p style=""font-size: 60px; font-family: BACS"">MlthmtKP</p>","","","","","","","","",""
"html-keyboard-response","283","370886","0.0-14.0-0.32","60ec51c51a3158a50ded8a3e","650c16f0f2faf8d7a0d14c09","651c1cd0d24a0d706e070b12","null","null","<p style=""font-size: 60px; font-family: BACS"">hbkdBCAd</p>","","","","","","","","",""
"html-keyboard-response","284","371898","0.0-14.0-0.33","60ec51c51a3158a50ded8a3e","650c16f0f2faf8d7a0d14c09","651c1cd0d24a0d706e070b12","null","null","<p style=""font-size: 60px; font-family: BACS"">ArQuYZJO</p>","","","","","","","","",""
"html-keyboard-response","285","372910","0.0-14.0-0.34","60ec51c51a3158a50ded8a3e","650c16f0f2faf8d7a0d14c09","651c1cd0d24a0d706e070b12","null","null","<p style=""font-size: 60px; font-family: BACS"">AlQaQrNlZ</p>","","","","","","","","",""
"html-keyboard-response","286","373921","0.0-14.0-0.35","60ec51c51a3158a50ded8a3e","650c16f0f2faf8d7a0d14c09","651c1cd0d24a0d706e070b12","null","null","<p style=""font-size: 60px; font-family: BACS"">COTKmtKP</p>","","","","","","","","",""
"html-keyboard-response","287","374929","0.0-14.0-0.36","60ec51c51a3158a50ded8a3e","650c16f0f2faf8d7a0d14c09","651c1cd0d24a0d706e070b12","null","null","<p style=""font-size: 60px; font-family: BACS"">krGuYZJO</p>","","","","","","","","",""
"html-keyboard-response","288","375937","0.0-14.0-0.37","60ec51c51a3158a50ded8a3e","650c16f0f2faf8d7a0d14c09","651c1cd0d24a0d706e070b12","null","null","<p style=""font-size: 60px; font-family: BACS"">COTKbTE</p>","","","","","","","","",""
"html-keyboard-response","289","376951","0.0-14.0-0.38","60ec51c51a3158a50ded8a3e","650c16f0f2faf8d7a0d14c09","651c1cd0d24a0d706e070b12","null","null","<p style=""font-size: 60px; font-family: BACS"">lhCTCmtKP</p>","","","","","","","","",""
"html-keyboard-response","290","377961","0.0-14.0-0.39","60ec51c51a3158a50ded8a3e","650c16f0f2faf8d7a0d14c09","651c1cd0d24a0d706e070b12","null","null","<p style=""font-size: 60px; font-family: BACS"">ZcGdNdYAJ</p>","","","","","","","","",""
"html-keyboard-response","291","378975","0.0-14.0-0.40","60ec51c51a3158a50ded8a3e","650c16f0f2faf8d7a0d14c09","651c1cd0d24a0d706e070b12","null","null","<p style=""font-size: 60px; font-family: BACS"">UdYUQJcUk</p>","","","","","","","","",""
"html-keyboard-response","292","379981","0.0-14.0-0.41","60ec51c51a3158a50ded8a3e","650c16f0f2faf8d7a0d14c09","651c1cd0d24a0d706e070b12","null","null","<p style=""font-size: 60px; font-family: BACS"">PlEKmtKP</p>","","","","","","","","",""
"html-keyboard-response","293","380983","0.0-14.0-0.42","60ec51c51a3158a50ded8a3e","650c16f0f2faf8d7a0d14c09","651c1cd0d24a0d706e070b12","null","null","<p style=""font-size: 60px; font-family: BACS"">MlthbTE</p>","","","","","","","","",""
"html-keyboard-response","294","381996","0.0-14.0-0.43","60ec51c51a3158a50ded8a3e","650c16f0f2faf8d7a0d14c09","651c1cd0d24a0d706e070b12","null","null","<p style=""font-size: 60px; font-family: BACS"">OcYMBCAd</p>","","","","","","","","",""
"html-keyboard-response","295","383006","0.0-14.0-0.44","60ec51c51a3158a50ded8a3e","650c16f0f2faf8d7a0d14c09","651c1cd0d24a0d706e070b12","null","null","<p style=""font-size: 60px; font-family: BACS"">ArQurNlZ</p>","","","","","","","","",""
"html-keyboard-response","296","384012","0.0-14.0-0.45","60ec51c51a3158a50ded8a3e","650c16f0f2faf8d7a0d14c09","651c1cd0d24a0d706e070b12","null","null","<p style=""font-size: 60px; font-family: BACS"">CkBOPkMEC</p>","","","","","","","","",""
"html-keyboard-response","297","385022","0.0-14.0-0.46","60ec51c51a3158a50ded8a3e","650c16f0f2faf8d7a0d14c09","651c1cd0d24a0d706e070b12","null","null","<p style=""font-size: 60px; font-family: BACS"">CRdBdbTE</p>","","","","","","","","",""
"html-keyboard-response","298","386028","0.0-14.0-0.47","60ec51c51a3158a50ded8a3e","650c16f0f2faf8d7a0d14c09","651c1cd0d24a0d706e070b12","null","null","<p style=""font-size: 60px; font-family: BACS"">lhCTCBCAd</p>","","","","","","","","",""
"html-keyboard-response","299","387040","0.0-14.0-0.48","60ec51c51a3158a50ded8a3e","650c16f0f2faf8d7a0d14c09","651c1cd0d24a0d706e070b12","null","null","<p style=""font-size: 60px; font-family: BACS"">hbkdkKE</p>","","","","","","","","",""
"html-keyboard-response","300","388055","0.0-14.0-0.49","60ec51c51a3158a50ded8a3e","650c16f0f2faf8d7a0d14c09","651c1cd0d24a0d706e070b12","null","null","<p style=""font-size: 60px; font-family: BACS"">lhCTCkMEC</p>","","","","","","","","",""
"html-keyboard-response","301","389061","0.0-14.0-0.50","60ec51c51a3158a50ded8a3e","650c16f0f2faf8d7a0d14c09","651c1cd0d24a0d706e070b12","null","null","<p style=""font-size: 60px; font-family: BACS"">CRdBdkKE</p>","","","","","","","","",""
"html-keyboard-response","302","390076","0.0-14.0-0.51","60ec51c51a3158a50ded8a3e","650c16f0f2faf8d7a0d14c09","651c1cd0d24a0d706e070b12","null","null","<p style=""font-size: 60px; font-family: BACS"">CkBOPBCAd</p>","","","","","","","","",""
"html-keyboard-response","303","391078","0.0-14.0-0.52","60ec51c51a3158a50ded8a3e","650c16f0f2faf8d7a0d14c09","651c1cd0d24a0d706e070b12","null","null","<p style=""font-size: 60px; font-family: BACS"">lhCTCkKE</p>","","","","","","","","",""
"html-keyboard-response","304","392087","0.0-14.0-0.53","60ec51c51a3158a50ded8a3e","650c16f0f2faf8d7a0d14c09","651c1cd0d24a0d706e070b12","null","null","<p style=""font-size: 60px; font-family: BACS"">rvOvUdYAJ</p>","","","","","","","","",""
"html-keyboard-response","305","393094","0.0-14.0-0.54","60ec51c51a3158a50ded8a3e","650c16f0f2faf8d7a0d14c09","651c1cd0d24a0d706e070b12","null","null","<p style=""font-size: 60px; font-family: BACS"">UAcdurNlZ</p>","","","","","","","","",""
"html-keyboard-response","306","394102","0.0-14.0-0.55","60ec51c51a3158a50ded8a3e","650c16f0f2faf8d7a0d14c09","651c1cd0d24a0d706e070b12","null","null","<p style=""font-size: 60px; font-family: BACS"">kLvdNYZJO</p>","","","","","","","","",""
"html-keyboard-response","307","395106","0.0-14.0-0.56","60ec51c51a3158a50ded8a3e","650c16f0f2faf8d7a0d14c09","651c1cd0d24a0d706e070b12","null","null","<p style=""font-size: 60px; font-family: BACS"">hBmMCkKE</p>","","","","","","","","",""
"html-keyboard-response","308","396121","0.0-14.0-0.57","60ec51c51a3158a50ded8a3e","650c16f0f2faf8d7a0d14c09","651c1cd0d24a0d706e070b12","null","null","<p style=""font-size: 60px; font-family: BACS"">bGuOdYAJ</p>","","","","","","","","",""
"html-keyboard-response","309","397131","0.0-14.0-0.58","60ec51c51a3158a50ded8a3e","650c16f0f2faf8d7a0d14c09","651c1cd0d24a0d706e070b12","null","null","<p style=""font-size: 60px; font-family: BACS"">UdYUQaQr</p>","","","","","","","","",""
"html-keyboard-response","310","398143","0.0-14.0-0.59","60ec51c51a3158a50ded8a3e","650c16f0f2faf8d7a0d14c09","651c1cd0d24a0d706e070b12","null","null","<p style=""font-size: 60px; font-family: BACS"">CRdBdBCAd</p>","","","","","","","","",""
"html-keyboard-response","311","399150","0.0-14.0-0.60","60ec51c51a3158a50ded8a3e","650c16f0f2faf8d7a0d14c09","651c1cd0d24a0d706e070b12","null","null","<p style=""font-size: 60px; font-family: BACS"">GabkYZJO</p>","","","","","","","","",""
"html-keyboard-response","312","400157","0.0-14.0-0.61","60ec51c51a3158a50ded8a3e","650c16f0f2faf8d7a0d14c09","651c1cd0d24a0d706e070b12","null","null","<p style=""font-size: 60px; font-family: BACS"">rvOvUJcUk</p>","","","","","","","","",""
"html-keyboard-response","313","401164","0.0-14.0-0.62","60ec51c51a3158a50ded8a3e","650c16f0f2faf8d7a0d14c09","651c1cd0d24a0d706e070b12","null","null","<p style=""font-size: 60px; font-family: BACS"">PlEKkMEC</p>","","","","","","","","",""
"html-keyboard-response","314","402176","0.0-14.0-0.63","60ec51c51a3158a50ded8a3e","650c16f0f2faf8d7a0d14c09","651c1cd0d24a0d706e070b12","null","null","<p style=""font-size: 60px; font-family: BACS"">UAcduaQr</p>","","","","","","","","",""
"html-keyboard-response","315","403187","0.0-14.0-0.64","60ec51c51a3158a50ded8a3e","650c16f0f2faf8d7a0d14c09","651c1cd0d24a0d706e070b12","null","null","<p style=""font-size: 60px; font-family: BACS"">CkBOPmtKP</p>","","","","","","","","",""
"html-keyboard-response","316","404196","0.0-14.0-0.65","60ec51c51a3158a50ded8a3e","650c16f0f2faf8d7a0d14c09","651c1cd0d24a0d706e070b12","null","null","<p style=""font-size: 60px; font-family: BACS"">GabkaQr</p>","","","","","","","","",""
"html-keyboard-response","317","405203","0.0-14.0-0.66","60ec51c51a3158a50ded8a3e","650c16f0f2faf8d7a0d14c09","651c1cd0d24a0d706e070b12","null","null","<p style=""font-size: 60px; font-family: BACS"">dKRDkMEC</p>","","","","","","","","",""
"html-keyboard-response","318","406212","0.0-14.0-0.67","60ec51c51a3158a50ded8a3e","650c16f0f2faf8d7a0d14c09","651c1cd0d24a0d706e070b12","null","null","<p style=""font-size: 60px; font-family: BACS"">AlQaQYZJO</p>","","","","","","","","",""
"html-keyboard-response","319","407223","0.0-14.0-0.68","60ec51c51a3158a50ded8a3e","650c16f0f2faf8d7a0d14c09","651c1cd0d24a0d706e070b12","null","null","<p style=""font-size: 60px; font-family: BACS"">ArQuaQr</p>","","","","","","","","",""
"html-keyboard-response","320","408230","0.0-14.0-0.69","60ec51c51a3158a50ded8a3e","650c16f0f2faf8d7a0d14c09","651c1cd0d24a0d706e070b12","null","null","<p style=""font-size: 60px; font-family: BACS"">hbkdbTE</p>","","","","","","","","",""
"html-keyboard-response","321","409237","0.0-14.0-0.70","60ec51c51a3158a50ded8a3e","650c16f0f2faf8d7a0d14c09","651c1cd0d24a0d706e070b12","null","null","<p style=""font-size: 60px; font-family: BACS"">rvOvUrNlZ</p>","","","","","","","","",""
"html-keyboard-response","322","410245","0.0-14.0-0.71","60ec51c51a3158a50ded8a3e","650c16f0f2faf8d7a0d14c09","651c1cd0d24a0d706e070b12","null","null","<p style=""font-size: 60px; font-family: BACS"">krGudYAJ</p>","","","","","","","","",""
"html-keyboard-response","323","411257","0.0-14.0-0.72","60ec51c51a3158a50ded8a3e","650c16f0f2faf8d7a0d14c09","651c1cd0d24a0d706e070b12","null","null","<p style=""font-size: 60px; font-family: BACS"">COTKkMEC</p>","","","","","","","","",""
"html-keyboard-response","324","412267","0.0-14.0-0.73","60ec51c51a3158a50ded8a3e","650c16f0f2faf8d7a0d14c09","651c1cd0d24a0d706e070b12","null","null","<p style=""font-size: 60px; font-family: BACS"">UdYUQYZJO</p>","","","","","","","","",""
"html-keyboard-response","325","413277","0.0-14.0-0.74","60ec51c51a3158a50ded8a3e","650c16f0f2faf8d7a0d14c09","651c1cd0d24a0d706e070b12","null","null","<p style=""font-size: 60px; font-family: BACS"">hbkdmtKP</p>","","","","","","","","",""
"html-keyboard-response","326","414290","0.0-14.0-0.75","60ec51c51a3158a50ded8a3e","650c16f0f2faf8d7a0d14c09","651c1cd0d24a0d706e070b12","null","null","<p style=""font-size: 60px; font-family: BACS"">bGuOrNlZ</p>","","","","","","","","",""
"html-keyboard-response","327","415305","0.0-14.0-0.76","60ec51c51a3158a50ded8a3e","650c16f0f2faf8d7a0d14c09","651c1cd0d24a0d706e070b12","null","null","<p style=""font-size: 60px; font-family: BACS"">OcYMmtKP</p>","","","","","","","","",""
"html-keyboard-response","328","416311","0.0-14.0-0.77","60ec51c51a3158a50ded8a3e","650c16f0f2faf8d7a0d14c09","651c1cd0d24a0d706e070b12","null","null","<p style=""font-size: 60px; font-family: BACS"">UdYUQrNlZ</p>","","","","","","","","",""
"html-keyboard-response","329","417325","0.0-14.0-0.78","60ec51c51a3158a50ded8a3e","650c16f0f2faf8d7a0d14c09","651c1cd0d24a0d706e070b12","null","null","<p style=""font-size: 60px; font-family: BACS"">dKRDBCAd</p>","","","","","","","","",""
"html-keyboard-response","330","418337","0.0-14.0-0.79","60ec51c51a3158a50ded8a3e","650c16f0f2faf8d7a0d14c09","651c1cd0d24a0d706e070b12","null","null","<p style=""font-size: 60px; font-family: BACS"">krGuJcUk</p>","","","","","","","","",""
"html-keyboard-response","331","424670","0.0-15.0","60ec51c51a3158a50ded8a3e","650c16f0f2faf8d7a0d14c09","651c1cd0d24a0d706e070b12","6333"," ","<p>Great, you've seen the fourth block of words. You may now take a short break.</p>
      <p>Press the spacebar when you're ready to continue.</p>","","","","","","","","",""
"html-keyboard-response","332","425682","0.0-16.0-0.0","60ec51c51a3158a50ded8a3e","650c16f0f2faf8d7a0d14c09","651c1cd0d24a0d706e070b12","null","null","<p style=""font-size: 60px; font-family: BACS"">hBmMCmtKP</p>","","","","","","","","",""
"html-keyboard-response","333","426692","0.0-16.0-0.1","60ec51c51a3158a50ded8a3e","650c16f0f2faf8d7a0d14c09","651c1cd0d24a0d706e070b12","null","null","<p style=""font-size: 60px; font-family: BACS"">hBmMCmtKP</p>","","","","","","","","",""
"html-keyboard-response","334","427702","0.0-16.0-0.2","60ec51c51a3158a50ded8a3e","650c16f0f2faf8d7a0d14c09","651c1cd0d24a0d706e070b12","null","null","<p style=""font-size: 60px; font-family: BACS"">hBmMCmtKP</p>","","","","","","","","",""
"html-keyboard-response","335","428714","0.0-16.0-0.3","60ec51c51a3158a50ded8a3e","650c16f0f2faf8d7a0d14c09","651c1cd0d24a0d706e070b12","null","null","<p style=""font-size: 60px; font-family: BACS"">hBmMCmtKP</p>","","","","","","","","",""
"html-keyboard-response","336","429725","0.0-16.0-0.4","60ec51c51a3158a50ded8a3e","650c16f0f2faf8d7a0d14c09","651c1cd0d24a0d706e070b12","null","null","<p style=""font-size: 60px; font-family: BACS"">hBmMCmtKP</p>","","","","","","","","",""
"html-keyboard-response","337","430735","0.0-16.0-0.5","60ec51c51a3158a50ded8a3e","650c16f0f2faf8d7a0d14c09","651c1cd0d24a0d706e070b12","null","null","<p style=""font-size: 60px; font-family: BACS"">hBmMCmtKP</p>","","","","","","","","",""
"html-keyboard-response","338","431747","0.0-16.0-0.6","60ec51c51a3158a50ded8a3e","650c16f0f2faf8d7a0d14c09","651c1cd0d24a0d706e070b12","null","null","<p style=""font-size: 60px; font-family: BACS"">hBmMCmtKP</p>","","","","","","","","",""
"html-keyboard-response","339","432758","0.0-16.0-0.7","60ec51c51a3158a50ded8a3e","650c16f0f2faf8d7a0d14c09","651c1cd0d24a0d706e070b12","null","null","<p style=""font-size: 60px; font-family: BACS"">hBmMCmtKP</p>","","","","","","","","",""
"html-keyboard-response","340","433770","0.0-16.0-0.8","60ec51c51a3158a50ded8a3e","650c16f0f2faf8d7a0d14c09","651c1cd0d24a0d706e070b12","null","null","<p style=""font-size: 60px; font-family: BACS"">hBmMCmtKP</p>","","","","","","","","",""
"html-keyboard-response","341","434776","0.0-16.0-0.9","60ec51c51a3158a50ded8a3e","650c16f0f2faf8d7a0d14c09","651c1cd0d24a0d706e070b12","null","null","<p style=""font-size: 60px; font-family: BACS"">hBmMCmtKP</p>","","","","","","","","",""
"html-keyboard-response","342","435787","0.0-16.0-0.10","60ec51c51a3158a50ded8a3e","650c16f0f2faf8d7a0d14c09","651c1cd0d24a0d706e070b12","null","null","<p style=""font-size: 60px; font-family: BACS"">hBmMCmtKP</p>","","","","","","","","",""
"html-keyboard-response","343","436794","0.0-16.0-0.11","60ec51c51a3158a50ded8a3e","650c16f0f2faf8d7a0d14c09","651c1cd0d24a0d706e070b12","null","null","<p style=""font-size: 60px; font-family: BACS"">hBmMCmtKP</p>","","","","","","","","",""
"html-keyboard-response","344","437805","0.0-16.0-0.12","60ec51c51a3158a50ded8a3e","650c16f0f2faf8d7a0d14c09","651c1cd0d24a0d706e070b12","null","null","<p style=""font-size: 60px; font-family: BACS"">hBmMCmtKP</p>","","","","","","","","",""
"html-keyboard-response","345","438814","0.0-16.0-0.13","60ec51c51a3158a50ded8a3e","650c16f0f2faf8d7a0d14c09","651c1cd0d24a0d706e070b12","null","null","<p style=""font-size: 60px; font-family: BACS"">hBmMCmtKP</p>","","","","","","","","",""
"html-keyboard-response","346","439831","0.0-16.0-0.14","60ec51c51a3158a50ded8a3e","650c16f0f2faf8d7a0d14c09","651c1cd0d24a0d706e070b12","null","null","<p style=""font-size: 60px; font-family: BACS"">hBmMCmtKP</p>","","","","","","","","",""
"html-keyboard-response","347","440847","0.0-16.0-0.15","60ec51c51a3158a50ded8a3e","650c16f0f2faf8d7a0d14c09","651c1cd0d24a0d706e070b12","null","null","<p style=""font-size: 60px; font-family: BACS"">hBmMCmtKP</p>","","","","","","","","",""
"html-keyboard-response","348","441851","0.0-16.0-0.16","60ec51c51a3158a50ded8a3e","650c16f0f2faf8d7a0d14c09","651c1cd0d24a0d706e070b12","null","null","<p style=""font-size: 60px; font-family: BACS"">hBmMCmtKP</p>","","","","","","","","",""
"html-keyboard-response","349","442854","0.0-16.0-0.17","60ec51c51a3158a50ded8a3e","650c16f0f2faf8d7a0d14c09","651c1cd0d24a0d706e070b12","null","null","<p style=""font-size: 60px; font-family: BACS"">hBmMCmtKP</p>","","","","","","","","",""
"html-keyboard-response","350","443864","0.0-16.0-0.18","60ec51c51a3158a50ded8a3e","650c16f0f2faf8d7a0d14c09","651c1cd0d24a0d706e070b12","null","null","<p style=""font-size: 60px; font-family: BACS"">hBmMCmtKP</p>","","","","","","","","",""
"html-keyboard-response","351","444874","0.0-16.0-0.19","60ec51c51a3158a50ded8a3e","650c16f0f2faf8d7a0d14c09","651c1cd0d24a0d706e070b12","null","null","<p style=""font-size: 60px; font-family: BACS"">hBmMCmtKP</p>","","","","","","","","",""
"html-keyboard-response","352","445888","0.0-16.0-0.20","60ec51c51a3158a50ded8a3e","650c16f0f2faf8d7a0d14c09","651c1cd0d24a0d706e070b12","null","null","<p style=""font-size: 60px; font-family: BACS"">hBmMCmtKP</p>","","","","","","","","",""
"html-keyboard-response","353","446894","0.0-16.0-0.21","60ec51c51a3158a50ded8a3e","650c16f0f2faf8d7a0d14c09","651c1cd0d24a0d706e070b12","null","null","<p style=""font-size: 60px; font-family: BACS"">hBmMCmtKP</p>","","","","","","","","",""
"html-keyboard-response","354","447899","0.0-16.0-0.22","60ec51c51a3158a50ded8a3e","650c16f0f2faf8d7a0d14c09","651c1cd0d24a0d706e070b12","null","null","<p style=""font-size: 60px; font-family: BACS"">hBmMCmtKP</p>","","","","","","","","",""
"html-keyboard-response","355","448909","0.0-16.0-0.23","60ec51c51a3158a50ded8a3e","650c16f0f2faf8d7a0d14c09","651c1cd0d24a0d706e070b12","null","null","<p style=""font-size: 60px; font-family: BACS"">hBmMCmtKP</p>","","","","","","","","",""
"html-keyboard-response","356","449918","0.0-16.0-0.24","60ec51c51a3158a50ded8a3e","650c16f0f2faf8d7a0d14c09","651c1cd0d24a0d706e070b12","null","null","<p style=""font-size: 60px; font-family: BACS"">hBmMCmtKP</p>","","","","","","","","",""
"html-keyboard-response","357","450928","0.0-16.0-0.25","60ec51c51a3158a50ded8a3e","650c16f0f2faf8d7a0d14c09","651c1cd0d24a0d706e070b12","null","null","<p style=""font-size: 60px; font-family: BACS"">hBmMCmtKP</p>","","","","","","","","",""
"html-keyboard-response","358","451938","0.0-16.0-0.26","60ec51c51a3158a50ded8a3e","650c16f0f2faf8d7a0d14c09","651c1cd0d24a0d706e070b12","null","null","<p style=""font-size: 60px; font-family: BACS"">hBmMCmtKP</p>","","","","","","","","",""
"html-keyboard-response","359","452947","0.0-16.0-0.27","60ec51c51a3158a50ded8a3e","650c16f0f2faf8d7a0d14c09","651c1cd0d24a0d706e070b12","null","null","<p style=""font-size: 60px; font-family: BACS"">hBmMCmtKP</p>","","","","","","","","",""
"html-keyboard-response","360","453952","0.0-16.0-0.28","60ec51c51a3158a50ded8a3e","650c16f0f2faf8d7a0d14c09","651c1cd0d24a0d706e070b12","null","null","<p style=""font-size: 60px; font-family: BACS"">hBmMCmtKP</p>","","","","","","","","",""
"html-keyboard-response","361","454962","0.0-16.0-0.29","60ec51c51a3158a50ded8a3e","650c16f0f2faf8d7a0d14c09","651c1cd0d24a0d706e070b12","null","null","<p style=""font-size: 60px; font-family: BACS"">hBmMCmtKP</p>","","","","","","","","",""
"html-keyboard-response","362","455971","0.0-16.0-0.30","60ec51c51a3158a50ded8a3e","650c16f0f2faf8d7a0d14c09","651c1cd0d24a0d706e070b12","null","null","<p style=""font-size: 60px; font-family: BACS"">hBmMCmtKP</p>","","","","","","","","",""
"html-keyboard-response","363","456976","0.0-16.0-0.31","60ec51c51a3158a50ded8a3e","650c16f0f2faf8d7a0d14c09","651c1cd0d24a0d706e070b12","null","null","<p style=""font-size: 60px; font-family: BACS"">hBmMCmtKP</p>","","","","","","","","",""
"html-keyboard-response","364","457981","0.0-16.0-0.32","60ec51c51a3158a50ded8a3e","650c16f0f2faf8d7a0d14c09","651c1cd0d24a0d706e070b12","null","null","<p style=""font-size: 60px; font-family: BACS"">hBmMCmtKP</p>","","","","","","","","",""
"html-keyboard-response","365","458988","0.0-16.0-0.33","60ec51c51a3158a50ded8a3e","650c16f0f2faf8d7a0d14c09","651c1cd0d24a0d706e070b12","null","null","<p style=""font-size: 60px; font-family: BACS"">hBmMCmtKP</p>","","","","","","","","",""
"html-keyboard-response","366","459996","0.0-16.0-0.34","60ec51c51a3158a50ded8a3e","650c16f0f2faf8d7a0d14c09","651c1cd0d24a0d706e070b12","null","null","<p style=""font-size: 60px; font-family: BACS"">hBmMCmtKP</p>","","","","","","","","",""
"html-keyboard-response","367","461001","0.0-16.0-0.35","60ec51c51a3158a50ded8a3e","650c16f0f2faf8d7a0d14c09","651c1cd0d24a0d706e070b12","null","null","<p style=""font-size: 60px; font-family: BACS"">hBmMCmtKP</p>","","","","","","","","",""
"html-keyboard-response","368","462007","0.0-16.0-0.36","60ec51c51a3158a50ded8a3e","650c16f0f2faf8d7a0d14c09","651c1cd0d24a0d706e070b12","null","null","<p style=""font-size: 60px; font-family: BACS"">hBmMCmtKP</p>","","","","","","","","",""
"html-keyboard-response","369","463019","0.0-16.0-0.37","60ec51c51a3158a50ded8a3e","650c16f0f2faf8d7a0d14c09","651c1cd0d24a0d706e070b12","null","null","<p style=""font-size: 60px; font-family: BACS"">hBmMCmtKP</p>","","","","","","","","",""
"html-keyboard-response","370","464025","0.0-16.0-0.38","60ec51c51a3158a50ded8a3e","650c16f0f2faf8d7a0d14c09","651c1cd0d24a0d706e070b12","null","null","<p style=""font-size: 60px; font-family: BACS"">hBmMCmtKP</p>","","","","","","","","",""
"html-keyboard-response","371","465031","0.0-16.0-0.39","60ec51c51a3158a50ded8a3e","650c16f0f2faf8d7a0d14c09","651c1cd0d24a0d706e070b12","null","null","<p style=""font-size: 60px; font-family: BACS"">hBmMCmtKP</p>","","","","","","","","",""
"html-keyboard-response","372","466038","0.0-16.0-0.40","60ec51c51a3158a50ded8a3e","650c16f0f2faf8d7a0d14c09","651c1cd0d24a0d706e070b12","null","null","<p style=""font-size: 60px; font-family: BACS"">hBmMCmtKP</p>","","","","","","","","",""
"html-keyboard-response","373","467046","0.0-16.0-0.41","60ec51c51a3158a50ded8a3e","650c16f0f2faf8d7a0d14c09","651c1cd0d24a0d706e070b12","null","null","<p style=""font-size: 60px; font-family: BACS"">hBmMCmtKP</p>","","","","","","","","",""
"html-keyboard-response","374","468053","0.0-16.0-0.42","60ec51c51a3158a50ded8a3e","650c16f0f2faf8d7a0d14c09","651c1cd0d24a0d706e070b12","null","null","<p style=""font-size: 60px; font-family: BACS"">hBmMCmtKP</p>","","","","","","","","",""
"html-keyboard-response","375","469060","0.0-16.0-0.43","60ec51c51a3158a50ded8a3e","650c16f0f2faf8d7a0d14c09","651c1cd0d24a0d706e070b12","null","null","<p style=""font-size: 60px; font-family: BACS"">hBmMCmtKP</p>","","","","","","","","",""
"html-keyboard-response","376","470072","0.0-16.0-0.44","60ec51c51a3158a50ded8a3e","650c16f0f2faf8d7a0d14c09","651c1cd0d24a0d706e070b12","null","null","<p style=""font-size: 60px; font-family: BACS"">hBmMCmtKP</p>","","","","","","","","",""
"html-keyboard-response","377","471076","0.0-16.0-0.45","60ec51c51a3158a50ded8a3e","650c16f0f2faf8d7a0d14c09","651c1cd0d24a0d706e070b12","null","null","<p style=""font-size: 60px; font-family: BACS"">hBmMCmtKP</p>","","","","","","","","",""
"html-keyboard-response","378","472088","0.0-16.0-0.46","60ec51c51a3158a50ded8a3e","650c16f0f2faf8d7a0d14c09","651c1cd0d24a0d706e070b12","null","null","<p style=""font-size: 60px; font-family: BACS"">hBmMCmtKP</p>","","","","","","","","",""
"html-keyboard-response","379","473091","0.0-16.0-0.47","60ec51c51a3158a50ded8a3e","650c16f0f2faf8d7a0d14c09","651c1cd0d24a0d706e070b12","null","null","<p style=""font-size: 60px; font-family: BACS"">hBmMCmtKP</p>","","","","","","","","",""
"html-keyboard-response","380","474095","0.0-16.0-0.48","60ec51c51a3158a50ded8a3e","650c16f0f2faf8d7a0d14c09","651c1cd0d24a0d706e070b12","null","null","<p style=""font-size: 60px; font-family: BACS"">hBmMCmtKP</p>","","","","","","","","",""
"html-keyboard-response","381","475098","0.0-16.0-0.49","60ec51c51a3158a50ded8a3e","650c16f0f2faf8d7a0d14c09","651c1cd0d24a0d706e070b12","null","null","<p style=""font-size: 60px; font-family: BACS"">hBmMCmtKP</p>","","","","","","","","",""
"html-keyboard-response","382","476105","0.0-16.0-0.50","60ec51c51a3158a50ded8a3e","650c16f0f2faf8d7a0d14c09","651c1cd0d24a0d706e070b12","null","null","<p style=""font-size: 60px; font-family: BACS"">hBmMCmtKP</p>","","","","","","","","",""
"html-keyboard-response","383","477108","0.0-16.0-0.51","60ec51c51a3158a50ded8a3e","650c16f0f2faf8d7a0d14c09","651c1cd0d24a0d706e070b12","null","null","<p style=""font-size: 60px; font-family: BACS"">hBmMCmtKP</p>","","","","","","","","",""
"html-keyboard-response","384","478113","0.0-16.0-0.52","60ec51c51a3158a50ded8a3e","650c16f0f2faf8d7a0d14c09","651c1cd0d24a0d706e070b12","null","null","<p style=""font-size: 60px; font-family: BACS"">hBmMCmtKP</p>","","","","","","","","",""
"html-keyboard-response","385","479121","0.0-16.0-0.53","60ec51c51a3158a50ded8a3e","650c16f0f2faf8d7a0d14c09","651c1cd0d24a0d706e070b12","null","null","<p style=""font-size: 60px; font-family: BACS"">hBmMCmtKP</p>","","","","","","","","",""
"html-keyboard-response","386","480125","0.0-16.0-0.54","60ec51c51a3158a50ded8a3e","650c16f0f2faf8d7a0d14c09","651c1cd0d24a0d706e070b12","null","null","<p style=""font-size: 60px; font-family: BACS"">hBmMCmtKP</p>","","","","","","","","",""
"html-keyboard-response","387","481128","0.0-16.0-0.55","60ec51c51a3158a50ded8a3e","650c16f0f2faf8d7a0d14c09","651c1cd0d24a0d706e070b12","null","null","<p style=""font-size: 60px; font-family: BACS"">hBmMCmtKP</p>","","","","","","","","",""
"html-keyboard-response","388","482134","0.0-16.0-0.56","60ec51c51a3158a50ded8a3e","650c16f0f2faf8d7a0d14c09","651c1cd0d24a0d706e070b12","null","null","<p style=""font-size: 60px; font-family: BACS"">hBmMCmtKP</p>","","","","","","","","",""
"html-keyboard-response","389","483142","0.0-16.0-0.57","60ec51c51a3158a50ded8a3e","650c16f0f2faf8d7a0d14c09","651c1cd0d24a0d706e070b12","null","null","<p style=""font-size: 60px; font-family: BACS"">hBmMCmtKP</p>","","","","","","","","",""
"html-keyboard-response","390","484157","0.0-16.0-0.58","60ec51c51a3158a50ded8a3e","650c16f0f2faf8d7a0d14c09","651c1cd0d24a0d706e070b12","null","null","<p style=""font-size: 60px; font-family: BACS"">hBmMCmtKP</p>","","","","","","","","",""
"html-keyboard-response","391","485161","0.0-16.0-0.59","60ec51c51a3158a50ded8a3e","650c16f0f2faf8d7a0d14c09","651c1cd0d24a0d706e070b12","null","null","<p style=""font-size: 60px; font-family: BACS"">hBmMCmtKP</p>","","","","","","","","",""
"html-keyboard-response","392","486164","0.0-16.0-0.60","60ec51c51a3158a50ded8a3e","650c16f0f2faf8d7a0d14c09","651c1cd0d24a0d706e070b12","null","null","<p style=""font-size: 60px; font-family: BACS"">hBmMCmtKP</p>","","","","","","","","",""
"html-keyboard-response","393","487171","0.0-16.0-0.61","60ec51c51a3158a50ded8a3e","650c16f0f2faf8d7a0d14c09","651c1cd0d24a0d706e070b12","null","null","<p style=""font-size: 60px; font-family: BACS"">hBmMCmtKP</p>","","","","","","","","",""
"html-keyboard-response","394","488184","0.0-16.0-0.62","60ec51c51a3158a50ded8a3e","650c16f0f2faf8d7a0d14c09","651c1cd0d24a0d706e070b12","null","null","<p style=""font-size: 60px; font-family: BACS"">hBmMCmtKP</p>","","","","","","","","",""
"html-keyboard-response","395","489186","0.0-16.0-0.63","60ec51c51a3158a50ded8a3e","650c16f0f2faf8d7a0d14c09","651c1cd0d24a0d706e070b12","null","null","<p style=""font-size: 60px; font-family: BACS"">hBmMCmtKP</p>","","","","","","","","",""
"html-keyboard-response","396","490196","0.0-16.0-0.64","60ec51c51a3158a50ded8a3e","650c16f0f2faf8d7a0d14c09","651c1cd0d24a0d706e070b12","null","null","<p style=""font-size: 60px; font-family: BACS"">hBmMCmtKP</p>","","","","","","","","",""
"html-keyboard-response","397","491197","0.0-16.0-0.65","60ec51c51a3158a50ded8a3e","650c16f0f2faf8d7a0d14c09","651c1cd0d24a0d706e070b12","null","null","<p style=""font-size: 60px; font-family: BACS"">hBmMCmtKP</p>","","","","","","","","",""
