"trial_type","trial_index","time_elapsed","internal_node_id","subject_id","study_id","session_id","rt","response","stimulus","success","item","task","correct_response","testing_condition","correct","target","confound","name","view_history"
"pavlovia","0","2522","0.0-0.0","60670ac0fc7e169231369ab1","650c16f0f2faf8d7a0d14c09","651c1d0c78491dadcb55d0cb","","","","","","","","","","","","",""
"survey-html-form","1","42526","0.0-1.0","60670ac0fc7e169231369ab1","650c16f0f2faf8d7a0d14c09","651c1d0c78491dadcb55d0cb","39988","{""ID"":""60670ac0fc7e169231369ab1""}","","","","","","","","","","",""
"html-keyboard-response","2","101496","0.0-2.0","60670ac0fc7e169231369ab1","650c16f0f2faf8d7a0d14c09","651c1d0c78491dadcb55d0cb","58955"," ","<p style=""font-size: 15px;"">Before beginning, we ask that you read the consent information and confirm your agreement to participate in the experiment.</p>
      <p style=""font-size: 15px;""> We ask that you remember that this is a research project and that your participation is entirely voluntary. You can stop your participation at any time, without needing to provide any explanation. The study we're asking you to participate in aims at examining how readers process written words. You will be engaged in a session of apprximately 20 minutes, followed by a brief questionnaire. You will have the opportunity to take a few breaks during the experiment. You will be paid £4 for your participation, corresponding to a rate of £8/hour. While this experiment looks at cognitive faculties, this experiment doesn't constitute clinical proof of eventual pathologies.</p>
      <p style=""font-size: 15px;"">All of the information collected thanks to yours and others' participation will be held in a secure password-protected server, and will not be shared with anyone not authorised to view it. Your personal information will be kept with an arbitrary participant ID. Thanks to this data anonymity process, any researcher analysing the data won't be able to track the information back to a specific participant. Therefore, this process will make identifying you impossibile, even when results from the study will be published in scientific reviews, presented at congresses, or at any other public forum. More generally, the collected data will be treated in accordance with the laws on privacy and conformity to the Legislative Degree n. 196 ""Code regarding the protection of personal data"" of the 30th of June 2003 and to the European Regulation 2016/670 (General Data Protection Regulation - GDPR). The Data Protection Officer is Avv. Valentina Carollo, who can be contacted at the following email addresses: <a href=""mailto:dpo@sissa.it"">dpo@sissa.it</a> or <a href=""mailto:rpd@sissa.it"">rpd@sissa.it</a> - PEC: <a href=""mailto:protocollo@pec.sissa.it"">protocollo@pec.sissa.it</a>.</p>
      <p style=""font-size: 15px;""> Before expressing your consent to participate, we would like to remind you again that in case you need explanations on any aspect of the experimental procedure, the researcher is at your disposition (<a href=""mailto:aliebelt@sissa.it"">aliebelt@sissa.it</a>, <a href=""mailto:davide.crepaldi@sissa.it"">davide.crepaldi@sissa.it</a>).</p>
      <p style=""font-size: 15px;"">If you would like to download the informed consent form, you can do so here: <a href=""BASL-Informed_Consent.pdf"" download>informed consent form</a>.</p>
      <p style=""font-size: 15px;"">We ask that you press the spacebar to proceed to the consent section.</p>","","","","","","","","","",""
"survey-html-form","3","110689","0.0-3.0","60670ac0fc7e169231369ab1","650c16f0f2faf8d7a0d14c09","651c1d0c78491dadcb55d0cb","9192","{""consent1"":""YES"",""consent2"":""YES"",""consent3"":""YES"",""consent4"":""YES"",""consent5"":""YES"",""consent6"":""YES""}","","","","","","","","","","",""
"fullscreen","4","132100","0.0-4.0","60670ac0fc7e169231369ab1","650c16f0f2faf8d7a0d14c09","651c1d0c78491dadcb55d0cb","","","","true","","","","","","","","",""
"html-keyboard-response","5","165067","0.0-5.0","60670ac0fc7e169231369ab1","650c16f0f2faf8d7a0d14c09","651c1d0c78491dadcb55d0cb","32952"," ","<p>Welcome, and thank you very much for your time!</p>
      <p>In this experiment, you'll be a language expert who's been asked to take a look at words that Earth has received in its first communication with aliens. Your task, in this first part of the experiment, is to pay close attention to the words you'll be shown; later, world leaders will ask you questions on what you saw. The words will be shown to you quite quickly; it seems that the aliens were in a hurry :-)</p>
      <p>Press the spacebar to continue.<p>","","","","","","","","","",""
"html-keyboard-response","6","165131","0.0-6.0","60670ac0fc7e169231369ab1","650c16f0f2faf8d7a0d14c09","651c1d0c78491dadcb55d0cb","null","null","<p style=""font-size: 120px; font-family: BACS""> </p>","","","","","","","","","",""
"html-keyboard-response","7","172171","0.0-7.0","60670ac0fc7e169231369ab1","650c16f0f2faf8d7a0d14c09","651c1d0c78491dadcb55d0cb","7039"," ","<p>Here is an example of the words you'll see:</p>
      <img src='esempio.png' height='400px'>
      <p>When you're ready to begin, press the spacebar.</p></div>","","","","","","","","","",""
"html-keyboard-response","8","173178","0.0-8.0-0.0","60670ac0fc7e169231369ab1","650c16f0f2faf8d7a0d14c09","651c1d0c78491dadcb55d0cb","null","null","<p style=""font-size: 60px; font-family: BACS"">kcOYBCAd</p>","","","","","","","","","",""
"html-keyboard-response","9","174194","0.0-8.0-0.1","60670ac0fc7e169231369ab1","650c16f0f2faf8d7a0d14c09","651c1d0c78491dadcb55d0cb","null","null","<p style=""font-size: 60px; font-family: BACS"">tKDmhkhMD</p>","","","","","","","","","",""
"html-keyboard-response","10","175204","0.0-8.0-0.2","60670ac0fc7e169231369ab1","650c16f0f2faf8d7a0d14c09","651c1d0c78491dadcb55d0cb","null","null","<p style=""font-size: 60px; font-family: BACS"">CtmbBCAd</p>","","","","","","","","","",""
"html-keyboard-response","11","176215","0.0-8.0-0.3","60670ac0fc7e169231369ab1","650c16f0f2faf8d7a0d14c09","651c1d0c78491dadcb55d0cb","null","null","<p style=""font-size: 60px; font-family: BACS"">CRdBdmKcD</p>","","","","","","","","","",""
"html-keyboard-response","12","177224","0.0-8.0-0.4","60670ac0fc7e169231369ab1","650c16f0f2faf8d7a0d14c09","651c1d0c78491dadcb55d0cb","null","null","<p style=""font-size: 60px; font-family: BACS"">mUOcOrNlZ</p>","","","","","","","","","",""
"html-keyboard-response","13","178234","0.0-8.0-0.5","60670ac0fc7e169231369ab1","650c16f0f2faf8d7a0d14c09","651c1d0c78491dadcb55d0cb","null","null","<p style=""font-size: 60px; font-family: BACS"">YuaNdvAvb</p>","","","","","","","","","",""
"html-keyboard-response","14","179246","0.0-8.0-0.6","60670ac0fc7e169231369ab1","650c16f0f2faf8d7a0d14c09","651c1d0c78491dadcb55d0cb","null","null","<p style=""font-size: 60px; font-family: BACS"">ObOQlUdvY</p>","","","","","","","","","",""
"html-keyboard-response","15","180256","0.0-8.0-0.7","60670ac0fc7e169231369ab1","650c16f0f2faf8d7a0d14c09","651c1d0c78491dadcb55d0cb","null","null","<p style=""font-size: 60px; font-family: BACS"">AmaclLYGA</p>","","","","","","","","","",""
"html-keyboard-response","16","181268","0.0-8.0-0.8","60670ac0fc7e169231369ab1","650c16f0f2faf8d7a0d14c09","651c1d0c78491dadcb55d0cb","null","null","<p style=""font-size: 60px; font-family: BACS"">htmhCmKcD</p>","","","","","","","","","",""
"html-keyboard-response","17","182277","0.0-8.0-0.9","60670ac0fc7e169231369ab1","650c16f0f2faf8d7a0d14c09","651c1d0c78491dadcb55d0cb","null","null","<p style=""font-size: 60px; font-family: BACS"">kGamNrNlZ</p>","","","","","","","","","",""
"html-keyboard-response","18","183287","0.0-8.0-0.10","60670ac0fc7e169231369ab1","650c16f0f2faf8d7a0d14c09","651c1d0c78491dadcb55d0cb","null","null","<p style=""font-size: 60px; font-family: BACS"">AlTdTbk</p>","","","","","","","","","",""
"html-keyboard-response","19","184298","0.0-8.0-0.11","60670ac0fc7e169231369ab1","650c16f0f2faf8d7a0d14c09","651c1d0c78491dadcb55d0cb","null","null","<p style=""font-size: 60px; font-family: BACS"">AmaclGUa</p>","","","","","","","","","",""
"html-keyboard-response","20","185307","0.0-8.0-0.12","60670ac0fc7e169231369ab1","650c16f0f2faf8d7a0d14c09","651c1d0c78491dadcb55d0cb","null","null","<p style=""font-size: 60px; font-family: BACS"">YuaNdLYGA</p>","","","","","","","","","",""
"html-keyboard-response","21","186319","0.0-8.0-0.13","60670ac0fc7e169231369ab1","650c16f0f2faf8d7a0d14c09","651c1d0c78491dadcb55d0cb","null","null","<p style=""font-size: 60px; font-family: BACS"">mUOcOvAvb</p>","","","","","","","","","",""
"html-keyboard-response","22","187331","0.0-8.0-0.14","60670ac0fc7e169231369ab1","650c16f0f2faf8d7a0d14c09","651c1d0c78491dadcb55d0cb","null","null","<p style=""font-size: 60px; font-family: BACS"">ALOrlUdvY</p>","","","","","","","","","",""
"html-keyboard-response","23","188344","0.0-8.0-0.15","60670ac0fc7e169231369ab1","650c16f0f2faf8d7a0d14c09","651c1d0c78491dadcb55d0cb","null","null","<p style=""font-size: 60px; font-family: BACS"">tKDmhDmh</p>","","","","","","","","","",""
"html-keyboard-response","24","189354","0.0-8.0-0.16","60670ac0fc7e169231369ab1","650c16f0f2faf8d7a0d14c09","651c1d0c78491dadcb55d0cb","null","null","<p style=""font-size: 60px; font-family: BACS"">YNrAmvAvb</p>","","","","","","","","","",""
"html-keyboard-response","25","190364","0.0-8.0-0.17","60670ac0fc7e169231369ab1","650c16f0f2faf8d7a0d14c09","651c1d0c78491dadcb55d0cb","null","null","<p style=""font-size: 60px; font-family: BACS"">CtmbTbk</p>","","","","","","","","","",""
"html-keyboard-response","26","191378","0.0-8.0-0.18","60670ac0fc7e169231369ab1","650c16f0f2faf8d7a0d14c09","651c1d0c78491dadcb55d0cb","null","null","<p style=""font-size: 60px; font-family: BACS"">CRdBdDmh</p>","","","","","","","","","",""
"html-keyboard-response","27","192387","0.0-8.0-0.19","60670ac0fc7e169231369ab1","650c16f0f2faf8d7a0d14c09","651c1d0c78491dadcb55d0cb","null","null","<p style=""font-size: 60px; font-family: BACS"">mbZlGUa</p>","","","","","","","","","",""
"html-keyboard-response","28","193399","0.0-8.0-0.20","60670ac0fc7e169231369ab1","650c16f0f2faf8d7a0d14c09","651c1d0c78491dadcb55d0cb","null","null","<p style=""font-size: 60px; font-family: BACS"">YNrAmrNlZ</p>","","","","","","","","","",""
"html-keyboard-response","29","194412","0.0-8.0-0.21","60670ac0fc7e169231369ab1","650c16f0f2faf8d7a0d14c09","651c1d0c78491dadcb55d0cb","null","null","<p style=""font-size: 60px; font-family: BACS"">AlTdmKcD</p>","","","","","","","","","",""
"html-keyboard-response","30","195422","0.0-8.0-0.22","60670ac0fc7e169231369ab1","650c16f0f2faf8d7a0d14c09","651c1d0c78491dadcb55d0cb","null","null","<p style=""font-size: 60px; font-family: BACS"">kcOYkhMD</p>","","","","","","","","","",""
"html-keyboard-response","31","196431","0.0-8.0-0.23","60670ac0fc7e169231369ab1","650c16f0f2faf8d7a0d14c09","651c1d0c78491dadcb55d0cb","null","null","<p style=""font-size: 60px; font-family: BACS"">mbZlUdvY</p>","","","","","","","","","",""
"html-keyboard-response","32","197442","0.0-8.0-0.24","60670ac0fc7e169231369ab1","650c16f0f2faf8d7a0d14c09","651c1d0c78491dadcb55d0cb","null","null","<p style=""font-size: 60px; font-family: BACS"">lBlEkhMD</p>","","","","","","","","","",""
"html-keyboard-response","33","198451","0.0-8.0-0.25","60670ac0fc7e169231369ab1","650c16f0f2faf8d7a0d14c09","651c1d0c78491dadcb55d0cb","null","null","<p style=""font-size: 60px; font-family: BACS"">htmhCBCAd</p>","","","","","","","","","",""
"html-keyboard-response","34","199461","0.0-8.0-0.26","60670ac0fc7e169231369ab1","650c16f0f2faf8d7a0d14c09","651c1d0c78491dadcb55d0cb","null","null","<p style=""font-size: 60px; font-family: BACS"">mbZlvAvb</p>","","","","","","","","","",""
"html-keyboard-response","35","200470","0.0-8.0-0.27","60670ac0fc7e169231369ab1","650c16f0f2faf8d7a0d14c09","651c1d0c78491dadcb55d0cb","null","null","<p style=""font-size: 60px; font-family: BACS"">YuaNdrNlZ</p>","","","","","","","","","",""
"html-keyboard-response","36","201481","0.0-8.0-0.28","60670ac0fc7e169231369ab1","650c16f0f2faf8d7a0d14c09","651c1d0c78491dadcb55d0cb","null","null","<p style=""font-size: 60px; font-family: BACS"">PYkCkhMD</p>","","","","","","","","","",""
"html-keyboard-response","37","202494","0.0-8.0-0.29","60670ac0fc7e169231369ab1","650c16f0f2faf8d7a0d14c09","651c1d0c78491dadcb55d0cb","null","null","<p style=""font-size: 60px; font-family: BACS"">mUOcOUdvY</p>","","","","","","","","","",""
"html-keyboard-response","38","203505","0.0-8.0-0.30","60670ac0fc7e169231369ab1","650c16f0f2faf8d7a0d14c09","651c1d0c78491dadcb55d0cb","null","null","<p style=""font-size: 60px; font-family: BACS"">AmaclrNlZ</p>","","","","","","","","","",""
"html-keyboard-response","39","204519","0.0-8.0-0.31","60670ac0fc7e169231369ab1","650c16f0f2faf8d7a0d14c09","651c1d0c78491dadcb55d0cb","null","null","<p style=""font-size: 60px; font-family: BACS"">kcOYDmh</p>","","","","","","","","","",""
"html-keyboard-response","40","205528","0.0-8.0-0.32","60670ac0fc7e169231369ab1","650c16f0f2faf8d7a0d14c09","651c1d0c78491dadcb55d0cb","null","null","<p style=""font-size: 60px; font-family: BACS"">MBKRETbk</p>","","","","","","","","","",""
"html-keyboard-response","41","206538","0.0-8.0-0.33","60670ac0fc7e169231369ab1","650c16f0f2faf8d7a0d14c09","651c1d0c78491dadcb55d0cb","null","null","<p style=""font-size: 60px; font-family: BACS"">CRdBdBCAd</p>","","","","","","","","","",""
"html-keyboard-response","42","207548","0.0-8.0-0.34","60670ac0fc7e169231369ab1","650c16f0f2faf8d7a0d14c09","651c1d0c78491dadcb55d0cb","null","null","<p style=""font-size: 60px; font-family: BACS"">kGamNvAvb</p>","","","","","","","","","",""
"html-keyboard-response","43","208559","0.0-8.0-0.35","60670ac0fc7e169231369ab1","650c16f0f2faf8d7a0d14c09","651c1d0c78491dadcb55d0cb","null","null","<p style=""font-size: 60px; font-family: BACS"">MBKREmKcD</p>","","","","","","","","","",""
"html-keyboard-response","44","209571","0.0-8.0-0.36","60670ac0fc7e169231369ab1","650c16f0f2faf8d7a0d14c09","651c1d0c78491dadcb55d0cb","null","null","<p style=""font-size: 60px; font-family: BACS"">kGamNGUa</p>","","","","","","","","","",""
"html-keyboard-response","45","210582","0.0-8.0-0.37","60670ac0fc7e169231369ab1","650c16f0f2faf8d7a0d14c09","651c1d0c78491dadcb55d0cb","null","null","<p style=""font-size: 60px; font-family: BACS"">htmhCDmh</p>","","","","","","","","","",""
"html-keyboard-response","46","211594","0.0-8.0-0.38","60670ac0fc7e169231369ab1","650c16f0f2faf8d7a0d14c09","651c1d0c78491dadcb55d0cb","null","null","<p style=""font-size: 60px; font-family: BACS"">tKDmhTbk</p>","","","","","","","","","",""
"html-keyboard-response","47","212607","0.0-8.0-0.39","60670ac0fc7e169231369ab1","650c16f0f2faf8d7a0d14c09","651c1d0c78491dadcb55d0cb","null","null","<p style=""font-size: 60px; font-family: BACS"">MBKREDmh</p>","","","","","","","","","",""
"html-keyboard-response","48","213620","0.0-8.0-0.40","60670ac0fc7e169231369ab1","650c16f0f2faf8d7a0d14c09","651c1d0c78491dadcb55d0cb","null","null","<p style=""font-size: 60px; font-family: BACS"">lBlETbk</p>","","","","","","","","","",""
"html-keyboard-response","49","214629","0.0-8.0-0.41","60670ac0fc7e169231369ab1","650c16f0f2faf8d7a0d14c09","651c1d0c78491dadcb55d0cb","null","null","<p style=""font-size: 60px; font-family: BACS"">OAblcvAvb</p>","","","","","","","","","",""
"html-keyboard-response","50","215642","0.0-8.0-0.42","60670ac0fc7e169231369ab1","650c16f0f2faf8d7a0d14c09","651c1d0c78491dadcb55d0cb","null","null","<p style=""font-size: 60px; font-family: BACS"">htmhCkhMD</p>","","","","","","","","","",""
"html-keyboard-response","51","216652","0.0-8.0-0.43","60670ac0fc7e169231369ab1","650c16f0f2faf8d7a0d14c09","651c1d0c78491dadcb55d0cb","null","null","<p style=""font-size: 60px; font-family: BACS"">CtmbDmh</p>","","","","","","","","","",""
"html-keyboard-response","52","217664","0.0-8.0-0.44","60670ac0fc7e169231369ab1","650c16f0f2faf8d7a0d14c09","651c1d0c78491dadcb55d0cb","null","null","<p style=""font-size: 60px; font-family: BACS"">dGLAlUdvY</p>","","","","","","","","","",""
"html-keyboard-response","53","218674","0.0-8.0-0.45","60670ac0fc7e169231369ab1","650c16f0f2faf8d7a0d14c09","651c1d0c78491dadcb55d0cb","null","null","<p style=""font-size: 60px; font-family: BACS"">AlTdkhMD</p>","","","","","","","","","",""
"html-keyboard-response","54","219685","0.0-8.0-0.46","60670ac0fc7e169231369ab1","650c16f0f2faf8d7a0d14c09","651c1d0c78491dadcb55d0cb","null","null","<p style=""font-size: 60px; font-family: BACS"">ALOrlvAvb</p>","","","","","","","","","",""
"html-keyboard-response","55","220696","0.0-8.0-0.47","60670ac0fc7e169231369ab1","650c16f0f2faf8d7a0d14c09","651c1d0c78491dadcb55d0cb","null","null","<p style=""font-size: 60px; font-family: BACS"">ObOQlLYGA</p>","","","","","","","","","",""
"html-keyboard-response","56","221708","0.0-8.0-0.48","60670ac0fc7e169231369ab1","650c16f0f2faf8d7a0d14c09","651c1d0c78491dadcb55d0cb","null","null","<p style=""font-size: 60px; font-family: BACS"">lBlEDmh</p>","","","","","","","","","",""
"html-keyboard-response","57","222722","0.0-8.0-0.49","60670ac0fc7e169231369ab1","650c16f0f2faf8d7a0d14c09","651c1d0c78491dadcb55d0cb","null","null","<p style=""font-size: 60px; font-family: BACS"">tKDmhmKcD</p>","","","","","","","","","",""
"html-keyboard-response","58","223735","0.0-8.0-0.50","60670ac0fc7e169231369ab1","650c16f0f2faf8d7a0d14c09","651c1d0c78491dadcb55d0cb","null","null","<p style=""font-size: 60px; font-family: BACS"">MBKREkhMD</p>","","","","","","","","","",""
"html-keyboard-response","59","224745","0.0-8.0-0.51","60670ac0fc7e169231369ab1","650c16f0f2faf8d7a0d14c09","651c1d0c78491dadcb55d0cb","null","null","<p style=""font-size: 60px; font-family: BACS"">kGamNUdvY</p>","","","","","","","","","",""
"html-keyboard-response","60","225770","0.0-8.0-0.52","60670ac0fc7e169231369ab1","650c16f0f2faf8d7a0d14c09","651c1d0c78491dadcb55d0cb","null","null","<p style=""font-size: 60px; font-family: BACS"">PYkCBCAd</p>","","","","","","","","","",""
"html-keyboard-response","61","226780","0.0-8.0-0.53","60670ac0fc7e169231369ab1","650c16f0f2faf8d7a0d14c09","651c1d0c78491dadcb55d0cb","null","null","<p style=""font-size: 60px; font-family: BACS"">YuaNdGUa</p>","","","","","","","","","",""
"html-keyboard-response","62","227788","0.0-8.0-0.54","60670ac0fc7e169231369ab1","650c16f0f2faf8d7a0d14c09","651c1d0c78491dadcb55d0cb","null","null","<p style=""font-size: 60px; font-family: BACS"">YNrAmLYGA</p>","","","","","","","","","",""
"html-keyboard-response","63","228801","0.0-8.0-0.55","60670ac0fc7e169231369ab1","650c16f0f2faf8d7a0d14c09","651c1d0c78491dadcb55d0cb","null","null","<p style=""font-size: 60px; font-family: BACS"">CRdBdkhMD</p>","","","","","","","","","",""
"html-keyboard-response","64","229810","0.0-8.0-0.56","60670ac0fc7e169231369ab1","650c16f0f2faf8d7a0d14c09","651c1d0c78491dadcb55d0cb","null","null","<p style=""font-size: 60px; font-family: BACS"">lTmODmh</p>","","","","","","","","","",""
"html-keyboard-response","65","230825","0.0-8.0-0.57","60670ac0fc7e169231369ab1","650c16f0f2faf8d7a0d14c09","651c1d0c78491dadcb55d0cb","null","null","<p style=""font-size: 60px; font-family: BACS"">OAblcLYGA</p>","","","","","","","","","",""
"html-keyboard-response","66","231833","0.0-8.0-0.58","60670ac0fc7e169231369ab1","650c16f0f2faf8d7a0d14c09","651c1d0c78491dadcb55d0cb","null","null","<p style=""font-size: 60px; font-family: BACS"">ALOrlGUa</p>","","","","","","","","","",""
"html-keyboard-response","67","232846","0.0-8.0-0.59","60670ac0fc7e169231369ab1","650c16f0f2faf8d7a0d14c09","651c1d0c78491dadcb55d0cb","null","null","<p style=""font-size: 60px; font-family: BACS"">CtmbmKcD</p>","","","","","","","","","",""
"html-keyboard-response","68","233857","0.0-8.0-0.60","60670ac0fc7e169231369ab1","650c16f0f2faf8d7a0d14c09","651c1d0c78491dadcb55d0cb","null","null","<p style=""font-size: 60px; font-family: BACS"">AmaclUdvY</p>","","","","","","","","","",""
"html-keyboard-response","69","234864","0.0-8.0-0.61","60670ac0fc7e169231369ab1","650c16f0f2faf8d7a0d14c09","651c1d0c78491dadcb55d0cb","null","null","<p style=""font-size: 60px; font-family: BACS"">lTmOmKcD</p>","","","","","","","","","",""
"html-keyboard-response","70","235877","0.0-8.0-0.62","60670ac0fc7e169231369ab1","650c16f0f2faf8d7a0d14c09","651c1d0c78491dadcb55d0cb","null","null","<p style=""font-size: 60px; font-family: BACS"">OAblcGUa</p>","","","","","","","","","",""
"html-keyboard-response","71","236893","0.0-8.0-0.63","60670ac0fc7e169231369ab1","650c16f0f2faf8d7a0d14c09","651c1d0c78491dadcb55d0cb","null","null","<p style=""font-size: 60px; font-family: BACS"">ALOrlLYGA</p>","","","","","","","","","",""
"html-keyboard-response","72","237906","0.0-8.0-0.64","60670ac0fc7e169231369ab1","650c16f0f2faf8d7a0d14c09","651c1d0c78491dadcb55d0cb","null","null","<p style=""font-size: 60px; font-family: BACS"">YNrAmUdvY</p>","","","","","","","","","",""
"html-keyboard-response","73","238915","0.0-8.0-0.65","60670ac0fc7e169231369ab1","650c16f0f2faf8d7a0d14c09","651c1d0c78491dadcb55d0cb","null","null","<p style=""font-size: 60px; font-family: BACS"">dGLAlGUa</p>","","","","","","","","","",""
"html-keyboard-response","74","239931","0.0-8.0-0.66","60670ac0fc7e169231369ab1","650c16f0f2faf8d7a0d14c09","651c1d0c78491dadcb55d0cb","null","null","<p style=""font-size: 60px; font-family: BACS"">lBlEBCAd</p>","","","","","","","","","",""
"html-keyboard-response","75","240944","0.0-8.0-0.67","60670ac0fc7e169231369ab1","650c16f0f2faf8d7a0d14c09","651c1d0c78491dadcb55d0cb","null","null","<p style=""font-size: 60px; font-family: BACS"">dGLAlrNlZ</p>","","","","","","","","","",""
"html-keyboard-response","76","241957","0.0-8.0-0.68","60670ac0fc7e169231369ab1","650c16f0f2faf8d7a0d14c09","651c1d0c78491dadcb55d0cb","null","null","<p style=""font-size: 60px; font-family: BACS"">ObOQlGUa</p>","","","","","","","","","",""
"html-keyboard-response","77","242972","0.0-8.0-0.69","60670ac0fc7e169231369ab1","650c16f0f2faf8d7a0d14c09","651c1d0c78491dadcb55d0cb","null","null","<p style=""font-size: 60px; font-family: BACS"">PYkCmKcD</p>","","","","","","","","","",""
"html-keyboard-response","78","243986","0.0-8.0-0.70","60670ac0fc7e169231369ab1","650c16f0f2faf8d7a0d14c09","651c1d0c78491dadcb55d0cb","null","null","<p style=""font-size: 60px; font-family: BACS"">OAblcrNlZ</p>","","","","","","","","","",""
"html-keyboard-response","79","244997","0.0-8.0-0.71","60670ac0fc7e169231369ab1","650c16f0f2faf8d7a0d14c09","651c1d0c78491dadcb55d0cb","null","null","<p style=""font-size: 60px; font-family: BACS"">mUOcOLYGA</p>","","","","","","","","","",""
"html-keyboard-response","80","246006","0.0-8.0-0.72","60670ac0fc7e169231369ab1","650c16f0f2faf8d7a0d14c09","651c1d0c78491dadcb55d0cb","null","null","<p style=""font-size: 60px; font-family: BACS"">ObOQlvAvb</p>","","","","","","","","","",""
"html-keyboard-response","81","247016","0.0-8.0-0.73","60670ac0fc7e169231369ab1","650c16f0f2faf8d7a0d14c09","651c1d0c78491dadcb55d0cb","null","null","<p style=""font-size: 60px; font-family: BACS"">lTmOTbk</p>","","","","","","","","","",""
"html-keyboard-response","82","248030","0.0-8.0-0.74","60670ac0fc7e169231369ab1","650c16f0f2faf8d7a0d14c09","651c1d0c78491dadcb55d0cb","null","null","<p style=""font-size: 60px; font-family: BACS"">mbZlrNlZ</p>","","","","","","","","","",""
"html-keyboard-response","83","249041","0.0-8.0-0.75","60670ac0fc7e169231369ab1","650c16f0f2faf8d7a0d14c09","651c1d0c78491dadcb55d0cb","null","null","<p style=""font-size: 60px; font-family: BACS"">kcOYTbk</p>","","","","","","","","","",""
"html-keyboard-response","84","250056","0.0-8.0-0.76","60670ac0fc7e169231369ab1","650c16f0f2faf8d7a0d14c09","651c1d0c78491dadcb55d0cb","null","null","<p style=""font-size: 60px; font-family: BACS"">AlTdBCAd</p>","","","","","","","","","",""
"html-keyboard-response","85","251065","0.0-8.0-0.77","60670ac0fc7e169231369ab1","650c16f0f2faf8d7a0d14c09","651c1d0c78491dadcb55d0cb","null","null","<p style=""font-size: 60px; font-family: BACS"">PYkCTbk</p>","","","","","","","","","",""
"html-keyboard-response","86","252076","0.0-8.0-0.78","60670ac0fc7e169231369ab1","650c16f0f2faf8d7a0d14c09","651c1d0c78491dadcb55d0cb","null","null","<p style=""font-size: 60px; font-family: BACS"">lTmOBCAd</p>","","","","","","","","","",""
"html-keyboard-response","87","253086","0.0-8.0-0.79","60670ac0fc7e169231369ab1","650c16f0f2faf8d7a0d14c09","651c1d0c78491dadcb55d0cb","null","null","<p style=""font-size: 60px; font-family: BACS"">dGLAlLYGA</p>","","","","","","","","","",""
"html-keyboard-response","88","257566","0.0-9.0","60670ac0fc7e169231369ab1","650c16f0f2faf8d7a0d14c09","651c1d0c78491dadcb55d0cb","4479"," ","<p>Great, you've seen the first block of words. You may now take a short break.</p>
      <p>Press the spacebar when you're ready to continue.</p>","","","","","","","","","",""
"html-keyboard-response","89","258568","0.0-10.0-0.0","60670ac0fc7e169231369ab1","650c16f0f2faf8d7a0d14c09","651c1d0c78491dadcb55d0cb","null","null","<p style=""font-size: 60px; font-family: BACS"">tKDmhkhMD</p>","","","","","","","","","",""
"html-keyboard-response","90","259580","0.0-10.0-0.1","60670ac0fc7e169231369ab1","650c16f0f2faf8d7a0d14c09","651c1d0c78491dadcb55d0cb","null","null","<p style=""font-size: 60px; font-family: BACS"">AmaclrNlZ</p>","","","","","","","","","",""
"html-keyboard-response","91","260591","0.0-10.0-0.2","60670ac0fc7e169231369ab1","650c16f0f2faf8d7a0d14c09","651c1d0c78491dadcb55d0cb","null","null","<p style=""font-size: 60px; font-family: BACS"">YuaNdvAvb</p>","","","","","","","","","",""
"html-keyboard-response","92","261604","0.0-10.0-0.3","60670ac0fc7e169231369ab1","650c16f0f2faf8d7a0d14c09","651c1d0c78491dadcb55d0cb","null","null","<p style=""font-size: 60px; font-family: BACS"">lBlEDmh</p>","","","","","","","","","",""
"html-keyboard-response","93","262613","0.0-10.0-0.4","60670ac0fc7e169231369ab1","650c16f0f2faf8d7a0d14c09","651c1d0c78491dadcb55d0cb","null","null","<p style=""font-size: 60px; font-family: BACS"">AlTdkhMD</p>","","","","","","","","","",""
"html-keyboard-response","94","263627","0.0-10.0-0.5","60670ac0fc7e169231369ab1","650c16f0f2faf8d7a0d14c09","651c1d0c78491dadcb55d0cb","null","null","<p style=""font-size: 60px; font-family: BACS"">ObOQlGUa</p>","","","","","","","","","",""
"html-keyboard-response","95","264636","0.0-10.0-0.6","60670ac0fc7e169231369ab1","650c16f0f2faf8d7a0d14c09","651c1d0c78491dadcb55d0cb","null","null","<p style=""font-size: 60px; font-family: BACS"">CtmbmKcD</p>","","","","","","","","","",""
"html-keyboard-response","96","265645","0.0-10.0-0.7","60670ac0fc7e169231369ab1","650c16f0f2faf8d7a0d14c09","651c1d0c78491dadcb55d0cb","null","null","<p style=""font-size: 60px; font-family: BACS"">kGamNGUa</p>","","","","","","","","","",""
"html-keyboard-response","97","266655","0.0-10.0-0.8","60670ac0fc7e169231369ab1","650c16f0f2faf8d7a0d14c09","651c1d0c78491dadcb55d0cb","null","null","<p style=""font-size: 60px; font-family: BACS"">CRdBdkhMD</p>","","","","","","","","","",""
"html-keyboard-response","98","267663","0.0-10.0-0.9","60670ac0fc7e169231369ab1","650c16f0f2faf8d7a0d14c09","651c1d0c78491dadcb55d0cb","null","null","<p style=""font-size: 60px; font-family: BACS"">kGamNUdvY</p>","","","","","","","","","",""
"html-keyboard-response","99","268675","0.0-10.0-0.10","60670ac0fc7e169231369ab1","650c16f0f2faf8d7a0d14c09","651c1d0c78491dadcb55d0cb","null","null","<p style=""font-size: 60px; font-family: BACS"">lTmODmh</p>","","","","","","","","","",""
"html-keyboard-response","100","269687","0.0-10.0-0.11","60670ac0fc7e169231369ab1","650c16f0f2faf8d7a0d14c09","651c1d0c78491dadcb55d0cb","null","null","<p style=""font-size: 60px; font-family: BACS"">dGLAlLYGA</p>","","","","","","","","","",""
"html-keyboard-response","101","270698","0.0-10.0-0.12","60670ac0fc7e169231369ab1","650c16f0f2faf8d7a0d14c09","651c1d0c78491dadcb55d0cb","null","null","<p style=""font-size: 60px; font-family: BACS"">kGamNrNlZ</p>","","","","","","","","","",""
"html-keyboard-response","102","271711","0.0-10.0-0.13","60670ac0fc7e169231369ab1","650c16f0f2faf8d7a0d14c09","651c1d0c78491dadcb55d0cb","null","null","<p style=""font-size: 60px; font-family: BACS"">lBlEBCAd</p>","","","","","","","","","",""
"html-keyboard-response","103","272721","0.0-10.0-0.14","60670ac0fc7e169231369ab1","650c16f0f2faf8d7a0d14c09","651c1d0c78491dadcb55d0cb","null","null","<p style=""font-size: 60px; font-family: BACS"">PYkCmKcD</p>","","","","","","","","","",""
"html-keyboard-response","104","273734","0.0-10.0-0.15","60670ac0fc7e169231369ab1","650c16f0f2faf8d7a0d14c09","651c1d0c78491dadcb55d0cb","null","null","<p style=""font-size: 60px; font-family: BACS"">mbZlUdvY</p>","","","","","","","","","",""
"html-keyboard-response","105","274745","0.0-10.0-0.16","60670ac0fc7e169231369ab1","650c16f0f2faf8d7a0d14c09","651c1d0c78491dadcb55d0cb","null","null","<p style=""font-size: 60px; font-family: BACS"">mUOcOLYGA</p>","","","","","","","","","",""
"html-keyboard-response","106","275762","0.0-10.0-0.17","60670ac0fc7e169231369ab1","650c16f0f2faf8d7a0d14c09","651c1d0c78491dadcb55d0cb","null","null","<p style=""font-size: 60px; font-family: BACS"">AlTdBCAd</p>","","","","","","","","","",""
"html-keyboard-response","107","276772","0.0-10.0-0.18","60670ac0fc7e169231369ab1","650c16f0f2faf8d7a0d14c09","651c1d0c78491dadcb55d0cb","null","null","<p style=""font-size: 60px; font-family: BACS"">tKDmhDmh</p>","","","","","","","","","",""
"html-keyboard-response","108","277783","0.0-10.0-0.19","60670ac0fc7e169231369ab1","650c16f0f2faf8d7a0d14c09","651c1d0c78491dadcb55d0cb","null","null","<p style=""font-size: 60px; font-family: BACS"">PYkCBCAd</p>","","","","","","","","","",""
"html-keyboard-response","109","278794","0.0-10.0-0.20","60670ac0fc7e169231369ab1","650c16f0f2faf8d7a0d14c09","651c1d0c78491dadcb55d0cb","null","null","<p style=""font-size: 60px; font-family: BACS"">dGLAlUdvY</p>","","","","","","","","","",""
"html-keyboard-response","110","279809","0.0-10.0-0.21","60670ac0fc7e169231369ab1","650c16f0f2faf8d7a0d14c09","651c1d0c78491dadcb55d0cb","null","null","<p style=""font-size: 60px; font-family: BACS"">mUOcOrNlZ</p>","","","","","","","","","",""
"html-keyboard-response","111","280818","0.0-10.0-0.22","60670ac0fc7e169231369ab1","650c16f0f2faf8d7a0d14c09","651c1d0c78491dadcb55d0cb","null","null","<p style=""font-size: 60px; font-family: BACS"">CRdBdDmh</p>","","","","","","","","","",""
"html-keyboard-response","112","281830","0.0-10.0-0.23","60670ac0fc7e169231369ab1","650c16f0f2faf8d7a0d14c09","651c1d0c78491dadcb55d0cb","null","null","<p style=""font-size: 60px; font-family: BACS"">ALOrlLYGA</p>","","","","","","","","","",""
"html-keyboard-response","113","282842","0.0-10.0-0.24","60670ac0fc7e169231369ab1","650c16f0f2faf8d7a0d14c09","651c1d0c78491dadcb55d0cb","null","null","<p style=""font-size: 60px; font-family: BACS"">kcOYBCAd</p>","","","","","","","","","",""
"html-keyboard-response","114","283855","0.0-10.0-0.25","60670ac0fc7e169231369ab1","650c16f0f2faf8d7a0d14c09","651c1d0c78491dadcb55d0cb","null","null","<p style=""font-size: 60px; font-family: BACS"">mUOcOvAvb</p>","","","","","","","","","",""
"html-keyboard-response","115","284868","0.0-10.0-0.26","60670ac0fc7e169231369ab1","650c16f0f2faf8d7a0d14c09","651c1d0c78491dadcb55d0cb","null","null","<p style=""font-size: 60px; font-family: BACS"">lBlEkhMD</p>","","","","","","","","","",""
"html-keyboard-response","116","285893","0.0-10.0-0.27","60670ac0fc7e169231369ab1","650c16f0f2faf8d7a0d14c09","651c1d0c78491dadcb55d0cb","null","null","<p style=""font-size: 60px; font-family: BACS"">YuaNdGUa</p>","","","","","","","","","",""
"html-keyboard-response","117","286903","0.0-10.0-0.28","60670ac0fc7e169231369ab1","650c16f0f2faf8d7a0d14c09","651c1d0c78491dadcb55d0cb","null","null","<p style=""font-size: 60px; font-family: BACS"">MBKRETbk</p>","","","","","","","","","",""
"html-keyboard-response","118","287910","0.0-10.0-0.29","60670ac0fc7e169231369ab1","650c16f0f2faf8d7a0d14c09","651c1d0c78491dadcb55d0cb","null","null","<p style=""font-size: 60px; font-family: BACS"">dGLAlGUa</p>","","","","","","","","","",""
"html-keyboard-response","119","288921","0.0-10.0-0.30","60670ac0fc7e169231369ab1","650c16f0f2faf8d7a0d14c09","651c1d0c78491dadcb55d0cb","null","null","<p style=""font-size: 60px; font-family: BACS"">AlTdmKcD</p>","","","","","","","","","",""
"html-keyboard-response","120","289934","0.0-10.0-0.31","60670ac0fc7e169231369ab1","650c16f0f2faf8d7a0d14c09","651c1d0c78491dadcb55d0cb","null","null","<p style=""font-size: 60px; font-family: BACS"">ObOQlLYGA</p>","","","","","","","","","",""
"html-keyboard-response","121","290944","0.0-10.0-0.32","60670ac0fc7e169231369ab1","650c16f0f2faf8d7a0d14c09","651c1d0c78491dadcb55d0cb","null","null","<p style=""font-size: 60px; font-family: BACS"">PYkCTbk</p>","","","","","","","","","",""
"html-keyboard-response","122","291956","0.0-10.0-0.33","60670ac0fc7e169231369ab1","650c16f0f2faf8d7a0d14c09","651c1d0c78491dadcb55d0cb","null","null","<p style=""font-size: 60px; font-family: BACS"">OAblcLYGA</p>","","","","","","","","","",""
"html-keyboard-response","123","292967","0.0-10.0-0.34","60670ac0fc7e169231369ab1","650c16f0f2faf8d7a0d14c09","651c1d0c78491dadcb55d0cb","null","null","<p style=""font-size: 60px; font-family: BACS"">ALOrlGUa</p>","","","","","","","","","",""
"html-keyboard-response","124","293979","0.0-10.0-0.35","60670ac0fc7e169231369ab1","650c16f0f2faf8d7a0d14c09","651c1d0c78491dadcb55d0cb","null","null","<p style=""font-size: 60px; font-family: BACS"">CtmbDmh</p>","","","","","","","","","",""
"html-keyboard-response","125","294990","0.0-10.0-0.36","60670ac0fc7e169231369ab1","650c16f0f2faf8d7a0d14c09","651c1d0c78491dadcb55d0cb","null","null","<p style=""font-size: 60px; font-family: BACS"">CRdBdBCAd</p>","","","","","","","","","",""
"html-keyboard-response","126","295999","0.0-10.0-0.37","60670ac0fc7e169231369ab1","650c16f0f2faf8d7a0d14c09","651c1d0c78491dadcb55d0cb","null","null","<p style=""font-size: 60px; font-family: BACS"">YuaNdrNlZ</p>","","","","","","","","","",""
"html-keyboard-response","127","297011","0.0-10.0-0.38","60670ac0fc7e169231369ab1","650c16f0f2faf8d7a0d14c09","651c1d0c78491dadcb55d0cb","null","null","<p style=""font-size: 60px; font-family: BACS"">OAblcvAvb</p>","","","","","","","","","",""
"html-keyboard-response","128","298020","0.0-10.0-0.39","60670ac0fc7e169231369ab1","650c16f0f2faf8d7a0d14c09","651c1d0c78491dadcb55d0cb","null","null","<p style=""font-size: 60px; font-family: BACS"">kcOYkhMD</p>","","","","","","","","","",""
"html-keyboard-response","129","299030","0.0-10.0-0.40","60670ac0fc7e169231369ab1","650c16f0f2faf8d7a0d14c09","651c1d0c78491dadcb55d0cb","null","null","<p style=""font-size: 60px; font-family: BACS"">ObOQlvAvb</p>","","","","","","","","","",""
"html-keyboard-response","130","300043","0.0-10.0-0.41","60670ac0fc7e169231369ab1","650c16f0f2faf8d7a0d14c09","651c1d0c78491dadcb55d0cb","null","null","<p style=""font-size: 60px; font-family: BACS"">AlTdTbk</p>","","","","","","","","","",""
"html-keyboard-response","131","301054","0.0-10.0-0.42","60670ac0fc7e169231369ab1","650c16f0f2faf8d7a0d14c09","651c1d0c78491dadcb55d0cb","null","null","<p style=""font-size: 60px; font-family: BACS"">mUOcOUdvY</p>","","","","","","","","","",""
"html-keyboard-response","132","302065","0.0-10.0-0.43","60670ac0fc7e169231369ab1","650c16f0f2faf8d7a0d14c09","651c1d0c78491dadcb55d0cb","null","null","<p style=""font-size: 60px; font-family: BACS"">ALOrlvAvb</p>","","","","","","","","","",""
"html-keyboard-response","133","303075","0.0-10.0-0.44","60670ac0fc7e169231369ab1","650c16f0f2faf8d7a0d14c09","651c1d0c78491dadcb55d0cb","null","null","<p style=""font-size: 60px; font-family: BACS"">AmaclGUa</p>","","","","","","","","","",""
"html-keyboard-response","134","304087","0.0-10.0-0.45","60670ac0fc7e169231369ab1","650c16f0f2faf8d7a0d14c09","651c1d0c78491dadcb55d0cb","null","null","<p style=""font-size: 60px; font-family: BACS"">lTmOmKcD</p>","","","","","","","","","",""
"html-keyboard-response","135","305096","0.0-10.0-0.46","60670ac0fc7e169231369ab1","650c16f0f2faf8d7a0d14c09","651c1d0c78491dadcb55d0cb","null","null","<p style=""font-size: 60px; font-family: BACS"">ObOQlUdvY</p>","","","","","","","","","",""
"html-keyboard-response","136","306111","0.0-10.0-0.47","60670ac0fc7e169231369ab1","650c16f0f2faf8d7a0d14c09","651c1d0c78491dadcb55d0cb","null","null","<p style=""font-size: 60px; font-family: BACS"">YNrAmrNlZ</p>","","","","","","","","","",""
"html-keyboard-response","137","307121","0.0-10.0-0.48","60670ac0fc7e169231369ab1","650c16f0f2faf8d7a0d14c09","651c1d0c78491dadcb55d0cb","null","null","<p style=""font-size: 60px; font-family: BACS"">tKDmhTbk</p>","","","","","","","","","",""
"html-keyboard-response","138","308129","0.0-10.0-0.49","60670ac0fc7e169231369ab1","650c16f0f2faf8d7a0d14c09","651c1d0c78491dadcb55d0cb","null","null","<p style=""font-size: 60px; font-family: BACS"">CRdBdmKcD</p>","","","","","","","","","",""
"html-keyboard-response","139","309138","0.0-10.0-0.50","60670ac0fc7e169231369ab1","650c16f0f2faf8d7a0d14c09","651c1d0c78491dadcb55d0cb","null","null","<p style=""font-size: 60px; font-family: BACS"">mbZlGUa</p>","","","","","","","","","",""
"html-keyboard-response","140","310151","0.0-10.0-0.51","60670ac0fc7e169231369ab1","650c16f0f2faf8d7a0d14c09","651c1d0c78491dadcb55d0cb","null","null","<p style=""font-size: 60px; font-family: BACS"">dGLAlrNlZ</p>","","","","","","","","","",""
"html-keyboard-response","141","311160","0.0-10.0-0.52","60670ac0fc7e169231369ab1","650c16f0f2faf8d7a0d14c09","651c1d0c78491dadcb55d0cb","null","null","<p style=""font-size: 60px; font-family: BACS"">lTmOBCAd</p>","","","","","","","","","",""
"html-keyboard-response","142","312175","0.0-10.0-0.53","60670ac0fc7e169231369ab1","650c16f0f2faf8d7a0d14c09","651c1d0c78491dadcb55d0cb","null","null","<p style=""font-size: 60px; font-family: BACS"">htmhCmKcD</p>","","","","","","","","","",""
"html-keyboard-response","143","313184","0.0-10.0-0.54","60670ac0fc7e169231369ab1","650c16f0f2faf8d7a0d14c09","651c1d0c78491dadcb55d0cb","null","null","<p style=""font-size: 60px; font-family: BACS"">YNrAmUdvY</p>","","","","","","","","","",""
"html-keyboard-response","144","314196","0.0-10.0-0.55","60670ac0fc7e169231369ab1","650c16f0f2faf8d7a0d14c09","651c1d0c78491dadcb55d0cb","null","null","<p style=""font-size: 60px; font-family: BACS"">mbZlvAvb</p>","","","","","","","","","",""
"html-keyboard-response","145","315208","0.0-10.0-0.56","60670ac0fc7e169231369ab1","650c16f0f2faf8d7a0d14c09","651c1d0c78491dadcb55d0cb","null","null","<p style=""font-size: 60px; font-family: BACS"">AmaclLYGA</p>","","","","","","","","","",""
"html-keyboard-response","146","316218","0.0-10.0-0.57","60670ac0fc7e169231369ab1","650c16f0f2faf8d7a0d14c09","651c1d0c78491dadcb55d0cb","null","null","<p style=""font-size: 60px; font-family: BACS"">htmhCDmh</p>","","","","","","","","","",""
"html-keyboard-response","147","317231","0.0-10.0-0.58","60670ac0fc7e169231369ab1","650c16f0f2faf8d7a0d14c09","651c1d0c78491dadcb55d0cb","null","null","<p style=""font-size: 60px; font-family: BACS"">OAblcrNlZ</p>","","","","","","","","","",""
"html-keyboard-response","148","318244","0.0-10.0-0.59","60670ac0fc7e169231369ab1","650c16f0f2faf8d7a0d14c09","651c1d0c78491dadcb55d0cb","null","null","<p style=""font-size: 60px; font-family: BACS"">MBKREkhMD</p>","","","","","","","","","",""
"html-keyboard-response","149","319255","0.0-10.0-0.60","60670ac0fc7e169231369ab1","650c16f0f2faf8d7a0d14c09","651c1d0c78491dadcb55d0cb","null","null","<p style=""font-size: 60px; font-family: BACS"">lBlETbk</p>","","","","","","","","","",""
"html-keyboard-response","150","320263","0.0-10.0-0.61","60670ac0fc7e169231369ab1","650c16f0f2faf8d7a0d14c09","651c1d0c78491dadcb55d0cb","null","null","<p style=""font-size: 60px; font-family: BACS"">tKDmhmKcD</p>","","","","","","","","","",""
"html-keyboard-response","151","321277","0.0-10.0-0.62","60670ac0fc7e169231369ab1","650c16f0f2faf8d7a0d14c09","651c1d0c78491dadcb55d0cb","null","null","<p style=""font-size: 60px; font-family: BACS"">ALOrlUdvY</p>","","","","","","","","","",""
"html-keyboard-response","152","322289","0.0-10.0-0.63","60670ac0fc7e169231369ab1","650c16f0f2faf8d7a0d14c09","651c1d0c78491dadcb55d0cb","null","null","<p style=""font-size: 60px; font-family: BACS"">htmhCBCAd</p>","","","","","","","","","",""
"html-keyboard-response","153","323291","0.0-10.0-0.64","60670ac0fc7e169231369ab1","650c16f0f2faf8d7a0d14c09","651c1d0c78491dadcb55d0cb","null","null","<p style=""font-size: 60px; font-family: BACS"">lTmOTbk</p>","","","","","","","","","",""
"html-keyboard-response","154","324301","0.0-10.0-0.65","60670ac0fc7e169231369ab1","650c16f0f2faf8d7a0d14c09","651c1d0c78491dadcb55d0cb","null","null","<p style=""font-size: 60px; font-family: BACS"">MBKREmKcD</p>","","","","","","","","","",""
"html-keyboard-response","155","325313","0.0-10.0-0.66","60670ac0fc7e169231369ab1","650c16f0f2faf8d7a0d14c09","651c1d0c78491dadcb55d0cb","null","null","<p style=""font-size: 60px; font-family: BACS"">AmaclUdvY</p>","","","","","","","","","",""
"html-keyboard-response","156","326323","0.0-10.0-0.67","60670ac0fc7e169231369ab1","650c16f0f2faf8d7a0d14c09","651c1d0c78491dadcb55d0cb","null","null","<p style=""font-size: 60px; font-family: BACS"">YNrAmvAvb</p>","","","","","","","","","",""
"html-keyboard-response","157","327337","0.0-10.0-0.68","60670ac0fc7e169231369ab1","650c16f0f2faf8d7a0d14c09","651c1d0c78491dadcb55d0cb","null","null","<p style=""font-size: 60px; font-family: BACS"">YuaNdLYGA</p>","","","","","","","","","",""
"html-keyboard-response","158","328353","0.0-10.0-0.69","60670ac0fc7e169231369ab1","650c16f0f2faf8d7a0d14c09","651c1d0c78491dadcb55d0cb","null","null","<p style=""font-size: 60px; font-family: BACS"">kcOYTbk</p>","","","","","","","","","",""
"html-keyboard-response","159","329365","0.0-10.0-0.70","60670ac0fc7e169231369ab1","650c16f0f2faf8d7a0d14c09","651c1d0c78491dadcb55d0cb","null","null","<p style=""font-size: 60px; font-family: BACS"">kGamNvAvb</p>","","","","","","","","","",""
"html-keyboard-response","160","330377","0.0-10.0-0.71","60670ac0fc7e169231369ab1","650c16f0f2faf8d7a0d14c09","651c1d0c78491dadcb55d0cb","null","null","<p style=""font-size: 60px; font-family: BACS"">YNrAmLYGA</p>","","","","","","","","","",""
"html-keyboard-response","161","331388","0.0-10.0-0.72","60670ac0fc7e169231369ab1","650c16f0f2faf8d7a0d14c09","651c1d0c78491dadcb55d0cb","null","null","<p style=""font-size: 60px; font-family: BACS"">CtmbBCAd</p>","","","","","","","","","",""
"html-keyboard-response","162","332398","0.0-10.0-0.73","60670ac0fc7e169231369ab1","650c16f0f2faf8d7a0d14c09","651c1d0c78491dadcb55d0cb","null","null","<p style=""font-size: 60px; font-family: BACS"">kcOYDmh</p>","","","","","","","","","",""
"html-keyboard-response","163","333414","0.0-10.0-0.74","60670ac0fc7e169231369ab1","650c16f0f2faf8d7a0d14c09","651c1d0c78491dadcb55d0cb","null","null","<p style=""font-size: 60px; font-family: BACS"">OAblcGUa</p>","","","","","","","","","",""
"html-keyboard-response","164","334424","0.0-10.0-0.75","60670ac0fc7e169231369ab1","650c16f0f2faf8d7a0d14c09","651c1d0c78491dadcb55d0cb","null","null","<p style=""font-size: 60px; font-family: BACS"">MBKREDmh</p>","","","","","","","","","",""
"html-keyboard-response","165","335433","0.0-10.0-0.76","60670ac0fc7e169231369ab1","650c16f0f2faf8d7a0d14c09","651c1d0c78491dadcb55d0cb","null","null","<p style=""font-size: 60px; font-family: BACS"">htmhCkhMD</p>","","","","","","","","","",""
"html-keyboard-response","166","336445","0.0-10.0-0.77","60670ac0fc7e169231369ab1","650c16f0f2faf8d7a0d14c09","651c1d0c78491dadcb55d0cb","null","null","<p style=""font-size: 60px; font-family: BACS"">CtmbTbk</p>","","","","","","","","","",""
"html-keyboard-response","167","337452","0.0-10.0-0.78","60670ac0fc7e169231369ab1","650c16f0f2faf8d7a0d14c09","651c1d0c78491dadcb55d0cb","null","null","<p style=""font-size: 60px; font-family: BACS"">mbZlrNlZ</p>","","","","","","","","","",""
"html-keyboard-response","168","338464","0.0-10.0-0.79","60670ac0fc7e169231369ab1","650c16f0f2faf8d7a0d14c09","651c1d0c78491dadcb55d0cb","null","null","<p style=""font-size: 60px; font-family: BACS"">PYkCkhMD</p>","","","","","","","","","",""
"html-keyboard-response","169","343961","0.0-11.0","60670ac0fc7e169231369ab1","650c16f0f2faf8d7a0d14c09","651c1d0c78491dadcb55d0cb","5496"," ","<p>Great, you've seen the second block of words. You may now take a short break.</p>
      <p>Press the spacebar when you're ready to continue.</p>","","","","","","","","","",""
"html-keyboard-response","170","344969","0.0-12.0-0.0","60670ac0fc7e169231369ab1","650c16f0f2faf8d7a0d14c09","651c1d0c78491dadcb55d0cb","null","null","<p style=""font-size: 60px; font-family: BACS"">kcOYDmh</p>","","","","","","","","","",""
"html-keyboard-response","171","345994","0.0-12.0-0.1","60670ac0fc7e169231369ab1","650c16f0f2faf8d7a0d14c09","651c1d0c78491dadcb55d0cb","null","null","<p style=""font-size: 60px; font-family: BACS"">AlTdmKcD</p>","","","","","","","","","",""
"html-keyboard-response","172","347004","0.0-12.0-0.2","60670ac0fc7e169231369ab1","650c16f0f2faf8d7a0d14c09","651c1d0c78491dadcb55d0cb","null","null","<p style=""font-size: 60px; font-family: BACS"">YNrAmvAvb</p>","","","","","","","","","",""
"html-keyboard-response","173","348016","0.0-12.0-0.3","60670ac0fc7e169231369ab1","650c16f0f2faf8d7a0d14c09","651c1d0c78491dadcb55d0cb","null","null","<p style=""font-size: 60px; font-family: BACS"">dGLAlUdvY</p>","","","","","","","","","",""
"html-keyboard-response","174","349027","0.0-12.0-0.4","60670ac0fc7e169231369ab1","650c16f0f2faf8d7a0d14c09","651c1d0c78491dadcb55d0cb","null","null","<p style=""font-size: 60px; font-family: BACS"">AlTdkhMD</p>","","","","","","","","","",""
"html-keyboard-response","175","350040","0.0-12.0-0.5","60670ac0fc7e169231369ab1","650c16f0f2faf8d7a0d14c09","651c1d0c78491dadcb55d0cb","null","null","<p style=""font-size: 60px; font-family: BACS"">MBKRETbk</p>","","","","","","","","","",""
"html-keyboard-response","176","351054","0.0-12.0-0.6","60670ac0fc7e169231369ab1","650c16f0f2faf8d7a0d14c09","651c1d0c78491dadcb55d0cb","null","null","<p style=""font-size: 60px; font-family: BACS"">mUOcOrNlZ</p>","","","","","","","","","",""
"html-keyboard-response","177","352056","0.0-12.0-0.7","60670ac0fc7e169231369ab1","650c16f0f2faf8d7a0d14c09","651c1d0c78491dadcb55d0cb","null","null","<p style=""font-size: 60px; font-family: BACS"">AmaclGUa</p>","","","","","","","","","",""
"html-keyboard-response","178","353066","0.0-12.0-0.8","60670ac0fc7e169231369ab1","650c16f0f2faf8d7a0d14c09","651c1d0c78491dadcb55d0cb","null","null","<p style=""font-size: 60px; font-family: BACS"">kGamNrNlZ</p>","","","","","","","","","",""
"html-keyboard-response","179","354071","0.0-12.0-0.9","60670ac0fc7e169231369ab1","650c16f0f2faf8d7a0d14c09","651c1d0c78491dadcb55d0cb","null","null","<p style=""font-size: 60px; font-family: BACS"">YNrAmLYGA</p>","","","","","","","","","",""
"html-keyboard-response","180","355085","0.0-12.0-0.10","60670ac0fc7e169231369ab1","650c16f0f2faf8d7a0d14c09","651c1d0c78491dadcb55d0cb","null","null","<p style=""font-size: 60px; font-family: BACS"">mbZlGUa</p>","","","","","","","","","",""
"html-keyboard-response","181","356098","0.0-12.0-0.11","60670ac0fc7e169231369ab1","650c16f0f2faf8d7a0d14c09","651c1d0c78491dadcb55d0cb","null","null","<p style=""font-size: 60px; font-family: BACS"">ObOQlLYGA</p>","","","","","","","","","",""
"html-keyboard-response","182","357110","0.0-12.0-0.12","60670ac0fc7e169231369ab1","650c16f0f2faf8d7a0d14c09","651c1d0c78491dadcb55d0cb","null","null","<p style=""font-size: 60px; font-family: BACS"">lTmODmh</p>","","","","","","","","","",""
"html-keyboard-response","183","358120","0.0-12.0-0.13","60670ac0fc7e169231369ab1","650c16f0f2faf8d7a0d14c09","651c1d0c78491dadcb55d0cb","null","null","<p style=""font-size: 60px; font-family: BACS"">kcOYkhMD</p>","","","","","","","","","",""
"html-keyboard-response","184","359134","0.0-12.0-0.14","60670ac0fc7e169231369ab1","650c16f0f2faf8d7a0d14c09","651c1d0c78491dadcb55d0cb","null","null","<p style=""font-size: 60px; font-family: BACS"">CRdBdBCAd</p>","","","","","","","","","",""
"html-keyboard-response","185","360144","0.0-12.0-0.15","60670ac0fc7e169231369ab1","650c16f0f2faf8d7a0d14c09","651c1d0c78491dadcb55d0cb","null","null","<p style=""font-size: 60px; font-family: BACS"">PYkCkhMD</p>","","","","","","","","","",""
"html-keyboard-response","186","361154","0.0-12.0-0.16","60670ac0fc7e169231369ab1","650c16f0f2faf8d7a0d14c09","651c1d0c78491dadcb55d0cb","null","null","<p style=""font-size: 60px; font-family: BACS"">AmaclrNlZ</p>","","","","","","","","","",""
"html-keyboard-response","187","362165","0.0-12.0-0.17","60670ac0fc7e169231369ab1","650c16f0f2faf8d7a0d14c09","651c1d0c78491dadcb55d0cb","null","null","<p style=""font-size: 60px; font-family: BACS"">MBKREkhMD</p>","","","","","","","","","",""
"html-keyboard-response","188","363173","0.0-12.0-0.18","60670ac0fc7e169231369ab1","650c16f0f2faf8d7a0d14c09","651c1d0c78491dadcb55d0cb","null","null","<p style=""font-size: 60px; font-family: BACS"">OAblcvAvb</p>","","","","","","","","","",""
"html-keyboard-response","189","364188","0.0-12.0-0.19","60670ac0fc7e169231369ab1","650c16f0f2faf8d7a0d14c09","651c1d0c78491dadcb55d0cb","null","null","<p style=""font-size: 60px; font-family: BACS"">lTmOmKcD</p>","","","","","","","","","",""
"html-keyboard-response","190","365200","0.0-12.0-0.20","60670ac0fc7e169231369ab1","650c16f0f2faf8d7a0d14c09","651c1d0c78491dadcb55d0cb","null","null","<p style=""font-size: 60px; font-family: BACS"">mbZlUdvY</p>","","","","","","","","","",""
"html-keyboard-response","191","366207","0.0-12.0-0.21","60670ac0fc7e169231369ab1","650c16f0f2faf8d7a0d14c09","651c1d0c78491dadcb55d0cb","null","null","<p style=""font-size: 60px; font-family: BACS"">AmaclLYGA</p>","","","","","","","","","",""
"html-keyboard-response","192","367218","0.0-12.0-0.22","60670ac0fc7e169231369ab1","650c16f0f2faf8d7a0d14c09","651c1d0c78491dadcb55d0cb","null","null","<p style=""font-size: 60px; font-family: BACS"">mbZlrNlZ</p>","","","","","","","","","",""
"html-keyboard-response","193","368227","0.0-12.0-0.23","60670ac0fc7e169231369ab1","650c16f0f2faf8d7a0d14c09","651c1d0c78491dadcb55d0cb","null","null","<p style=""font-size: 60px; font-family: BACS"">mUOcOvAvb</p>","","","","","","","","","",""
"html-keyboard-response","194","369239","0.0-12.0-0.24","60670ac0fc7e169231369ab1","650c16f0f2faf8d7a0d14c09","651c1d0c78491dadcb55d0cb","null","null","<p style=""font-size: 60px; font-family: BACS"">kcOYTbk</p>","","","","","","","","","",""
"html-keyboard-response","195","370250","0.0-12.0-0.25","60670ac0fc7e169231369ab1","650c16f0f2faf8d7a0d14c09","651c1d0c78491dadcb55d0cb","null","null","<p style=""font-size: 60px; font-family: BACS"">ObOQlvAvb</p>","","","","","","","","","",""
"html-keyboard-response","196","371260","0.0-12.0-0.26","60670ac0fc7e169231369ab1","650c16f0f2faf8d7a0d14c09","651c1d0c78491dadcb55d0cb","null","null","<p style=""font-size: 60px; font-family: BACS"">tKDmhmKcD</p>","","","","","","","","","",""
"html-keyboard-response","197","372272","0.0-12.0-0.27","60670ac0fc7e169231369ab1","650c16f0f2faf8d7a0d14c09","651c1d0c78491dadcb55d0cb","null","null","<p style=""font-size: 60px; font-family: BACS"">AlTdBCAd</p>","","","","","","","","","",""
"html-keyboard-response","198","373284","0.0-12.0-0.28","60670ac0fc7e169231369ab1","650c16f0f2faf8d7a0d14c09","651c1d0c78491dadcb55d0cb","null","null","<p style=""font-size: 60px; font-family: BACS"">tKDmhTbk</p>","","","","","","","","","",""
"html-keyboard-response","199","374293","0.0-12.0-0.29","60670ac0fc7e169231369ab1","650c16f0f2faf8d7a0d14c09","651c1d0c78491dadcb55d0cb","null","null","<p style=""font-size: 60px; font-family: BACS"">lBlEBCAd</p>","","","","","","","","","",""
"html-keyboard-response","200","375301","0.0-12.0-0.30","60670ac0fc7e169231369ab1","650c16f0f2faf8d7a0d14c09","651c1d0c78491dadcb55d0cb","null","null","<p style=""font-size: 60px; font-family: BACS"">kGamNUdvY</p>","","","","","","","","","",""
"html-keyboard-response","201","376312","0.0-12.0-0.31","60670ac0fc7e169231369ab1","650c16f0f2faf8d7a0d14c09","651c1d0c78491dadcb55d0cb","null","null","<p style=""font-size: 60px; font-family: BACS"">lTmOBCAd</p>","","","","","","","","","",""
"html-keyboard-response","202","377325","0.0-12.0-0.32","60670ac0fc7e169231369ab1","650c16f0f2faf8d7a0d14c09","651c1d0c78491dadcb55d0cb","null","null","<p style=""font-size: 60px; font-family: BACS"">OAblcLYGA</p>","","","","","","","","","",""
"html-keyboard-response","203","378338","0.0-12.0-0.33","60670ac0fc7e169231369ab1","650c16f0f2faf8d7a0d14c09","651c1d0c78491dadcb55d0cb","null","null","<p style=""font-size: 60px; font-family: BACS"">htmhCDmh</p>","","","","","","","","","",""
"html-keyboard-response","204","379346","0.0-12.0-0.34","60670ac0fc7e169231369ab1","650c16f0f2faf8d7a0d14c09","651c1d0c78491dadcb55d0cb","null","null","<p style=""font-size: 60px; font-family: BACS"">kcOYBCAd</p>","","","","","","","","","",""
"html-keyboard-response","205","380358","0.0-12.0-0.35","60670ac0fc7e169231369ab1","650c16f0f2faf8d7a0d14c09","651c1d0c78491dadcb55d0cb","null","null","<p style=""font-size: 60px; font-family: BACS"">dGLAlLYGA</p>","","","","","","","","","",""
"html-keyboard-response","206","381371","0.0-12.0-0.36","60670ac0fc7e169231369ab1","650c16f0f2faf8d7a0d14c09","651c1d0c78491dadcb55d0cb","null","null","<p style=""font-size: 60px; font-family: BACS"">htmhCkhMD</p>","","","","","","","","","",""
"html-keyboard-response","207","382383","0.0-12.0-0.37","60670ac0fc7e169231369ab1","650c16f0f2faf8d7a0d14c09","651c1d0c78491dadcb55d0cb","null","null","<p style=""font-size: 60px; font-family: BACS"">AmaclUdvY</p>","","","","","","","","","",""
"html-keyboard-response","208","383395","0.0-12.0-0.38","60670ac0fc7e169231369ab1","650c16f0f2faf8d7a0d14c09","651c1d0c78491dadcb55d0cb","null","null","<p style=""font-size: 60px; font-family: BACS"">mUOcOLYGA</p>","","","","","","","","","",""
"html-keyboard-response","209","384406","0.0-12.0-0.39","60670ac0fc7e169231369ab1","650c16f0f2faf8d7a0d14c09","651c1d0c78491dadcb55d0cb","null","null","<p style=""font-size: 60px; font-family: BACS"">lBlETbk</p>","","","","","","","","","",""
"html-keyboard-response","210","385416","0.0-12.0-0.40","60670ac0fc7e169231369ab1","650c16f0f2faf8d7a0d14c09","651c1d0c78491dadcb55d0cb","null","null","<p style=""font-size: 60px; font-family: BACS"">CtmbDmh</p>","","","","","","","","","",""
"html-keyboard-response","211","386432","0.0-12.0-0.41","60670ac0fc7e169231369ab1","650c16f0f2faf8d7a0d14c09","651c1d0c78491dadcb55d0cb","null","null","<p style=""font-size: 60px; font-family: BACS"">lBlEkhMD</p>","","","","","","","","","",""
"html-keyboard-response","212","387443","0.0-12.0-0.42","60670ac0fc7e169231369ab1","650c16f0f2faf8d7a0d14c09","651c1d0c78491dadcb55d0cb","null","null","<p style=""font-size: 60px; font-family: BACS"">OAblcGUa</p>","","","","","","","","","",""
"html-keyboard-response","213","388452","0.0-12.0-0.43","60670ac0fc7e169231369ab1","650c16f0f2faf8d7a0d14c09","651c1d0c78491dadcb55d0cb","null","null","<p style=""font-size: 60px; font-family: BACS"">YuaNdvAvb</p>","","","","","","","","","",""
"html-keyboard-response","214","389461","0.0-12.0-0.44","60670ac0fc7e169231369ab1","650c16f0f2faf8d7a0d14c09","651c1d0c78491dadcb55d0cb","null","null","<p style=""font-size: 60px; font-family: BACS"">CtmbmKcD</p>","","","","","","","","","",""
"html-keyboard-response","215","390470","0.0-12.0-0.45","60670ac0fc7e169231369ab1","650c16f0f2faf8d7a0d14c09","651c1d0c78491dadcb55d0cb","null","null","<p style=""font-size: 60px; font-family: BACS"">lTmOTbk</p>","","","","","","","","","",""
"html-keyboard-response","216","391476","0.0-12.0-0.46","60670ac0fc7e169231369ab1","650c16f0f2faf8d7a0d14c09","651c1d0c78491dadcb55d0cb","null","null","<p style=""font-size: 60px; font-family: BACS"">tKDmhDmh</p>","","","","","","","","","",""
"html-keyboard-response","217","392485","0.0-12.0-0.47","60670ac0fc7e169231369ab1","650c16f0f2faf8d7a0d14c09","651c1d0c78491dadcb55d0cb","null","null","<p style=""font-size: 60px; font-family: BACS"">ObOQlGUa</p>","","","","","","","","","",""
"html-keyboard-response","218","393486","0.0-12.0-0.48","60670ac0fc7e169231369ab1","650c16f0f2faf8d7a0d14c09","651c1d0c78491dadcb55d0cb","null","null","<p style=""font-size: 60px; font-family: BACS"">AlTdTbk</p>","","","","","","","","","",""
"html-keyboard-response","219","394498","0.0-12.0-0.49","60670ac0fc7e169231369ab1","650c16f0f2faf8d7a0d14c09","651c1d0c78491dadcb55d0cb","null","null","<p style=""font-size: 60px; font-family: BACS"">ObOQlUdvY</p>","","","","","","","","","",""
"html-keyboard-response","220","395513","0.0-12.0-0.50","60670ac0fc7e169231369ab1","650c16f0f2faf8d7a0d14c09","651c1d0c78491dadcb55d0cb","null","null","<p style=""font-size: 60px; font-family: BACS"">YNrAmrNlZ</p>","","","","","","","","","",""
"html-keyboard-response","221","396523","0.0-12.0-0.51","60670ac0fc7e169231369ab1","650c16f0f2faf8d7a0d14c09","651c1d0c78491dadcb55d0cb","null","null","<p style=""font-size: 60px; font-family: BACS"">YuaNdLYGA</p>","","","","","","","","","",""
"html-keyboard-response","222","397533","0.0-12.0-0.52","60670ac0fc7e169231369ab1","650c16f0f2faf8d7a0d14c09","651c1d0c78491dadcb55d0cb","null","null","<p style=""font-size: 60px; font-family: BACS"">kGamNGUa</p>","","","","","","","","","",""
"html-keyboard-response","223","398545","0.0-12.0-0.53","60670ac0fc7e169231369ab1","650c16f0f2faf8d7a0d14c09","651c1d0c78491dadcb55d0cb","null","null","<p style=""font-size: 60px; font-family: BACS"">ALOrlUdvY</p>","","","","","","","","","",""
"html-keyboard-response","224","399554","0.0-12.0-0.54","60670ac0fc7e169231369ab1","650c16f0f2faf8d7a0d14c09","651c1d0c78491dadcb55d0cb","null","null","<p style=""font-size: 60px; font-family: BACS"">OAblcrNlZ</p>","","","","","","","","","",""
"html-keyboard-response","225","400568","0.0-12.0-0.55","60670ac0fc7e169231369ab1","650c16f0f2faf8d7a0d14c09","651c1d0c78491dadcb55d0cb","null","null","<p style=""font-size: 60px; font-family: BACS"">htmhCmKcD</p>","","","","","","","","","",""
"html-keyboard-response","226","401577","0.0-12.0-0.56","60670ac0fc7e169231369ab1","650c16f0f2faf8d7a0d14c09","651c1d0c78491dadcb55d0cb","null","null","<p style=""font-size: 60px; font-family: BACS"">kGamNvAvb</p>","","","","","","","","","",""
"html-keyboard-response","227","402589","0.0-12.0-0.57","60670ac0fc7e169231369ab1","650c16f0f2faf8d7a0d14c09","651c1d0c78491dadcb55d0cb","null","null","<p style=""font-size: 60px; font-family: BACS"">YuaNdrNlZ</p>","","","","","","","","","",""
"html-keyboard-response","228","403604","0.0-12.0-0.58","60670ac0fc7e169231369ab1","650c16f0f2faf8d7a0d14c09","651c1d0c78491dadcb55d0cb","null","null","<p style=""font-size: 60px; font-family: BACS"">mbZlvAvb</p>","","","","","","","","","",""
"html-keyboard-response","229","404605","0.0-12.0-0.59","60670ac0fc7e169231369ab1","650c16f0f2faf8d7a0d14c09","651c1d0c78491dadcb55d0cb","null","null","<p style=""font-size: 60px; font-family: BACS"">YNrAmUdvY</p>","","","","","","","","","",""
"html-keyboard-response","230","405610","0.0-12.0-0.60","60670ac0fc7e169231369ab1","650c16f0f2faf8d7a0d14c09","651c1d0c78491dadcb55d0cb","null","null","<p style=""font-size: 60px; font-family: BACS"">CtmbBCAd</p>","","","","","","","","","",""
"html-keyboard-response","231","406631","0.0-12.0-0.61","60670ac0fc7e169231369ab1","650c16f0f2faf8d7a0d14c09","651c1d0c78491dadcb55d0cb","null","null","<p style=""font-size: 60px; font-family: BACS"">CRdBdkhMD</p>","","","","","","","","","",""
"html-keyboard-response","232","407644","0.0-12.0-0.62","60670ac0fc7e169231369ab1","650c16f0f2faf8d7a0d14c09","651c1d0c78491dadcb55d0cb","null","null","<p style=""font-size: 60px; font-family: BACS"">ALOrlvAvb</p>","","","","","","","","","",""
"html-keyboard-response","233","408653","0.0-12.0-0.63","60670ac0fc7e169231369ab1","650c16f0f2faf8d7a0d14c09","651c1d0c78491dadcb55d0cb","null","null","<p style=""font-size: 60px; font-family: BACS"">PYkCTbk</p>","","","","","","","","","",""
"html-keyboard-response","234","409663","0.0-12.0-0.64","60670ac0fc7e169231369ab1","650c16f0f2faf8d7a0d14c09","651c1d0c78491dadcb55d0cb","null","null","<p style=""font-size: 60px; font-family: BACS"">mUOcOUdvY</p>","","","","","","","","","",""
"html-keyboard-response","235","410673","0.0-12.0-0.65","60670ac0fc7e169231369ab1","650c16f0f2faf8d7a0d14c09","651c1d0c78491dadcb55d0cb","null","null","<p style=""font-size: 60px; font-family: BACS"">dGLAlGUa</p>","","","","","","","","","",""
"html-keyboard-response","236","411683","0.0-12.0-0.66","60670ac0fc7e169231369ab1","650c16f0f2faf8d7a0d14c09","651c1d0c78491dadcb55d0cb","null","null","<p style=""font-size: 60px; font-family: BACS"">CRdBdDmh</p>","","","","","","","","","",""
"html-keyboard-response","237","412692","0.0-12.0-0.67","60670ac0fc7e169231369ab1","650c16f0f2faf8d7a0d14c09","651c1d0c78491dadcb55d0cb","null","null","<p style=""font-size: 60px; font-family: BACS"">CtmbTbk</p>","","","","","","","","","",""
"html-keyboard-response","238","413705","0.0-12.0-0.68","60670ac0fc7e169231369ab1","650c16f0f2faf8d7a0d14c09","651c1d0c78491dadcb55d0cb","null","null","<p style=""font-size: 60px; font-family: BACS"">PYkCmKcD</p>","","","","","","","","","",""
"html-keyboard-response","239","414711","0.0-12.0-0.69","60670ac0fc7e169231369ab1","650c16f0f2faf8d7a0d14c09","651c1d0c78491dadcb55d0cb","null","null","<p style=""font-size: 60px; font-family: BACS"">MBKREDmh</p>","","","","","","","","","",""
"html-keyboard-response","240","415723","0.0-12.0-0.70","60670ac0fc7e169231369ab1","650c16f0f2faf8d7a0d14c09","651c1d0c78491dadcb55d0cb","null","null","<p style=""font-size: 60px; font-family: BACS"">PYkCBCAd</p>","","","","","","","","","",""
"html-keyboard-response","241","416734","0.0-12.0-0.71","60670ac0fc7e169231369ab1","650c16f0f2faf8d7a0d14c09","651c1d0c78491dadcb55d0cb","null","null","<p style=""font-size: 60px; font-family: BACS"">dGLAlrNlZ</p>","","","","","","","","","",""
"html-keyboard-response","242","417744","0.0-12.0-0.72","60670ac0fc7e169231369ab1","650c16f0f2faf8d7a0d14c09","651c1d0c78491dadcb55d0cb","null","null","<p style=""font-size: 60px; font-family: BACS"">tKDmhkhMD</p>","","","","","","","","","",""
"html-keyboard-response","243","418753","0.0-12.0-0.73","60670ac0fc7e169231369ab1","650c16f0f2faf8d7a0d14c09","651c1d0c78491dadcb55d0cb","null","null","<p style=""font-size: 60px; font-family: BACS"">CRdBdmKcD</p>","","","","","","","","","",""
"html-keyboard-response","244","419764","0.0-12.0-0.74","60670ac0fc7e169231369ab1","650c16f0f2faf8d7a0d14c09","651c1d0c78491dadcb55d0cb","null","null","<p style=""font-size: 60px; font-family: BACS"">htmhCBCAd</p>","","","","","","","","","",""
"html-keyboard-response","245","420774","0.0-12.0-0.75","60670ac0fc7e169231369ab1","650c16f0f2faf8d7a0d14c09","651c1d0c78491dadcb55d0cb","null","null","<p style=""font-size: 60px; font-family: BACS"">ALOrlGUa</p>","","","","","","","","","",""
"html-keyboard-response","246","421783","0.0-12.0-0.76","60670ac0fc7e169231369ab1","650c16f0f2faf8d7a0d14c09","651c1d0c78491dadcb55d0cb","null","null","<p style=""font-size: 60px; font-family: BACS"">lBlEDmh</p>","","","","","","","","","",""
"html-keyboard-response","247","422792","0.0-12.0-0.77","60670ac0fc7e169231369ab1","650c16f0f2faf8d7a0d14c09","651c1d0c78491dadcb55d0cb","null","null","<p style=""font-size: 60px; font-family: BACS"">YuaNdGUa</p>","","","","","","","","","",""
"html-keyboard-response","248","423806","0.0-12.0-0.78","60670ac0fc7e169231369ab1","650c16f0f2faf8d7a0d14c09","651c1d0c78491dadcb55d0cb","null","null","<p style=""font-size: 60px; font-family: BACS"">MBKREmKcD</p>","","","","","","","","","",""
"html-keyboard-response","249","424819","0.0-12.0-0.79","60670ac0fc7e169231369ab1","650c16f0f2faf8d7a0d14c09","651c1d0c78491dadcb55d0cb","null","null","<p style=""font-size: 60px; font-family: BACS"">ALOrlLYGA</p>","","","","","","","","","",""
"html-keyboard-response","250","428574","0.0-13.0","60670ac0fc7e169231369ab1","650c16f0f2faf8d7a0d14c09","651c1d0c78491dadcb55d0cb","3754"," ","<p>Great, you've seen the third block of words. You may now take a short break.</p>
      <p>Press the spacebar when you're ready to continue.</p>","","","","","","","","","",""
"html-keyboard-response","251","429579","0.0-14.0-0.0","60670ac0fc7e169231369ab1","650c16f0f2faf8d7a0d14c09","651c1d0c78491dadcb55d0cb","null","null","<p style=""font-size: 60px; font-family: BACS"">tKDmhDmh</p>","","","","","","","","","",""
"html-keyboard-response","252","430593","0.0-14.0-0.1","60670ac0fc7e169231369ab1","650c16f0f2faf8d7a0d14c09","651c1d0c78491dadcb55d0cb","null","null","<p style=""font-size: 60px; font-family: BACS"">AmaclrNlZ</p>","","","","","","","","","",""
"html-keyboard-response","253","431605","0.0-14.0-0.2","60670ac0fc7e169231369ab1","650c16f0f2faf8d7a0d14c09","651c1d0c78491dadcb55d0cb","null","null","<p style=""font-size: 60px; font-family: BACS"">mUOcOvAvb</p>","","","","","","","","","",""
"html-keyboard-response","254","432618","0.0-14.0-0.3","60670ac0fc7e169231369ab1","650c16f0f2faf8d7a0d14c09","651c1d0c78491dadcb55d0cb","null","null","<p style=""font-size: 60px; font-family: BACS"">CtmbTbk</p>","","","","","","","","","",""
"html-keyboard-response","255","433630","0.0-14.0-0.4","60670ac0fc7e169231369ab1","650c16f0f2faf8d7a0d14c09","651c1d0c78491dadcb55d0cb","null","null","<p style=""font-size: 60px; font-family: BACS"">mbZlUdvY</p>","","","","","","","","","",""
"html-keyboard-response","256","434643","0.0-14.0-0.5","60670ac0fc7e169231369ab1","650c16f0f2faf8d7a0d14c09","651c1d0c78491dadcb55d0cb","null","null","<p style=""font-size: 60px; font-family: BACS"">kGamNrNlZ</p>","","","","","","","","","",""
"html-keyboard-response","257","435653","0.0-14.0-0.6","60670ac0fc7e169231369ab1","650c16f0f2faf8d7a0d14c09","651c1d0c78491dadcb55d0cb","null","null","<p style=""font-size: 60px; font-family: BACS"">CRdBdBCAd</p>","","","","","","","","","",""
"html-keyboard-response","258","436667","0.0-14.0-0.7","60670ac0fc7e169231369ab1","650c16f0f2faf8d7a0d14c09","651c1d0c78491dadcb55d0cb","null","null","<p style=""font-size: 60px; font-family: BACS"">AmaclGUa</p>","","","","","","","","","",""
"html-keyboard-response","259","437678","0.0-14.0-0.8","60670ac0fc7e169231369ab1","650c16f0f2faf8d7a0d14c09","651c1d0c78491dadcb55d0cb","null","null","<p style=""font-size: 60px; font-family: BACS"">CtmbmKcD</p>","","","","","","","","","",""
"html-keyboard-response","260","438689","0.0-14.0-0.9","60670ac0fc7e169231369ab1","650c16f0f2faf8d7a0d14c09","651c1d0c78491dadcb55d0cb","null","null","<p style=""font-size: 60px; font-family: BACS"">AmaclUdvY</p>","","","","","","","","","",""
"html-keyboard-response","261","439700","0.0-14.0-0.10","60670ac0fc7e169231369ab1","650c16f0f2faf8d7a0d14c09","651c1d0c78491dadcb55d0cb","null","null","<p style=""font-size: 60px; font-family: BACS"">MBKREDmh</p>","","","","","","","","","",""
"html-keyboard-response","262","440712","0.0-14.0-0.11","60670ac0fc7e169231369ab1","650c16f0f2faf8d7a0d14c09","651c1d0c78491dadcb55d0cb","null","null","<p style=""font-size: 60px; font-family: BACS"">ALOrlGUa</p>","","","","","","","","","",""
"html-keyboard-response","263","441723","0.0-14.0-0.12","60670ac0fc7e169231369ab1","650c16f0f2faf8d7a0d14c09","651c1d0c78491dadcb55d0cb","null","null","<p style=""font-size: 60px; font-family: BACS"">AlTdTbk</p>","","","","","","","","","",""
"html-keyboard-response","264","442734","0.0-14.0-0.13","60670ac0fc7e169231369ab1","650c16f0f2faf8d7a0d14c09","651c1d0c78491dadcb55d0cb","null","null","<p style=""font-size: 60px; font-family: BACS"">CRdBdDmh</p>","","","","","","","","","",""
"html-keyboard-response","265","443744","0.0-14.0-0.14","60670ac0fc7e169231369ab1","650c16f0f2faf8d7a0d14c09","651c1d0c78491dadcb55d0cb","null","null","<p style=""font-size: 60px; font-family: BACS"">ObOQlvAvb</p>","","","","","","","","","",""
"html-keyboard-response","266","444752","0.0-14.0-0.15","60670ac0fc7e169231369ab1","650c16f0f2faf8d7a0d14c09","651c1d0c78491dadcb55d0cb","null","null","<p style=""font-size: 60px; font-family: BACS"">htmhCDmh</p>","","","","","","","","","",""
"html-keyboard-response","267","445763","0.0-14.0-0.16","60670ac0fc7e169231369ab1","650c16f0f2faf8d7a0d14c09","651c1d0c78491dadcb55d0cb","null","null","<p style=""font-size: 60px; font-family: BACS"">lBlEBCAd</p>","","","","","","","","","",""
"html-keyboard-response","268","446772","0.0-14.0-0.17","60670ac0fc7e169231369ab1","650c16f0f2faf8d7a0d14c09","651c1d0c78491dadcb55d0cb","null","null","<p style=""font-size: 60px; font-family: BACS"">dGLAlLYGA</p>","","","","","","","","","",""
"html-keyboard-response","269","447784","0.0-14.0-0.18","60670ac0fc7e169231369ab1","650c16f0f2faf8d7a0d14c09","651c1d0c78491dadcb55d0cb","null","null","<p style=""font-size: 60px; font-family: BACS"">lBlEDmh</p>","","","","","","","","","",""
"html-keyboard-response","270","448796","0.0-14.0-0.19","60670ac0fc7e169231369ab1","650c16f0f2faf8d7a0d14c09","651c1d0c78491dadcb55d0cb","null","null","<p style=""font-size: 60px; font-family: BACS"">mbZlvAvb</p>","","","","","","","","","",""
"html-keyboard-response","271","449806","0.0-14.0-0.20","60670ac0fc7e169231369ab1","650c16f0f2faf8d7a0d14c09","651c1d0c78491dadcb55d0cb","null","null","<p style=""font-size: 60px; font-family: BACS"">PYkCBCAd</p>","","","","","","","","","",""
"html-keyboard-response","272","450813","0.0-14.0-0.21","60670ac0fc7e169231369ab1","650c16f0f2faf8d7a0d14c09","651c1d0c78491dadcb55d0cb","null","null","<p style=""font-size: 60px; font-family: BACS"">kGamNUdvY</p>","","","","","","","","","",""
"html-keyboard-response","273","451827","0.0-14.0-0.22","60670ac0fc7e169231369ab1","650c16f0f2faf8d7a0d14c09","651c1d0c78491dadcb55d0cb","null","null","<p style=""font-size: 60px; font-family: BACS"">tKDmhTbk</p>","","","","","","","","","",""
"html-keyboard-response","274","452836","0.0-14.0-0.23","60670ac0fc7e169231369ab1","650c16f0f2faf8d7a0d14c09","651c1d0c78491dadcb55d0cb","null","null","<p style=""font-size: 60px; font-family: BACS"">kGamNGUa</p>","","","","","","","","","",""
"html-keyboard-response","275","453851","0.0-14.0-0.24","60670ac0fc7e169231369ab1","650c16f0f2faf8d7a0d14c09","651c1d0c78491dadcb55d0cb","null","null","<p style=""font-size: 60px; font-family: BACS"">OAblcLYGA</p>","","","","","","","","","",""
"html-keyboard-response","276","454862","0.0-14.0-0.25","60670ac0fc7e169231369ab1","650c16f0f2faf8d7a0d14c09","651c1d0c78491dadcb55d0cb","null","null","<p style=""font-size: 60px; font-family: BACS"">lTmODmh</p>","","","","","","","","","",""
"html-keyboard-response","277","455870","0.0-14.0-0.26","60670ac0fc7e169231369ab1","650c16f0f2faf8d7a0d14c09","651c1d0c78491dadcb55d0cb","null","null","<p style=""font-size: 60px; font-family: BACS"">AmaclLYGA</p>","","","","","","","","","",""
"html-keyboard-response","278","456880","0.0-14.0-0.27","60670ac0fc7e169231369ab1","650c16f0f2faf8d7a0d14c09","651c1d0c78491dadcb55d0cb","null","null","<p style=""font-size: 60px; font-family: BACS"">YuaNdvAvb</p>","","","","","","","","","",""
"html-keyboard-response","279","457890","0.0-14.0-0.28","60670ac0fc7e169231369ab1","650c16f0f2faf8d7a0d14c09","651c1d0c78491dadcb55d0cb","null","null","<p style=""font-size: 60px; font-family: BACS"">AlTdkhMD</p>","","","","","","","","","",""
"html-keyboard-response","280","458896","0.0-14.0-0.29","60670ac0fc7e169231369ab1","650c16f0f2faf8d7a0d14c09","651c1d0c78491dadcb55d0cb","null","null","<p style=""font-size: 60px; font-family: BACS"">kcOYTbk</p>","","","","","","","","","",""
"html-keyboard-response","281","459905","0.0-14.0-0.30","60670ac0fc7e169231369ab1","650c16f0f2faf8d7a0d14c09","651c1d0c78491dadcb55d0cb","null","null","<p style=""font-size: 60px; font-family: BACS"">PYkCkhMD</p>","","","","","","","","","",""
"html-keyboard-response","282","460914","0.0-14.0-0.31","60670ac0fc7e169231369ab1","650c16f0f2faf8d7a0d14c09","651c1d0c78491dadcb55d0cb","null","null","<p style=""font-size: 60px; font-family: BACS"">AlTdmKcD</p>","","","","","","","","","",""
"html-keyboard-response","283","461925","0.0-14.0-0.32","60670ac0fc7e169231369ab1","650c16f0f2faf8d7a0d14c09","651c1d0c78491dadcb55d0cb","null","null","<p style=""font-size: 60px; font-family: BACS"">htmhCkhMD</p>","","","","","","","","","",""
"html-keyboard-response","284","462937","0.0-14.0-0.33","60670ac0fc7e169231369ab1","650c16f0f2faf8d7a0d14c09","651c1d0c78491dadcb55d0cb","null","null","<p style=""font-size: 60px; font-family: BACS"">YNrAmrNlZ</p>","","","","","","","","","",""
"html-keyboard-response","285","463949","0.0-14.0-0.34","60670ac0fc7e169231369ab1","650c16f0f2faf8d7a0d14c09","651c1d0c78491dadcb55d0cb","null","null","<p style=""font-size: 60px; font-family: BACS"">MBKRETbk</p>","","","","","","","","","",""
"html-keyboard-response","286","464958","0.0-14.0-0.35","60670ac0fc7e169231369ab1","650c16f0f2faf8d7a0d14c09","651c1d0c78491dadcb55d0cb","null","null","<p style=""font-size: 60px; font-family: BACS"">htmhCBCAd</p>","","","","","","","","","",""
"html-keyboard-response","287","465972","0.0-14.0-0.36","60670ac0fc7e169231369ab1","650c16f0f2faf8d7a0d14c09","651c1d0c78491dadcb55d0cb","null","null","<p style=""font-size: 60px; font-family: BACS"">ObOQlGUa</p>","","","","","","","","","",""
"html-keyboard-response","288","466990","0.0-14.0-0.37","60670ac0fc7e169231369ab1","650c16f0f2faf8d7a0d14c09","651c1d0c78491dadcb55d0cb","null","null","<p style=""font-size: 60px; font-family: BACS"">kcOYkhMD</p>","","","","","","","","","",""
"html-keyboard-response","289","468001","0.0-14.0-0.38","60670ac0fc7e169231369ab1","650c16f0f2faf8d7a0d14c09","651c1d0c78491dadcb55d0cb","null","null","<p style=""font-size: 60px; font-family: BACS"">OAblcvAvb</p>","","","","","","","","","",""
"html-keyboard-response","290","469011","0.0-14.0-0.39","60670ac0fc7e169231369ab1","650c16f0f2faf8d7a0d14c09","651c1d0c78491dadcb55d0cb","null","null","<p style=""font-size: 60px; font-family: BACS"">MBKREmKcD</p>","","","","","","","","","",""
"html-keyboard-response","291","470019","0.0-14.0-0.40","60670ac0fc7e169231369ab1","650c16f0f2faf8d7a0d14c09","651c1d0c78491dadcb55d0cb","null","null","<p style=""font-size: 60px; font-family: BACS"">dGLAlrNlZ</p>","","","","","","","","","",""
"html-keyboard-response","292","471030","0.0-14.0-0.41","60670ac0fc7e169231369ab1","650c16f0f2faf8d7a0d14c09","651c1d0c78491dadcb55d0cb","null","null","<p style=""font-size: 60px; font-family: BACS"">ObOQlUdvY</p>","","","","","","","","","",""
"html-keyboard-response","293","472041","0.0-14.0-0.42","60670ac0fc7e169231369ab1","650c16f0f2faf8d7a0d14c09","651c1d0c78491dadcb55d0cb","null","null","<p style=""font-size: 60px; font-family: BACS"">CRdBdkhMD</p>","","","","","","","","","",""
"html-keyboard-response","294","473052","0.0-14.0-0.43","60670ac0fc7e169231369ab1","650c16f0f2faf8d7a0d14c09","651c1d0c78491dadcb55d0cb","null","null","<p style=""font-size: 60px; font-family: BACS"">YuaNdrNlZ</p>","","","","","","","","","",""
"html-keyboard-response","295","474062","0.0-14.0-0.44","60670ac0fc7e169231369ab1","650c16f0f2faf8d7a0d14c09","651c1d0c78491dadcb55d0cb","null","null","<p style=""font-size: 60px; font-family: BACS"">ObOQlLYGA</p>","","","","","","","","","",""
"html-keyboard-response","296","475070","0.0-14.0-0.45","60670ac0fc7e169231369ab1","650c16f0f2faf8d7a0d14c09","651c1d0c78491dadcb55d0cb","null","null","<p style=""font-size: 60px; font-family: BACS"">lTmOmKcD</p>","","","","","","","","","",""
"html-keyboard-response","297","476079","0.0-14.0-0.46","60670ac0fc7e169231369ab1","650c16f0f2faf8d7a0d14c09","651c1d0c78491dadcb55d0cb","null","null","<p style=""font-size: 60px; font-family: BACS"">ALOrlLYGA</p>","","","","","","","","","",""
"html-keyboard-response","298","477093","0.0-14.0-0.47","60670ac0fc7e169231369ab1","650c16f0f2faf8d7a0d14c09","651c1d0c78491dadcb55d0cb","null","null","<p style=""font-size: 60px; font-family: BACS"">CtmbBCAd</p>","","","","","","","","","",""
"html-keyboard-response","299","478105","0.0-14.0-0.48","60670ac0fc7e169231369ab1","650c16f0f2faf8d7a0d14c09","651c1d0c78491dadcb55d0cb","null","null","<p style=""font-size: 60px; font-family: BACS"">tKDmhmKcD</p>","","","","","","","","","",""
"html-keyboard-response","300","479113","0.0-14.0-0.49","60670ac0fc7e169231369ab1","650c16f0f2faf8d7a0d14c09","651c1d0c78491dadcb55d0cb","null","null","<p style=""font-size: 60px; font-family: BACS"">kcOYBCAd</p>","","","","","","","","","",""
"html-keyboard-response","301","480128","0.0-14.0-0.50","60670ac0fc7e169231369ab1","650c16f0f2faf8d7a0d14c09","651c1d0c78491dadcb55d0cb","null","null","<p style=""font-size: 60px; font-family: BACS"">CtmbDmh</p>","","","","","","","","","",""
"html-keyboard-response","302","481137","0.0-14.0-0.51","60670ac0fc7e169231369ab1","650c16f0f2faf8d7a0d14c09","651c1d0c78491dadcb55d0cb","null","null","<p style=""font-size: 60px; font-family: BACS"">mbZlrNlZ</p>","","","","","","","","","",""
"html-keyboard-response","303","482138","0.0-14.0-0.52","60670ac0fc7e169231369ab1","650c16f0f2faf8d7a0d14c09","651c1d0c78491dadcb55d0cb","null","null","<p style=""font-size: 60px; font-family: BACS"">mUOcOLYGA</p>","","","","","","","","","",""
"html-keyboard-response","304","483149","0.0-14.0-0.53","60670ac0fc7e169231369ab1","650c16f0f2faf8d7a0d14c09","651c1d0c78491dadcb55d0cb","null","null","<p style=""font-size: 60px; font-family: BACS"">OAblcGUa</p>","","","","","","","","","",""
"html-keyboard-response","305","484164","0.0-14.0-0.54","60670ac0fc7e169231369ab1","650c16f0f2faf8d7a0d14c09","651c1d0c78491dadcb55d0cb","null","null","<p style=""font-size: 60px; font-family: BACS"">AlTdBCAd</p>","","","","","","","","","",""
"html-keyboard-response","306","485176","0.0-14.0-0.55","60670ac0fc7e169231369ab1","650c16f0f2faf8d7a0d14c09","651c1d0c78491dadcb55d0cb","null","null","<p style=""font-size: 60px; font-family: BACS"">ALOrlUdvY</p>","","","","","","","","","",""
"html-keyboard-response","307","486191","0.0-14.0-0.56","60670ac0fc7e169231369ab1","650c16f0f2faf8d7a0d14c09","651c1d0c78491dadcb55d0cb","null","null","<p style=""font-size: 60px; font-family: BACS"">lBlEkhMD</p>","","","","","","","","","",""
"html-keyboard-response","308","487203","0.0-14.0-0.57","60670ac0fc7e169231369ab1","650c16f0f2faf8d7a0d14c09","651c1d0c78491dadcb55d0cb","null","null","<p style=""font-size: 60px; font-family: BACS"">YNrAmvAvb</p>","","","","","","","","","",""
"html-keyboard-response","309","488212","0.0-14.0-0.58","60670ac0fc7e169231369ab1","650c16f0f2faf8d7a0d14c09","651c1d0c78491dadcb55d0cb","null","null","<p style=""font-size: 60px; font-family: BACS"">dGLAlGUa</p>","","","","","","","","","",""
"html-keyboard-response","310","489221","0.0-14.0-0.59","60670ac0fc7e169231369ab1","650c16f0f2faf8d7a0d14c09","651c1d0c78491dadcb55d0cb","null","null","<p style=""font-size: 60px; font-family: BACS"">kGamNvAvb</p>","","","","","","","","","",""
"html-keyboard-response","311","490228","0.0-14.0-0.60","60670ac0fc7e169231369ab1","650c16f0f2faf8d7a0d14c09","651c1d0c78491dadcb55d0cb","null","null","<p style=""font-size: 60px; font-family: BACS"">tKDmhkhMD</p>","","","","","","","","","",""
"html-keyboard-response","312","491242","0.0-14.0-0.61","60670ac0fc7e169231369ab1","650c16f0f2faf8d7a0d14c09","651c1d0c78491dadcb55d0cb","null","null","<p style=""font-size: 60px; font-family: BACS"">mUOcOUdvY</p>","","","","","","","","","",""
"html-keyboard-response","313","492253","0.0-14.0-0.62","60670ac0fc7e169231369ab1","650c16f0f2faf8d7a0d14c09","651c1d0c78491dadcb55d0cb","null","null","<p style=""font-size: 60px; font-family: BACS"">MBKREkhMD</p>","","","","","","","","","",""
"html-keyboard-response","314","493264","0.0-14.0-0.63","60670ac0fc7e169231369ab1","650c16f0f2faf8d7a0d14c09","651c1d0c78491dadcb55d0cb","null","null","<p style=""font-size: 60px; font-family: BACS"">dGLAlUdvY</p>","","","","","","","","","",""
"html-keyboard-response","315","494273","0.0-14.0-0.64","60670ac0fc7e169231369ab1","650c16f0f2faf8d7a0d14c09","651c1d0c78491dadcb55d0cb","null","null","<p style=""font-size: 60px; font-family: BACS"">PYkCTbk</p>","","","","","","","","","",""
"html-keyboard-response","316","495281","0.0-14.0-0.65","60670ac0fc7e169231369ab1","650c16f0f2faf8d7a0d14c09","651c1d0c78491dadcb55d0cb","null","null","<p style=""font-size: 60px; font-family: BACS"">YNrAmLYGA</p>","","","","","","","","","",""
"html-keyboard-response","317","496293","0.0-14.0-0.66","60670ac0fc7e169231369ab1","650c16f0f2faf8d7a0d14c09","651c1d0c78491dadcb55d0cb","null","null","<p style=""font-size: 60px; font-family: BACS"">htmhCmKcD</p>","","","","","","","","","",""
"html-keyboard-response","318","497305","0.0-14.0-0.67","60670ac0fc7e169231369ab1","650c16f0f2faf8d7a0d14c09","651c1d0c78491dadcb55d0cb","null","null","<p style=""font-size: 60px; font-family: BACS"">kcOYDmh</p>","","","","","","","","","",""
"html-keyboard-response","319","498316","0.0-14.0-0.68","60670ac0fc7e169231369ab1","650c16f0f2faf8d7a0d14c09","651c1d0c78491dadcb55d0cb","null","null","<p style=""font-size: 60px; font-family: BACS"">OAblcrNlZ</p>","","","","","","","","","",""
"html-keyboard-response","320","499329","0.0-14.0-0.69","60670ac0fc7e169231369ab1","650c16f0f2faf8d7a0d14c09","651c1d0c78491dadcb55d0cb","null","null","<p style=""font-size: 60px; font-family: BACS"">YuaNdLYGA</p>","","","","","","","","","",""
"html-keyboard-response","321","500342","0.0-14.0-0.70","60670ac0fc7e169231369ab1","650c16f0f2faf8d7a0d14c09","651c1d0c78491dadcb55d0cb","null","null","<p style=""font-size: 60px; font-family: BACS"">PYkCmKcD</p>","","","","","","","","","",""
"html-keyboard-response","322","501352","0.0-14.0-0.71","60670ac0fc7e169231369ab1","650c16f0f2faf8d7a0d14c09","651c1d0c78491dadcb55d0cb","null","null","<p style=""font-size: 60px; font-family: BACS"">mUOcOrNlZ</p>","","","","","","","","","",""
"html-keyboard-response","323","502362","0.0-14.0-0.72","60670ac0fc7e169231369ab1","650c16f0f2faf8d7a0d14c09","651c1d0c78491dadcb55d0cb","null","null","<p style=""font-size: 60px; font-family: BACS"">YNrAmUdvY</p>","","","","","","","","","",""
"html-keyboard-response","324","503374","0.0-14.0-0.73","60670ac0fc7e169231369ab1","650c16f0f2faf8d7a0d14c09","651c1d0c78491dadcb55d0cb","null","null","<p style=""font-size: 60px; font-family: BACS"">lTmOBCAd</p>","","","","","","","","","",""
"html-keyboard-response","325","504386","0.0-14.0-0.74","60670ac0fc7e169231369ab1","650c16f0f2faf8d7a0d14c09","651c1d0c78491dadcb55d0cb","null","null","<p style=""font-size: 60px; font-family: BACS"">lBlETbk</p>","","","","","","","","","",""
"html-keyboard-response","326","505396","0.0-14.0-0.75","60670ac0fc7e169231369ab1","650c16f0f2faf8d7a0d14c09","651c1d0c78491dadcb55d0cb","null","null","<p style=""font-size: 60px; font-family: BACS"">mbZlGUa</p>","","","","","","","","","",""
"html-keyboard-response","327","506406","0.0-14.0-0.76","60670ac0fc7e169231369ab1","650c16f0f2faf8d7a0d14c09","651c1d0c78491dadcb55d0cb","null","null","<p style=""font-size: 60px; font-family: BACS"">lTmOTbk</p>","","","","","","","","","",""
"html-keyboard-response","328","507418","0.0-14.0-0.77","60670ac0fc7e169231369ab1","650c16f0f2faf8d7a0d14c09","651c1d0c78491dadcb55d0cb","null","null","<p style=""font-size: 60px; font-family: BACS"">CRdBdmKcD</p>","","","","","","","","","",""
"html-keyboard-response","329","508429","0.0-14.0-0.78","60670ac0fc7e169231369ab1","650c16f0f2faf8d7a0d14c09","651c1d0c78491dadcb55d0cb","null","null","<p style=""font-size: 60px; font-family: BACS"">YuaNdGUa</p>","","","","","","","","","",""
"html-keyboard-response","330","509442","0.0-14.0-0.79","60670ac0fc7e169231369ab1","650c16f0f2faf8d7a0d14c09","651c1d0c78491dadcb55d0cb","null","null","<p style=""font-size: 60px; font-family: BACS"">ALOrlvAvb</p>","","","","","","","","","",""
"html-keyboard-response","331","512629","0.0-15.0","60670ac0fc7e169231369ab1","650c16f0f2faf8d7a0d14c09","651c1d0c78491dadcb55d0cb","3186"," ","<p>Great, you've seen the fourth block of words. You may now take a short break.</p>
      <p>Press the spacebar when you're ready to continue.</p>","","","","","","","","","",""
"html-keyboard-response","332","513645","0.0-16.0-0.0","60670ac0fc7e169231369ab1","650c16f0f2faf8d7a0d14c09","651c1d0c78491dadcb55d0cb","null","null","<p style=""font-size: 60px; font-family: BACS"">dGLAlLYGA</p>","","","","","","","","","",""
"html-keyboard-response","333","514658","0.0-16.0-0.1","60670ac0fc7e169231369ab1","650c16f0f2faf8d7a0d14c09","651c1d0c78491dadcb55d0cb","null","null","<p style=""font-size: 60px; font-family: BACS"">dGLAlLYGA</p>","","","","","","","","","",""
"html-keyboard-response","334","515667","0.0-16.0-0.2","60670ac0fc7e169231369ab1","650c16f0f2faf8d7a0d14c09","651c1d0c78491dadcb55d0cb","null","null","<p style=""font-size: 60px; font-family: BACS"">dGLAlLYGA</p>","","","","","","","","","",""
"html-keyboard-response","335","516678","0.0-16.0-0.3","60670ac0fc7e169231369ab1","650c16f0f2faf8d7a0d14c09","651c1d0c78491dadcb55d0cb","null","null","<p style=""font-size: 60px; font-family: BACS"">dGLAlLYGA</p>","","","","","","","","","",""
"html-keyboard-response","336","517689","0.0-16.0-0.4","60670ac0fc7e169231369ab1","650c16f0f2faf8d7a0d14c09","651c1d0c78491dadcb55d0cb","null","null","<p style=""font-size: 60px; font-family: BACS"">dGLAlLYGA</p>","","","","","","","","","",""
"html-keyboard-response","337","518702","0.0-16.0-0.5","60670ac0fc7e169231369ab1","650c16f0f2faf8d7a0d14c09","651c1d0c78491dadcb55d0cb","null","null","<p style=""font-size: 60px; font-family: BACS"">dGLAlLYGA</p>","","","","","","","","","",""
"html-keyboard-response","338","519716","0.0-16.0-0.6","60670ac0fc7e169231369ab1","650c16f0f2faf8d7a0d14c09","651c1d0c78491dadcb55d0cb","null","null","<p style=""font-size: 60px; font-family: BACS"">dGLAlLYGA</p>","","","","","","","","","",""
"html-keyboard-response","339","520724","0.0-16.0-0.7","60670ac0fc7e169231369ab1","650c16f0f2faf8d7a0d14c09","651c1d0c78491dadcb55d0cb","null","null","<p style=""font-size: 60px; font-family: BACS"">dGLAlLYGA</p>","","","","","","","","","",""
"html-keyboard-response","340","521736","0.0-16.0-0.8","60670ac0fc7e169231369ab1","650c16f0f2faf8d7a0d14c09","651c1d0c78491dadcb55d0cb","null","null","<p style=""font-size: 60px; font-family: BACS"">dGLAlLYGA</p>","","","","","","","","","",""
"html-keyboard-response","341","522749","0.0-16.0-0.9","60670ac0fc7e169231369ab1","650c16f0f2faf8d7a0d14c09","651c1d0c78491dadcb55d0cb","null","null","<p style=""font-size: 60px; font-family: BACS"">dGLAlLYGA</p>","","","","","","","","","",""
"html-keyboard-response","342","523751","0.0-16.0-0.10","60670ac0fc7e169231369ab1","650c16f0f2faf8d7a0d14c09","651c1d0c78491dadcb55d0cb","null","null","<p style=""font-size: 60px; font-family: BACS"">dGLAlLYGA</p>","","","","","","","","","",""
"html-keyboard-response","343","524761","0.0-16.0-0.11","60670ac0fc7e169231369ab1","650c16f0f2faf8d7a0d14c09","651c1d0c78491dadcb55d0cb","null","null","<p style=""font-size: 60px; font-family: BACS"">dGLAlLYGA</p>","","","","","","","","","",""
"html-keyboard-response","344","525771","0.0-16.0-0.12","60670ac0fc7e169231369ab1","650c16f0f2faf8d7a0d14c09","651c1d0c78491dadcb55d0cb","null","null","<p style=""font-size: 60px; font-family: BACS"">dGLAlLYGA</p>","","","","","","","","","",""
"html-keyboard-response","345","526781","0.0-16.0-0.13","60670ac0fc7e169231369ab1","650c16f0f2faf8d7a0d14c09","651c1d0c78491dadcb55d0cb","null","null","<p style=""font-size: 60px; font-family: BACS"">dGLAlLYGA</p>","","","","","","","","","",""
"html-keyboard-response","346","527798","0.0-16.0-0.14","60670ac0fc7e169231369ab1","650c16f0f2faf8d7a0d14c09","651c1d0c78491dadcb55d0cb","null","null","<p style=""font-size: 60px; font-family: BACS"">dGLAlLYGA</p>","","","","","","","","","",""
"html-keyboard-response","347","528810","0.0-16.0-0.15","60670ac0fc7e169231369ab1","650c16f0f2faf8d7a0d14c09","651c1d0c78491dadcb55d0cb","null","null","<p style=""font-size: 60px; font-family: BACS"">dGLAlLYGA</p>","","","","","","","","","",""
"html-keyboard-response","348","529821","0.0-16.0-0.16","60670ac0fc7e169231369ab1","650c16f0f2faf8d7a0d14c09","651c1d0c78491dadcb55d0cb","null","null","<p style=""font-size: 60px; font-family: BACS"">dGLAlLYGA</p>","","","","","","","","","",""
"html-keyboard-response","349","530830","0.0-16.0-0.17","60670ac0fc7e169231369ab1","650c16f0f2faf8d7a0d14c09","651c1d0c78491dadcb55d0cb","null","null","<p style=""font-size: 60px; font-family: BACS"">dGLAlLYGA</p>","","","","","","","","","",""
"html-keyboard-response","350","531838","0.0-16.0-0.18","60670ac0fc7e169231369ab1","650c16f0f2faf8d7a0d14c09","651c1d0c78491dadcb55d0cb","null","null","<p style=""font-size: 60px; font-family: BACS"">dGLAlLYGA</p>","","","","","","","","","",""
"html-keyboard-response","351","532848","0.0-16.0-0.19","60670ac0fc7e169231369ab1","650c16f0f2faf8d7a0d14c09","651c1d0c78491dadcb55d0cb","null","null","<p style=""font-size: 60px; font-family: BACS"">dGLAlLYGA</p>","","","","","","","","","",""
"html-keyboard-response","352","533858","0.0-16.0-0.20","60670ac0fc7e169231369ab1","650c16f0f2faf8d7a0d14c09","651c1d0c78491dadcb55d0cb","null","null","<p style=""font-size: 60px; font-family: BACS"">dGLAlLYGA</p>","","","","","","","","","",""
"html-keyboard-response","353","534867","0.0-16.0-0.21","60670ac0fc7e169231369ab1","650c16f0f2faf8d7a0d14c09","651c1d0c78491dadcb55d0cb","null","null","<p style=""font-size: 60px; font-family: BACS"">dGLAlLYGA</p>","","","","","","","","","",""
"html-keyboard-response","354","535877","0.0-16.0-0.22","60670ac0fc7e169231369ab1","650c16f0f2faf8d7a0d14c09","651c1d0c78491dadcb55d0cb","null","null","<p style=""font-size: 60px; font-family: BACS"">dGLAlLYGA</p>","","","","","","","","","",""
"html-keyboard-response","355","536886","0.0-16.0-0.23","60670ac0fc7e169231369ab1","650c16f0f2faf8d7a0d14c09","651c1d0c78491dadcb55d0cb","null","null","<p style=""font-size: 60px; font-family: BACS"">dGLAlLYGA</p>","","","","","","","","","",""
"html-keyboard-response","356","537894","0.0-16.0-0.24","60670ac0fc7e169231369ab1","650c16f0f2faf8d7a0d14c09","651c1d0c78491dadcb55d0cb","null","null","<p style=""font-size: 60px; font-family: BACS"">dGLAlLYGA</p>","","","","","","","","","",""
"html-keyboard-response","357","538905","0.0-16.0-0.25","60670ac0fc7e169231369ab1","650c16f0f2faf8d7a0d14c09","651c1d0c78491dadcb55d0cb","null","null","<p style=""font-size: 60px; font-family: BACS"">dGLAlLYGA</p>","","","","","","","","","",""
"html-keyboard-response","358","539918","0.0-16.0-0.26","60670ac0fc7e169231369ab1","650c16f0f2faf8d7a0d14c09","651c1d0c78491dadcb55d0cb","null","null","<p style=""font-size: 60px; font-family: BACS"">dGLAlLYGA</p>","","","","","","","","","",""
"html-keyboard-response","359","540928","0.0-16.0-0.27","60670ac0fc7e169231369ab1","650c16f0f2faf8d7a0d14c09","651c1d0c78491dadcb55d0cb","null","null","<p style=""font-size: 60px; font-family: BACS"">dGLAlLYGA</p>","","","","","","","","","",""
"html-keyboard-response","360","541935","0.0-16.0-0.28","60670ac0fc7e169231369ab1","650c16f0f2faf8d7a0d14c09","651c1d0c78491dadcb55d0cb","null","null","<p style=""font-size: 60px; font-family: BACS"">dGLAlLYGA</p>","","","","","","","","","",""
"html-keyboard-response","361","542946","0.0-16.0-0.29","60670ac0fc7e169231369ab1","650c16f0f2faf8d7a0d14c09","651c1d0c78491dadcb55d0cb","null","null","<p style=""font-size: 60px; font-family: BACS"">dGLAlLYGA</p>","","","","","","","","","",""
"html-keyboard-response","362","543959","0.0-16.0-0.30","60670ac0fc7e169231369ab1","650c16f0f2faf8d7a0d14c09","651c1d0c78491dadcb55d0cb","null","null","<p style=""font-size: 60px; font-family: BACS"">dGLAlLYGA</p>","","","","","","","","","",""
"html-keyboard-response","363","544970","0.0-16.0-0.31","60670ac0fc7e169231369ab1","650c16f0f2faf8d7a0d14c09","651c1d0c78491dadcb55d0cb","null","null","<p style=""font-size: 60px; font-family: BACS"">dGLAlLYGA</p>","","","","","","","","","",""
"html-keyboard-response","364","545978","0.0-16.0-0.32","60670ac0fc7e169231369ab1","650c16f0f2faf8d7a0d14c09","651c1d0c78491dadcb55d0cb","null","null","<p style=""font-size: 60px; font-family: BACS"">dGLAlLYGA</p>","","","","","","","","","",""
"html-keyboard-response","365","546988","0.0-16.0-0.33","60670ac0fc7e169231369ab1","650c16f0f2faf8d7a0d14c09","651c1d0c78491dadcb55d0cb","null","null","<p style=""font-size: 60px; font-family: BACS"">dGLAlLYGA</p>","","","","","","","","","",""
"html-keyboard-response","366","548001","0.0-16.0-0.34","60670ac0fc7e169231369ab1","650c16f0f2faf8d7a0d14c09","651c1d0c78491dadcb55d0cb","null","null","<p style=""font-size: 60px; font-family: BACS"">dGLAlLYGA</p>","","","","","","","","","",""
"html-keyboard-response","367","549010","0.0-16.0-0.35","60670ac0fc7e169231369ab1","650c16f0f2faf8d7a0d14c09","651c1d0c78491dadcb55d0cb","null","null","<p style=""font-size: 60px; font-family: BACS"">dGLAlLYGA</p>","","","","","","","","","",""
"html-keyboard-response","368","550024","0.0-16.0-0.36","60670ac0fc7e169231369ab1","650c16f0f2faf8d7a0d14c09","651c1d0c78491dadcb55d0cb","null","null","<p style=""font-size: 60px; font-family: BACS"">dGLAlLYGA</p>","","","","","","","","","",""
"html-keyboard-response","369","551036","0.0-16.0-0.37","60670ac0fc7e169231369ab1","650c16f0f2faf8d7a0d14c09","651c1d0c78491dadcb55d0cb","null","null","<p style=""font-size: 60px; font-family: BACS"">dGLAlLYGA</p>","","","","","","","","","",""
"html-keyboard-response","370","552049","0.0-16.0-0.38","60670ac0fc7e169231369ab1","650c16f0f2faf8d7a0d14c09","651c1d0c78491dadcb55d0cb","null","null","<p style=""font-size: 60px; font-family: BACS"">dGLAlLYGA</p>","","","","","","","","","",""
"html-keyboard-response","371","553056","0.0-16.0-0.39","60670ac0fc7e169231369ab1","650c16f0f2faf8d7a0d14c09","651c1d0c78491dadcb55d0cb","null","null","<p style=""font-size: 60px; font-family: BACS"">dGLAlLYGA</p>","","","","","","","","","",""
"html-keyboard-response","372","554068","0.0-16.0-0.40","60670ac0fc7e169231369ab1","650c16f0f2faf8d7a0d14c09","651c1d0c78491dadcb55d0cb","null","null","<p style=""font-size: 60px; font-family: BACS"">dGLAlLYGA</p>","","","","","","","","","",""
"html-keyboard-response","373","555077","0.0-16.0-0.41","60670ac0fc7e169231369ab1","650c16f0f2faf8d7a0d14c09","651c1d0c78491dadcb55d0cb","null","null","<p style=""font-size: 60px; font-family: BACS"">dGLAlLYGA</p>","","","","","","","","","",""
"html-keyboard-response","374","556090","0.0-16.0-0.42","60670ac0fc7e169231369ab1","650c16f0f2faf8d7a0d14c09","651c1d0c78491dadcb55d0cb","null","null","<p style=""font-size: 60px; font-family: BACS"">dGLAlLYGA</p>","","","","","","","","","",""
"html-keyboard-response","375","557102","0.0-16.0-0.43","60670ac0fc7e169231369ab1","650c16f0f2faf8d7a0d14c09","651c1d0c78491dadcb55d0cb","null","null","<p style=""font-size: 60px; font-family: BACS"">dGLAlLYGA</p>","","","","","","","","","",""
"html-keyboard-response","376","558112","0.0-16.0-0.44","60670ac0fc7e169231369ab1","650c16f0f2faf8d7a0d14c09","651c1d0c78491dadcb55d0cb","null","null","<p style=""font-size: 60px; font-family: BACS"">dGLAlLYGA</p>","","","","","","","","","",""
"html-keyboard-response","377","559123","0.0-16.0-0.45","60670ac0fc7e169231369ab1","650c16f0f2faf8d7a0d14c09","651c1d0c78491dadcb55d0cb","null","null","<p style=""font-size: 60px; font-family: BACS"">dGLAlLYGA</p>","","","","","","","","","",""
"html-keyboard-response","378","560134","0.0-16.0-0.46","60670ac0fc7e169231369ab1","650c16f0f2faf8d7a0d14c09","651c1d0c78491dadcb55d0cb","null","null","<p style=""font-size: 60px; font-family: BACS"">dGLAlLYGA</p>","","","","","","","","","",""
"html-keyboard-response","379","561145","0.0-16.0-0.47","60670ac0fc7e169231369ab1","650c16f0f2faf8d7a0d14c09","651c1d0c78491dadcb55d0cb","null","null","<p style=""font-size: 60px; font-family: BACS"">dGLAlLYGA</p>","","","","","","","","","",""
"html-keyboard-response","380","562158","0.0-16.0-0.48","60670ac0fc7e169231369ab1","650c16f0f2faf8d7a0d14c09","651c1d0c78491dadcb55d0cb","null","null","<p style=""font-size: 60px; font-family: BACS"">dGLAlLYGA</p>","","","","","","","","","",""
"html-keyboard-response","381","563167","0.0-16.0-0.49","60670ac0fc7e169231369ab1","650c16f0f2faf8d7a0d14c09","651c1d0c78491dadcb55d0cb","null","null","<p style=""font-size: 60px; font-family: BACS"">dGLAlLYGA</p>","","","","","","","","","",""
"html-keyboard-response","382","564184","0.0-16.0-0.50","60670ac0fc7e169231369ab1","650c16f0f2faf8d7a0d14c09","651c1d0c78491dadcb55d0cb","null","null","<p style=""font-size: 60px; font-family: BACS"">dGLAlLYGA</p>","","","","","","","","","",""
"html-keyboard-response","383","565195","0.0-16.0-0.51","60670ac0fc7e169231369ab1","650c16f0f2faf8d7a0d14c09","651c1d0c78491dadcb55d0cb","null","null","<p style=""font-size: 60px; font-family: BACS"">dGLAlLYGA</p>","","","","","","","","","",""
"html-keyboard-response","384","566206","0.0-16.0-0.52","60670ac0fc7e169231369ab1","650c16f0f2faf8d7a0d14c09","651c1d0c78491dadcb55d0cb","null","null","<p style=""font-size: 60px; font-family: BACS"">dGLAlLYGA</p>","","","","","","","","","",""
"html-keyboard-response","385","567215","0.0-16.0-0.53","60670ac0fc7e169231369ab1","650c16f0f2faf8d7a0d14c09","651c1d0c78491dadcb55d0cb","null","null","<p style=""font-size: 60px; font-family: BACS"">dGLAlLYGA</p>","","","","","","","","","",""
"html-keyboard-response","386","568225","0.0-16.0-0.54","60670ac0fc7e169231369ab1","650c16f0f2faf8d7a0d14c09","651c1d0c78491dadcb55d0cb","null","null","<p style=""font-size: 60px; font-family: BACS"">dGLAlLYGA</p>","","","","","","","","","",""
"html-keyboard-response","387","569237","0.0-16.0-0.55","60670ac0fc7e169231369ab1","650c16f0f2faf8d7a0d14c09","651c1d0c78491dadcb55d0cb","null","null","<p style=""font-size: 60px; font-family: BACS"">dGLAlLYGA</p>","","","","","","","","","",""
"html-keyboard-response","388","570249","0.0-16.0-0.56","60670ac0fc7e169231369ab1","650c16f0f2faf8d7a0d14c09","651c1d0c78491dadcb55d0cb","null","null","<p style=""font-size: 60px; font-family: BACS"">dGLAlLYGA</p>","","","","","","","","","",""
"html-keyboard-response","389","571259","0.0-16.0-0.57","60670ac0fc7e169231369ab1","650c16f0f2faf8d7a0d14c09","651c1d0c78491dadcb55d0cb","null","null","<p style=""font-size: 60px; font-family: BACS"">dGLAlLYGA</p>","","","","","","","","","",""
"html-keyboard-response","390","572271","0.0-16.0-0.58","60670ac0fc7e169231369ab1","650c16f0f2faf8d7a0d14c09","651c1d0c78491dadcb55d0cb","null","null","<p style=""font-size: 60px; font-family: BACS"">dGLAlLYGA</p>","","","","","","","","","",""
"html-keyboard-response","391","573281","0.0-16.0-0.59","60670ac0fc7e169231369ab1","650c16f0f2faf8d7a0d14c09","651c1d0c78491dadcb55d0cb","null","null","<p style=""font-size: 60px; font-family: BACS"">dGLAlLYGA</p>","","","","","","","","","",""
"html-keyboard-response","392","574293","0.0-16.0-0.60","60670ac0fc7e169231369ab1","650c16f0f2faf8d7a0d14c09","651c1d0c78491dadcb55d0cb","null","null","<p style=""font-size: 60px; font-family: BACS"">dGLAlLYGA</p>","","","","","","","","","",""
