"trial_type","trial_index","time_elapsed","internal_node_id","subject_id","study_id","session_id","rt","response","stimulus","success","item","task","correct_response","testing_condition","correct","target","confound","name","view_history"
"pavlovia","0","743","0.0-0.0","5eff6828a958150135ede8a4","64e77d7b61f440b60e28659d","64ec94c934ac49a2e5f7033d","","","","","","","","","","","","",""
"survey-html-form","1","4363","0.0-1.0","5eff6828a958150135ede8a4","64e77d7b61f440b60e28659d","64ec94c934ac49a2e5f7033d","3619","{""ID"":""5eff6828a958150135ede8a4""}","","","","","","","","","","",""
"html-keyboard-response","2","14055","0.0-2.0","5eff6828a958150135ede8a4","64e77d7b61f440b60e28659d","64ec94c934ac49a2e5f7033d","9692"," ","<p style=""font-size: 15px;"">Before beginning, we ask that you read the consent information and confirm your agreement to participate in the experiment.</p>
      <p style=""font-size: 15px;""> We ask that you remember that this is a research project and that your participation is entirely voluntary. You can stop your participation at any time, without needing to provide any explanation. The study we're asking you to participate in aims at examining how readers process written words. You will be engaged in a session of apprximately 20 minutes, followed by a brief questionnaire. You will have the opportunity to take a few breaks during the experiment. You will be paid £4 for your participation, corresponding to a rate of £8/hour. While this experiment looks at cognitive faculties, this experiment doesn't constitute clinical proof of eventual pathologies.</p>
      <p style=""font-size: 15px;"">All of the information collected thanks to yours and others' participation will be held in a secure password-protected server, and will not be shared with anyone not authorised to view it. Your personal information will be kept with an arbitrary participant ID. Thanks to this data anonymity process, any researcher analysing the data won't be able to track the information back to a specific participant. Therefore, this process will make identifying you impossibile, even when results from the study will be published in scientific reviews, presented at congresses, or at any other public forum. More generally, the collected data will be treated in accordance with the laws on privacy and conformity to the Legislative Degree n. 196 ""Code regarding the protection of personal data"" of the 30th of June 2003 and to the European Regulation 2016/670 (General Data Protection Regulation - GDPR). The Data Protection Officer is Avv. Valentina Carollo, who can be contacted at the following email addresses: <a href=""mailto:dpo@sissa.it"">dpo@sissa.it</a> or <a href=""mailto:rpd@sissa.it"">rpd@sissa.it</a> - PEC: <a href=""mailto:protocollo@pec.sissa.it"">protocollo@pec.sissa.it</a>.</p>
      <p style=""font-size: 15px;""> Before expressing your consent to participate, we would like to remind you again that in case you need explanations on any aspect of the experimental procedure, the researcher is at your disposition (<a href=""mailto:aliebelt@sissa.it"">aliebelt@sissa.it</a>, <a href=""mailto:davide.crepaldi@sissa.it"">davide.crepaldi@sissa.it</a>).</p>
      <p style=""font-size: 15px;"">If you would like to download the informed consent form, you can do so here: <a href=""BASL-Informed_Consent.pdf"" download>informed consent form</a>.</p>
      <p style=""font-size: 15px;"">We ask that you press the spacebar to proceed to the consent section.</p>","","","","","","","","","",""
"survey-html-form","3","31675","0.0-3.0","5eff6828a958150135ede8a4","64e77d7b61f440b60e28659d","64ec94c934ac49a2e5f7033d","17619","{""consent1"":""YES"",""consent2"":""YES"",""consent3"":""YES"",""consent4"":""YES"",""consent5"":""YES"",""consent6"":""YES""}","","","","","","","","","","",""
"fullscreen","4","37861","0.0-4.0","5eff6828a958150135ede8a4","64e77d7b61f440b60e28659d","64ec94c934ac49a2e5f7033d","","","","true","","","","","","","","",""
"html-keyboard-response","5","51718","0.0-5.0","5eff6828a958150135ede8a4","64e77d7b61f440b60e28659d","64ec94c934ac49a2e5f7033d","13856"," ","<p>Welcome, and thank you very much for your time!</p>
      <p>In this experiment, you'll be a language expert who's been asked to take a look at words that Earth has received in its first communication with aliens. Your task, in this first part of the experiment, is to pay close attention to the words you'll be shown; later, world leaders will ask you questions on what you saw. The words will be shown to you quite quickly; it seems that the aliens were in a hurry :-)</p>
      <p>Press the spacebar to continue.<p>","","","","","","","","","",""
"html-keyboard-response","6","57155","0.0-6.0","5eff6828a958150135ede8a4","64e77d7b61f440b60e28659d","64ec94c934ac49a2e5f7033d","5437"," ","<p>Here is an example of the words you'll see:</p>
      <img src='esempio.png' height='400px'>
      <p>When you're ready to begin, press the spacebar.</p></div>","","","","","","","","","",""
"html-keyboard-response","7","58167","0.0-7.0-0.0","5eff6828a958150135ede8a4","64e77d7b61f440b60e28659d","64ec94c934ac49a2e5f7033d","null","null","<p style=""font-size: 60px; font-family: BACS"">YLQmGuUY</p>","","","","","","","","","",""
"html-keyboard-response","8","59182","0.0-7.0-0.1","5eff6828a958150135ede8a4","64e77d7b61f440b60e28659d","64ec94c934ac49a2e5f7033d","null","null","<p style=""font-size: 60px; font-family: BACS"">YZJmYLU</p>","","","","","","","","","",""
"html-keyboard-response","9","60185","0.0-7.0-0.2","5eff6828a958150135ede8a4","64e77d7b61f440b60e28659d","64ec94c934ac49a2e5f7033d","null","null","<p style=""font-size: 60px; font-family: BACS"">NvuGrNmAG</p>","","","","","","","","","",""
"html-keyboard-response","10","61188","0.0-7.0-0.3","5eff6828a958150135ede8a4","64e77d7b61f440b60e28659d","64ec94c934ac49a2e5f7033d","null","null","<p style=""font-size: 60px; font-family: BACS"">YZJmukbY</p>","","","","","","","","","",""
"html-keyboard-response","11","62204","0.0-7.0-0.4","5eff6828a958150135ede8a4","64e77d7b61f440b60e28659d","64ec94c934ac49a2e5f7033d","null","null","<p style=""font-size: 60px; font-family: BACS"">AMkCMKmY</p>","","","","","","","","","",""
"html-keyboard-response","12","63207","0.0-7.0-0.5","5eff6828a958150135ede8a4","64e77d7b61f440b60e28659d","64ec94c934ac49a2e5f7033d","null","null","<p style=""font-size: 60px; font-family: BACS"">KTDTBDKP</p>","","","","","","","","","",""
"html-keyboard-response","13","64210","0.0-7.0-0.6","5eff6828a958150135ede8a4","64e77d7b61f440b60e28659d","64ec94c934ac49a2e5f7033d","null","null","<p style=""font-size: 60px; font-family: BACS"">LAclANmAG</p>","","","","","","","","","",""
"html-keyboard-response","14","65226","0.0-7.0-0.7","5eff6828a958150135ede8a4","64e77d7b61f440b60e28659d","64ec94c934ac49a2e5f7033d","null","null","<p style=""font-size: 60px; font-family: BACS"">lGZvukbY</p>","","","","","","","","","",""
"html-keyboard-response","15","66228","0.0-7.0-0.8","5eff6828a958150135ede8a4","64e77d7b61f440b60e28659d","64ec94c934ac49a2e5f7033d","null","null","<p style=""font-size: 60px; font-family: BACS"">MBKREMKmY</p>","","","","","","","","","",""
"html-keyboard-response","16","67234","0.0-7.0-0.9","5eff6828a958150135ede8a4","64e77d7b61f440b60e28659d","64ec94c934ac49a2e5f7033d","null","null","<p style=""font-size: 60px; font-family: BACS"">vQdOYLU</p>","","","","","","","","","",""
"html-keyboard-response","17","68250","0.0-7.0-0.10","5eff6828a958150135ede8a4","64e77d7b61f440b60e28659d","64ec94c934ac49a2e5f7033d","null","null","<p style=""font-size: 60px; font-family: BACS"">PDPhlYBO</p>","","","","","","","","","",""
"html-keyboard-response","18","69253","0.0-7.0-0.11","5eff6828a958150135ede8a4","64e77d7b61f440b60e28659d","64ec94c934ac49a2e5f7033d","null","null","<p style=""font-size: 60px; font-family: BACS"">PctRCMKmY</p>","","","","","","","","","",""
"html-keyboard-response","19","70256","0.0-7.0-0.12","5eff6828a958150135ede8a4","64e77d7b61f440b60e28659d","64ec94c934ac49a2e5f7033d","null","null","<p style=""font-size: 60px; font-family: BACS"">bAdkDKP</p>","","","","","","","","","",""
"html-keyboard-response","20","71260","0.0-7.0-0.13","5eff6828a958150135ede8a4","64e77d7b61f440b60e28659d","64ec94c934ac49a2e5f7033d","null","null","<p style=""font-size: 60px; font-family: BACS"">EPERdYBO</p>","","","","","","","","","",""
"html-keyboard-response","21","72274","0.0-7.0-0.14","5eff6828a958150135ede8a4","64e77d7b61f440b60e28659d","64ec94c934ac49a2e5f7033d","null","null","<p style=""font-size: 60px; font-family: BACS"">OLJblukbY</p>","","","","","","","","","",""
"html-keyboard-response","22","73277","0.0-7.0-0.15","5eff6828a958150135ede8a4","64e77d7b61f440b60e28659d","64ec94c934ac49a2e5f7033d","null","null","<p style=""font-size: 60px; font-family: BACS"">ukYZkJdr</p>","","","","","","","","","",""
"html-keyboard-response","23","74281","0.0-7.0-0.16","5eff6828a958150135ede8a4","64e77d7b61f440b60e28659d","64ec94c934ac49a2e5f7033d","null","null","<p style=""font-size: 60px; font-family: BACS"">UYZlZNmAG</p>","","","","","","","","","",""
"html-keyboard-response","24","75288","0.0-7.0-0.17","5eff6828a958150135ede8a4","64e77d7b61f440b60e28659d","64ec94c934ac49a2e5f7033d","null","null","<p style=""font-size: 60px; font-family: BACS"">ukYZuUY</p>","","","","","","","","","",""
"html-keyboard-response","25","76302","0.0-7.0-0.18","5eff6828a958150135ede8a4","64e77d7b61f440b60e28659d","64ec94c934ac49a2e5f7033d","null","null","<p style=""font-size: 60px; font-family: BACS"">UYZlZukbY</p>","","","","","","","","","",""
"html-keyboard-response","26","77305","0.0-7.0-0.19","5eff6828a958150135ede8a4","64e77d7b61f440b60e28659d","64ec94c934ac49a2e5f7033d","null","null","<p style=""font-size: 60px; font-family: BACS"">vQdOuUY</p>","","","","","","","","","",""
"html-keyboard-response","27","78308","0.0-7.0-0.20","5eff6828a958150135ede8a4","64e77d7b61f440b60e28659d","64ec94c934ac49a2e5f7033d","null","null","<p style=""font-size: 60px; font-family: BACS"">AMkCYBO</p>","","","","","","","","","",""
"html-keyboard-response","28","79323","0.0-7.0-0.21","5eff6828a958150135ede8a4","64e77d7b61f440b60e28659d","64ec94c934ac49a2e5f7033d","null","null","<p style=""font-size: 60px; font-family: BACS"">bAdkDOk</p>","","","","","","","","","",""
"html-keyboard-response","29","80338","0.0-7.0-0.22","5eff6828a958150135ede8a4","64e77d7b61f440b60e28659d","64ec94c934ac49a2e5f7033d","null","null","<p style=""font-size: 60px; font-family: BACS"">lGZvkJdr</p>","","","","","","","","","",""
"html-keyboard-response","30","81354","0.0-7.0-0.23","5eff6828a958150135ede8a4","64e77d7b61f440b60e28659d","64ec94c934ac49a2e5f7033d","null","null","<p style=""font-size: 60px; font-family: BACS"">EPERdMKmY</p>","","","","","","","","","",""
"html-keyboard-response","31","82359","0.0-7.0-0.24","5eff6828a958150135ede8a4","64e77d7b61f440b60e28659d","64ec94c934ac49a2e5f7033d","null","null","<p style=""font-size: 60px; font-family: BACS"">lGZvNmAG</p>","","","","","","","","","",""
"html-keyboard-response","32","83362","0.0-7.0-0.25","5eff6828a958150135ede8a4","64e77d7b61f440b60e28659d","64ec94c934ac49a2e5f7033d","null","null","<p style=""font-size: 60px; font-family: BACS"">NvuGrkJdr</p>","","","","","","","","","",""
"html-keyboard-response","33","84375","0.0-7.0-0.26","5eff6828a958150135ede8a4","64e77d7b61f440b60e28659d","64ec94c934ac49a2e5f7033d","null","null","<p style=""font-size: 60px; font-family: BACS"">bAdkMKmY</p>","","","","","","","","","",""
"html-keyboard-response","34","85389","0.0-7.0-0.27","5eff6828a958150135ede8a4","64e77d7b61f440b60e28659d","64ec94c934ac49a2e5f7033d","null","null","<p style=""font-size: 60px; font-family: BACS"">OLJbluUY</p>","","","","","","","","","",""
"html-keyboard-response","35","86403","0.0-7.0-0.28","5eff6828a958150135ede8a4","64e77d7b61f440b60e28659d","64ec94c934ac49a2e5f7033d","null","null","<p style=""font-size: 60px; font-family: BACS"">DhMtDOk</p>","","","","","","","","","",""
"html-keyboard-response","36","87407","0.0-7.0-0.29","5eff6828a958150135ede8a4","64e77d7b61f440b60e28659d","64ec94c934ac49a2e5f7033d","null","null","<p style=""font-size: 60px; font-family: BACS"">YLQmGYLU</p>","","","","","","","","","",""
"html-keyboard-response","37","88414","0.0-7.0-0.30","5eff6828a958150135ede8a4","64e77d7b61f440b60e28659d","64ec94c934ac49a2e5f7033d","null","null","<p style=""font-size: 60px; font-family: BACS"">PDPhlKlkD</p>","","","","","","","","","",""
"html-keyboard-response","38","89429","0.0-7.0-0.31","5eff6828a958150135ede8a4","64e77d7b61f440b60e28659d","64ec94c934ac49a2e5f7033d","null","null","<p style=""font-size: 60px; font-family: BACS"">YZJmuUY</p>","","","","","","","","","",""
"html-keyboard-response","39","90436","0.0-7.0-0.32","5eff6828a958150135ede8a4","64e77d7b61f440b60e28659d","64ec94c934ac49a2e5f7033d","null","null","<p style=""font-size: 60px; font-family: BACS"">KTDTBDOk</p>","","","","","","","","","",""
"html-keyboard-response","40","91438","0.0-7.0-0.33","5eff6828a958150135ede8a4","64e77d7b61f440b60e28659d","64ec94c934ac49a2e5f7033d","null","null","<p style=""font-size: 60px; font-family: BACS"">LAclAuUY</p>","","","","","","","","","",""
"html-keyboard-response","41","92441","0.0-7.0-0.34","5eff6828a958150135ede8a4","64e77d7b61f440b60e28659d","64ec94c934ac49a2e5f7033d","null","null","<p style=""font-size: 60px; font-family: BACS"">MBKREDKP</p>","","","","","","","","","",""
"html-keyboard-response","42","93446","0.0-7.0-0.35","5eff6828a958150135ede8a4","64e77d7b61f440b60e28659d","64ec94c934ac49a2e5f7033d","null","null","<p style=""font-size: 60px; font-family: BACS"">LAclAukbY</p>","","","","","","","","","",""
"html-keyboard-response","43","94461","0.0-7.0-0.36","5eff6828a958150135ede8a4","64e77d7b61f440b60e28659d","64ec94c934ac49a2e5f7033d","null","null","<p style=""font-size: 60px; font-family: BACS"">bAdkYBO</p>","","","","","","","","","",""
"html-keyboard-response","44","95465","0.0-7.0-0.37","5eff6828a958150135ede8a4","64e77d7b61f440b60e28659d","64ec94c934ac49a2e5f7033d","null","null","<p style=""font-size: 60px; font-family: BACS"">DhMtKlkD</p>","","","","","","","","","",""
"html-keyboard-response","45","96481","0.0-7.0-0.38","5eff6828a958150135ede8a4","64e77d7b61f440b60e28659d","64ec94c934ac49a2e5f7033d","null","null","<p style=""font-size: 60px; font-family: BACS"">vQdONmAG</p>","","","","","","","","","",""
"html-keyboard-response","46","97486","0.0-7.0-0.39","5eff6828a958150135ede8a4","64e77d7b61f440b60e28659d","64ec94c934ac49a2e5f7033d","null","null","<p style=""font-size: 60px; font-family: BACS"">PctRCYBO</p>","","","","","","","","","",""
"html-keyboard-response","47","98489","0.0-7.0-0.40","5eff6828a958150135ede8a4","64e77d7b61f440b60e28659d","64ec94c934ac49a2e5f7033d","null","null","<p style=""font-size: 60px; font-family: BACS"">NaAQduUY</p>","","","","","","","","","",""
"html-keyboard-response","48","99504","0.0-7.0-0.41","5eff6828a958150135ede8a4","64e77d7b61f440b60e28659d","64ec94c934ac49a2e5f7033d","null","null","<p style=""font-size: 60px; font-family: BACS"">PDPhlDKP</p>","","","","","","","","","",""
"html-keyboard-response","49","100517","0.0-7.0-0.42","5eff6828a958150135ede8a4","64e77d7b61f440b60e28659d","64ec94c934ac49a2e5f7033d","null","null","<p style=""font-size: 60px; font-family: BACS"">lGZvuUY</p>","","","","","","","","","",""
"html-keyboard-response","50","101533","0.0-7.0-0.43","5eff6828a958150135ede8a4","64e77d7b61f440b60e28659d","64ec94c934ac49a2e5f7033d","null","null","<p style=""font-size: 60px; font-family: BACS"">DmAMEDKP</p>","","","","","","","","","",""
"html-keyboard-response","51","102541","0.0-7.0-0.44","5eff6828a958150135ede8a4","64e77d7b61f440b60e28659d","64ec94c934ac49a2e5f7033d","null","null","<p style=""font-size: 60px; font-family: BACS"">ukYZYLU</p>","","","","","","","","","",""
"html-keyboard-response","52","103544","0.0-7.0-0.45","5eff6828a958150135ede8a4","64e77d7b61f440b60e28659d","64ec94c934ac49a2e5f7033d","null","null","<p style=""font-size: 60px; font-family: BACS"">NaAQdkJdr</p>","","","","","","","","","",""
"html-keyboard-response","53","104547","0.0-7.0-0.46","5eff6828a958150135ede8a4","64e77d7b61f440b60e28659d","64ec94c934ac49a2e5f7033d","null","null","<p style=""font-size: 60px; font-family: BACS"">NvuGrYLU</p>","","","","","","","","","",""
"html-keyboard-response","54","105548","0.0-7.0-0.47","5eff6828a958150135ede8a4","64e77d7b61f440b60e28659d","64ec94c934ac49a2e5f7033d","null","null","<p style=""font-size: 60px; font-family: BACS"">DhMtDKP</p>","","","","","","","","","",""
"html-keyboard-response","55","106550","0.0-7.0-0.48","5eff6828a958150135ede8a4","64e77d7b61f440b60e28659d","64ec94c934ac49a2e5f7033d","null","null","<p style=""font-size: 60px; font-family: BACS"">KTDTBKlkD</p>","","","","","","","","","",""
"html-keyboard-response","56","107552","0.0-7.0-0.49","5eff6828a958150135ede8a4","64e77d7b61f440b60e28659d","64ec94c934ac49a2e5f7033d","null","null","<p style=""font-size: 60px; font-family: BACS"">OLJblNmAG</p>","","","","","","","","","",""
"html-keyboard-response","57","108556","0.0-7.0-0.50","5eff6828a958150135ede8a4","64e77d7b61f440b60e28659d","64ec94c934ac49a2e5f7033d","null","null","<p style=""font-size: 60px; font-family: BACS"">PDPhlMKmY</p>","","","","","","","","","",""
"html-keyboard-response","58","109557","0.0-7.0-0.51","5eff6828a958150135ede8a4","64e77d7b61f440b60e28659d","64ec94c934ac49a2e5f7033d","null","null","<p style=""font-size: 60px; font-family: BACS"">NaAQdYLU</p>","","","","","","","","","",""
"html-keyboard-response","59","110564","0.0-7.0-0.52","5eff6828a958150135ede8a4","64e77d7b61f440b60e28659d","64ec94c934ac49a2e5f7033d","null","null","<p style=""font-size: 60px; font-family: BACS"">tdDdDKP</p>","","","","","","","","","",""
"html-keyboard-response","60","111580","0.0-7.0-0.53","5eff6828a958150135ede8a4","64e77d7b61f440b60e28659d","64ec94c934ac49a2e5f7033d","null","null","<p style=""font-size: 60px; font-family: BACS"">DmAMEMKmY</p>","","","","","","","","","",""
"html-keyboard-response","61","112594","0.0-7.0-0.54","5eff6828a958150135ede8a4","64e77d7b61f440b60e28659d","64ec94c934ac49a2e5f7033d","null","null","<p style=""font-size: 60px; font-family: BACS"">OLJblkJdr</p>","","","","","","","","","",""
"html-keyboard-response","62","113598","0.0-7.0-0.55","5eff6828a958150135ede8a4","64e77d7b61f440b60e28659d","64ec94c934ac49a2e5f7033d","null","null","<p style=""font-size: 60px; font-family: BACS"">AMkCDOk</p>","","","","","","","","","",""
"html-keyboard-response","63","114614","0.0-7.0-0.56","5eff6828a958150135ede8a4","64e77d7b61f440b60e28659d","64ec94c934ac49a2e5f7033d","null","null","<p style=""font-size: 60px; font-family: BACS"">EPERdKlkD</p>","","","","","","","","","",""
"html-keyboard-response","64","115619","0.0-7.0-0.57","5eff6828a958150135ede8a4","64e77d7b61f440b60e28659d","64ec94c934ac49a2e5f7033d","null","null","<p style=""font-size: 60px; font-family: BACS"">tdDdMKmY</p>","","","","","","","","","",""
"html-keyboard-response","65","116624","0.0-7.0-0.58","5eff6828a958150135ede8a4","64e77d7b61f440b60e28659d","64ec94c934ac49a2e5f7033d","null","null","<p style=""font-size: 60px; font-family: BACS"">KTDTBYBO</p>","","","","","","","","","",""
"html-keyboard-response","66","117625","0.0-7.0-0.59","5eff6828a958150135ede8a4","64e77d7b61f440b60e28659d","64ec94c934ac49a2e5f7033d","null","null","<p style=""font-size: 60px; font-family: BACS"">ukYZNmAG</p>","","","","","","","","","",""
"html-keyboard-response","67","118628","0.0-7.0-0.60","5eff6828a958150135ede8a4","64e77d7b61f440b60e28659d","64ec94c934ac49a2e5f7033d","null","null","<p style=""font-size: 60px; font-family: BACS"">UYZlZkJdr</p>","","","","","","","","","",""
"html-keyboard-response","68","119644","0.0-7.0-0.61","5eff6828a958150135ede8a4","64e77d7b61f440b60e28659d","64ec94c934ac49a2e5f7033d","null","null","<p style=""font-size: 60px; font-family: BACS"">LAclAYLU</p>","","","","","","","","","",""
"html-keyboard-response","69","120651","0.0-7.0-0.62","5eff6828a958150135ede8a4","64e77d7b61f440b60e28659d","64ec94c934ac49a2e5f7033d","null","null","<p style=""font-size: 60px; font-family: BACS"">YLQmGukbY</p>","","","","","","","","","",""
"html-keyboard-response","70","121653","0.0-7.0-0.63","5eff6828a958150135ede8a4","64e77d7b61f440b60e28659d","64ec94c934ac49a2e5f7033d","null","null","<p style=""font-size: 60px; font-family: BACS"">UYZlZYLU</p>","","","","","","","","","",""
"html-keyboard-response","71","122656","0.0-7.0-0.64","5eff6828a958150135ede8a4","64e77d7b61f440b60e28659d","64ec94c934ac49a2e5f7033d","null","null","<p style=""font-size: 60px; font-family: BACS"">PctRCDKP</p>","","","","","","","","","",""
"html-keyboard-response","72","123658","0.0-7.0-0.65","5eff6828a958150135ede8a4","64e77d7b61f440b60e28659d","64ec94c934ac49a2e5f7033d","null","null","<p style=""font-size: 60px; font-family: BACS"">NaAQdNmAG</p>","","","","","","","","","",""
"html-keyboard-response","73","124661","0.0-7.0-0.66","5eff6828a958150135ede8a4","64e77d7b61f440b60e28659d","64ec94c934ac49a2e5f7033d","null","null","<p style=""font-size: 60px; font-family: BACS"">tdDdDOk</p>","","","","","","","","","",""
"html-keyboard-response","74","125677","0.0-7.0-0.67","5eff6828a958150135ede8a4","64e77d7b61f440b60e28659d","64ec94c934ac49a2e5f7033d","null","null","<p style=""font-size: 60px; font-family: BACS"">DmAMEYBO</p>","","","","","","","","","",""
"html-keyboard-response","75","126680","0.0-7.0-0.68","5eff6828a958150135ede8a4","64e77d7b61f440b60e28659d","64ec94c934ac49a2e5f7033d","null","null","<p style=""font-size: 60px; font-family: BACS"">AMkCKlkD</p>","","","","","","","","","",""
"html-keyboard-response","76","127682","0.0-7.0-0.69","5eff6828a958150135ede8a4","64e77d7b61f440b60e28659d","64ec94c934ac49a2e5f7033d","null","null","<p style=""font-size: 60px; font-family: BACS"">vQdOukbY</p>","","","","","","","","","",""
"html-keyboard-response","77","128698","0.0-7.0-0.70","5eff6828a958150135ede8a4","64e77d7b61f440b60e28659d","64ec94c934ac49a2e5f7033d","null","null","<p style=""font-size: 60px; font-family: BACS"">YZJmkJdr</p>","","","","","","","","","",""
"html-keyboard-response","78","129701","0.0-7.0-0.71","5eff6828a958150135ede8a4","64e77d7b61f440b60e28659d","64ec94c934ac49a2e5f7033d","null","null","<p style=""font-size: 60px; font-family: BACS"">MBKREDOk</p>","","","","","","","","","",""
"html-keyboard-response","79","130706","0.0-7.0-0.72","5eff6828a958150135ede8a4","64e77d7b61f440b60e28659d","64ec94c934ac49a2e5f7033d","null","null","<p style=""font-size: 60px; font-family: BACS"">tdDdKlkD</p>","","","","","","","","","",""
"html-keyboard-response","80","131709","0.0-7.0-0.73","5eff6828a958150135ede8a4","64e77d7b61f440b60e28659d","64ec94c934ac49a2e5f7033d","null","null","<p style=""font-size: 60px; font-family: BACS"">NvuGrukbY</p>","","","","","","","","","",""
"html-keyboard-response","81","132724","0.0-7.0-0.74","5eff6828a958150135ede8a4","64e77d7b61f440b60e28659d","64ec94c934ac49a2e5f7033d","null","null","<p style=""font-size: 60px; font-family: BACS"">MBKREKlkD</p>","","","","","","","","","",""
"html-keyboard-response","82","133726","0.0-7.0-0.75","5eff6828a958150135ede8a4","64e77d7b61f440b60e28659d","64ec94c934ac49a2e5f7033d","null","null","<p style=""font-size: 60px; font-family: BACS"">YLQmGkJdr</p>","","","","","","","","","",""
"html-keyboard-response","83","134730","0.0-7.0-0.76","5eff6828a958150135ede8a4","64e77d7b61f440b60e28659d","64ec94c934ac49a2e5f7033d","null","null","<p style=""font-size: 60px; font-family: BACS"">DmAMEDOk</p>","","","","","","","","","",""
"html-keyboard-response","84","135732","0.0-7.0-0.77","5eff6828a958150135ede8a4","64e77d7b61f440b60e28659d","64ec94c934ac49a2e5f7033d","null","null","<p style=""font-size: 60px; font-family: BACS"">PctRCKlkD</p>","","","","","","","","","",""
"html-keyboard-response","85","136734","0.0-7.0-0.78","5eff6828a958150135ede8a4","64e77d7b61f440b60e28659d","64ec94c934ac49a2e5f7033d","null","null","<p style=""font-size: 60px; font-family: BACS"">DhMtYBO</p>","","","","","","","","","",""
"html-keyboard-response","86","137749","0.0-7.0-0.79","5eff6828a958150135ede8a4","64e77d7b61f440b60e28659d","64ec94c934ac49a2e5f7033d","null","null","<p style=""font-size: 60px; font-family: BACS"">EPERdDOk</p>","","","","","","","","","",""
"html-keyboard-response","87","141382","0.0-8.0","5eff6828a958150135ede8a4","64e77d7b61f440b60e28659d","64ec94c934ac49a2e5f7033d","3632"," ","<p>Great, you've seen the first block of words. You may now take a short break.</p>
      <p>Press the spacebar when you're ready to continue.</p>","","","","","","","","","",""
"html-keyboard-response","88","142388","0.0-9.0-0.0","5eff6828a958150135ede8a4","64e77d7b61f440b60e28659d","64ec94c934ac49a2e5f7033d","null","null","<p style=""font-size: 60px; font-family: BACS"">OLJblukbY</p>","","","","","","","","","",""
"html-keyboard-response","89","143391","0.0-9.0-0.1","5eff6828a958150135ede8a4","64e77d7b61f440b60e28659d","64ec94c934ac49a2e5f7033d","null","null","<p style=""font-size: 60px; font-family: BACS"">EPERdYBO</p>","","","","","","","","","",""
"html-keyboard-response","90","144395","0.0-9.0-0.2","5eff6828a958150135ede8a4","64e77d7b61f440b60e28659d","64ec94c934ac49a2e5f7033d","null","null","<p style=""font-size: 60px; font-family: BACS"">MBKREKlkD</p>","","","","","","","","","",""
"html-keyboard-response","91","145398","0.0-9.0-0.3","5eff6828a958150135ede8a4","64e77d7b61f440b60e28659d","64ec94c934ac49a2e5f7033d","null","null","<p style=""font-size: 60px; font-family: BACS"">DmAMEMKmY</p>","","","","","","","","","",""
"html-keyboard-response","92","146400","0.0-9.0-0.4","5eff6828a958150135ede8a4","64e77d7b61f440b60e28659d","64ec94c934ac49a2e5f7033d","null","null","<p style=""font-size: 60px; font-family: BACS"">tdDdDKP</p>","","","","","","","","","",""
"html-keyboard-response","93","147417","0.0-9.0-0.5","5eff6828a958150135ede8a4","64e77d7b61f440b60e28659d","64ec94c934ac49a2e5f7033d","null","null","<p style=""font-size: 60px; font-family: BACS"">lGZvuUY</p>","","","","","","","","","",""
"html-keyboard-response","94","148433","0.0-9.0-0.6","5eff6828a958150135ede8a4","64e77d7b61f440b60e28659d","64ec94c934ac49a2e5f7033d","null","null","<p style=""font-size: 60px; font-family: BACS"">YLQmGYLU</p>","","","","","","","","","",""
"html-keyboard-response","95","149449","0.0-9.0-0.7","5eff6828a958150135ede8a4","64e77d7b61f440b60e28659d","64ec94c934ac49a2e5f7033d","null","null","<p style=""font-size: 60px; font-family: BACS"">tdDdMKmY</p>","","","","","","","","","",""
"html-keyboard-response","96","150463","0.0-9.0-0.8","5eff6828a958150135ede8a4","64e77d7b61f440b60e28659d","64ec94c934ac49a2e5f7033d","null","null","<p style=""font-size: 60px; font-family: BACS"">OLJbluUY</p>","","","","","","","","","",""
"html-keyboard-response","97","151468","0.0-9.0-0.9","5eff6828a958150135ede8a4","64e77d7b61f440b60e28659d","64ec94c934ac49a2e5f7033d","null","null","<p style=""font-size: 60px; font-family: BACS"">PDPhlYBO</p>","","","","","","","","","",""
"html-keyboard-response","98","152480","0.0-9.0-0.10","5eff6828a958150135ede8a4","64e77d7b61f440b60e28659d","64ec94c934ac49a2e5f7033d","null","null","<p style=""font-size: 60px; font-family: BACS"">EPERdMKmY</p>","","","","","","","","","",""
"html-keyboard-response","99","153493","0.0-9.0-0.11","5eff6828a958150135ede8a4","64e77d7b61f440b60e28659d","64ec94c934ac49a2e5f7033d","null","null","<p style=""font-size: 60px; font-family: BACS"">NvuGrkJdr</p>","","","","","","","","","",""
"html-keyboard-response","100","154497","0.0-9.0-0.12","5eff6828a958150135ede8a4","64e77d7b61f440b60e28659d","64ec94c934ac49a2e5f7033d","null","null","<p style=""font-size: 60px; font-family: BACS"">tdDdKlkD</p>","","","","","","","","","",""
"html-keyboard-response","101","155504","0.0-9.0-0.13","5eff6828a958150135ede8a4","64e77d7b61f440b60e28659d","64ec94c934ac49a2e5f7033d","null","null","<p style=""font-size: 60px; font-family: BACS"">NvuGrNmAG</p>","","","","","","","","","",""
"html-keyboard-response","102","156508","0.0-9.0-0.14","5eff6828a958150135ede8a4","64e77d7b61f440b60e28659d","64ec94c934ac49a2e5f7033d","null","null","<p style=""font-size: 60px; font-family: BACS"">PctRCKlkD</p>","","","","","","","","","",""
"html-keyboard-response","103","157511","0.0-9.0-0.15","5eff6828a958150135ede8a4","64e77d7b61f440b60e28659d","64ec94c934ac49a2e5f7033d","null","null","<p style=""font-size: 60px; font-family: BACS"">YLQmGuUY</p>","","","","","","","","","",""
"html-keyboard-response","104","158512","0.0-9.0-0.16","5eff6828a958150135ede8a4","64e77d7b61f440b60e28659d","64ec94c934ac49a2e5f7033d","null","null","<p style=""font-size: 60px; font-family: BACS"">PDPhlMKmY</p>","","","","","","","","","",""
"html-keyboard-response","105","159516","0.0-9.0-0.17","5eff6828a958150135ede8a4","64e77d7b61f440b60e28659d","64ec94c934ac49a2e5f7033d","null","null","<p style=""font-size: 60px; font-family: BACS"">LAclAuUY</p>","","","","","","","","","",""
"html-keyboard-response","106","160530","0.0-9.0-0.18","5eff6828a958150135ede8a4","64e77d7b61f440b60e28659d","64ec94c934ac49a2e5f7033d","null","null","<p style=""font-size: 60px; font-family: BACS"">KTDTBDKP</p>","","","","","","","","","",""
"html-keyboard-response","107","161531","0.0-9.0-0.19","5eff6828a958150135ede8a4","64e77d7b61f440b60e28659d","64ec94c934ac49a2e5f7033d","null","null","<p style=""font-size: 60px; font-family: BACS"">YZJmukbY</p>","","","","","","","","","",""
"html-keyboard-response","108","162533","0.0-9.0-0.20","5eff6828a958150135ede8a4","64e77d7b61f440b60e28659d","64ec94c934ac49a2e5f7033d","null","null","<p style=""font-size: 60px; font-family: BACS"">ukYZuUY</p>","","","","","","","","","",""
"html-keyboard-response","109","163548","0.0-9.0-0.21","5eff6828a958150135ede8a4","64e77d7b61f440b60e28659d","64ec94c934ac49a2e5f7033d","null","null","<p style=""font-size: 60px; font-family: BACS"">lGZvkJdr</p>","","","","","","","","","",""
"html-keyboard-response","110","164550","0.0-9.0-0.22","5eff6828a958150135ede8a4","64e77d7b61f440b60e28659d","64ec94c934ac49a2e5f7033d","null","null","<p style=""font-size: 60px; font-family: BACS"">NvuGrukbY</p>","","","","","","","","","",""
"html-keyboard-response","111","165554","0.0-9.0-0.23","5eff6828a958150135ede8a4","64e77d7b61f440b60e28659d","64ec94c934ac49a2e5f7033d","null","null","<p style=""font-size: 60px; font-family: BACS"">MBKREDKP</p>","","","","","","","","","",""
"html-keyboard-response","112","166569","0.0-9.0-0.24","5eff6828a958150135ede8a4","64e77d7b61f440b60e28659d","64ec94c934ac49a2e5f7033d","null","null","<p style=""font-size: 60px; font-family: BACS"">YZJmkJdr</p>","","","","","","","","","",""
"html-keyboard-response","113","167582","0.0-9.0-0.25","5eff6828a958150135ede8a4","64e77d7b61f440b60e28659d","64ec94c934ac49a2e5f7033d","null","null","<p style=""font-size: 60px; font-family: BACS"">YLQmGukbY</p>","","","","","","","","","",""
"html-keyboard-response","114","168586","0.0-9.0-0.26","5eff6828a958150135ede8a4","64e77d7b61f440b60e28659d","64ec94c934ac49a2e5f7033d","null","null","<p style=""font-size: 60px; font-family: BACS"">PctRCMKmY</p>","","","","","","","","","",""
"html-keyboard-response","115","169601","0.0-9.0-0.27","5eff6828a958150135ede8a4","64e77d7b61f440b60e28659d","64ec94c934ac49a2e5f7033d","null","null","<p style=""font-size: 60px; font-family: BACS"">NaAQdkJdr</p>","","","","","","","","","",""
"html-keyboard-response","116","170605","0.0-9.0-0.28","5eff6828a958150135ede8a4","64e77d7b61f440b60e28659d","64ec94c934ac49a2e5f7033d","null","null","<p style=""font-size: 60px; font-family: BACS"">DhMtYBO</p>","","","","","","","","","",""
"html-keyboard-response","117","171608","0.0-9.0-0.29","5eff6828a958150135ede8a4","64e77d7b61f440b60e28659d","64ec94c934ac49a2e5f7033d","null","null","<p style=""font-size: 60px; font-family: BACS"">UYZlZYLU</p>","","","","","","","","","",""
"html-keyboard-response","118","172610","0.0-9.0-0.30","5eff6828a958150135ede8a4","64e77d7b61f440b60e28659d","64ec94c934ac49a2e5f7033d","null","null","<p style=""font-size: 60px; font-family: BACS"">vQdOukbY</p>","","","","","","","","","",""
"html-keyboard-response","119","173623","0.0-9.0-0.31","5eff6828a958150135ede8a4","64e77d7b61f440b60e28659d","64ec94c934ac49a2e5f7033d","null","null","<p style=""font-size: 60px; font-family: BACS"">NvuGrYLU</p>","","","","","","","","","",""
"html-keyboard-response","120","174630","0.0-9.0-0.32","5eff6828a958150135ede8a4","64e77d7b61f440b60e28659d","64ec94c934ac49a2e5f7033d","null","null","<p style=""font-size: 60px; font-family: BACS"">ukYZkJdr</p>","","","","","","","","","",""
"html-keyboard-response","121","175635","0.0-9.0-0.33","5eff6828a958150135ede8a4","64e77d7b61f440b60e28659d","64ec94c934ac49a2e5f7033d","null","null","<p style=""font-size: 60px; font-family: BACS"">OLJblNmAG</p>","","","","","","","","","",""
"html-keyboard-response","122","176648","0.0-9.0-0.34","5eff6828a958150135ede8a4","64e77d7b61f440b60e28659d","64ec94c934ac49a2e5f7033d","null","null","<p style=""font-size: 60px; font-family: BACS"">UYZlZukbY</p>","","","","","","","","","",""
"html-keyboard-response","123","177662","0.0-9.0-0.35","5eff6828a958150135ede8a4","64e77d7b61f440b60e28659d","64ec94c934ac49a2e5f7033d","null","null","<p style=""font-size: 60px; font-family: BACS"">vQdOuUY</p>","","","","","","","","","",""
"html-keyboard-response","124","178668","0.0-9.0-0.36","5eff6828a958150135ede8a4","64e77d7b61f440b60e28659d","64ec94c934ac49a2e5f7033d","null","null","<p style=""font-size: 60px; font-family: BACS"">lGZvNmAG</p>","","","","","","","","","",""
"html-keyboard-response","125","179684","0.0-9.0-0.37","5eff6828a958150135ede8a4","64e77d7b61f440b60e28659d","64ec94c934ac49a2e5f7033d","null","null","<p style=""font-size: 60px; font-family: BACS"">AMkCMKmY</p>","","","","","","","","","",""
"html-keyboard-response","126","180698","0.0-9.0-0.38","5eff6828a958150135ede8a4","64e77d7b61f440b60e28659d","64ec94c934ac49a2e5f7033d","null","null","<p style=""font-size: 60px; font-family: BACS"">vQdOYLU</p>","","","","","","","","","",""
"html-keyboard-response","127","181703","0.0-9.0-0.39","5eff6828a958150135ede8a4","64e77d7b61f440b60e28659d","64ec94c934ac49a2e5f7033d","null","null","<p style=""font-size: 60px; font-family: BACS"">PDPhlDKP</p>","","","","","","","","","",""
"html-keyboard-response","128","182709","0.0-9.0-0.40","5eff6828a958150135ede8a4","64e77d7b61f440b60e28659d","64ec94c934ac49a2e5f7033d","null","null","<p style=""font-size: 60px; font-family: BACS"">LAclAukbY</p>","","","","","","","","","",""
"html-keyboard-response","129","183719","0.0-9.0-0.41","5eff6828a958150135ede8a4","64e77d7b61f440b60e28659d","64ec94c934ac49a2e5f7033d","null","null","<p style=""font-size: 60px; font-family: BACS"">DhMtKlkD</p>","","","","","","","","","",""
"html-keyboard-response","130","184734","0.0-9.0-0.42","5eff6828a958150135ede8a4","64e77d7b61f440b60e28659d","64ec94c934ac49a2e5f7033d","null","null","<p style=""font-size: 60px; font-family: BACS"">KTDTBDOk</p>","","","","","","","","","",""
"html-keyboard-response","131","185748","0.0-9.0-0.43","5eff6828a958150135ede8a4","64e77d7b61f440b60e28659d","64ec94c934ac49a2e5f7033d","null","null","<p style=""font-size: 60px; font-family: BACS"">YLQmGkJdr</p>","","","","","","","","","",""
"html-keyboard-response","132","186753","0.0-9.0-0.44","5eff6828a958150135ede8a4","64e77d7b61f440b60e28659d","64ec94c934ac49a2e5f7033d","null","null","<p style=""font-size: 60px; font-family: BACS"">DmAMEDOk</p>","","","","","","","","","",""
"html-keyboard-response","133","187755","0.0-9.0-0.45","5eff6828a958150135ede8a4","64e77d7b61f440b60e28659d","64ec94c934ac49a2e5f7033d","null","null","<p style=""font-size: 60px; font-family: BACS"">EPERdKlkD</p>","","","","","","","","","",""
"html-keyboard-response","134","188770","0.0-9.0-0.46","5eff6828a958150135ede8a4","64e77d7b61f440b60e28659d","64ec94c934ac49a2e5f7033d","null","null","<p style=""font-size: 60px; font-family: BACS"">UYZlZNmAG</p>","","","","","","","","","",""
"html-keyboard-response","135","189771","0.0-9.0-0.47","5eff6828a958150135ede8a4","64e77d7b61f440b60e28659d","64ec94c934ac49a2e5f7033d","null","null","<p style=""font-size: 60px; font-family: BACS"">DhMtDKP</p>","","","","","","","","","",""
"html-keyboard-response","136","190774","0.0-9.0-0.48","5eff6828a958150135ede8a4","64e77d7b61f440b60e28659d","64ec94c934ac49a2e5f7033d","null","null","<p style=""font-size: 60px; font-family: BACS"">KTDTBYBO</p>","","","","","","","","","",""
"html-keyboard-response","137","191783","0.0-9.0-0.49","5eff6828a958150135ede8a4","64e77d7b61f440b60e28659d","64ec94c934ac49a2e5f7033d","null","null","<p style=""font-size: 60px; font-family: BACS"">bAdkMKmY</p>","","","","","","","","","",""
"html-keyboard-response","138","192799","0.0-9.0-0.50","5eff6828a958150135ede8a4","64e77d7b61f440b60e28659d","64ec94c934ac49a2e5f7033d","null","null","<p style=""font-size: 60px; font-family: BACS"">DhMtDOk</p>","","","","","","","","","",""
"html-keyboard-response","139","193799","0.0-9.0-0.51","5eff6828a958150135ede8a4","64e77d7b61f440b60e28659d","64ec94c934ac49a2e5f7033d","null","null","<p style=""font-size: 60px; font-family: BACS"">LAclAYLU</p>","","","","","","","","","",""
"html-keyboard-response","140","194802","0.0-9.0-0.52","5eff6828a958150135ede8a4","64e77d7b61f440b60e28659d","64ec94c934ac49a2e5f7033d","null","null","<p style=""font-size: 60px; font-family: BACS"">vQdONmAG</p>","","","","","","","","","",""
"html-keyboard-response","141","195818","0.0-9.0-0.53","5eff6828a958150135ede8a4","64e77d7b61f440b60e28659d","64ec94c934ac49a2e5f7033d","null","null","<p style=""font-size: 60px; font-family: BACS"">YZJmuUY</p>","","","","","","","","","",""
"html-keyboard-response","142","196824","0.0-9.0-0.54","5eff6828a958150135ede8a4","64e77d7b61f440b60e28659d","64ec94c934ac49a2e5f7033d","null","null","<p style=""font-size: 60px; font-family: BACS"">PctRCDKP</p>","","","","","","","","","",""
"html-keyboard-response","143","197826","0.0-9.0-0.55","5eff6828a958150135ede8a4","64e77d7b61f440b60e28659d","64ec94c934ac49a2e5f7033d","null","null","<p style=""font-size: 60px; font-family: BACS"">NaAQdYLU</p>","","","","","","","","","",""
"html-keyboard-response","144","198828","0.0-9.0-0.56","5eff6828a958150135ede8a4","64e77d7b61f440b60e28659d","64ec94c934ac49a2e5f7033d","null","null","<p style=""font-size: 60px; font-family: BACS"">KTDTBKlkD</p>","","","","","","","","","",""
"html-keyboard-response","145","199832","0.0-9.0-0.57","5eff6828a958150135ede8a4","64e77d7b61f440b60e28659d","64ec94c934ac49a2e5f7033d","null","null","<p style=""font-size: 60px; font-family: BACS"">NaAQdNmAG</p>","","","","","","","","","",""
"html-keyboard-response","146","200835","0.0-9.0-0.58","5eff6828a958150135ede8a4","64e77d7b61f440b60e28659d","64ec94c934ac49a2e5f7033d","null","null","<p style=""font-size: 60px; font-family: BACS"">MBKREMKmY</p>","","","","","","","","","",""
"html-keyboard-response","147","201851","0.0-9.0-0.59","5eff6828a958150135ede8a4","64e77d7b61f440b60e28659d","64ec94c934ac49a2e5f7033d","null","null","<p style=""font-size: 60px; font-family: BACS"">bAdkDOk</p>","","","","","","","","","",""
"html-keyboard-response","148","202867","0.0-9.0-0.60","5eff6828a958150135ede8a4","64e77d7b61f440b60e28659d","64ec94c934ac49a2e5f7033d","null","null","<p style=""font-size: 60px; font-family: BACS"">OLJblkJdr</p>","","","","","","","","","",""
"html-keyboard-response","149","203868","0.0-9.0-0.61","5eff6828a958150135ede8a4","64e77d7b61f440b60e28659d","64ec94c934ac49a2e5f7033d","null","null","<p style=""font-size: 60px; font-family: BACS"">lGZvukbY</p>","","","","","","","","","",""
"html-keyboard-response","150","204884","0.0-9.0-0.62","5eff6828a958150135ede8a4","64e77d7b61f440b60e28659d","64ec94c934ac49a2e5f7033d","null","null","<p style=""font-size: 60px; font-family: BACS"">DmAMEDKP</p>","","","","","","","","","",""
"html-keyboard-response","151","205891","0.0-9.0-0.63","5eff6828a958150135ede8a4","64e77d7b61f440b60e28659d","64ec94c934ac49a2e5f7033d","null","null","<p style=""font-size: 60px; font-family: BACS"">LAclANmAG</p>","","","","","","","","","",""
"html-keyboard-response","152","206895","0.0-9.0-0.64","5eff6828a958150135ede8a4","64e77d7b61f440b60e28659d","64ec94c934ac49a2e5f7033d","null","null","<p style=""font-size: 60px; font-family: BACS"">tdDdDOk</p>","","","","","","","","","",""
"html-keyboard-response","153","207911","0.0-9.0-0.65","5eff6828a958150135ede8a4","64e77d7b61f440b60e28659d","64ec94c934ac49a2e5f7033d","null","null","<p style=""font-size: 60px; font-family: BACS"">NaAQduUY</p>","","","","","","","","","",""
"html-keyboard-response","154","208916","0.0-9.0-0.66","5eff6828a958150135ede8a4","64e77d7b61f440b60e28659d","64ec94c934ac49a2e5f7033d","null","null","<p style=""font-size: 60px; font-family: BACS"">EPERdDOk</p>","","","","","","","","","",""
"html-keyboard-response","155","209931","0.0-9.0-0.67","5eff6828a958150135ede8a4","64e77d7b61f440b60e28659d","64ec94c934ac49a2e5f7033d","null","null","<p style=""font-size: 60px; font-family: BACS"">PctRCYBO</p>","","","","","","","","","",""
"html-keyboard-response","156","210946","0.0-9.0-0.68","5eff6828a958150135ede8a4","64e77d7b61f440b60e28659d","64ec94c934ac49a2e5f7033d","null","null","<p style=""font-size: 60px; font-family: BACS"">PDPhlKlkD</p>","","","","","","","","","",""
"html-keyboard-response","157","211957","0.0-9.0-0.69","5eff6828a958150135ede8a4","64e77d7b61f440b60e28659d","64ec94c934ac49a2e5f7033d","null","null","<p style=""font-size: 60px; font-family: BACS"">AMkCYBO</p>","","","","","","","","","",""
"html-keyboard-response","158","212970","0.0-9.0-0.70","5eff6828a958150135ede8a4","64e77d7b61f440b60e28659d","64ec94c934ac49a2e5f7033d","null","null","<p style=""font-size: 60px; font-family: BACS"">ukYZYLU</p>","","","","","","","","","",""
"html-keyboard-response","159","213972","0.0-9.0-0.71","5eff6828a958150135ede8a4","64e77d7b61f440b60e28659d","64ec94c934ac49a2e5f7033d","null","null","<p style=""font-size: 60px; font-family: BACS"">UYZlZkJdr</p>","","","","","","","","","",""
"html-keyboard-response","160","214975","0.0-9.0-0.72","5eff6828a958150135ede8a4","64e77d7b61f440b60e28659d","64ec94c934ac49a2e5f7033d","null","null","<p style=""font-size: 60px; font-family: BACS"">DmAMEYBO</p>","","","","","","","","","",""
"html-keyboard-response","161","215979","0.0-9.0-0.73","5eff6828a958150135ede8a4","64e77d7b61f440b60e28659d","64ec94c934ac49a2e5f7033d","null","null","<p style=""font-size: 60px; font-family: BACS"">AMkCDOk</p>","","","","","","","","","",""
"html-keyboard-response","162","216983","0.0-9.0-0.74","5eff6828a958150135ede8a4","64e77d7b61f440b60e28659d","64ec94c934ac49a2e5f7033d","null","null","<p style=""font-size: 60px; font-family: BACS"">bAdkDKP</p>","","","","","","","","","",""
"html-keyboard-response","163","217999","0.0-9.0-0.75","5eff6828a958150135ede8a4","64e77d7b61f440b60e28659d","64ec94c934ac49a2e5f7033d","null","null","<p style=""font-size: 60px; font-family: BACS"">ukYZNmAG</p>","","","","","","","","","",""
"html-keyboard-response","164","219004","0.0-9.0-0.76","5eff6828a958150135ede8a4","64e77d7b61f440b60e28659d","64ec94c934ac49a2e5f7033d","null","null","<p style=""font-size: 60px; font-family: BACS"">MBKREDOk</p>","","","","","","","","","",""
"html-keyboard-response","165","220020","0.0-9.0-0.77","5eff6828a958150135ede8a4","64e77d7b61f440b60e28659d","64ec94c934ac49a2e5f7033d","null","null","<p style=""font-size: 60px; font-family: BACS"">AMkCKlkD</p>","","","","","","","","","",""
"html-keyboard-response","166","221022","0.0-9.0-0.78","5eff6828a958150135ede8a4","64e77d7b61f440b60e28659d","64ec94c934ac49a2e5f7033d","null","null","<p style=""font-size: 60px; font-family: BACS"">YZJmYLU</p>","","","","","","","","","",""
"html-keyboard-response","167","222026","0.0-9.0-0.79","5eff6828a958150135ede8a4","64e77d7b61f440b60e28659d","64ec94c934ac49a2e5f7033d","null","null","<p style=""font-size: 60px; font-family: BACS"">bAdkYBO</p>","","","","","","","","","",""
"html-keyboard-response","168","225732","0.0-10.0","5eff6828a958150135ede8a4","64e77d7b61f440b60e28659d","64ec94c934ac49a2e5f7033d","3706"," ","<p>Great, you've seen the second block of words. You may now take a short break.</p>
      <p>Press the spacebar when you're ready to continue.</p>","","","","","","","","","",""
"html-keyboard-response","169","226735","0.0-11.0-0.0","5eff6828a958150135ede8a4","64e77d7b61f440b60e28659d","64ec94c934ac49a2e5f7033d","null","null","<p style=""font-size: 60px; font-family: BACS"">YZJmkJdr</p>","","","","","","","","","",""
"html-keyboard-response","170","227739","0.0-11.0-0.1","5eff6828a958150135ede8a4","64e77d7b61f440b60e28659d","64ec94c934ac49a2e5f7033d","null","null","<p style=""font-size: 60px; font-family: BACS"">bAdkDKP</p>","","","","","","","","","",""
"html-keyboard-response","171","228742","0.0-11.0-0.2","5eff6828a958150135ede8a4","64e77d7b61f440b60e28659d","64ec94c934ac49a2e5f7033d","null","null","<p style=""font-size: 60px; font-family: BACS"">DmAMEYBO</p>","","","","","","","","","",""
"html-keyboard-response","172","229747","0.0-11.0-0.3","5eff6828a958150135ede8a4","64e77d7b61f440b60e28659d","64ec94c934ac49a2e5f7033d","null","null","<p style=""font-size: 60px; font-family: BACS"">vQdOukbY</p>","","","","","","","","","",""
"html-keyboard-response","173","230757","0.0-11.0-0.4","5eff6828a958150135ede8a4","64e77d7b61f440b60e28659d","64ec94c934ac49a2e5f7033d","null","null","<p style=""font-size: 60px; font-family: BACS"">OLJbluUY</p>","","","","","","","","","",""
"html-keyboard-response","174","231772","0.0-11.0-0.5","5eff6828a958150135ede8a4","64e77d7b61f440b60e28659d","64ec94c934ac49a2e5f7033d","null","null","<p style=""font-size: 60px; font-family: BACS"">PDPhlYBO</p>","","","","","","","","","",""
"html-keyboard-response","175","232784","0.0-11.0-0.6","5eff6828a958150135ede8a4","64e77d7b61f440b60e28659d","64ec94c934ac49a2e5f7033d","null","null","<p style=""font-size: 60px; font-family: BACS"">KTDTBDOk</p>","","","","","","","","","",""
"html-keyboard-response","176","233799","0.0-11.0-0.7","5eff6828a958150135ede8a4","64e77d7b61f440b60e28659d","64ec94c934ac49a2e5f7033d","null","null","<p style=""font-size: 60px; font-family: BACS"">MBKREDKP</p>","","","","","","","","","",""
"html-keyboard-response","177","234807","0.0-11.0-0.8","5eff6828a958150135ede8a4","64e77d7b61f440b60e28659d","64ec94c934ac49a2e5f7033d","null","null","<p style=""font-size: 60px; font-family: BACS"">LAclAukbY</p>","","","","","","","","","",""
"html-keyboard-response","178","235822","0.0-11.0-0.9","5eff6828a958150135ede8a4","64e77d7b61f440b60e28659d","64ec94c934ac49a2e5f7033d","null","null","<p style=""font-size: 60px; font-family: BACS"">PDPhlKlkD</p>","","","","","","","","","",""
"html-keyboard-response","179","236838","0.0-11.0-0.10","5eff6828a958150135ede8a4","64e77d7b61f440b60e28659d","64ec94c934ac49a2e5f7033d","null","null","<p style=""font-size: 60px; font-family: BACS"">PctRCYBO</p>","","","","","","","","","",""
"html-keyboard-response","180","237854","0.0-11.0-0.11","5eff6828a958150135ede8a4","64e77d7b61f440b60e28659d","64ec94c934ac49a2e5f7033d","null","null","<p style=""font-size: 60px; font-family: BACS"">OLJblukbY</p>","","","","","","","","","",""
"html-keyboard-response","181","238868","0.0-11.0-0.12","5eff6828a958150135ede8a4","64e77d7b61f440b60e28659d","64ec94c934ac49a2e5f7033d","null","null","<p style=""font-size: 60px; font-family: BACS"">DmAMEDOk</p>","","","","","","","","","",""
"html-keyboard-response","182","239871","0.0-11.0-0.13","5eff6828a958150135ede8a4","64e77d7b61f440b60e28659d","64ec94c934ac49a2e5f7033d","null","null","<p style=""font-size: 60px; font-family: BACS"">YZJmukbY</p>","","","","","","","","","",""
"html-keyboard-response","183","240874","0.0-11.0-0.14","5eff6828a958150135ede8a4","64e77d7b61f440b60e28659d","64ec94c934ac49a2e5f7033d","null","null","<p style=""font-size: 60px; font-family: BACS"">PctRCKlkD</p>","","","","","","","","","",""
"html-keyboard-response","184","241890","0.0-11.0-0.15","5eff6828a958150135ede8a4","64e77d7b61f440b60e28659d","64ec94c934ac49a2e5f7033d","null","null","<p style=""font-size: 60px; font-family: BACS"">KTDTBDKP</p>","","","","","","","","","",""
"html-keyboard-response","185","242893","0.0-11.0-0.16","5eff6828a958150135ede8a4","64e77d7b61f440b60e28659d","64ec94c934ac49a2e5f7033d","null","null","<p style=""font-size: 60px; font-family: BACS"">ukYZNmAG</p>","","","","","","","","","",""
"html-keyboard-response","186","243898","0.0-11.0-0.17","5eff6828a958150135ede8a4","64e77d7b61f440b60e28659d","64ec94c934ac49a2e5f7033d","null","null","<p style=""font-size: 60px; font-family: BACS"">DhMtKlkD</p>","","","","","","","","","",""
"html-keyboard-response","187","244899","0.0-11.0-0.18","5eff6828a958150135ede8a4","64e77d7b61f440b60e28659d","64ec94c934ac49a2e5f7033d","null","null","<p style=""font-size: 60px; font-family: BACS"">EPERdYBO</p>","","","","","","","","","",""
"html-keyboard-response","188","245913","0.0-11.0-0.19","5eff6828a958150135ede8a4","64e77d7b61f440b60e28659d","64ec94c934ac49a2e5f7033d","null","null","<p style=""font-size: 60px; font-family: BACS"">NvuGrkJdr</p>","","","","","","","","","",""
"html-keyboard-response","189","246921","0.0-11.0-0.20","5eff6828a958150135ede8a4","64e77d7b61f440b60e28659d","64ec94c934ac49a2e5f7033d","null","null","<p style=""font-size: 60px; font-family: BACS"">EPERdKlkD</p>","","","","","","","","","",""
"html-keyboard-response","190","247924","0.0-11.0-0.21","5eff6828a958150135ede8a4","64e77d7b61f440b60e28659d","64ec94c934ac49a2e5f7033d","null","null","<p style=""font-size: 60px; font-family: BACS"">vQdOYLU</p>","","","","","","","","","",""
"html-keyboard-response","191","248938","0.0-11.0-0.22","5eff6828a958150135ede8a4","64e77d7b61f440b60e28659d","64ec94c934ac49a2e5f7033d","null","null","<p style=""font-size: 60px; font-family: BACS"">PctRCMKmY</p>","","","","","","","","","",""
"html-keyboard-response","192","249939","0.0-11.0-0.23","5eff6828a958150135ede8a4","64e77d7b61f440b60e28659d","64ec94c934ac49a2e5f7033d","null","null","<p style=""font-size: 60px; font-family: BACS"">UYZlZkJdr</p>","","","","","","","","","",""
"html-keyboard-response","193","250940","0.0-11.0-0.24","5eff6828a958150135ede8a4","64e77d7b61f440b60e28659d","64ec94c934ac49a2e5f7033d","null","null","<p style=""font-size: 60px; font-family: BACS"">tdDdDOk</p>","","","","","","","","","",""
"html-keyboard-response","194","251943","0.0-11.0-0.25","5eff6828a958150135ede8a4","64e77d7b61f440b60e28659d","64ec94c934ac49a2e5f7033d","null","null","<p style=""font-size: 60px; font-family: BACS"">YLQmGuUY</p>","","","","","","","","","",""
"html-keyboard-response","195","252947","0.0-11.0-0.26","5eff6828a958150135ede8a4","64e77d7b61f440b60e28659d","64ec94c934ac49a2e5f7033d","null","null","<p style=""font-size: 60px; font-family: BACS"">lGZvkJdr</p>","","","","","","","","","",""
"html-keyboard-response","196","253951","0.0-11.0-0.27","5eff6828a958150135ede8a4","64e77d7b61f440b60e28659d","64ec94c934ac49a2e5f7033d","null","null","<p style=""font-size: 60px; font-family: BACS"">AMkCMKmY</p>","","","","","","","","","",""
"html-keyboard-response","197","254966","0.0-11.0-0.28","5eff6828a958150135ede8a4","64e77d7b61f440b60e28659d","64ec94c934ac49a2e5f7033d","null","null","<p style=""font-size: 60px; font-family: BACS"">UYZlZukbY</p>","","","","","","","","","",""
"html-keyboard-response","198","255970","0.0-11.0-0.29","5eff6828a958150135ede8a4","64e77d7b61f440b60e28659d","64ec94c934ac49a2e5f7033d","null","null","<p style=""font-size: 60px; font-family: BACS"">NvuGrNmAG</p>","","","","","","","","","",""
"html-keyboard-response","199","256972","0.0-11.0-0.30","5eff6828a958150135ede8a4","64e77d7b61f440b60e28659d","64ec94c934ac49a2e5f7033d","null","null","<p style=""font-size: 60px; font-family: BACS"">lGZvuUY</p>","","","","","","","","","",""
"html-keyboard-response","200","257976","0.0-11.0-0.31","5eff6828a958150135ede8a4","64e77d7b61f440b60e28659d","64ec94c934ac49a2e5f7033d","null","null","<p style=""font-size: 60px; font-family: BACS"">UYZlZNmAG</p>","","","","","","","","","",""
"html-keyboard-response","201","258979","0.0-11.0-0.32","5eff6828a958150135ede8a4","64e77d7b61f440b60e28659d","64ec94c934ac49a2e5f7033d","null","null","<p style=""font-size: 60px; font-family: BACS"">AMkCYBO</p>","","","","","","","","","",""
"html-keyboard-response","202","259994","0.0-11.0-0.33","5eff6828a958150135ede8a4","64e77d7b61f440b60e28659d","64ec94c934ac49a2e5f7033d","null","null","<p style=""font-size: 60px; font-family: BACS"">ukYZYLU</p>","","","","","","","","","",""
"html-keyboard-response","203","260997","0.0-11.0-0.34","5eff6828a958150135ede8a4","64e77d7b61f440b60e28659d","64ec94c934ac49a2e5f7033d","null","null","<p style=""font-size: 60px; font-family: BACS"">YZJmuUY</p>","","","","","","","","","",""
"html-keyboard-response","204","262004","0.0-11.0-0.35","5eff6828a958150135ede8a4","64e77d7b61f440b60e28659d","64ec94c934ac49a2e5f7033d","null","null","<p style=""font-size: 60px; font-family: BACS"">tdDdMKmY</p>","","","","","","","","","",""
"html-keyboard-response","205","263018","0.0-11.0-0.36","5eff6828a958150135ede8a4","64e77d7b61f440b60e28659d","64ec94c934ac49a2e5f7033d","null","null","<p style=""font-size: 60px; font-family: BACS"">PctRCDKP</p>","","","","","","","","","",""
"html-keyboard-response","206","264022","0.0-11.0-0.37","5eff6828a958150135ede8a4","64e77d7b61f440b60e28659d","64ec94c934ac49a2e5f7033d","null","null","<p style=""font-size: 60px; font-family: BACS"">NaAQduUY</p>","","","","","","","","","",""
"html-keyboard-response","207","265024","0.0-11.0-0.38","5eff6828a958150135ede8a4","64e77d7b61f440b60e28659d","64ec94c934ac49a2e5f7033d","null","null","<p style=""font-size: 60px; font-family: BACS"">AMkCKlkD</p>","","","","","","","","","",""
"html-keyboard-response","208","266036","0.0-11.0-0.39","5eff6828a958150135ede8a4","64e77d7b61f440b60e28659d","64ec94c934ac49a2e5f7033d","null","null","<p style=""font-size: 60px; font-family: BACS"">ukYZuUY</p>","","","","","","","","","",""
"html-keyboard-response","209","267040","0.0-11.0-0.40","5eff6828a958150135ede8a4","64e77d7b61f440b60e28659d","64ec94c934ac49a2e5f7033d","null","null","<p style=""font-size: 60px; font-family: BACS"">EPERdDOk</p>","","","","","","","","","",""
"html-keyboard-response","210","268051","0.0-11.0-0.41","5eff6828a958150135ede8a4","64e77d7b61f440b60e28659d","64ec94c934ac49a2e5f7033d","null","null","<p style=""font-size: 60px; font-family: BACS"">vQdOuUY</p>","","","","","","","","","",""
"html-keyboard-response","211","269052","0.0-11.0-0.42","5eff6828a958150135ede8a4","64e77d7b61f440b60e28659d","64ec94c934ac49a2e5f7033d","null","null","<p style=""font-size: 60px; font-family: BACS"">DhMtYBO</p>","","","","","","","","","",""
"html-keyboard-response","212","270068","0.0-11.0-0.43","5eff6828a958150135ede8a4","64e77d7b61f440b60e28659d","64ec94c934ac49a2e5f7033d","null","null","<p style=""font-size: 60px; font-family: BACS"">AMkCDOk</p>","","","","","","","","","",""
"html-keyboard-response","213","271081","0.0-11.0-0.44","5eff6828a958150135ede8a4","64e77d7b61f440b60e28659d","64ec94c934ac49a2e5f7033d","null","null","<p style=""font-size: 60px; font-family: BACS"">DmAMEDKP</p>","","","","","","","","","",""
"html-keyboard-response","214","272094","0.0-11.0-0.45","5eff6828a958150135ede8a4","64e77d7b61f440b60e28659d","64ec94c934ac49a2e5f7033d","null","null","<p style=""font-size: 60px; font-family: BACS"">NaAQdNmAG</p>","","","","","","","","","",""
"html-keyboard-response","215","273108","0.0-11.0-0.46","5eff6828a958150135ede8a4","64e77d7b61f440b60e28659d","64ec94c934ac49a2e5f7033d","null","null","<p style=""font-size: 60px; font-family: BACS"">YZJmYLU</p>","","","","","","","","","",""
"html-keyboard-response","216","274109","0.0-11.0-0.47","5eff6828a958150135ede8a4","64e77d7b61f440b60e28659d","64ec94c934ac49a2e5f7033d","null","null","<p style=""font-size: 60px; font-family: BACS"">MBKREMKmY</p>","","","","","","","","","",""
"html-keyboard-response","217","275112","0.0-11.0-0.48","5eff6828a958150135ede8a4","64e77d7b61f440b60e28659d","64ec94c934ac49a2e5f7033d","null","null","<p style=""font-size: 60px; font-family: BACS"">ukYZkJdr</p>","","","","","","","","","",""
"html-keyboard-response","218","276114","0.0-11.0-0.49","5eff6828a958150135ede8a4","64e77d7b61f440b60e28659d","64ec94c934ac49a2e5f7033d","null","null","<p style=""font-size: 60px; font-family: BACS"">YLQmGukbY</p>","","","","","","","","","",""
"html-keyboard-response","219","277129","0.0-11.0-0.50","5eff6828a958150135ede8a4","64e77d7b61f440b60e28659d","64ec94c934ac49a2e5f7033d","null","null","<p style=""font-size: 60px; font-family: BACS"">NaAQdYLU</p>","","","","","","","","","",""
"html-keyboard-response","220","278132","0.0-11.0-0.51","5eff6828a958150135ede8a4","64e77d7b61f440b60e28659d","64ec94c934ac49a2e5f7033d","null","null","<p style=""font-size: 60px; font-family: BACS"">tdDdDKP</p>","","","","","","","","","",""
"html-keyboard-response","221","279144","0.0-11.0-0.52","5eff6828a958150135ede8a4","64e77d7b61f440b60e28659d","64ec94c934ac49a2e5f7033d","null","null","<p style=""font-size: 60px; font-family: BACS"">KTDTBKlkD</p>","","","","","","","","","",""
"html-keyboard-response","222","280157","0.0-11.0-0.53","5eff6828a958150135ede8a4","64e77d7b61f440b60e28659d","64ec94c934ac49a2e5f7033d","null","null","<p style=""font-size: 60px; font-family: BACS"">YLQmGYLU</p>","","","","","","","","","",""
"html-keyboard-response","223","281159","0.0-11.0-0.54","5eff6828a958150135ede8a4","64e77d7b61f440b60e28659d","64ec94c934ac49a2e5f7033d","null","null","<p style=""font-size: 60px; font-family: BACS"">OLJblNmAG</p>","","","","","","","","","",""
"html-keyboard-response","224","282160","0.0-11.0-0.55","5eff6828a958150135ede8a4","64e77d7b61f440b60e28659d","64ec94c934ac49a2e5f7033d","null","null","<p style=""font-size: 60px; font-family: BACS"">PDPhlMKmY</p>","","","","","","","","","",""
"html-keyboard-response","225","283170","0.0-11.0-0.56","5eff6828a958150135ede8a4","64e77d7b61f440b60e28659d","64ec94c934ac49a2e5f7033d","null","null","<p style=""font-size: 60px; font-family: BACS"">YLQmGkJdr</p>","","","","","","","","","",""
"html-keyboard-response","226","284184","0.0-11.0-0.57","5eff6828a958150135ede8a4","64e77d7b61f440b60e28659d","64ec94c934ac49a2e5f7033d","null","null","<p style=""font-size: 60px; font-family: BACS"">bAdkDOk</p>","","","","","","","","","",""
"html-keyboard-response","227","285199","0.0-11.0-0.58","5eff6828a958150135ede8a4","64e77d7b61f440b60e28659d","64ec94c934ac49a2e5f7033d","null","null","<p style=""font-size: 60px; font-family: BACS"">LAclANmAG</p>","","","","","","","","","",""
"html-keyboard-response","228","286201","0.0-11.0-0.59","5eff6828a958150135ede8a4","64e77d7b61f440b60e28659d","64ec94c934ac49a2e5f7033d","null","null","<p style=""font-size: 60px; font-family: BACS"">EPERdMKmY</p>","","","","","","","","","",""
"html-keyboard-response","229","287204","0.0-11.0-0.60","5eff6828a958150135ede8a4","64e77d7b61f440b60e28659d","64ec94c934ac49a2e5f7033d","null","null","<p style=""font-size: 60px; font-family: BACS"">DhMtDKP</p>","","","","","","","","","",""
"html-keyboard-response","230","288209","0.0-11.0-0.61","5eff6828a958150135ede8a4","64e77d7b61f440b60e28659d","64ec94c934ac49a2e5f7033d","null","null","<p style=""font-size: 60px; font-family: BACS"">NaAQdkJdr</p>","","","","","","","","","",""
"html-keyboard-response","231","289215","0.0-11.0-0.62","5eff6828a958150135ede8a4","64e77d7b61f440b60e28659d","64ec94c934ac49a2e5f7033d","null","null","<p style=""font-size: 60px; font-family: BACS"">bAdkYBO</p>","","","","","","","","","",""
"html-keyboard-response","232","290230","0.0-11.0-0.63","5eff6828a958150135ede8a4","64e77d7b61f440b60e28659d","64ec94c934ac49a2e5f7033d","null","null","<p style=""font-size: 60px; font-family: BACS"">MBKREKlkD</p>","","","","","","","","","",""
"html-keyboard-response","233","291234","0.0-11.0-0.64","5eff6828a958150135ede8a4","64e77d7b61f440b60e28659d","64ec94c934ac49a2e5f7033d","null","null","<p style=""font-size: 60px; font-family: BACS"">NvuGrYLU</p>","","","","","","","","","",""
"html-keyboard-response","234","292237","0.0-11.0-0.65","5eff6828a958150135ede8a4","64e77d7b61f440b60e28659d","64ec94c934ac49a2e5f7033d","null","null","<p style=""font-size: 60px; font-family: BACS"">DhMtDOk</p>","","","","","","","","","",""
"html-keyboard-response","235","293251","0.0-11.0-0.66","5eff6828a958150135ede8a4","64e77d7b61f440b60e28659d","64ec94c934ac49a2e5f7033d","null","null","<p style=""font-size: 60px; font-family: BACS"">KTDTBYBO</p>","","","","","","","","","",""
"html-keyboard-response","236","294253","0.0-11.0-0.67","5eff6828a958150135ede8a4","64e77d7b61f440b60e28659d","64ec94c934ac49a2e5f7033d","null","null","<p style=""font-size: 60px; font-family: BACS"">DmAMEMKmY</p>","","","","","","","","","",""
"html-keyboard-response","237","295269","0.0-11.0-0.68","5eff6828a958150135ede8a4","64e77d7b61f440b60e28659d","64ec94c934ac49a2e5f7033d","null","null","<p style=""font-size: 60px; font-family: BACS"">lGZvukbY</p>","","","","","","","","","",""
"html-keyboard-response","238","296276","0.0-11.0-0.69","5eff6828a958150135ede8a4","64e77d7b61f440b60e28659d","64ec94c934ac49a2e5f7033d","null","null","<p style=""font-size: 60px; font-family: BACS"">OLJblkJdr</p>","","","","","","","","","",""
"html-keyboard-response","239","297293","0.0-11.0-0.70","5eff6828a958150135ede8a4","64e77d7b61f440b60e28659d","64ec94c934ac49a2e5f7033d","null","null","<p style=""font-size: 60px; font-family: BACS"">PDPhlDKP</p>","","","","","","","","","",""
"html-keyboard-response","240","298307","0.0-11.0-0.71","5eff6828a958150135ede8a4","64e77d7b61f440b60e28659d","64ec94c934ac49a2e5f7033d","null","null","<p style=""font-size: 60px; font-family: BACS"">bAdkMKmY</p>","","","","","","","","","",""
"html-keyboard-response","241","299309","0.0-11.0-0.72","5eff6828a958150135ede8a4","64e77d7b61f440b60e28659d","64ec94c934ac49a2e5f7033d","null","null","<p style=""font-size: 60px; font-family: BACS"">UYZlZYLU</p>","","","","","","","","","",""
"html-keyboard-response","242","300321","0.0-11.0-0.73","5eff6828a958150135ede8a4","64e77d7b61f440b60e28659d","64ec94c934ac49a2e5f7033d","null","null","<p style=""font-size: 60px; font-family: BACS"">NvuGrukbY</p>","","","","","","","","","",""
"html-keyboard-response","243","301333","0.0-11.0-0.74","5eff6828a958150135ede8a4","64e77d7b61f440b60e28659d","64ec94c934ac49a2e5f7033d","null","null","<p style=""font-size: 60px; font-family: BACS"">LAclAYLU</p>","","","","","","","","","",""
"html-keyboard-response","244","302336","0.0-11.0-0.75","5eff6828a958150135ede8a4","64e77d7b61f440b60e28659d","64ec94c934ac49a2e5f7033d","null","null","<p style=""font-size: 60px; font-family: BACS"">lGZvNmAG</p>","","","","","","","","","",""
"html-keyboard-response","245","303350","0.0-11.0-0.76","5eff6828a958150135ede8a4","64e77d7b61f440b60e28659d","64ec94c934ac49a2e5f7033d","null","null","<p style=""font-size: 60px; font-family: BACS"">MBKREDOk</p>","","","","","","","","","",""
"html-keyboard-response","246","304354","0.0-11.0-0.77","5eff6828a958150135ede8a4","64e77d7b61f440b60e28659d","64ec94c934ac49a2e5f7033d","null","null","<p style=""font-size: 60px; font-family: BACS"">vQdONmAG</p>","","","","","","","","","",""
"html-keyboard-response","247","305362","0.0-11.0-0.78","5eff6828a958150135ede8a4","64e77d7b61f440b60e28659d","64ec94c934ac49a2e5f7033d","null","null","<p style=""font-size: 60px; font-family: BACS"">tdDdKlkD</p>","","","","","","","","","",""
"html-keyboard-response","248","306365","0.0-11.0-0.79","5eff6828a958150135ede8a4","64e77d7b61f440b60e28659d","64ec94c934ac49a2e5f7033d","null","null","<p style=""font-size: 60px; font-family: BACS"">LAclAuUY</p>","","","","","","","","","",""
"html-keyboard-response","249","309605","0.0-12.0","5eff6828a958150135ede8a4","64e77d7b61f440b60e28659d","64ec94c934ac49a2e5f7033d","3240"," ","<p>Great, you've seen the third block of words. You may now take a short break.</p>
      <p>Press the spacebar when you're ready to continue.</p>","","","","","","","","","",""
"html-keyboard-response","250","310608","0.0-13.0-0.0","5eff6828a958150135ede8a4","64e77d7b61f440b60e28659d","64ec94c934ac49a2e5f7033d","null","null","<p style=""font-size: 60px; font-family: BACS"">tdDdMKmY</p>","","","","","","","","","",""
"html-keyboard-response","251","311610","0.0-13.0-0.1","5eff6828a958150135ede8a4","64e77d7b61f440b60e28659d","64ec94c934ac49a2e5f7033d","null","null","<p style=""font-size: 60px; font-family: BACS"">LAclAukbY</p>","","","","","","","","","",""
"html-keyboard-response","252","312612","0.0-13.0-0.2","5eff6828a958150135ede8a4","64e77d7b61f440b60e28659d","64ec94c934ac49a2e5f7033d","null","null","<p style=""font-size: 60px; font-family: BACS"">NaAQdNmAG</p>","","","","","","","","","",""
"html-keyboard-response","253","313615","0.0-13.0-0.3","5eff6828a958150135ede8a4","64e77d7b61f440b60e28659d","64ec94c934ac49a2e5f7033d","null","null","<p style=""font-size: 60px; font-family: BACS"">vQdOuUY</p>","","","","","","","","","",""
"html-keyboard-response","254","314619","0.0-13.0-0.4","5eff6828a958150135ede8a4","64e77d7b61f440b60e28659d","64ec94c934ac49a2e5f7033d","null","null","<p style=""font-size: 60px; font-family: BACS"">PDPhlMKmY</p>","","","","","","","","","",""
"html-keyboard-response","255","315621","0.0-13.0-0.5","5eff6828a958150135ede8a4","64e77d7b61f440b60e28659d","64ec94c934ac49a2e5f7033d","null","null","<p style=""font-size: 60px; font-family: BACS"">NvuGrNmAG</p>","","","","","","","","","",""
"html-keyboard-response","256","316622","0.0-13.0-0.6","5eff6828a958150135ede8a4","64e77d7b61f440b60e28659d","64ec94c934ac49a2e5f7033d","null","null","<p style=""font-size: 60px; font-family: BACS"">OLJblkJdr</p>","","","","","","","","","",""
"html-keyboard-response","257","317623","0.0-13.0-0.7","5eff6828a958150135ede8a4","64e77d7b61f440b60e28659d","64ec94c934ac49a2e5f7033d","null","null","<p style=""font-size: 60px; font-family: BACS"">DmAMEMKmY</p>","","","","","","","","","",""
"html-keyboard-response","258","318627","0.0-13.0-0.8","5eff6828a958150135ede8a4","64e77d7b61f440b60e28659d","64ec94c934ac49a2e5f7033d","null","null","<p style=""font-size: 60px; font-family: BACS"">KTDTBYBO</p>","","","","","","","","","",""
"html-keyboard-response","259","319628","0.0-13.0-0.9","5eff6828a958150135ede8a4","64e77d7b61f440b60e28659d","64ec94c934ac49a2e5f7033d","null","null","<p style=""font-size: 60px; font-family: BACS"">lGZvkJdr</p>","","","","","","","","","",""
"html-keyboard-response","260","320642","0.0-13.0-0.10","5eff6828a958150135ede8a4","64e77d7b61f440b60e28659d","64ec94c934ac49a2e5f7033d","null","null","<p style=""font-size: 60px; font-family: BACS"">YLQmGYLU</p>","","","","","","","","","",""
"html-keyboard-response","261","321646","0.0-13.0-0.11","5eff6828a958150135ede8a4","64e77d7b61f440b60e28659d","64ec94c934ac49a2e5f7033d","null","null","<p style=""font-size: 60px; font-family: BACS"">lGZvNmAG</p>","","","","","","","","","",""
"html-keyboard-response","262","322650","0.0-13.0-0.12","5eff6828a958150135ede8a4","64e77d7b61f440b60e28659d","64ec94c934ac49a2e5f7033d","null","null","<p style=""font-size: 60px; font-family: BACS"">bAdkDKP</p>","","","","","","","","","",""
"html-keyboard-response","263","323653","0.0-13.0-0.13","5eff6828a958150135ede8a4","64e77d7b61f440b60e28659d","64ec94c934ac49a2e5f7033d","null","null","<p style=""font-size: 60px; font-family: BACS"">PctRCYBO</p>","","","","","","","","","",""
"html-keyboard-response","264","324653","0.0-13.0-0.14","5eff6828a958150135ede8a4","64e77d7b61f440b60e28659d","64ec94c934ac49a2e5f7033d","null","null","<p style=""font-size: 60px; font-family: BACS"">PDPhlDKP</p>","","","","","","","","","",""
"html-keyboard-response","265","325660","0.0-13.0-0.15","5eff6828a958150135ede8a4","64e77d7b61f440b60e28659d","64ec94c934ac49a2e5f7033d","null","null","<p style=""font-size: 60px; font-family: BACS"">AMkCDOk</p>","","","","","","","","","",""
"html-keyboard-response","266","326662","0.0-13.0-0.16","5eff6828a958150135ede8a4","64e77d7b61f440b60e28659d","64ec94c934ac49a2e5f7033d","null","null","<p style=""font-size: 60px; font-family: BACS"">EPERdMKmY</p>","","","","","","","","","",""
"html-keyboard-response","267","327664","0.0-13.0-0.17","5eff6828a958150135ede8a4","64e77d7b61f440b60e28659d","64ec94c934ac49a2e5f7033d","null","null","<p style=""font-size: 60px; font-family: BACS"">DhMtDOk</p>","","","","","","","","","",""
"html-keyboard-response","268","328668","0.0-13.0-0.18","5eff6828a958150135ede8a4","64e77d7b61f440b60e28659d","64ec94c934ac49a2e5f7033d","null","null","<p style=""font-size: 60px; font-family: BACS"">ukYZkJdr</p>","","","","","","","","","",""
"html-keyboard-response","269","329670","0.0-13.0-0.19","5eff6828a958150135ede8a4","64e77d7b61f440b60e28659d","64ec94c934ac49a2e5f7033d","null","null","<p style=""font-size: 60px; font-family: BACS"">LAclANmAG</p>","","","","","","","","","",""
"html-keyboard-response","270","330678","0.0-13.0-0.20","5eff6828a958150135ede8a4","64e77d7b61f440b60e28659d","64ec94c934ac49a2e5f7033d","null","null","<p style=""font-size: 60px; font-family: BACS"">vQdOukbY</p>","","","","","","","","","",""
"html-keyboard-response","271","331692","0.0-13.0-0.21","5eff6828a958150135ede8a4","64e77d7b61f440b60e28659d","64ec94c934ac49a2e5f7033d","null","null","<p style=""font-size: 60px; font-family: BACS"">KTDTBDOk</p>","","","","","","","","","",""
"html-keyboard-response","272","332706","0.0-13.0-0.22","5eff6828a958150135ede8a4","64e77d7b61f440b60e28659d","64ec94c934ac49a2e5f7033d","null","null","<p style=""font-size: 60px; font-family: BACS"">PctRCMKmY</p>","","","","","","","","","",""
"html-keyboard-response","273","333710","0.0-13.0-0.23","5eff6828a958150135ede8a4","64e77d7b61f440b60e28659d","64ec94c934ac49a2e5f7033d","null","null","<p style=""font-size: 60px; font-family: BACS"">lGZvukbY</p>","","","","","","","","","",""
"html-keyboard-response","274","334725","0.0-13.0-0.24","5eff6828a958150135ede8a4","64e77d7b61f440b60e28659d","64ec94c934ac49a2e5f7033d","null","null","<p style=""font-size: 60px; font-family: BACS"">KTDTBDKP</p>","","","","","","","","","",""
"html-keyboard-response","275","335729","0.0-13.0-0.25","5eff6828a958150135ede8a4","64e77d7b61f440b60e28659d","64ec94c934ac49a2e5f7033d","null","null","<p style=""font-size: 60px; font-family: BACS"">LAclAYLU</p>","","","","","","","","","",""
"html-keyboard-response","276","336744","0.0-13.0-0.26","5eff6828a958150135ede8a4","64e77d7b61f440b60e28659d","64ec94c934ac49a2e5f7033d","null","null","<p style=""font-size: 60px; font-family: BACS"">PctRCDKP</p>","","","","","","","","","",""
"html-keyboard-response","277","337751","0.0-13.0-0.27","5eff6828a958150135ede8a4","64e77d7b61f440b60e28659d","64ec94c934ac49a2e5f7033d","null","null","<p style=""font-size: 60px; font-family: BACS"">AMkCMKmY</p>","","","","","","","","","",""
"html-keyboard-response","278","338767","0.0-13.0-0.28","5eff6828a958150135ede8a4","64e77d7b61f440b60e28659d","64ec94c934ac49a2e5f7033d","null","null","<p style=""font-size: 60px; font-family: BACS"">NvuGrkJdr</p>","","","","","","","","","",""
"html-keyboard-response","279","339771","0.0-13.0-0.29","5eff6828a958150135ede8a4","64e77d7b61f440b60e28659d","64ec94c934ac49a2e5f7033d","null","null","<p style=""font-size: 60px; font-family: BACS"">EPERdDOk</p>","","","","","","","","","",""
"html-keyboard-response","280","340786","0.0-13.0-0.30","5eff6828a958150135ede8a4","64e77d7b61f440b60e28659d","64ec94c934ac49a2e5f7033d","null","null","<p style=""font-size: 60px; font-family: BACS"">PDPhlYBO</p>","","","","","","","","","",""
"html-keyboard-response","281","341791","0.0-13.0-0.31","5eff6828a958150135ede8a4","64e77d7b61f440b60e28659d","64ec94c934ac49a2e5f7033d","null","null","<p style=""font-size: 60px; font-family: BACS"">YLQmGukbY</p>","","","","","","","","","",""
"html-keyboard-response","282","342805","0.0-13.0-0.32","5eff6828a958150135ede8a4","64e77d7b61f440b60e28659d","64ec94c934ac49a2e5f7033d","null","null","<p style=""font-size: 60px; font-family: BACS"">UYZlZkJdr</p>","","","","","","","","","",""
"html-keyboard-response","283","343820","0.0-13.0-0.33","5eff6828a958150135ede8a4","64e77d7b61f440b60e28659d","64ec94c934ac49a2e5f7033d","null","null","<p style=""font-size: 60px; font-family: BACS"">vQdOYLU</p>","","","","","","","","","",""
"html-keyboard-response","284","344834","0.0-13.0-0.34","5eff6828a958150135ede8a4","64e77d7b61f440b60e28659d","64ec94c934ac49a2e5f7033d","null","null","<p style=""font-size: 60px; font-family: BACS"">DmAMEDKP</p>","","","","","","","","","",""
"html-keyboard-response","285","345850","0.0-13.0-0.35","5eff6828a958150135ede8a4","64e77d7b61f440b60e28659d","64ec94c934ac49a2e5f7033d","null","null","<p style=""font-size: 60px; font-family: BACS"">PctRCKlkD</p>","","","","","","","","","",""
"html-keyboard-response","286","346851","0.0-13.0-0.36","5eff6828a958150135ede8a4","64e77d7b61f440b60e28659d","64ec94c934ac49a2e5f7033d","null","null","<p style=""font-size: 60px; font-family: BACS"">YZJmkJdr</p>","","","","","","","","","",""
"html-keyboard-response","287","347866","0.0-13.0-0.37","5eff6828a958150135ede8a4","64e77d7b61f440b60e28659d","64ec94c934ac49a2e5f7033d","null","null","<p style=""font-size: 60px; font-family: BACS"">NaAQdYLU</p>","","","","","","","","","",""
"html-keyboard-response","288","348869","0.0-13.0-0.38","5eff6828a958150135ede8a4","64e77d7b61f440b60e28659d","64ec94c934ac49a2e5f7033d","null","null","<p style=""font-size: 60px; font-family: BACS"">YZJmukbY</p>","","","","","","","","","",""
"html-keyboard-response","289","349883","0.0-13.0-0.39","5eff6828a958150135ede8a4","64e77d7b61f440b60e28659d","64ec94c934ac49a2e5f7033d","null","null","<p style=""font-size: 60px; font-family: BACS"">MBKREDKP</p>","","","","","","","","","",""
"html-keyboard-response","290","350885","0.0-13.0-0.40","5eff6828a958150135ede8a4","64e77d7b61f440b60e28659d","64ec94c934ac49a2e5f7033d","null","null","<p style=""font-size: 60px; font-family: BACS"">OLJblNmAG</p>","","","","","","","","","",""
"html-keyboard-response","291","351896","0.0-13.0-0.41","5eff6828a958150135ede8a4","64e77d7b61f440b60e28659d","64ec94c934ac49a2e5f7033d","null","null","<p style=""font-size: 60px; font-family: BACS"">AMkCYBO</p>","","","","","","","","","",""
"html-keyboard-response","292","352909","0.0-13.0-0.42","5eff6828a958150135ede8a4","64e77d7b61f440b60e28659d","64ec94c934ac49a2e5f7033d","null","null","<p style=""font-size: 60px; font-family: BACS"">DhMtKlkD</p>","","","","","","","","","",""
"html-keyboard-response","293","353926","0.0-13.0-0.43","5eff6828a958150135ede8a4","64e77d7b61f440b60e28659d","64ec94c934ac49a2e5f7033d","null","null","<p style=""font-size: 60px; font-family: BACS"">ukYZuUY</p>","","","","","","","","","",""
"html-keyboard-response","294","354928","0.0-13.0-0.44","5eff6828a958150135ede8a4","64e77d7b61f440b60e28659d","64ec94c934ac49a2e5f7033d","null","null","<p style=""font-size: 60px; font-family: BACS"">OLJblukbY</p>","","","","","","","","","",""
"html-keyboard-response","295","355932","0.0-13.0-0.45","5eff6828a958150135ede8a4","64e77d7b61f440b60e28659d","64ec94c934ac49a2e5f7033d","null","null","<p style=""font-size: 60px; font-family: BACS"">UYZlZYLU</p>","","","","","","","","","",""
"html-keyboard-response","296","356933","0.0-13.0-0.46","5eff6828a958150135ede8a4","64e77d7b61f440b60e28659d","64ec94c934ac49a2e5f7033d","null","null","<p style=""font-size: 60px; font-family: BACS"">bAdkMKmY</p>","","","","","","","","","",""
"html-keyboard-response","297","357939","0.0-13.0-0.47","5eff6828a958150135ede8a4","64e77d7b61f440b60e28659d","64ec94c934ac49a2e5f7033d","null","null","<p style=""font-size: 60px; font-family: BACS"">UYZlZNmAG</p>","","","","","","","","","",""
"html-keyboard-response","298","358954","0.0-13.0-0.48","5eff6828a958150135ede8a4","64e77d7b61f440b60e28659d","64ec94c934ac49a2e5f7033d","null","null","<p style=""font-size: 60px; font-family: BACS"">DmAMEYBO</p>","","","","","","","","","",""
"html-keyboard-response","299","359969","0.0-13.0-0.49","5eff6828a958150135ede8a4","64e77d7b61f440b60e28659d","64ec94c934ac49a2e5f7033d","null","null","<p style=""font-size: 60px; font-family: BACS"">YLQmGuUY</p>","","","","","","","","","",""
"html-keyboard-response","300","360984","0.0-13.0-0.50","5eff6828a958150135ede8a4","64e77d7b61f440b60e28659d","64ec94c934ac49a2e5f7033d","null","null","<p style=""font-size: 60px; font-family: BACS"">NvuGrYLU</p>","","","","","","","","","",""
"html-keyboard-response","301","361996","0.0-13.0-0.51","5eff6828a958150135ede8a4","64e77d7b61f440b60e28659d","64ec94c934ac49a2e5f7033d","null","null","<p style=""font-size: 60px; font-family: BACS"">UYZlZukbY</p>","","","","","","","","","",""
"html-keyboard-response","302","363004","0.0-13.0-0.52","5eff6828a958150135ede8a4","64e77d7b61f440b60e28659d","64ec94c934ac49a2e5f7033d","null","null","<p style=""font-size: 60px; font-family: BACS"">KTDTBKlkD</p>","","","","","","","","","",""
"html-keyboard-response","303","364018","0.0-13.0-0.53","5eff6828a958150135ede8a4","64e77d7b61f440b60e28659d","64ec94c934ac49a2e5f7033d","null","null","<p style=""font-size: 60px; font-family: BACS"">NaAQdkJdr</p>","","","","","","","","","",""
"html-keyboard-response","304","365033","0.0-13.0-0.54","5eff6828a958150135ede8a4","64e77d7b61f440b60e28659d","64ec94c934ac49a2e5f7033d","null","null","<p style=""font-size: 60px; font-family: BACS"">EPERdYBO</p>","","","","","","","","","",""
"html-keyboard-response","305","366037","0.0-13.0-0.55","5eff6828a958150135ede8a4","64e77d7b61f440b60e28659d","64ec94c934ac49a2e5f7033d","null","null","<p style=""font-size: 60px; font-family: BACS"">vQdONmAG</p>","","","","","","","","","",""
"html-keyboard-response","306","367038","0.0-13.0-0.56","5eff6828a958150135ede8a4","64e77d7b61f440b60e28659d","64ec94c934ac49a2e5f7033d","null","null","<p style=""font-size: 60px; font-family: BACS"">lGZvuUY</p>","","","","","","","","","",""
"html-keyboard-response","307","368051","0.0-13.0-0.57","5eff6828a958150135ede8a4","64e77d7b61f440b60e28659d","64ec94c934ac49a2e5f7033d","null","null","<p style=""font-size: 60px; font-family: BACS"">DhMtYBO</p>","","","","","","","","","",""
"html-keyboard-response","308","369066","0.0-13.0-0.58","5eff6828a958150135ede8a4","64e77d7b61f440b60e28659d","64ec94c934ac49a2e5f7033d","null","null","<p style=""font-size: 60px; font-family: BACS"">MBKREDOk</p>","","","","","","","","","",""
"html-keyboard-response","309","370080","0.0-13.0-0.59","5eff6828a958150135ede8a4","64e77d7b61f440b60e28659d","64ec94c934ac49a2e5f7033d","null","null","<p style=""font-size: 60px; font-family: BACS"">ukYZYLU</p>","","","","","","","","","",""
"html-keyboard-response","310","371095","0.0-13.0-0.60","5eff6828a958150135ede8a4","64e77d7b61f440b60e28659d","64ec94c934ac49a2e5f7033d","null","null","<p style=""font-size: 60px; font-family: BACS"">NvuGrukbY</p>","","","","","","","","","",""
"html-keyboard-response","311","372099","0.0-13.0-0.61","5eff6828a958150135ede8a4","64e77d7b61f440b60e28659d","64ec94c934ac49a2e5f7033d","null","null","<p style=""font-size: 60px; font-family: BACS"">PDPhlKlkD</p>","","","","","","","","","",""
"html-keyboard-response","312","373116","0.0-13.0-0.62","5eff6828a958150135ede8a4","64e77d7b61f440b60e28659d","64ec94c934ac49a2e5f7033d","null","null","<p style=""font-size: 60px; font-family: BACS"">YZJmuUY</p>","","","","","","","","","",""
"html-keyboard-response","313","374119","0.0-13.0-0.63","5eff6828a958150135ede8a4","64e77d7b61f440b60e28659d","64ec94c934ac49a2e5f7033d","null","null","<p style=""font-size: 60px; font-family: BACS"">DmAMEDOk</p>","","","","","","","","","",""
"html-keyboard-response","314","375122","0.0-13.0-0.64","5eff6828a958150135ede8a4","64e77d7b61f440b60e28659d","64ec94c934ac49a2e5f7033d","null","null","<p style=""font-size: 60px; font-family: BACS"">ukYZNmAG</p>","","","","","","","","","",""
"html-keyboard-response","315","376125","0.0-13.0-0.65","5eff6828a958150135ede8a4","64e77d7b61f440b60e28659d","64ec94c934ac49a2e5f7033d","null","null","<p style=""font-size: 60px; font-family: BACS"">bAdkDOk</p>","","","","","","","","","",""
"html-keyboard-response","316","377127","0.0-13.0-0.66","5eff6828a958150135ede8a4","64e77d7b61f440b60e28659d","64ec94c934ac49a2e5f7033d","null","null","<p style=""font-size: 60px; font-family: BACS"">NaAQduUY</p>","","","","","","","","","",""
"html-keyboard-response","317","378129","0.0-13.0-0.67","5eff6828a958150135ede8a4","64e77d7b61f440b60e28659d","64ec94c934ac49a2e5f7033d","null","null","<p style=""font-size: 60px; font-family: BACS"">EPERdKlkD</p>","","","","","","","","","",""
"html-keyboard-response","318","379145","0.0-13.0-0.68","5eff6828a958150135ede8a4","64e77d7b61f440b60e28659d","64ec94c934ac49a2e5f7033d","null","null","<p style=""font-size: 60px; font-family: BACS"">LAclAuUY</p>","","","","","","","","","",""
"html-keyboard-response","319","380161","0.0-13.0-0.69","5eff6828a958150135ede8a4","64e77d7b61f440b60e28659d","64ec94c934ac49a2e5f7033d","null","null","<p style=""font-size: 60px; font-family: BACS"">tdDdKlkD</p>","","","","","","","","","",""
"html-keyboard-response","320","381167","0.0-13.0-0.70","5eff6828a958150135ede8a4","64e77d7b61f440b60e28659d","64ec94c934ac49a2e5f7033d","null","null","<p style=""font-size: 60px; font-family: BACS"">YZJmYLU</p>","","","","","","","","","",""
"html-keyboard-response","321","382170","0.0-13.0-0.71","5eff6828a958150135ede8a4","64e77d7b61f440b60e28659d","64ec94c934ac49a2e5f7033d","null","null","<p style=""font-size: 60px; font-family: BACS"">DhMtDKP</p>","","","","","","","","","",""
"html-keyboard-response","322","383185","0.0-13.0-0.72","5eff6828a958150135ede8a4","64e77d7b61f440b60e28659d","64ec94c934ac49a2e5f7033d","null","null","<p style=""font-size: 60px; font-family: BACS"">YLQmGkJdr</p>","","","","","","","","","",""
"html-keyboard-response","323","384187","0.0-13.0-0.73","5eff6828a958150135ede8a4","64e77d7b61f440b60e28659d","64ec94c934ac49a2e5f7033d","null","null","<p style=""font-size: 60px; font-family: BACS"">AMkCKlkD</p>","","","","","","","","","",""
"html-keyboard-response","324","385190","0.0-13.0-0.74","5eff6828a958150135ede8a4","64e77d7b61f440b60e28659d","64ec94c934ac49a2e5f7033d","null","null","<p style=""font-size: 60px; font-family: BACS"">MBKREMKmY</p>","","","","","","","","","",""
"html-keyboard-response","325","386206","0.0-13.0-0.75","5eff6828a958150135ede8a4","64e77d7b61f440b60e28659d","64ec94c934ac49a2e5f7033d","null","null","<p style=""font-size: 60px; font-family: BACS"">tdDdDOk</p>","","","","","","","","","",""
"html-keyboard-response","326","387222","0.0-13.0-0.76","5eff6828a958150135ede8a4","64e77d7b61f440b60e28659d","64ec94c934ac49a2e5f7033d","null","null","<p style=""font-size: 60px; font-family: BACS"">MBKREKlkD</p>","","","","","","","","","",""
"html-keyboard-response","327","388236","0.0-13.0-0.77","5eff6828a958150135ede8a4","64e77d7b61f440b60e28659d","64ec94c934ac49a2e5f7033d","null","null","<p style=""font-size: 60px; font-family: BACS"">bAdkYBO</p>","","","","","","","","","",""
"html-keyboard-response","328","389240","0.0-13.0-0.78","5eff6828a958150135ede8a4","64e77d7b61f440b60e28659d","64ec94c934ac49a2e5f7033d","null","null","<p style=""font-size: 60px; font-family: BACS"">OLJbluUY</p>","","","","","","","","","",""
"html-keyboard-response","329","390243","0.0-13.0-0.79","5eff6828a958150135ede8a4","64e77d7b61f440b60e28659d","64ec94c934ac49a2e5f7033d","null","null","<p style=""font-size: 60px; font-family: BACS"">tdDdDKP</p>","","","","","","","","","",""
"html-keyboard-response","330","394482","0.0-14.0","5eff6828a958150135ede8a4","64e77d7b61f440b60e28659d","64ec94c934ac49a2e5f7033d","4238"," ","<p>Great, you've seen the fourth block of words. You may now take a short break.</p>
      <p>Press the spacebar when you're ready to continue.</p>","","","","","","","","","",""
"html-keyboard-response","331","395482","0.0-15.0-0.0","5eff6828a958150135ede8a4","64e77d7b61f440b60e28659d","64ec94c934ac49a2e5f7033d","null","null","<p style=""font-size: 60px; font-family: BACS"">EPERdDOk</p>","","","","","","","","","",""
"html-keyboard-response","332","396496","0.0-15.0-0.1","5eff6828a958150135ede8a4","64e77d7b61f440b60e28659d","64ec94c934ac49a2e5f7033d","null","null","<p style=""font-size: 60px; font-family: BACS"">EPERdDOk</p>","","","","","","","","","",""
"html-keyboard-response","333","397512","0.0-15.0-0.2","5eff6828a958150135ede8a4","64e77d7b61f440b60e28659d","64ec94c934ac49a2e5f7033d","null","null","<p style=""font-size: 60px; font-family: BACS"">EPERdDOk</p>","","","","","","","","","",""
"html-keyboard-response","334","398527","0.0-15.0-0.3","5eff6828a958150135ede8a4","64e77d7b61f440b60e28659d","64ec94c934ac49a2e5f7033d","null","null","<p style=""font-size: 60px; font-family: BACS"">EPERdDOk</p>","","","","","","","","","",""
"html-keyboard-response","335","399531","0.0-15.0-0.4","5eff6828a958150135ede8a4","64e77d7b61f440b60e28659d","64ec94c934ac49a2e5f7033d","null","null","<p style=""font-size: 60px; font-family: BACS"">EPERdDOk</p>","","","","","","","","","",""
"html-keyboard-response","336","400545","0.0-15.0-0.5","5eff6828a958150135ede8a4","64e77d7b61f440b60e28659d","64ec94c934ac49a2e5f7033d","null","null","<p style=""font-size: 60px; font-family: BACS"">EPERdDOk</p>","","","","","","","","","",""
"html-keyboard-response","337","401551","0.0-15.0-0.6","5eff6828a958150135ede8a4","64e77d7b61f440b60e28659d","64ec94c934ac49a2e5f7033d","null","null","<p style=""font-size: 60px; font-family: BACS"">EPERdDOk</p>","","","","","","","","","",""
"html-keyboard-response","338","402554","0.0-15.0-0.7","5eff6828a958150135ede8a4","64e77d7b61f440b60e28659d","64ec94c934ac49a2e5f7033d","null","null","<p style=""font-size: 60px; font-family: BACS"">EPERdDOk</p>","","","","","","","","","",""
"html-keyboard-response","339","403565","0.0-15.0-0.8","5eff6828a958150135ede8a4","64e77d7b61f440b60e28659d","64ec94c934ac49a2e5f7033d","null","null","<p style=""font-size: 60px; font-family: BACS"">EPERdDOk</p>","","","","","","","","","",""
"html-keyboard-response","340","404568","0.0-15.0-0.9","5eff6828a958150135ede8a4","64e77d7b61f440b60e28659d","64ec94c934ac49a2e5f7033d","null","null","<p style=""font-size: 60px; font-family: BACS"">EPERdDOk</p>","","","","","","","","","",""
"html-keyboard-response","341","405583","0.0-15.0-0.10","5eff6828a958150135ede8a4","64e77d7b61f440b60e28659d","64ec94c934ac49a2e5f7033d","null","null","<p style=""font-size: 60px; font-family: BACS"">EPERdDOk</p>","","","","","","","","","",""
"html-keyboard-response","342","406597","0.0-15.0-0.11","5eff6828a958150135ede8a4","64e77d7b61f440b60e28659d","64ec94c934ac49a2e5f7033d","null","null","<p style=""font-size: 60px; font-family: BACS"">EPERdDOk</p>","","","","","","","","","",""
"html-keyboard-response","343","407599","0.0-15.0-0.12","5eff6828a958150135ede8a4","64e77d7b61f440b60e28659d","64ec94c934ac49a2e5f7033d","null","null","<p style=""font-size: 60px; font-family: BACS"">EPERdDOk</p>","","","","","","","","","",""
"html-keyboard-response","344","408615","0.0-15.0-0.13","5eff6828a958150135ede8a4","64e77d7b61f440b60e28659d","64ec94c934ac49a2e5f7033d","null","null","<p style=""font-size: 60px; font-family: BACS"">EPERdDOk</p>","","","","","","","","","",""
"html-keyboard-response","345","409616","0.0-15.0-0.14","5eff6828a958150135ede8a4","64e77d7b61f440b60e28659d","64ec94c934ac49a2e5f7033d","null","null","<p style=""font-size: 60px; font-family: BACS"">EPERdDOk</p>","","","","","","","","","",""
"html-keyboard-response","346","410618","0.0-15.0-0.15","5eff6828a958150135ede8a4","64e77d7b61f440b60e28659d","64ec94c934ac49a2e5f7033d","null","null","<p style=""font-size: 60px; font-family: BACS"">EPERdDOk</p>","","","","","","","","","",""
"html-keyboard-response","347","411621","0.0-15.0-0.16","5eff6828a958150135ede8a4","64e77d7b61f440b60e28659d","64ec94c934ac49a2e5f7033d","null","null","<p style=""font-size: 60px; font-family: BACS"">EPERdDOk</p>","","","","","","","","","",""
"html-keyboard-response","348","412636","0.0-15.0-0.17","5eff6828a958150135ede8a4","64e77d7b61f440b60e28659d","64ec94c934ac49a2e5f7033d","null","null","<p style=""font-size: 60px; font-family: BACS"">EPERdDOk</p>","","","","","","","","","",""
"html-keyboard-response","349","413638","0.0-15.0-0.18","5eff6828a958150135ede8a4","64e77d7b61f440b60e28659d","64ec94c934ac49a2e5f7033d","null","null","<p style=""font-size: 60px; font-family: BACS"">EPERdDOk</p>","","","","","","","","","",""
"html-keyboard-response","350","414652","0.0-15.0-0.19","5eff6828a958150135ede8a4","64e77d7b61f440b60e28659d","64ec94c934ac49a2e5f7033d","null","null","<p style=""font-size: 60px; font-family: BACS"">EPERdDOk</p>","","","","","","","","","",""
"html-keyboard-response","351","415668","0.0-15.0-0.20","5eff6828a958150135ede8a4","64e77d7b61f440b60e28659d","64ec94c934ac49a2e5f7033d","null","null","<p style=""font-size: 60px; font-family: BACS"">EPERdDOk</p>","","","","","","","","","",""
"html-keyboard-response","352","416669","0.0-15.0-0.21","5eff6828a958150135ede8a4","64e77d7b61f440b60e28659d","64ec94c934ac49a2e5f7033d","null","null","<p style=""font-size: 60px; font-family: BACS"">EPERdDOk</p>","","","","","","","","","",""
"html-keyboard-response","353","417681","0.0-15.0-0.22","5eff6828a958150135ede8a4","64e77d7b61f440b60e28659d","64ec94c934ac49a2e5f7033d","null","null","<p style=""font-size: 60px; font-family: BACS"">EPERdDOk</p>","","","","","","","","","",""
"html-keyboard-response","354","418696","0.0-15.0-0.23","5eff6828a958150135ede8a4","64e77d7b61f440b60e28659d","64ec94c934ac49a2e5f7033d","null","null","<p style=""font-size: 60px; font-family: BACS"">EPERdDOk</p>","","","","","","","","","",""
"html-keyboard-response","355","419698","0.0-15.0-0.24","5eff6828a958150135ede8a4","64e77d7b61f440b60e28659d","64ec94c934ac49a2e5f7033d","null","null","<p style=""font-size: 60px; font-family: BACS"">EPERdDOk</p>","","","","","","","","","",""
"html-keyboard-response","356","420700","0.0-15.0-0.25","5eff6828a958150135ede8a4","64e77d7b61f440b60e28659d","64ec94c934ac49a2e5f7033d","null","null","<p style=""font-size: 60px; font-family: BACS"">EPERdDOk</p>","","","","","","","","","",""
"html-keyboard-response","357","421705","0.0-15.0-0.26","5eff6828a958150135ede8a4","64e77d7b61f440b60e28659d","64ec94c934ac49a2e5f7033d","null","null","<p style=""font-size: 60px; font-family: BACS"">EPERdDOk</p>","","","","","","","","","",""
"html-keyboard-response","358","422708","0.0-15.0-0.27","5eff6828a958150135ede8a4","64e77d7b61f440b60e28659d","64ec94c934ac49a2e5f7033d","null","null","<p style=""font-size: 60px; font-family: BACS"">EPERdDOk</p>","","","","","","","","","",""
"html-keyboard-response","359","423712","0.0-15.0-0.28","5eff6828a958150135ede8a4","64e77d7b61f440b60e28659d","64ec94c934ac49a2e5f7033d","null","null","<p style=""font-size: 60px; font-family: BACS"">EPERdDOk</p>","","","","","","","","","",""
"html-keyboard-response","360","424727","0.0-15.0-0.29","5eff6828a958150135ede8a4","64e77d7b61f440b60e28659d","64ec94c934ac49a2e5f7033d","null","null","<p style=""font-size: 60px; font-family: BACS"">EPERdDOk</p>","","","","","","","","","",""
"html-keyboard-response","361","425740","0.0-15.0-0.30","5eff6828a958150135ede8a4","64e77d7b61f440b60e28659d","64ec94c934ac49a2e5f7033d","null","null","<p style=""font-size: 60px; font-family: BACS"">EPERdDOk</p>","","","","","","","","","",""
"html-keyboard-response","362","426741","0.0-15.0-0.31","5eff6828a958150135ede8a4","64e77d7b61f440b60e28659d","64ec94c934ac49a2e5f7033d","null","null","<p style=""font-size: 60px; font-family: BACS"">EPERdDOk</p>","","","","","","","","","",""
"html-keyboard-response","363","427755","0.0-15.0-0.32","5eff6828a958150135ede8a4","64e77d7b61f440b60e28659d","64ec94c934ac49a2e5f7033d","null","null","<p style=""font-size: 60px; font-family: BACS"">EPERdDOk</p>","","","","","","","","","",""
"html-keyboard-response","364","428770","0.0-15.0-0.33","5eff6828a958150135ede8a4","64e77d7b61f440b60e28659d","64ec94c934ac49a2e5f7033d","null","null","<p style=""font-size: 60px; font-family: BACS"">EPERdDOk</p>","","","","","","","","","",""
"html-keyboard-response","365","429774","0.0-15.0-0.34","5eff6828a958150135ede8a4","64e77d7b61f440b60e28659d","64ec94c934ac49a2e5f7033d","null","null","<p style=""font-size: 60px; font-family: BACS"">EPERdDOk</p>","","","","","","","","","",""
"html-keyboard-response","366","430779","0.0-15.0-0.35","5eff6828a958150135ede8a4","64e77d7b61f440b60e28659d","64ec94c934ac49a2e5f7033d","null","null","<p style=""font-size: 60px; font-family: BACS"">EPERdDOk</p>","","","","","","","","","",""
"html-keyboard-response","367","431782","0.0-15.0-0.36","5eff6828a958150135ede8a4","64e77d7b61f440b60e28659d","64ec94c934ac49a2e5f7033d","null","null","<p style=""font-size: 60px; font-family: BACS"">EPERdDOk</p>","","","","","","","","","",""
"html-keyboard-response","368","432796","0.0-15.0-0.37","5eff6828a958150135ede8a4","64e77d7b61f440b60e28659d","64ec94c934ac49a2e5f7033d","null","null","<p style=""font-size: 60px; font-family: BACS"">EPERdDOk</p>","","","","","","","","","",""
"html-keyboard-response","369","433798","0.0-15.0-0.38","5eff6828a958150135ede8a4","64e77d7b61f440b60e28659d","64ec94c934ac49a2e5f7033d","null","null","<p style=""font-size: 60px; font-family: BACS"">EPERdDOk</p>","","","","","","","","","",""
"html-keyboard-response","370","434801","0.0-15.0-0.39","5eff6828a958150135ede8a4","64e77d7b61f440b60e28659d","64ec94c934ac49a2e5f7033d","null","null","<p style=""font-size: 60px; font-family: BACS"">EPERdDOk</p>","","","","","","","","","",""
"html-keyboard-response","371","435812","0.0-15.0-0.40","5eff6828a958150135ede8a4","64e77d7b61f440b60e28659d","64ec94c934ac49a2e5f7033d","null","null","<p style=""font-size: 60px; font-family: BACS"">EPERdDOk</p>","","","","","","","","","",""
"html-keyboard-response","372","436825","0.0-15.0-0.41","5eff6828a958150135ede8a4","64e77d7b61f440b60e28659d","64ec94c934ac49a2e5f7033d","null","null","<p style=""font-size: 60px; font-family: BACS"">EPERdDOk</p>","","","","","","","","","",""
"html-keyboard-response","373","437832","0.0-15.0-0.42","5eff6828a958150135ede8a4","64e77d7b61f440b60e28659d","64ec94c934ac49a2e5f7033d","null","null","<p style=""font-size: 60px; font-family: BACS"">EPERdDOk</p>","","","","","","","","","",""
"html-keyboard-response","374","438846","0.0-15.0-0.43","5eff6828a958150135ede8a4","64e77d7b61f440b60e28659d","64ec94c934ac49a2e5f7033d","null","null","<p style=""font-size: 60px; font-family: BACS"">EPERdDOk</p>","","","","","","","","","",""
"html-keyboard-response","375","439860","0.0-15.0-0.44","5eff6828a958150135ede8a4","64e77d7b61f440b60e28659d","64ec94c934ac49a2e5f7033d","null","null","<p style=""font-size: 60px; font-family: BACS"">EPERdDOk</p>","","","","","","","","","",""
"html-keyboard-response","376","440862","0.0-15.0-0.45","5eff6828a958150135ede8a4","64e77d7b61f440b60e28659d","64ec94c934ac49a2e5f7033d","null","null","<p style=""font-size: 60px; font-family: BACS"">EPERdDOk</p>","","","","","","","","","",""
"html-keyboard-response","377","441867","0.0-15.0-0.46","5eff6828a958150135ede8a4","64e77d7b61f440b60e28659d","64ec94c934ac49a2e5f7033d","null","null","<p style=""font-size: 60px; font-family: BACS"">EPERdDOk</p>","","","","","","","","","",""
"html-keyboard-response","378","442870","0.0-15.0-0.47","5eff6828a958150135ede8a4","64e77d7b61f440b60e28659d","64ec94c934ac49a2e5f7033d","null","null","<p style=""font-size: 60px; font-family: BACS"">EPERdDOk</p>","","","","","","","","","",""
"html-keyboard-response","379","443872","0.0-15.0-0.48","5eff6828a958150135ede8a4","64e77d7b61f440b60e28659d","64ec94c934ac49a2e5f7033d","null","null","<p style=""font-size: 60px; font-family: BACS"">EPERdDOk</p>","","","","","","","","","",""
"html-keyboard-response","380","444874","0.0-15.0-0.49","5eff6828a958150135ede8a4","64e77d7b61f440b60e28659d","64ec94c934ac49a2e5f7033d","null","null","<p style=""font-size: 60px; font-family: BACS"">EPERdDOk</p>","","","","","","","","","",""
"html-keyboard-response","381","445876","0.0-15.0-0.50","5eff6828a958150135ede8a4","64e77d7b61f440b60e28659d","64ec94c934ac49a2e5f7033d","null","null","<p style=""font-size: 60px; font-family: BACS"">EPERdDOk</p>","","","","","","","","","",""
"html-keyboard-response","382","446880","0.0-15.0-0.51","5eff6828a958150135ede8a4","64e77d7b61f440b60e28659d","64ec94c934ac49a2e5f7033d","null","null","<p style=""font-size: 60px; font-family: BACS"">EPERdDOk</p>","","","","","","","","","",""
"html-keyboard-response","383","447881","0.0-15.0-0.52","5eff6828a958150135ede8a4","64e77d7b61f440b60e28659d","64ec94c934ac49a2e5f7033d","null","null","<p style=""font-size: 60px; font-family: BACS"">EPERdDOk</p>","","","","","","","","","",""
"html-keyboard-response","384","448884","0.0-15.0-0.53","5eff6828a958150135ede8a4","64e77d7b61f440b60e28659d","64ec94c934ac49a2e5f7033d","null","null","<p style=""font-size: 60px; font-family: BACS"">EPERdDOk</p>","","","","","","","","","",""
"html-keyboard-response","385","449888","0.0-15.0-0.54","5eff6828a958150135ede8a4","64e77d7b61f440b60e28659d","64ec94c934ac49a2e5f7033d","null","null","<p style=""font-size: 60px; font-family: BACS"">EPERdDOk</p>","","","","","","","","","",""
"html-keyboard-response","386","450896","0.0-15.0-0.55","5eff6828a958150135ede8a4","64e77d7b61f440b60e28659d","64ec94c934ac49a2e5f7033d","null","null","<p style=""font-size: 60px; font-family: BACS"">EPERdDOk</p>","","","","","","","","","",""
"html-keyboard-response","387","451905","0.0-15.0-0.56","5eff6828a958150135ede8a4","64e77d7b61f440b60e28659d","64ec94c934ac49a2e5f7033d","null","null","<p style=""font-size: 60px; font-family: BACS"">EPERdDOk</p>","","","","","","","","","",""
"html-keyboard-response","388","452912","0.0-15.0-0.57","5eff6828a958150135ede8a4","64e77d7b61f440b60e28659d","64ec94c934ac49a2e5f7033d","null","null","<p style=""font-size: 60px; font-family: BACS"">EPERdDOk</p>","","","","","","","","","",""
"html-keyboard-response","389","453916","0.0-15.0-0.58","5eff6828a958150135ede8a4","64e77d7b61f440b60e28659d","64ec94c934ac49a2e5f7033d","null","null","<p style=""font-size: 60px; font-family: BACS"">EPERdDOk</p>","","","","","","","","","",""
"html-keyboard-response","390","454931","0.0-15.0-0.59","5eff6828a958150135ede8a4","64e77d7b61f440b60e28659d","64ec94c934ac49a2e5f7033d","null","null","<p style=""font-size: 60px; font-family: BACS"">EPERdDOk</p>","","","","","","","","","",""
"html-keyboard-response","391","455945","0.0-15.0-0.60","5eff6828a958150135ede8a4","64e77d7b61f440b60e28659d","64ec94c934ac49a2e5f7033d","null","null","<p style=""font-size: 60px; font-family: BACS"">EPERdDOk</p>","","","","","","","","","",""
"html-keyboard-response","392","456951","0.0-15.0-0.61","5eff6828a958150135ede8a4","64e77d7b61f440b60e28659d","64ec94c934ac49a2e5f7033d","null","null","<p style=""font-size: 60px; font-family: BACS"">EPERdDOk</p>","","","","","","","","","",""
"html-keyboard-response","393","457955","0.0-15.0-0.62","5eff6828a958150135ede8a4","64e77d7b61f440b60e28659d","64ec94c934ac49a2e5f7033d","null","null","<p style=""font-size: 60px; font-family: BACS"">EPERdDOk</p>","","","","","","","","","",""
