"trial_type","trial_index","time_elapsed","internal_node_id","subject_id","study_id","session_id","rt","response","stimulus","success","item","task","correct_response","testing_condition","correct","target","confound","name","view_history"
"pavlovia","0","796","0.0-0.0","5f5282f98bb76c54f2c603a7","64e77d7b61f440b60e28659d","64ec9bdaab6b5d330d2af3a4","","","","","","","","","","","","",""
"survey-html-form","1","22838","0.0-1.0","5f5282f98bb76c54f2c603a7","64e77d7b61f440b60e28659d","64ec9bdaab6b5d330d2af3a4","22040","{""ID"":""5f5282f98bb76c54f2c603a7""}","","","","","","","","","","",""
"html-keyboard-response","2","70751","0.0-2.0","5f5282f98bb76c54f2c603a7","64e77d7b61f440b60e28659d","64ec9bdaab6b5d330d2af3a4","47912"," ","<p style=""font-size: 15px;"">Before beginning, we ask that you read the consent information and confirm your agreement to participate in the experiment.</p>
      <p style=""font-size: 15px;""> We ask that you remember that this is a research project and that your participation is entirely voluntary. You can stop your participation at any time, without needing to provide any explanation. The study we're asking you to participate in aims at examining how readers process written words. You will be engaged in a session of apprximately 20 minutes, followed by a brief questionnaire. You will have the opportunity to take a few breaks during the experiment. You will be paid £4 for your participation, corresponding to a rate of £8/hour. While this experiment looks at cognitive faculties, this experiment doesn't constitute clinical proof of eventual pathologies.</p>
      <p style=""font-size: 15px;"">All of the information collected thanks to yours and others' participation will be held in a secure password-protected server, and will not be shared with anyone not authorised to view it. Your personal information will be kept with an arbitrary participant ID. Thanks to this data anonymity process, any researcher analysing the data won't be able to track the information back to a specific participant. Therefore, this process will make identifying you impossibile, even when results from the study will be published in scientific reviews, presented at congresses, or at any other public forum. More generally, the collected data will be treated in accordance with the laws on privacy and conformity to the Legislative Degree n. 196 ""Code regarding the protection of personal data"" of the 30th of June 2003 and to the European Regulation 2016/670 (General Data Protection Regulation - GDPR). The Data Protection Officer is Avv. Valentina Carollo, who can be contacted at the following email addresses: <a href=""mailto:dpo@sissa.it"">dpo@sissa.it</a> or <a href=""mailto:rpd@sissa.it"">rpd@sissa.it</a> - PEC: <a href=""mailto:protocollo@pec.sissa.it"">protocollo@pec.sissa.it</a>.</p>
      <p style=""font-size: 15px;""> Before expressing your consent to participate, we would like to remind you again that in case you need explanations on any aspect of the experimental procedure, the researcher is at your disposition (<a href=""mailto:aliebelt@sissa.it"">aliebelt@sissa.it</a>, <a href=""mailto:davide.crepaldi@sissa.it"">davide.crepaldi@sissa.it</a>).</p>
      <p style=""font-size: 15px;"">If you would like to download the informed consent form, you can do so here: <a href=""BASL-Informed_Consent.pdf"" download>informed consent form</a>.</p>
      <p style=""font-size: 15px;"">We ask that you press the spacebar to proceed to the consent section.</p>","","","","","","","","","",""
"survey-html-form","3","95726","0.0-3.0","5f5282f98bb76c54f2c603a7","64e77d7b61f440b60e28659d","64ec9bdaab6b5d330d2af3a4","24974","{""consent1"":""YES"",""consent2"":""YES"",""consent3"":""YES"",""consent4"":""YES"",""consent5"":""YES"",""consent6"":""YES""}","","","","","","","","","","",""
"fullscreen","4","101693","0.0-4.0","5f5282f98bb76c54f2c603a7","64e77d7b61f440b60e28659d","64ec9bdaab6b5d330d2af3a4","","","","true","","","","","","","","",""
"html-keyboard-response","5","124576","0.0-5.0","5f5282f98bb76c54f2c603a7","64e77d7b61f440b60e28659d","64ec9bdaab6b5d330d2af3a4","22883"," ","<p>Welcome, and thank you very much for your time!</p>
      <p>In this experiment, you'll be a language expert who's been asked to take a look at words that Earth has received in its first communication with aliens. Your task, in this first part of the experiment, is to pay close attention to the words you'll be shown; later, world leaders will ask you questions on what you saw. The words will be shown to you quite quickly; it seems that the aliens were in a hurry :-)</p>
      <p>Press the spacebar to continue.<p>","","","","","","","","","",""
"html-keyboard-response","6","129730","0.0-6.0","5f5282f98bb76c54f2c603a7","64e77d7b61f440b60e28659d","64ec9bdaab6b5d330d2af3a4","5154"," ","<p>Here is an example of the words you'll see:</p>
      <img src='esempio.png' height='400px'>
      <p>When you're ready to begin, press the spacebar.</p></div>","","","","","","","","","",""
"html-keyboard-response","7","130737","0.0-7.0-0.0","5f5282f98bb76c54f2c603a7","64e77d7b61f440b60e28659d","64ec9bdaab6b5d330d2af3a4","null","null","<p style=""font-size: 60px; font-family: BACS"">ckduAvcb</p>","","","","","","","","","",""
"html-keyboard-response","8","131752","0.0-7.0-0.1","5f5282f98bb76c54f2c603a7","64e77d7b61f440b60e28659d","64ec9bdaab6b5d330d2af3a4","null","null","<p style=""font-size: 60px; font-family: BACS"">AZaJcJUNa</p>","","","","","","","","","",""
"html-keyboard-response","9","132753","0.0-7.0-0.2","5f5282f98bb76c54f2c603a7","64e77d7b61f440b60e28659d","64ec9bdaab6b5d330d2af3a4","null","null","<p style=""font-size: 60px; font-family: BACS"">dmZvmvJQ</p>","","","","","","","","","",""
"html-keyboard-response","10","133763","0.0-7.0-0.3","5f5282f98bb76c54f2c603a7","64e77d7b61f440b60e28659d","64ec9bdaab6b5d330d2af3a4","null","null","<p style=""font-size: 60px; font-family: BACS"">aUZAQvlZ</p>","","","","","","","","","",""
"html-keyboard-response","11","134767","0.0-7.0-0.4","5f5282f98bb76c54f2c603a7","64e77d7b61f440b60e28659d","64ec9bdaab6b5d330d2af3a4","null","null","<p style=""font-size: 60px; font-family: BACS"">ktBdYTOM</p>","","","","","","","","","",""
"html-keyboard-response","12","135780","0.0-7.0-0.5","5f5282f98bb76c54f2c603a7","64e77d7b61f440b60e28659d","64ec9bdaab6b5d330d2af3a4","null","null","<p style=""font-size: 60px; font-family: BACS"">mdlavcb</p>","","","","","","","","","",""
"html-keyboard-response","13","136781","0.0-7.0-0.6","5f5282f98bb76c54f2c603a7","64e77d7b61f440b60e28659d","64ec9bdaab6b5d330d2af3a4","null","null","<p style=""font-size: 60px; font-family: BACS"">mhtcYTOM</p>","","","","","","","","","",""
"html-keyboard-response","14","137793","0.0-7.0-0.7","5f5282f98bb76c54f2c603a7","64e77d7b61f440b60e28659d","64ec9bdaab6b5d330d2af3a4","null","null","<p style=""font-size: 60px; font-family: BACS"">lAOKMPEdK</p>","","","","","","","","","",""
"html-keyboard-response","15","138795","0.0-7.0-0.8","5f5282f98bb76c54f2c603a7","64e77d7b61f440b60e28659d","64ec9bdaab6b5d330d2af3a4","null","null","<p style=""font-size: 60px; font-family: BACS"">ktBdmCd</p>","","","","","","","","","",""
"html-keyboard-response","16","139797","0.0-7.0-0.9","5f5282f98bb76c54f2c603a7","64e77d7b61f440b60e28659d","64ec9bdaab6b5d330d2af3a4","null","null","<p style=""font-size: 60px; font-family: BACS"">aUZANYZu</p>","","","","","","","","","",""
"html-keyboard-response","17","140798","0.0-7.0-0.10","5f5282f98bb76c54f2c603a7","64e77d7b61f440b60e28659d","64ec9bdaab6b5d330d2af3a4","null","null","<p style=""font-size: 60px; font-family: BACS"">YKRkYTOM</p>","","","","","","","","","",""
"html-keyboard-response","18","141804","0.0-7.0-0.11","5f5282f98bb76c54f2c603a7","64e77d7b61f440b60e28659d","64ec9bdaab6b5d330d2af3a4","null","null","<p style=""font-size: 60px; font-family: BACS"">TCbDCPEdK</p>","","","","","","","","","",""
"html-keyboard-response","19","142820","0.0-7.0-0.12","5f5282f98bb76c54f2c603a7","64e77d7b61f440b60e28659d","64ec9bdaab6b5d330d2af3a4","null","null","<p style=""font-size: 60px; font-family: BACS"">mdlaJUNa</p>","","","","","","","","","",""
"html-keyboard-response","20","143836","0.0-7.0-0.13","5f5282f98bb76c54f2c603a7","64e77d7b61f440b60e28659d","64ec9bdaab6b5d330d2af3a4","null","null","<p style=""font-size: 60px; font-family: BACS"">mhtcPEdK</p>","","","","","","","","","",""
"html-keyboard-response","21","144839","0.0-7.0-0.14","5f5282f98bb76c54f2c603a7","64e77d7b61f440b60e28659d","64ec9bdaab6b5d330d2af3a4","null","null","<p style=""font-size: 60px; font-family: BACS"">LQurvcb</p>","","","","","","","","","",""
"html-keyboard-response","22","145853","0.0-7.0-0.15","5f5282f98bb76c54f2c603a7","64e77d7b61f440b60e28659d","64ec9bdaab6b5d330d2af3a4","null","null","<p style=""font-size: 60px; font-family: BACS"">RlAKcbdtK</p>","","","","","","","","","",""
"html-keyboard-response","23","146862","0.0-7.0-0.16","5f5282f98bb76c54f2c603a7","64e77d7b61f440b60e28659d","64ec9bdaab6b5d330d2af3a4","null","null","<p style=""font-size: 60px; font-family: BACS"">tdDdYDE</p>","","","","","","","","","",""
"html-keyboard-response","24","147876","0.0-7.0-0.17","5f5282f98bb76c54f2c603a7","64e77d7b61f440b60e28659d","64ec9bdaab6b5d330d2af3a4","null","null","<p style=""font-size: 60px; font-family: BACS"">RlAKcYTOM</p>","","","","","","","","","",""
"html-keyboard-response","25","148877","0.0-7.0-0.18","5f5282f98bb76c54f2c603a7","64e77d7b61f440b60e28659d","64ec9bdaab6b5d330d2af3a4","null","null","<p style=""font-size: 60px; font-family: BACS"">Udbdvcb</p>","","","","","","","","","",""
"html-keyboard-response","26","149878","0.0-7.0-0.19","5f5282f98bb76c54f2c603a7","64e77d7b61f440b60e28659d","64ec9bdaab6b5d330d2af3a4","null","null","<p style=""font-size: 60px; font-family: BACS"">mbZlQvlZ</p>","","","","","","","","","",""
"html-keyboard-response","27","150880","0.0-7.0-0.20","5f5282f98bb76c54f2c603a7","64e77d7b61f440b60e28659d","64ec9bdaab6b5d330d2af3a4","null","null","<p style=""font-size: 60px; font-family: BACS"">dmZvmNYZu</p>","","","","","","","","","",""
"html-keyboard-response","28","151893","0.0-7.0-0.21","5f5282f98bb76c54f2c603a7","64e77d7b61f440b60e28659d","64ec9bdaab6b5d330d2af3a4","null","null","<p style=""font-size: 60px; font-family: BACS"">tdDdbdtK</p>","","","","","","","","","",""
"html-keyboard-response","29","152895","0.0-7.0-0.22","5f5282f98bb76c54f2c603a7","64e77d7b61f440b60e28659d","64ec9bdaab6b5d330d2af3a4","null","null","<p style=""font-size: 60px; font-family: BACS"">NbacANYZu</p>","","","","","","","","","",""
"html-keyboard-response","30","153908","0.0-7.0-0.23","5f5282f98bb76c54f2c603a7","64e77d7b61f440b60e28659d","64ec9bdaab6b5d330d2af3a4","null","null","<p style=""font-size: 60px; font-family: BACS"">LQurvJQ</p>","","","","","","","","","",""
"html-keyboard-response","31","154925","0.0-7.0-0.24","5f5282f98bb76c54f2c603a7","64e77d7b61f440b60e28659d","64ec9bdaab6b5d330d2af3a4","null","null","<p style=""font-size: 60px; font-family: BACS"">NbacAJUNa</p>","","","","","","","","","",""
"html-keyboard-response","32","155926","0.0-7.0-0.25","5f5282f98bb76c54f2c603a7","64e77d7b61f440b60e28659d","64ec9bdaab6b5d330d2af3a4","null","null","<p style=""font-size: 60px; font-family: BACS"">TdTDYDE</p>","","","","","","","","","",""
"html-keyboard-response","33","156936","0.0-7.0-0.26","5f5282f98bb76c54f2c603a7","64e77d7b61f440b60e28659d","64ec9bdaab6b5d330d2af3a4","null","null","<p style=""font-size: 60px; font-family: BACS"">mBmlAbdtK</p>","","","","","","","","","",""
"html-keyboard-response","34","157949","0.0-7.0-0.27","5f5282f98bb76c54f2c603a7","64e77d7b61f440b60e28659d","64ec9bdaab6b5d330d2af3a4","null","null","<p style=""font-size: 60px; font-family: BACS"">AZaJcvJQ</p>","","","","","","","","","",""
"html-keyboard-response","35","158963","0.0-7.0-0.28","5f5282f98bb76c54f2c603a7","64e77d7b61f440b60e28659d","64ec9bdaab6b5d330d2af3a4","null","null","<p style=""font-size: 60px; font-family: BACS"">mBmlAYDE</p>","","","","","","","","","",""
"html-keyboard-response","36","159977","0.0-7.0-0.29","5f5282f98bb76c54f2c603a7","64e77d7b61f440b60e28659d","64ec9bdaab6b5d330d2af3a4","null","null","<p style=""font-size: 60px; font-family: BACS"">TdTDbdtK</p>","","","","","","","","","",""
"html-keyboard-response","37","160978","0.0-7.0-0.30","5f5282f98bb76c54f2c603a7","64e77d7b61f440b60e28659d","64ec9bdaab6b5d330d2af3a4","null","null","<p style=""font-size: 60px; font-family: BACS"">DmAMEPEdK</p>","","","","","","","","","",""
"html-keyboard-response","38","161985","0.0-7.0-0.31","5f5282f98bb76c54f2c603a7","64e77d7b61f440b60e28659d","64ec9bdaab6b5d330d2af3a4","null","null","<p style=""font-size: 60px; font-family: BACS"">TdTDYTOM</p>","","","","","","","","","",""
"html-keyboard-response","39","163001","0.0-7.0-0.32","5f5282f98bb76c54f2c603a7","64e77d7b61f440b60e28659d","64ec9bdaab6b5d330d2af3a4","null","null","<p style=""font-size: 60px; font-family: BACS"">mdlavJQ</p>","","","","","","","","","",""
"html-keyboard-response","40","164014","0.0-7.0-0.33","5f5282f98bb76c54f2c603a7","64e77d7b61f440b60e28659d","64ec9bdaab6b5d330d2af3a4","null","null","<p style=""font-size: 60px; font-family: BACS"">mBmlAmCd</p>","","","","","","","","","",""
"html-keyboard-response","41","165028","0.0-7.0-0.34","5f5282f98bb76c54f2c603a7","64e77d7b61f440b60e28659d","64ec9bdaab6b5d330d2af3a4","null","null","<p style=""font-size: 60px; font-family: BACS"">AZaJcQvlZ</p>","","","","","","","","","",""
"html-keyboard-response","42","166042","0.0-7.0-0.35","5f5282f98bb76c54f2c603a7","64e77d7b61f440b60e28659d","64ec9bdaab6b5d330d2af3a4","null","null","<p style=""font-size: 60px; font-family: BACS"">mbZlJUNa</p>","","","","","","","","","",""
"html-keyboard-response","43","167052","0.0-7.0-0.36","5f5282f98bb76c54f2c603a7","64e77d7b61f440b60e28659d","64ec9bdaab6b5d330d2af3a4","null","null","<p style=""font-size: 60px; font-family: BACS"">YKRkbdtK</p>","","","","","","","","","",""
"html-keyboard-response","44","168065","0.0-7.0-0.37","5f5282f98bb76c54f2c603a7","64e77d7b61f440b60e28659d","64ec9bdaab6b5d330d2af3a4","null","null","<p style=""font-size: 60px; font-family: BACS"">tdDdYTOM</p>","","","","","","","","","",""
"html-keyboard-response","45","169079","0.0-7.0-0.38","5f5282f98bb76c54f2c603a7","64e77d7b61f440b60e28659d","64ec9bdaab6b5d330d2af3a4","null","null","<p style=""font-size: 60px; font-family: BACS"">GNAcaJUNa</p>","","","","","","","","","",""
"html-keyboard-response","46","170092","0.0-7.0-0.39","5f5282f98bb76c54f2c603a7","64e77d7b61f440b60e28659d","64ec9bdaab6b5d330d2af3a4","null","null","<p style=""font-size: 60px; font-family: BACS"">dmZvmvcb</p>","","","","","","","","","",""
"html-keyboard-response","47","171094","0.0-7.0-0.40","5f5282f98bb76c54f2c603a7","64e77d7b61f440b60e28659d","64ec9bdaab6b5d330d2af3a4","null","null","<p style=""font-size: 60px; font-family: BACS"">TCbDCYDE</p>","","","","","","","","","",""
"html-keyboard-response","48","172097","0.0-7.0-0.41","5f5282f98bb76c54f2c603a7","64e77d7b61f440b60e28659d","64ec9bdaab6b5d330d2af3a4","null","null","<p style=""font-size: 60px; font-family: BACS"">RlAKcmCd</p>","","","","","","","","","",""
"html-keyboard-response","49","173101","0.0-7.0-0.42","5f5282f98bb76c54f2c603a7","64e77d7b61f440b60e28659d","64ec9bdaab6b5d330d2af3a4","null","null","<p style=""font-size: 60px; font-family: BACS"">DmAMEbdtK</p>","","","","","","","","","",""
"html-keyboard-response","50","174117","0.0-7.0-0.43","5f5282f98bb76c54f2c603a7","64e77d7b61f440b60e28659d","64ec9bdaab6b5d330d2af3a4","null","null","<p style=""font-size: 60px; font-family: BACS"">mbZlvJQ</p>","","","","","","","","","",""
"html-keyboard-response","51","175131","0.0-7.0-0.44","5f5282f98bb76c54f2c603a7","64e77d7b61f440b60e28659d","64ec9bdaab6b5d330d2af3a4","null","null","<p style=""font-size: 60px; font-family: BACS"">ckduANYZu</p>","","","","","","","","","",""
"html-keyboard-response","52","176145","0.0-7.0-0.45","5f5282f98bb76c54f2c603a7","64e77d7b61f440b60e28659d","64ec9bdaab6b5d330d2af3a4","null","null","<p style=""font-size: 60px; font-family: BACS"">GNAcaQvlZ</p>","","","","","","","","","",""
"html-keyboard-response","53","177160","0.0-7.0-0.46","5f5282f98bb76c54f2c603a7","64e77d7b61f440b60e28659d","64ec9bdaab6b5d330d2af3a4","null","null","<p style=""font-size: 60px; font-family: BACS"">mhtcbdtK</p>","","","","","","","","","",""
"html-keyboard-response","54","178161","0.0-7.0-0.47","5f5282f98bb76c54f2c603a7","64e77d7b61f440b60e28659d","64ec9bdaab6b5d330d2af3a4","null","null","<p style=""font-size: 60px; font-family: BACS"">aUZAJUNa</p>","","","","","","","","","",""
"html-keyboard-response","55","179162","0.0-7.0-0.48","5f5282f98bb76c54f2c603a7","64e77d7b61f440b60e28659d","64ec9bdaab6b5d330d2af3a4","null","null","<p style=""font-size: 60px; font-family: BACS"">DmAMEmCd</p>","","","","","","","","","",""
"html-keyboard-response","56","180171","0.0-7.0-0.49","5f5282f98bb76c54f2c603a7","64e77d7b61f440b60e28659d","64ec9bdaab6b5d330d2af3a4","null","null","<p style=""font-size: 60px; font-family: BACS"">dmZvmQvlZ</p>","","","","","","","","","",""
"html-keyboard-response","57","181173","0.0-7.0-0.50","5f5282f98bb76c54f2c603a7","64e77d7b61f440b60e28659d","64ec9bdaab6b5d330d2af3a4","null","null","<p style=""font-size: 60px; font-family: BACS"">NbacAvcb</p>","","","","","","","","","",""
"html-keyboard-response","58","182181","0.0-7.0-0.51","5f5282f98bb76c54f2c603a7","64e77d7b61f440b60e28659d","64ec9bdaab6b5d330d2af3a4","null","null","<p style=""font-size: 60px; font-family: BACS"">tdDdmCd</p>","","","","","","","","","",""
"html-keyboard-response","59","183184","0.0-7.0-0.52","5f5282f98bb76c54f2c603a7","64e77d7b61f440b60e28659d","64ec9bdaab6b5d330d2af3a4","null","null","<p style=""font-size: 60px; font-family: BACS"">NbacAQvlZ</p>","","","","","","","","","",""
"html-keyboard-response","60","184185","0.0-7.0-0.53","5f5282f98bb76c54f2c603a7","64e77d7b61f440b60e28659d","64ec9bdaab6b5d330d2af3a4","null","null","<p style=""font-size: 60px; font-family: BACS"">lAOKMYDE</p>","","","","","","","","","",""
"html-keyboard-response","61","185200","0.0-7.0-0.54","5f5282f98bb76c54f2c603a7","64e77d7b61f440b60e28659d","64ec9bdaab6b5d330d2af3a4","null","null","<p style=""font-size: 60px; font-family: BACS"">TdTDPEdK</p>","","","","","","","","","",""
"html-keyboard-response","62","186201","0.0-7.0-0.55","5f5282f98bb76c54f2c603a7","64e77d7b61f440b60e28659d","64ec9bdaab6b5d330d2af3a4","null","null","<p style=""font-size: 60px; font-family: BACS"">mhtcYDE</p>","","","","","","","","","",""
"html-keyboard-response","63","187218","0.0-7.0-0.56","5f5282f98bb76c54f2c603a7","64e77d7b61f440b60e28659d","64ec9bdaab6b5d330d2af3a4","null","null","<p style=""font-size: 60px; font-family: BACS"">AZaJcNYZu</p>","","","","","","","","","",""
"html-keyboard-response","64","188233","0.0-7.0-0.57","5f5282f98bb76c54f2c603a7","64e77d7b61f440b60e28659d","64ec9bdaab6b5d330d2af3a4","null","null","<p style=""font-size: 60px; font-family: BACS"">ckduAvJQ</p>","","","","","","","","","",""
"html-keyboard-response","65","189234","0.0-7.0-0.58","5f5282f98bb76c54f2c603a7","64e77d7b61f440b60e28659d","64ec9bdaab6b5d330d2af3a4","null","null","<p style=""font-size: 60px; font-family: BACS"">YKRkPEdK</p>","","","","","","","","","",""
"html-keyboard-response","66","190245","0.0-7.0-0.59","5f5282f98bb76c54f2c603a7","64e77d7b61f440b60e28659d","64ec9bdaab6b5d330d2af3a4","null","null","<p style=""font-size: 60px; font-family: BACS"">TCbDCbdtK</p>","","","","","","","","","",""
"html-keyboard-response","67","191254","0.0-7.0-0.60","5f5282f98bb76c54f2c603a7","64e77d7b61f440b60e28659d","64ec9bdaab6b5d330d2af3a4","null","null","<p style=""font-size: 60px; font-family: BACS"">LQurQvlZ</p>","","","","","","","","","",""
"html-keyboard-response","68","192269","0.0-7.0-0.61","5f5282f98bb76c54f2c603a7","64e77d7b61f440b60e28659d","64ec9bdaab6b5d330d2af3a4","null","null","<p style=""font-size: 60px; font-family: BACS"">DmAMEYTOM</p>","","","","","","","","","",""
"html-keyboard-response","69","193282","0.0-7.0-0.62","5f5282f98bb76c54f2c603a7","64e77d7b61f440b60e28659d","64ec9bdaab6b5d330d2af3a4","null","null","<p style=""font-size: 60px; font-family: BACS"">LQurNYZu</p>","","","","","","","","","",""
"html-keyboard-response","70","194296","0.0-7.0-0.63","5f5282f98bb76c54f2c603a7","64e77d7b61f440b60e28659d","64ec9bdaab6b5d330d2af3a4","null","null","<p style=""font-size: 60px; font-family: BACS"">mBmlAPEdK</p>","","","","","","","","","",""
"html-keyboard-response","71","195311","0.0-7.0-0.64","5f5282f98bb76c54f2c603a7","64e77d7b61f440b60e28659d","64ec9bdaab6b5d330d2af3a4","null","null","<p style=""font-size: 60px; font-family: BACS"">GNAcaNYZu</p>","","","","","","","","","",""
"html-keyboard-response","72","196324","0.0-7.0-0.65","5f5282f98bb76c54f2c603a7","64e77d7b61f440b60e28659d","64ec9bdaab6b5d330d2af3a4","null","null","<p style=""font-size: 60px; font-family: BACS"">RlAKcYDE</p>","","","","","","","","","",""
"html-keyboard-response","73","197326","0.0-7.0-0.66","5f5282f98bb76c54f2c603a7","64e77d7b61f440b60e28659d","64ec9bdaab6b5d330d2af3a4","null","null","<p style=""font-size: 60px; font-family: BACS"">ckduAJUNa</p>","","","","","","","","","",""
"html-keyboard-response","74","198327","0.0-7.0-0.67","5f5282f98bb76c54f2c603a7","64e77d7b61f440b60e28659d","64ec9bdaab6b5d330d2af3a4","null","null","<p style=""font-size: 60px; font-family: BACS"">aUZAvcb</p>","","","","","","","","","",""
"html-keyboard-response","75","199328","0.0-7.0-0.68","5f5282f98bb76c54f2c603a7","64e77d7b61f440b60e28659d","64ec9bdaab6b5d330d2af3a4","null","null","<p style=""font-size: 60px; font-family: BACS"">UdbdJUNa</p>","","","","","","","","","",""
"html-keyboard-response","76","200343","0.0-7.0-0.69","5f5282f98bb76c54f2c603a7","64e77d7b61f440b60e28659d","64ec9bdaab6b5d330d2af3a4","null","null","<p style=""font-size: 60px; font-family: BACS"">GNAcavJQ</p>","","","","","","","","","",""
"html-keyboard-response","77","201356","0.0-7.0-0.70","5f5282f98bb76c54f2c603a7","64e77d7b61f440b60e28659d","64ec9bdaab6b5d330d2af3a4","null","null","<p style=""font-size: 60px; font-family: BACS"">mdlaQvlZ</p>","","","","","","","","","",""
"html-keyboard-response","78","202357","0.0-7.0-0.71","5f5282f98bb76c54f2c603a7","64e77d7b61f440b60e28659d","64ec9bdaab6b5d330d2af3a4","null","null","<p style=""font-size: 60px; font-family: BACS"">UdbdNYZu</p>","","","","","","","","","",""
"html-keyboard-response","79","203372","0.0-7.0-0.72","5f5282f98bb76c54f2c603a7","64e77d7b61f440b60e28659d","64ec9bdaab6b5d330d2af3a4","null","null","<p style=""font-size: 60px; font-family: BACS"">mbZlvcb</p>","","","","","","","","","",""
"html-keyboard-response","80","204385","0.0-7.0-0.73","5f5282f98bb76c54f2c603a7","64e77d7b61f440b60e28659d","64ec9bdaab6b5d330d2af3a4","null","null","<p style=""font-size: 60px; font-family: BACS"">lAOKMYTOM</p>","","","","","","","","","",""
"html-keyboard-response","81","205397","0.0-7.0-0.74","5f5282f98bb76c54f2c603a7","64e77d7b61f440b60e28659d","64ec9bdaab6b5d330d2af3a4","null","null","<p style=""font-size: 60px; font-family: BACS"">ktBdYDE</p>","","","","","","","","","",""
"html-keyboard-response","82","206398","0.0-7.0-0.75","5f5282f98bb76c54f2c603a7","64e77d7b61f440b60e28659d","64ec9bdaab6b5d330d2af3a4","null","null","<p style=""font-size: 60px; font-family: BACS"">lAOKMmCd</p>","","","","","","","","","",""
"html-keyboard-response","83","207400","0.0-7.0-0.76","5f5282f98bb76c54f2c603a7","64e77d7b61f440b60e28659d","64ec9bdaab6b5d330d2af3a4","null","null","<p style=""font-size: 60px; font-family: BACS"">ktBdPEdK</p>","","","","","","","","","",""
"html-keyboard-response","84","208402","0.0-7.0-0.77","5f5282f98bb76c54f2c603a7","64e77d7b61f440b60e28659d","64ec9bdaab6b5d330d2af3a4","null","null","<p style=""font-size: 60px; font-family: BACS"">TCbDCmCd</p>","","","","","","","","","",""
"html-keyboard-response","85","209419","0.0-7.0-0.78","5f5282f98bb76c54f2c603a7","64e77d7b61f440b60e28659d","64ec9bdaab6b5d330d2af3a4","null","null","<p style=""font-size: 60px; font-family: BACS"">UdbdvJQ</p>","","","","","","","","","",""
"html-keyboard-response","86","210420","0.0-7.0-0.79","5f5282f98bb76c54f2c603a7","64e77d7b61f440b60e28659d","64ec9bdaab6b5d330d2af3a4","null","null","<p style=""font-size: 60px; font-family: BACS"">YKRkmCd</p>","","","","","","","","","",""
"html-keyboard-response","87","223017","0.0-8.0","5f5282f98bb76c54f2c603a7","64e77d7b61f440b60e28659d","64ec9bdaab6b5d330d2af3a4","12596"," ","<p>Great, you've seen the first block of words. You may now take a short break.</p>
      <p>Press the spacebar when you're ready to continue.</p>","","","","","","","","","",""
"html-keyboard-response","88","224033","0.0-9.0-0.0","5f5282f98bb76c54f2c603a7","64e77d7b61f440b60e28659d","64ec9bdaab6b5d330d2af3a4","null","null","<p style=""font-size: 60px; font-family: BACS"">tdDdbdtK</p>","","","","","","","","","",""
"html-keyboard-response","89","225047","0.0-9.0-0.1","5f5282f98bb76c54f2c603a7","64e77d7b61f440b60e28659d","64ec9bdaab6b5d330d2af3a4","null","null","<p style=""font-size: 60px; font-family: BACS"">TdTDPEdK</p>","","","","","","","","","",""
"html-keyboard-response","90","226059","0.0-9.0-0.2","5f5282f98bb76c54f2c603a7","64e77d7b61f440b60e28659d","64ec9bdaab6b5d330d2af3a4","null","null","<p style=""font-size: 60px; font-family: BACS"">dmZvmNYZu</p>","","","","","","","","","",""
"html-keyboard-response","91","227073","0.0-9.0-0.3","5f5282f98bb76c54f2c603a7","64e77d7b61f440b60e28659d","64ec9bdaab6b5d330d2af3a4","null","null","<p style=""font-size: 60px; font-family: BACS"">ktBdPEdK</p>","","","","","","","","","",""
"html-keyboard-response","92","228088","0.0-9.0-0.4","5f5282f98bb76c54f2c603a7","64e77d7b61f440b60e28659d","64ec9bdaab6b5d330d2af3a4","null","null","<p style=""font-size: 60px; font-family: BACS"">ckduAvcb</p>","","","","","","","","","",""
"html-keyboard-response","93","229104","0.0-9.0-0.5","5f5282f98bb76c54f2c603a7","64e77d7b61f440b60e28659d","64ec9bdaab6b5d330d2af3a4","null","null","<p style=""font-size: 60px; font-family: BACS"">TCbDCYDE</p>","","","","","","","","","",""
"html-keyboard-response","94","230117","0.0-9.0-0.6","5f5282f98bb76c54f2c603a7","64e77d7b61f440b60e28659d","64ec9bdaab6b5d330d2af3a4","null","null","<p style=""font-size: 60px; font-family: BACS"">DmAMEmCd</p>","","","","","","","","","",""
"html-keyboard-response","95","231132","0.0-9.0-0.7","5f5282f98bb76c54f2c603a7","64e77d7b61f440b60e28659d","64ec9bdaab6b5d330d2af3a4","null","null","<p style=""font-size: 60px; font-family: BACS"">mdlavJQ</p>","","","","","","","","","",""
"html-keyboard-response","96","232147","0.0-9.0-0.8","5f5282f98bb76c54f2c603a7","64e77d7b61f440b60e28659d","64ec9bdaab6b5d330d2af3a4","null","null","<p style=""font-size: 60px; font-family: BACS"">mBmlAPEdK</p>","","","","","","","","","",""
"html-keyboard-response","97","233161","0.0-9.0-0.9","5f5282f98bb76c54f2c603a7","64e77d7b61f440b60e28659d","64ec9bdaab6b5d330d2af3a4","null","null","<p style=""font-size: 60px; font-family: BACS"">GNAcavJQ</p>","","","","","","","","","",""
"html-keyboard-response","98","234162","0.0-9.0-0.10","5f5282f98bb76c54f2c603a7","64e77d7b61f440b60e28659d","64ec9bdaab6b5d330d2af3a4","null","null","<p style=""font-size: 60px; font-family: BACS"">aUZANYZu</p>","","","","","","","","","",""
"html-keyboard-response","99","235164","0.0-9.0-0.11","5f5282f98bb76c54f2c603a7","64e77d7b61f440b60e28659d","64ec9bdaab6b5d330d2af3a4","null","null","<p style=""font-size: 60px; font-family: BACS"">TCbDCbdtK</p>","","","","","","","","","",""
"html-keyboard-response","100","236177","0.0-9.0-0.12","5f5282f98bb76c54f2c603a7","64e77d7b61f440b60e28659d","64ec9bdaab6b5d330d2af3a4","null","null","<p style=""font-size: 60px; font-family: BACS"">NbacAJUNa</p>","","","","","","","","","",""
"html-keyboard-response","101","237178","0.0-9.0-0.13","5f5282f98bb76c54f2c603a7","64e77d7b61f440b60e28659d","64ec9bdaab6b5d330d2af3a4","null","null","<p style=""font-size: 60px; font-family: BACS"">TdTDbdtK</p>","","","","","","","","","",""
"html-keyboard-response","102","238179","0.0-9.0-0.14","5f5282f98bb76c54f2c603a7","64e77d7b61f440b60e28659d","64ec9bdaab6b5d330d2af3a4","null","null","<p style=""font-size: 60px; font-family: BACS"">mbZlvcb</p>","","","","","","","","","",""
"html-keyboard-response","103","239194","0.0-9.0-0.15","5f5282f98bb76c54f2c603a7","64e77d7b61f440b60e28659d","64ec9bdaab6b5d330d2af3a4","null","null","<p style=""font-size: 60px; font-family: BACS"">mBmlAYDE</p>","","","","","","","","","",""
"html-keyboard-response","104","240196","0.0-9.0-0.16","5f5282f98bb76c54f2c603a7","64e77d7b61f440b60e28659d","64ec9bdaab6b5d330d2af3a4","null","null","<p style=""font-size: 60px; font-family: BACS"">DmAMEYTOM</p>","","","","","","","","","",""
"html-keyboard-response","105","241197","0.0-9.0-0.17","5f5282f98bb76c54f2c603a7","64e77d7b61f440b60e28659d","64ec9bdaab6b5d330d2af3a4","null","null","<p style=""font-size: 60px; font-family: BACS"">TdTDYDE</p>","","","","","","","","","",""
"html-keyboard-response","106","242198","0.0-9.0-0.18","5f5282f98bb76c54f2c603a7","64e77d7b61f440b60e28659d","64ec9bdaab6b5d330d2af3a4","null","null","<p style=""font-size: 60px; font-family: BACS"">mBmlAbdtK</p>","","","","","","","","","",""
"html-keyboard-response","107","243199","0.0-9.0-0.19","5f5282f98bb76c54f2c603a7","64e77d7b61f440b60e28659d","64ec9bdaab6b5d330d2af3a4","null","null","<p style=""font-size: 60px; font-family: BACS"">YKRkmCd</p>","","","","","","","","","",""
"html-keyboard-response","108","244200","0.0-9.0-0.20","5f5282f98bb76c54f2c603a7","64e77d7b61f440b60e28659d","64ec9bdaab6b5d330d2af3a4","null","null","<p style=""font-size: 60px; font-family: BACS"">TdTDYTOM</p>","","","","","","","","","",""
"html-keyboard-response","109","245209","0.0-9.0-0.21","5f5282f98bb76c54f2c603a7","64e77d7b61f440b60e28659d","64ec9bdaab6b5d330d2af3a4","null","null","<p style=""font-size: 60px; font-family: BACS"">NbacAQvlZ</p>","","","","","","","","","",""
"html-keyboard-response","110","246211","0.0-9.0-0.22","5f5282f98bb76c54f2c603a7","64e77d7b61f440b60e28659d","64ec9bdaab6b5d330d2af3a4","null","null","<p style=""font-size: 60px; font-family: BACS"">UdbdvJQ</p>","","","","","","","","","",""
"html-keyboard-response","111","247213","0.0-9.0-0.23","5f5282f98bb76c54f2c603a7","64e77d7b61f440b60e28659d","64ec9bdaab6b5d330d2af3a4","null","null","<p style=""font-size: 60px; font-family: BACS"">ktBdmCd</p>","","","","","","","","","",""
"html-keyboard-response","112","248214","0.0-9.0-0.24","5f5282f98bb76c54f2c603a7","64e77d7b61f440b60e28659d","64ec9bdaab6b5d330d2af3a4","null","null","<p style=""font-size: 60px; font-family: BACS"">RlAKcYTOM</p>","","","","","","","","","",""
"html-keyboard-response","113","249216","0.0-9.0-0.25","5f5282f98bb76c54f2c603a7","64e77d7b61f440b60e28659d","64ec9bdaab6b5d330d2af3a4","null","null","<p style=""font-size: 60px; font-family: BACS"">GNAcaJUNa</p>","","","","","","","","","",""
"html-keyboard-response","114","250218","0.0-9.0-0.26","5f5282f98bb76c54f2c603a7","64e77d7b61f440b60e28659d","64ec9bdaab6b5d330d2af3a4","null","null","<p style=""font-size: 60px; font-family: BACS"">RlAKcYDE</p>","","","","","","","","","",""
"html-keyboard-response","115","251219","0.0-9.0-0.27","5f5282f98bb76c54f2c603a7","64e77d7b61f440b60e28659d","64ec9bdaab6b5d330d2af3a4","null","null","<p style=""font-size: 60px; font-family: BACS"">TCbDCPEdK</p>","","","","","","","","","",""
"html-keyboard-response","116","252229","0.0-9.0-0.28","5f5282f98bb76c54f2c603a7","64e77d7b61f440b60e28659d","64ec9bdaab6b5d330d2af3a4","null","null","<p style=""font-size: 60px; font-family: BACS"">mhtcYDE</p>","","","","","","","","","",""
"html-keyboard-response","117","253231","0.0-9.0-0.29","5f5282f98bb76c54f2c603a7","64e77d7b61f440b60e28659d","64ec9bdaab6b5d330d2af3a4","null","null","<p style=""font-size: 60px; font-family: BACS"">YKRkPEdK</p>","","","","","","","","","",""
"html-keyboard-response","118","254244","0.0-9.0-0.30","5f5282f98bb76c54f2c603a7","64e77d7b61f440b60e28659d","64ec9bdaab6b5d330d2af3a4","null","null","<p style=""font-size: 60px; font-family: BACS"">AZaJcJUNa</p>","","","","","","","","","",""
"html-keyboard-response","119","255245","0.0-9.0-0.31","5f5282f98bb76c54f2c603a7","64e77d7b61f440b60e28659d","64ec9bdaab6b5d330d2af3a4","null","null","<p style=""font-size: 60px; font-family: BACS"">ckduAvJQ</p>","","","","","","","","","",""
"html-keyboard-response","120","256253","0.0-9.0-0.32","5f5282f98bb76c54f2c603a7","64e77d7b61f440b60e28659d","64ec9bdaab6b5d330d2af3a4","null","null","<p style=""font-size: 60px; font-family: BACS"">UdbdNYZu</p>","","","","","","","","","",""
"html-keyboard-response","121","257253","0.0-9.0-0.33","5f5282f98bb76c54f2c603a7","64e77d7b61f440b60e28659d","64ec9bdaab6b5d330d2af3a4","null","null","<p style=""font-size: 60px; font-family: BACS"">lAOKMmCd</p>","","","","","","","","","",""
"html-keyboard-response","122","258255","0.0-9.0-0.34","5f5282f98bb76c54f2c603a7","64e77d7b61f440b60e28659d","64ec9bdaab6b5d330d2af3a4","null","null","<p style=""font-size: 60px; font-family: BACS"">NbacANYZu</p>","","","","","","","","","",""
"html-keyboard-response","123","259256","0.0-9.0-0.35","5f5282f98bb76c54f2c603a7","64e77d7b61f440b60e28659d","64ec9bdaab6b5d330d2af3a4","null","null","<p style=""font-size: 60px; font-family: BACS"">dmZvmvcb</p>","","","","","","","","","",""
"html-keyboard-response","124","260269","0.0-9.0-0.36","5f5282f98bb76c54f2c603a7","64e77d7b61f440b60e28659d","64ec9bdaab6b5d330d2af3a4","null","null","<p style=""font-size: 60px; font-family: BACS"">RlAKcbdtK</p>","","","","","","","","","",""
"html-keyboard-response","125","261272","0.0-9.0-0.37","5f5282f98bb76c54f2c603a7","64e77d7b61f440b60e28659d","64ec9bdaab6b5d330d2af3a4","null","null","<p style=""font-size: 60px; font-family: BACS"">YKRkYTOM</p>","","","","","","","","","",""
"html-keyboard-response","126","262287","0.0-9.0-0.38","5f5282f98bb76c54f2c603a7","64e77d7b61f440b60e28659d","64ec9bdaab6b5d330d2af3a4","null","null","<p style=""font-size: 60px; font-family: BACS"">tdDdmCd</p>","","","","","","","","","",""
"html-keyboard-response","127","263289","0.0-9.0-0.39","5f5282f98bb76c54f2c603a7","64e77d7b61f440b60e28659d","64ec9bdaab6b5d330d2af3a4","null","null","<p style=""font-size: 60px; font-family: BACS"">mdlavcb</p>","","","","","","","","","",""
"html-keyboard-response","128","264291","0.0-9.0-0.40","5f5282f98bb76c54f2c603a7","64e77d7b61f440b60e28659d","64ec9bdaab6b5d330d2af3a4","null","null","<p style=""font-size: 60px; font-family: BACS"">RlAKcmCd</p>","","","","","","","","","",""
"html-keyboard-response","129","265300","0.0-9.0-0.41","5f5282f98bb76c54f2c603a7","64e77d7b61f440b60e28659d","64ec9bdaab6b5d330d2af3a4","null","null","<p style=""font-size: 60px; font-family: BACS"">mbZlvJQ</p>","","","","","","","","","",""
"html-keyboard-response","130","266306","0.0-9.0-0.42","5f5282f98bb76c54f2c603a7","64e77d7b61f440b60e28659d","64ec9bdaab6b5d330d2af3a4","null","null","<p style=""font-size: 60px; font-family: BACS"">aUZAQvlZ</p>","","","","","","","","","",""
"html-keyboard-response","131","267308","0.0-9.0-0.43","5f5282f98bb76c54f2c603a7","64e77d7b61f440b60e28659d","64ec9bdaab6b5d330d2af3a4","null","null","<p style=""font-size: 60px; font-family: BACS"">mBmlAmCd</p>","","","","","","","","","",""
"html-keyboard-response","132","268318","0.0-9.0-0.44","5f5282f98bb76c54f2c603a7","64e77d7b61f440b60e28659d","64ec9bdaab6b5d330d2af3a4","null","null","<p style=""font-size: 60px; font-family: BACS"">mdlaQvlZ</p>","","","","","","","","","",""
"html-keyboard-response","133","269331","0.0-9.0-0.45","5f5282f98bb76c54f2c603a7","64e77d7b61f440b60e28659d","64ec9bdaab6b5d330d2af3a4","null","null","<p style=""font-size: 60px; font-family: BACS"">TCbDCmCd</p>","","","","","","","","","",""
"html-keyboard-response","134","270333","0.0-9.0-0.46","5f5282f98bb76c54f2c603a7","64e77d7b61f440b60e28659d","64ec9bdaab6b5d330d2af3a4","null","null","<p style=""font-size: 60px; font-family: BACS"">tdDdYDE</p>","","","","","","","","","",""
"html-keyboard-response","135","271347","0.0-9.0-0.47","5f5282f98bb76c54f2c603a7","64e77d7b61f440b60e28659d","64ec9bdaab6b5d330d2af3a4","null","null","<p style=""font-size: 60px; font-family: BACS"">dmZvmQvlZ</p>","","","","","","","","","",""
"html-keyboard-response","136","272347","0.0-9.0-0.48","5f5282f98bb76c54f2c603a7","64e77d7b61f440b60e28659d","64ec9bdaab6b5d330d2af3a4","null","null","<p style=""font-size: 60px; font-family: BACS"">AZaJcvJQ</p>","","","","","","","","","",""
"html-keyboard-response","137","273349","0.0-9.0-0.49","5f5282f98bb76c54f2c603a7","64e77d7b61f440b60e28659d","64ec9bdaab6b5d330d2af3a4","null","null","<p style=""font-size: 60px; font-family: BACS"">mbZlJUNa</p>","","","","","","","","","",""
"html-keyboard-response","138","274350","0.0-9.0-0.50","5f5282f98bb76c54f2c603a7","64e77d7b61f440b60e28659d","64ec9bdaab6b5d330d2af3a4","null","null","<p style=""font-size: 60px; font-family: BACS"">dmZvmvJQ</p>","","","","","","","","","",""
"html-keyboard-response","139","275352","0.0-9.0-0.51","5f5282f98bb76c54f2c603a7","64e77d7b61f440b60e28659d","64ec9bdaab6b5d330d2af3a4","null","null","<p style=""font-size: 60px; font-family: BACS"">ckduANYZu</p>","","","","","","","","","",""
"html-keyboard-response","140","276368","0.0-9.0-0.52","5f5282f98bb76c54f2c603a7","64e77d7b61f440b60e28659d","64ec9bdaab6b5d330d2af3a4","null","null","<p style=""font-size: 60px; font-family: BACS"">lAOKMPEdK</p>","","","","","","","","","",""
"html-keyboard-response","141","277370","0.0-9.0-0.53","5f5282f98bb76c54f2c603a7","64e77d7b61f440b60e28659d","64ec9bdaab6b5d330d2af3a4","null","null","<p style=""font-size: 60px; font-family: BACS"">mhtcbdtK</p>","","","","","","","","","",""
"html-keyboard-response","142","278372","0.0-9.0-0.54","5f5282f98bb76c54f2c603a7","64e77d7b61f440b60e28659d","64ec9bdaab6b5d330d2af3a4","null","null","<p style=""font-size: 60px; font-family: BACS"">GNAcaNYZu</p>","","","","","","","","","",""
"html-keyboard-response","143","279373","0.0-9.0-0.55","5f5282f98bb76c54f2c603a7","64e77d7b61f440b60e28659d","64ec9bdaab6b5d330d2af3a4","null","null","<p style=""font-size: 60px; font-family: BACS"">mbZlQvlZ</p>","","","","","","","","","",""
"html-keyboard-response","144","280375","0.0-9.0-0.56","5f5282f98bb76c54f2c603a7","64e77d7b61f440b60e28659d","64ec9bdaab6b5d330d2af3a4","null","null","<p style=""font-size: 60px; font-family: BACS"">lAOKMYDE</p>","","","","","","","","","",""
"html-keyboard-response","145","281391","0.0-9.0-0.57","5f5282f98bb76c54f2c603a7","64e77d7b61f440b60e28659d","64ec9bdaab6b5d330d2af3a4","null","null","<p style=""font-size: 60px; font-family: BACS"">ckduAJUNa</p>","","","","","","","","","",""
"html-keyboard-response","146","282405","0.0-9.0-0.58","5f5282f98bb76c54f2c603a7","64e77d7b61f440b60e28659d","64ec9bdaab6b5d330d2af3a4","null","null","<p style=""font-size: 60px; font-family: BACS"">NbacAvcb</p>","","","","","","","","","",""
"html-keyboard-response","147","283421","0.0-9.0-0.59","5f5282f98bb76c54f2c603a7","64e77d7b61f440b60e28659d","64ec9bdaab6b5d330d2af3a4","null","null","<p style=""font-size: 60px; font-family: BACS"">AZaJcNYZu</p>","","","","","","","","","",""
"html-keyboard-response","148","284432","0.0-9.0-0.60","5f5282f98bb76c54f2c603a7","64e77d7b61f440b60e28659d","64ec9bdaab6b5d330d2af3a4","null","null","<p style=""font-size: 60px; font-family: BACS"">GNAcaQvlZ</p>","","","","","","","","","",""
"html-keyboard-response","149","285451","0.0-9.0-0.61","5f5282f98bb76c54f2c603a7","64e77d7b61f440b60e28659d","64ec9bdaab6b5d330d2af3a4","null","null","<p style=""font-size: 60px; font-family: BACS"">Udbdvcb</p>","","","","","","","","","",""
"html-keyboard-response","150","286454","0.0-9.0-0.62","5f5282f98bb76c54f2c603a7","64e77d7b61f440b60e28659d","64ec9bdaab6b5d330d2af3a4","null","null","<p style=""font-size: 60px; font-family: BACS"">aUZAJUNa</p>","","","","","","","","","",""
"html-keyboard-response","151","287463","0.0-9.0-0.63","5f5282f98bb76c54f2c603a7","64e77d7b61f440b60e28659d","64ec9bdaab6b5d330d2af3a4","null","null","<p style=""font-size: 60px; font-family: BACS"">lAOKMYTOM</p>","","","","","","","","","",""
"html-keyboard-response","152","288464","0.0-9.0-0.64","5f5282f98bb76c54f2c603a7","64e77d7b61f440b60e28659d","64ec9bdaab6b5d330d2af3a4","null","null","<p style=""font-size: 60px; font-family: BACS"">ktBdYDE</p>","","","","","","","","","",""
"html-keyboard-response","153","289465","0.0-9.0-0.65","5f5282f98bb76c54f2c603a7","64e77d7b61f440b60e28659d","64ec9bdaab6b5d330d2af3a4","null","null","<p style=""font-size: 60px; font-family: BACS"">LQurNYZu</p>","","","","","","","","","",""
"html-keyboard-response","154","290466","0.0-9.0-0.66","5f5282f98bb76c54f2c603a7","64e77d7b61f440b60e28659d","64ec9bdaab6b5d330d2af3a4","null","null","<p style=""font-size: 60px; font-family: BACS"">ktBdYTOM</p>","","","","","","","","","",""
"html-keyboard-response","155","291468","0.0-9.0-0.67","5f5282f98bb76c54f2c603a7","64e77d7b61f440b60e28659d","64ec9bdaab6b5d330d2af3a4","null","null","<p style=""font-size: 60px; font-family: BACS"">LQurQvlZ</p>","","","","","","","","","",""
"html-keyboard-response","156","292469","0.0-9.0-0.68","5f5282f98bb76c54f2c603a7","64e77d7b61f440b60e28659d","64ec9bdaab6b5d330d2af3a4","null","null","<p style=""font-size: 60px; font-family: BACS"">mdlaJUNa</p>","","","","","","","","","",""
"html-keyboard-response","157","293470","0.0-9.0-0.69","5f5282f98bb76c54f2c603a7","64e77d7b61f440b60e28659d","64ec9bdaab6b5d330d2af3a4","null","null","<p style=""font-size: 60px; font-family: BACS"">mhtcPEdK</p>","","","","","","","","","",""
"html-keyboard-response","158","294476","0.0-9.0-0.70","5f5282f98bb76c54f2c603a7","64e77d7b61f440b60e28659d","64ec9bdaab6b5d330d2af3a4","null","null","<p style=""font-size: 60px; font-family: BACS"">tdDdYTOM</p>","","","","","","","","","",""
"html-keyboard-response","159","295477","0.0-9.0-0.71","5f5282f98bb76c54f2c603a7","64e77d7b61f440b60e28659d","64ec9bdaab6b5d330d2af3a4","null","null","<p style=""font-size: 60px; font-family: BACS"">LQurvJQ</p>","","","","","","","","","",""
"html-keyboard-response","160","296490","0.0-9.0-0.72","5f5282f98bb76c54f2c603a7","64e77d7b61f440b60e28659d","64ec9bdaab6b5d330d2af3a4","null","null","<p style=""font-size: 60px; font-family: BACS"">YKRkbdtK</p>","","","","","","","","","",""
"html-keyboard-response","161","297505","0.0-9.0-0.73","5f5282f98bb76c54f2c603a7","64e77d7b61f440b60e28659d","64ec9bdaab6b5d330d2af3a4","null","null","<p style=""font-size: 60px; font-family: BACS"">UdbdJUNa</p>","","","","","","","","","",""
"html-keyboard-response","162","298507","0.0-9.0-0.74","5f5282f98bb76c54f2c603a7","64e77d7b61f440b60e28659d","64ec9bdaab6b5d330d2af3a4","null","null","<p style=""font-size: 60px; font-family: BACS"">mhtcYTOM</p>","","","","","","","","","",""
"html-keyboard-response","163","299523","0.0-9.0-0.75","5f5282f98bb76c54f2c603a7","64e77d7b61f440b60e28659d","64ec9bdaab6b5d330d2af3a4","null","null","<p style=""font-size: 60px; font-family: BACS"">LQurvcb</p>","","","","","","","","","",""
"html-keyboard-response","164","300524","0.0-9.0-0.76","5f5282f98bb76c54f2c603a7","64e77d7b61f440b60e28659d","64ec9bdaab6b5d330d2af3a4","null","null","<p style=""font-size: 60px; font-family: BACS"">DmAMEPEdK</p>","","","","","","","","","",""
"html-keyboard-response","165","301532","0.0-9.0-0.77","5f5282f98bb76c54f2c603a7","64e77d7b61f440b60e28659d","64ec9bdaab6b5d330d2af3a4","null","null","<p style=""font-size: 60px; font-family: BACS"">AZaJcQvlZ</p>","","","","","","","","","",""
"html-keyboard-response","166","302549","0.0-9.0-0.78","5f5282f98bb76c54f2c603a7","64e77d7b61f440b60e28659d","64ec9bdaab6b5d330d2af3a4","null","null","<p style=""font-size: 60px; font-family: BACS"">DmAMEbdtK</p>","","","","","","","","","",""
"html-keyboard-response","167","303562","0.0-9.0-0.79","5f5282f98bb76c54f2c603a7","64e77d7b61f440b60e28659d","64ec9bdaab6b5d330d2af3a4","null","null","<p style=""font-size: 60px; font-family: BACS"">aUZAvcb</p>","","","","","","","","","",""
"html-keyboard-response","168","306812","0.0-10.0","5f5282f98bb76c54f2c603a7","64e77d7b61f440b60e28659d","64ec9bdaab6b5d330d2af3a4","3249"," ","<p>Great, you've seen the second block of words. You may now take a short break.</p>
      <p>Press the spacebar when you're ready to continue.</p>","","","","","","","","","",""
"html-keyboard-response","169","307813","0.0-11.0-0.0","5f5282f98bb76c54f2c603a7","64e77d7b61f440b60e28659d","64ec9bdaab6b5d330d2af3a4","null","null","<p style=""font-size: 60px; font-family: BACS"">dmZvmvcb</p>","","","","","","","","","",""
"html-keyboard-response","170","308821","0.0-11.0-0.1","5f5282f98bb76c54f2c603a7","64e77d7b61f440b60e28659d","64ec9bdaab6b5d330d2af3a4","null","null","<p style=""font-size: 60px; font-family: BACS"">TCbDCmCd</p>","","","","","","","","","",""
"html-keyboard-response","171","309822","0.0-11.0-0.2","5f5282f98bb76c54f2c603a7","64e77d7b61f440b60e28659d","64ec9bdaab6b5d330d2af3a4","null","null","<p style=""font-size: 60px; font-family: BACS"">NbacANYZu</p>","","","","","","","","","",""
"html-keyboard-response","172","310823","0.0-11.0-0.3","5f5282f98bb76c54f2c603a7","64e77d7b61f440b60e28659d","64ec9bdaab6b5d330d2af3a4","null","null","<p style=""font-size: 60px; font-family: BACS"">LQurvcb</p>","","","","","","","","","",""
"html-keyboard-response","173","311825","0.0-11.0-0.4","5f5282f98bb76c54f2c603a7","64e77d7b61f440b60e28659d","64ec9bdaab6b5d330d2af3a4","null","null","<p style=""font-size: 60px; font-family: BACS"">GNAcaJUNa</p>","","","","","","","","","",""
"html-keyboard-response","174","312836","0.0-11.0-0.5","5f5282f98bb76c54f2c603a7","64e77d7b61f440b60e28659d","64ec9bdaab6b5d330d2af3a4","null","null","<p style=""font-size: 60px; font-family: BACS"">mbZlQvlZ</p>","","","","","","","","","",""
"html-keyboard-response","175","313837","0.0-11.0-0.6","5f5282f98bb76c54f2c603a7","64e77d7b61f440b60e28659d","64ec9bdaab6b5d330d2af3a4","null","null","<p style=""font-size: 60px; font-family: BACS"">mdlavJQ</p>","","","","","","","","","",""
"html-keyboard-response","176","314850","0.0-11.0-0.7","5f5282f98bb76c54f2c603a7","64e77d7b61f440b60e28659d","64ec9bdaab6b5d330d2af3a4","null","null","<p style=""font-size: 60px; font-family: BACS"">mBmlAPEdK</p>","","","","","","","","","",""
"html-keyboard-response","177","315864","0.0-11.0-0.8","5f5282f98bb76c54f2c603a7","64e77d7b61f440b60e28659d","64ec9bdaab6b5d330d2af3a4","null","null","<p style=""font-size: 60px; font-family: BACS"">mhtcbdtK</p>","","","","","","","","","",""
"html-keyboard-response","178","316879","0.0-11.0-0.9","5f5282f98bb76c54f2c603a7","64e77d7b61f440b60e28659d","64ec9bdaab6b5d330d2af3a4","null","null","<p style=""font-size: 60px; font-family: BACS"">LQurQvlZ</p>","","","","","","","","","",""
"html-keyboard-response","179","317881","0.0-11.0-0.10","5f5282f98bb76c54f2c603a7","64e77d7b61f440b60e28659d","64ec9bdaab6b5d330d2af3a4","null","null","<p style=""font-size: 60px; font-family: BACS"">lAOKMPEdK</p>","","","","","","","","","",""
"html-keyboard-response","180","318882","0.0-11.0-0.11","5f5282f98bb76c54f2c603a7","64e77d7b61f440b60e28659d","64ec9bdaab6b5d330d2af3a4","null","null","<p style=""font-size: 60px; font-family: BACS"">mBmlAbdtK</p>","","","","","","","","","",""
"html-keyboard-response","181","319886","0.0-11.0-0.12","5f5282f98bb76c54f2c603a7","64e77d7b61f440b60e28659d","64ec9bdaab6b5d330d2af3a4","null","null","<p style=""font-size: 60px; font-family: BACS"">TdTDYTOM</p>","","","","","","","","","",""
"html-keyboard-response","182","320897","0.0-11.0-0.13","5f5282f98bb76c54f2c603a7","64e77d7b61f440b60e28659d","64ec9bdaab6b5d330d2af3a4","null","null","<p style=""font-size: 60px; font-family: BACS"">mdlaQvlZ</p>","","","","","","","","","",""
"html-keyboard-response","183","321899","0.0-11.0-0.14","5f5282f98bb76c54f2c603a7","64e77d7b61f440b60e28659d","64ec9bdaab6b5d330d2af3a4","null","null","<p style=""font-size: 60px; font-family: BACS"">DmAMEPEdK</p>","","","","","","","","","",""
"html-keyboard-response","184","322901","0.0-11.0-0.15","5f5282f98bb76c54f2c603a7","64e77d7b61f440b60e28659d","64ec9bdaab6b5d330d2af3a4","null","null","<p style=""font-size: 60px; font-family: BACS"">tdDdYTOM</p>","","","","","","","","","",""
"html-keyboard-response","185","323902","0.0-11.0-0.16","5f5282f98bb76c54f2c603a7","64e77d7b61f440b60e28659d","64ec9bdaab6b5d330d2af3a4","null","null","<p style=""font-size: 60px; font-family: BACS"">mbZlvcb</p>","","","","","","","","","",""
"html-keyboard-response","186","324916","0.0-11.0-0.17","5f5282f98bb76c54f2c603a7","64e77d7b61f440b60e28659d","64ec9bdaab6b5d330d2af3a4","null","null","<p style=""font-size: 60px; font-family: BACS"">TdTDbdtK</p>","","","","","","","","","",""
"html-keyboard-response","187","325919","0.0-11.0-0.18","5f5282f98bb76c54f2c603a7","64e77d7b61f440b60e28659d","64ec9bdaab6b5d330d2af3a4","null","null","<p style=""font-size: 60px; font-family: BACS"">GNAcaNYZu</p>","","","","","","","","","",""
"html-keyboard-response","188","326920","0.0-11.0-0.19","5f5282f98bb76c54f2c603a7","64e77d7b61f440b60e28659d","64ec9bdaab6b5d330d2af3a4","null","null","<p style=""font-size: 60px; font-family: BACS"">Udbdvcb</p>","","","","","","","","","",""
"html-keyboard-response","189","327932","0.0-11.0-0.20","5f5282f98bb76c54f2c603a7","64e77d7b61f440b60e28659d","64ec9bdaab6b5d330d2af3a4","null","null","<p style=""font-size: 60px; font-family: BACS"">AZaJcQvlZ</p>","","","","","","","","","",""
"html-keyboard-response","190","328946","0.0-11.0-0.21","5f5282f98bb76c54f2c603a7","64e77d7b61f440b60e28659d","64ec9bdaab6b5d330d2af3a4","null","null","<p style=""font-size: 60px; font-family: BACS"">mbZlJUNa</p>","","","","","","","","","",""
"html-keyboard-response","191","329947","0.0-11.0-0.22","5f5282f98bb76c54f2c603a7","64e77d7b61f440b60e28659d","64ec9bdaab6b5d330d2af3a4","null","null","<p style=""font-size: 60px; font-family: BACS"">DmAMEbdtK</p>","","","","","","","","","",""
"html-keyboard-response","192","330949","0.0-11.0-0.23","5f5282f98bb76c54f2c603a7","64e77d7b61f440b60e28659d","64ec9bdaab6b5d330d2af3a4","null","null","<p style=""font-size: 60px; font-family: BACS"">TCbDCPEdK</p>","","","","","","","","","",""
"html-keyboard-response","193","331950","0.0-11.0-0.24","5f5282f98bb76c54f2c603a7","64e77d7b61f440b60e28659d","64ec9bdaab6b5d330d2af3a4","null","null","<p style=""font-size: 60px; font-family: BACS"">dmZvmQvlZ</p>","","","","","","","","","",""
"html-keyboard-response","194","332956","0.0-11.0-0.25","5f5282f98bb76c54f2c603a7","64e77d7b61f440b60e28659d","64ec9bdaab6b5d330d2af3a4","null","null","<p style=""font-size: 60px; font-family: BACS"">RlAKcYTOM</p>","","","","","","","","","",""
"html-keyboard-response","195","333969","0.0-11.0-0.26","5f5282f98bb76c54f2c603a7","64e77d7b61f440b60e28659d","64ec9bdaab6b5d330d2af3a4","null","null","<p style=""font-size: 60px; font-family: BACS"">TCbDCYDE</p>","","","","","","","","","",""
"html-keyboard-response","196","334981","0.0-11.0-0.27","5f5282f98bb76c54f2c603a7","64e77d7b61f440b60e28659d","64ec9bdaab6b5d330d2af3a4","null","null","<p style=""font-size: 60px; font-family: BACS"">DmAMEmCd</p>","","","","","","","","","",""
"html-keyboard-response","197","335982","0.0-11.0-0.28","5f5282f98bb76c54f2c603a7","64e77d7b61f440b60e28659d","64ec9bdaab6b5d330d2af3a4","null","null","<p style=""font-size: 60px; font-family: BACS"">YKRkYTOM</p>","","","","","","","","","",""
"html-keyboard-response","198","336983","0.0-11.0-0.29","5f5282f98bb76c54f2c603a7","64e77d7b61f440b60e28659d","64ec9bdaab6b5d330d2af3a4","null","null","<p style=""font-size: 60px; font-family: BACS"">mhtcYDE</p>","","","","","","","","","",""
"html-keyboard-response","199","337984","0.0-11.0-0.30","5f5282f98bb76c54f2c603a7","64e77d7b61f440b60e28659d","64ec9bdaab6b5d330d2af3a4","null","null","<p style=""font-size: 60px; font-family: BACS"">RlAKcbdtK</p>","","","","","","","","","",""
"html-keyboard-response","200","338985","0.0-11.0-0.31","5f5282f98bb76c54f2c603a7","64e77d7b61f440b60e28659d","64ec9bdaab6b5d330d2af3a4","null","null","<p style=""font-size: 60px; font-family: BACS"">aUZANYZu</p>","","","","","","","","","",""
"html-keyboard-response","201","339986","0.0-11.0-0.32","5f5282f98bb76c54f2c603a7","64e77d7b61f440b60e28659d","64ec9bdaab6b5d330d2af3a4","null","null","<p style=""font-size: 60px; font-family: BACS"">GNAcavJQ</p>","","","","","","","","","",""
"html-keyboard-response","202","340987","0.0-11.0-0.33","5f5282f98bb76c54f2c603a7","64e77d7b61f440b60e28659d","64ec9bdaab6b5d330d2af3a4","null","null","<p style=""font-size: 60px; font-family: BACS"">AZaJcJUNa</p>","","","","","","","","","",""
"html-keyboard-response","203","341988","0.0-11.0-0.34","5f5282f98bb76c54f2c603a7","64e77d7b61f440b60e28659d","64ec9bdaab6b5d330d2af3a4","null","null","<p style=""font-size: 60px; font-family: BACS"">YKRkmCd</p>","","","","","","","","","",""
"html-keyboard-response","204","342989","0.0-11.0-0.35","5f5282f98bb76c54f2c603a7","64e77d7b61f440b60e28659d","64ec9bdaab6b5d330d2af3a4","null","null","<p style=""font-size: 60px; font-family: BACS"">AZaJcvJQ</p>","","","","","","","","","",""
"html-keyboard-response","205","344001","0.0-11.0-0.36","5f5282f98bb76c54f2c603a7","64e77d7b61f440b60e28659d","64ec9bdaab6b5d330d2af3a4","null","null","<p style=""font-size: 60px; font-family: BACS"">TdTDPEdK</p>","","","","","","","","","",""
"html-keyboard-response","206","345002","0.0-11.0-0.37","5f5282f98bb76c54f2c603a7","64e77d7b61f440b60e28659d","64ec9bdaab6b5d330d2af3a4","null","null","<p style=""font-size: 60px; font-family: BACS"">mBmlAmCd</p>","","","","","","","","","",""
"html-keyboard-response","207","346014","0.0-11.0-0.38","5f5282f98bb76c54f2c603a7","64e77d7b61f440b60e28659d","64ec9bdaab6b5d330d2af3a4","null","null","<p style=""font-size: 60px; font-family: BACS"">NbacAQvlZ</p>","","","","","","","","","",""
"html-keyboard-response","208","347029","0.0-11.0-0.39","5f5282f98bb76c54f2c603a7","64e77d7b61f440b60e28659d","64ec9bdaab6b5d330d2af3a4","null","null","<p style=""font-size: 60px; font-family: BACS"">lAOKMYDE</p>","","","","","","","","","",""
"html-keyboard-response","209","348042","0.0-11.0-0.40","5f5282f98bb76c54f2c603a7","64e77d7b61f440b60e28659d","64ec9bdaab6b5d330d2af3a4","null","null","<p style=""font-size: 60px; font-family: BACS"">LQurvJQ</p>","","","","","","","","","",""
"html-keyboard-response","210","349056","0.0-11.0-0.41","5f5282f98bb76c54f2c603a7","64e77d7b61f440b60e28659d","64ec9bdaab6b5d330d2af3a4","null","null","<p style=""font-size: 60px; font-family: BACS"">tdDdYDE</p>","","","","","","","","","",""
"html-keyboard-response","211","350069","0.0-11.0-0.42","5f5282f98bb76c54f2c603a7","64e77d7b61f440b60e28659d","64ec9bdaab6b5d330d2af3a4","null","null","<p style=""font-size: 60px; font-family: BACS"">RlAKcmCd</p>","","","","","","","","","",""
"html-keyboard-response","212","351081","0.0-11.0-0.43","5f5282f98bb76c54f2c603a7","64e77d7b61f440b60e28659d","64ec9bdaab6b5d330d2af3a4","null","null","<p style=""font-size: 60px; font-family: BACS"">ckduAvJQ</p>","","","","","","","","","",""
"html-keyboard-response","213","352083","0.0-11.0-0.44","5f5282f98bb76c54f2c603a7","64e77d7b61f440b60e28659d","64ec9bdaab6b5d330d2af3a4","null","null","<p style=""font-size: 60px; font-family: BACS"">ktBdmCd</p>","","","","","","","","","",""
"html-keyboard-response","214","353096","0.0-11.0-0.45","5f5282f98bb76c54f2c603a7","64e77d7b61f440b60e28659d","64ec9bdaab6b5d330d2af3a4","null","null","<p style=""font-size: 60px; font-family: BACS"">NbacAvcb</p>","","","","","","","","","",""
"html-keyboard-response","215","354109","0.0-11.0-0.46","5f5282f98bb76c54f2c603a7","64e77d7b61f440b60e28659d","64ec9bdaab6b5d330d2af3a4","null","null","<p style=""font-size: 60px; font-family: BACS"">YKRkbdtK</p>","","","","","","","","","",""
"html-keyboard-response","216","355125","0.0-11.0-0.47","5f5282f98bb76c54f2c603a7","64e77d7b61f440b60e28659d","64ec9bdaab6b5d330d2af3a4","null","null","<p style=""font-size: 60px; font-family: BACS"">dmZvmvJQ</p>","","","","","","","","","",""
"html-keyboard-response","217","356135","0.0-11.0-0.48","5f5282f98bb76c54f2c603a7","64e77d7b61f440b60e28659d","64ec9bdaab6b5d330d2af3a4","null","null","<p style=""font-size: 60px; font-family: BACS"">mdlavcb</p>","","","","","","","","","",""
"html-keyboard-response","218","357137","0.0-11.0-0.49","5f5282f98bb76c54f2c603a7","64e77d7b61f440b60e28659d","64ec9bdaab6b5d330d2af3a4","null","null","<p style=""font-size: 60px; font-family: BACS"">aUZAJUNa</p>","","","","","","","","","",""
"html-keyboard-response","219","358137","0.0-11.0-0.50","5f5282f98bb76c54f2c603a7","64e77d7b61f440b60e28659d","64ec9bdaab6b5d330d2af3a4","null","null","<p style=""font-size: 60px; font-family: BACS"">ktBdPEdK</p>","","","","","","","","","",""
"html-keyboard-response","220","359139","0.0-11.0-0.51","5f5282f98bb76c54f2c603a7","64e77d7b61f440b60e28659d","64ec9bdaab6b5d330d2af3a4","null","null","<p style=""font-size: 60px; font-family: BACS"">TdTDYDE</p>","","","","","","","","","",""
"html-keyboard-response","221","360155","0.0-11.0-0.52","5f5282f98bb76c54f2c603a7","64e77d7b61f440b60e28659d","64ec9bdaab6b5d330d2af3a4","null","null","<p style=""font-size: 60px; font-family: BACS"">ckduAJUNa</p>","","","","","","","","","",""
"html-keyboard-response","222","361169","0.0-11.0-0.53","5f5282f98bb76c54f2c603a7","64e77d7b61f440b60e28659d","64ec9bdaab6b5d330d2af3a4","null","null","<p style=""font-size: 60px; font-family: BACS"">GNAcaQvlZ</p>","","","","","","","","","",""
"html-keyboard-response","223","362185","0.0-11.0-0.54","5f5282f98bb76c54f2c603a7","64e77d7b61f440b60e28659d","64ec9bdaab6b5d330d2af3a4","null","null","<p style=""font-size: 60px; font-family: BACS"">AZaJcNYZu</p>","","","","","","","","","",""
"html-keyboard-response","224","363186","0.0-11.0-0.55","5f5282f98bb76c54f2c603a7","64e77d7b61f440b60e28659d","64ec9bdaab6b5d330d2af3a4","null","null","<p style=""font-size: 60px; font-family: BACS"">mhtcPEdK</p>","","","","","","","","","",""
"html-keyboard-response","225","364193","0.0-11.0-0.56","5f5282f98bb76c54f2c603a7","64e77d7b61f440b60e28659d","64ec9bdaab6b5d330d2af3a4","null","null","<p style=""font-size: 60px; font-family: BACS"">ckduANYZu</p>","","","","","","","","","",""
"html-keyboard-response","226","365193","0.0-11.0-0.57","5f5282f98bb76c54f2c603a7","64e77d7b61f440b60e28659d","64ec9bdaab6b5d330d2af3a4","null","null","<p style=""font-size: 60px; font-family: BACS"">UdbdvJQ</p>","","","","","","","","","",""
"html-keyboard-response","227","366209","0.0-11.0-0.58","5f5282f98bb76c54f2c603a7","64e77d7b61f440b60e28659d","64ec9bdaab6b5d330d2af3a4","null","null","<p style=""font-size: 60px; font-family: BACS"">mhtcYTOM</p>","","","","","","","","","",""
"html-keyboard-response","228","367210","0.0-11.0-0.59","5f5282f98bb76c54f2c603a7","64e77d7b61f440b60e28659d","64ec9bdaab6b5d330d2af3a4","null","null","<p style=""font-size: 60px; font-family: BACS"">mdlaJUNa</p>","","","","","","","","","",""
"html-keyboard-response","229","368211","0.0-11.0-0.60","5f5282f98bb76c54f2c603a7","64e77d7b61f440b60e28659d","64ec9bdaab6b5d330d2af3a4","null","null","<p style=""font-size: 60px; font-family: BACS"">ktBdYTOM</p>","","","","","","","","","",""
"html-keyboard-response","230","369212","0.0-11.0-0.61","5f5282f98bb76c54f2c603a7","64e77d7b61f440b60e28659d","64ec9bdaab6b5d330d2af3a4","null","null","<p style=""font-size: 60px; font-family: BACS"">ckduAvcb</p>","","","","","","","","","",""
"html-keyboard-response","231","370214","0.0-11.0-0.62","5f5282f98bb76c54f2c603a7","64e77d7b61f440b60e28659d","64ec9bdaab6b5d330d2af3a4","null","null","<p style=""font-size: 60px; font-family: BACS"">LQurNYZu</p>","","","","","","","","","",""
"html-keyboard-response","232","371215","0.0-11.0-0.63","5f5282f98bb76c54f2c603a7","64e77d7b61f440b60e28659d","64ec9bdaab6b5d330d2af3a4","null","null","<p style=""font-size: 60px; font-family: BACS"">lAOKMYTOM</p>","","","","","","","","","",""
"html-keyboard-response","233","372216","0.0-11.0-0.64","5f5282f98bb76c54f2c603a7","64e77d7b61f440b60e28659d","64ec9bdaab6b5d330d2af3a4","null","null","<p style=""font-size: 60px; font-family: BACS"">aUZAvcb</p>","","","","","","","","","",""
"html-keyboard-response","234","373217","0.0-11.0-0.65","5f5282f98bb76c54f2c603a7","64e77d7b61f440b60e28659d","64ec9bdaab6b5d330d2af3a4","null","null","<p style=""font-size: 60px; font-family: BACS"">mBmlAYDE</p>","","","","","","","","","",""
"html-keyboard-response","235","374218","0.0-11.0-0.66","5f5282f98bb76c54f2c603a7","64e77d7b61f440b60e28659d","64ec9bdaab6b5d330d2af3a4","null","null","<p style=""font-size: 60px; font-family: BACS"">lAOKMmCd</p>","","","","","","","","","",""
"html-keyboard-response","236","375226","0.0-11.0-0.67","5f5282f98bb76c54f2c603a7","64e77d7b61f440b60e28659d","64ec9bdaab6b5d330d2af3a4","null","null","<p style=""font-size: 60px; font-family: BACS"">YKRkPEdK</p>","","","","","","","","","",""
"html-keyboard-response","237","376243","0.0-11.0-0.68","5f5282f98bb76c54f2c603a7","64e77d7b61f440b60e28659d","64ec9bdaab6b5d330d2af3a4","null","null","<p style=""font-size: 60px; font-family: BACS"">TCbDCbdtK</p>","","","","","","","","","",""
"html-keyboard-response","238","377259","0.0-11.0-0.69","5f5282f98bb76c54f2c603a7","64e77d7b61f440b60e28659d","64ec9bdaab6b5d330d2af3a4","null","null","<p style=""font-size: 60px; font-family: BACS"">DmAMEYTOM</p>","","","","","","","","","",""
"html-keyboard-response","239","378260","0.0-11.0-0.70","5f5282f98bb76c54f2c603a7","64e77d7b61f440b60e28659d","64ec9bdaab6b5d330d2af3a4","null","null","<p style=""font-size: 60px; font-family: BACS"">UdbdNYZu</p>","","","","","","","","","",""
"html-keyboard-response","240","379264","0.0-11.0-0.71","5f5282f98bb76c54f2c603a7","64e77d7b61f440b60e28659d","64ec9bdaab6b5d330d2af3a4","null","null","<p style=""font-size: 60px; font-family: BACS"">NbacAJUNa</p>","","","","","","","","","",""
"html-keyboard-response","241","380265","0.0-11.0-0.72","5f5282f98bb76c54f2c603a7","64e77d7b61f440b60e28659d","64ec9bdaab6b5d330d2af3a4","null","null","<p style=""font-size: 60px; font-family: BACS"">dmZvmNYZu</p>","","","","","","","","","",""
"html-keyboard-response","242","381266","0.0-11.0-0.73","5f5282f98bb76c54f2c603a7","64e77d7b61f440b60e28659d","64ec9bdaab6b5d330d2af3a4","null","null","<p style=""font-size: 60px; font-family: BACS"">aUZAQvlZ</p>","","","","","","","","","",""
"html-keyboard-response","243","382279","0.0-11.0-0.74","5f5282f98bb76c54f2c603a7","64e77d7b61f440b60e28659d","64ec9bdaab6b5d330d2af3a4","null","null","<p style=""font-size: 60px; font-family: BACS"">tdDdmCd</p>","","","","","","","","","",""
"html-keyboard-response","244","383280","0.0-11.0-0.75","5f5282f98bb76c54f2c603a7","64e77d7b61f440b60e28659d","64ec9bdaab6b5d330d2af3a4","null","null","<p style=""font-size: 60px; font-family: BACS"">mbZlvJQ</p>","","","","","","","","","",""
"html-keyboard-response","245","384282","0.0-11.0-0.76","5f5282f98bb76c54f2c603a7","64e77d7b61f440b60e28659d","64ec9bdaab6b5d330d2af3a4","null","null","<p style=""font-size: 60px; font-family: BACS"">RlAKcYDE</p>","","","","","","","","","",""
"html-keyboard-response","246","385283","0.0-11.0-0.77","5f5282f98bb76c54f2c603a7","64e77d7b61f440b60e28659d","64ec9bdaab6b5d330d2af3a4","null","null","<p style=""font-size: 60px; font-family: BACS"">UdbdJUNa</p>","","","","","","","","","",""
"html-keyboard-response","247","386284","0.0-11.0-0.78","5f5282f98bb76c54f2c603a7","64e77d7b61f440b60e28659d","64ec9bdaab6b5d330d2af3a4","null","null","<p style=""font-size: 60px; font-family: BACS"">ktBdYDE</p>","","","","","","","","","",""
"html-keyboard-response","248","387285","0.0-11.0-0.79","5f5282f98bb76c54f2c603a7","64e77d7b61f440b60e28659d","64ec9bdaab6b5d330d2af3a4","null","null","<p style=""font-size: 60px; font-family: BACS"">tdDdbdtK</p>","","","","","","","","","",""
"html-keyboard-response","249","391856","0.0-12.0","5f5282f98bb76c54f2c603a7","64e77d7b61f440b60e28659d","64ec9bdaab6b5d330d2af3a4","4570"," ","<p>Great, you've seen the third block of words. You may now take a short break.</p>
      <p>Press the spacebar when you're ready to continue.</p>","","","","","","","","","",""
"html-keyboard-response","250","392865","0.0-13.0-0.0","5f5282f98bb76c54f2c603a7","64e77d7b61f440b60e28659d","64ec9bdaab6b5d330d2af3a4","null","null","<p style=""font-size: 60px; font-family: BACS"">GNAcavJQ</p>","","","","","","","","","",""
"html-keyboard-response","251","393866","0.0-13.0-0.1","5f5282f98bb76c54f2c603a7","64e77d7b61f440b60e28659d","64ec9bdaab6b5d330d2af3a4","null","null","<p style=""font-size: 60px; font-family: BACS"">mbZlvcb</p>","","","","","","","","","",""
"html-keyboard-response","252","394867","0.0-13.0-0.2","5f5282f98bb76c54f2c603a7","64e77d7b61f440b60e28659d","64ec9bdaab6b5d330d2af3a4","null","null","<p style=""font-size: 60px; font-family: BACS"">AZaJcJUNa</p>","","","","","","","","","",""
"html-keyboard-response","253","395869","0.0-13.0-0.3","5f5282f98bb76c54f2c603a7","64e77d7b61f440b60e28659d","64ec9bdaab6b5d330d2af3a4","null","null","<p style=""font-size: 60px; font-family: BACS"">mBmlAPEdK</p>","","","","","","","","","",""
"html-keyboard-response","254","396876","0.0-13.0-0.4","5f5282f98bb76c54f2c603a7","64e77d7b61f440b60e28659d","64ec9bdaab6b5d330d2af3a4","null","null","<p style=""font-size: 60px; font-family: BACS"">NbacANYZu</p>","","","","","","","","","",""
"html-keyboard-response","255","397877","0.0-13.0-0.5","5f5282f98bb76c54f2c603a7","64e77d7b61f440b60e28659d","64ec9bdaab6b5d330d2af3a4","null","null","<p style=""font-size: 60px; font-family: BACS"">GNAcaQvlZ</p>","","","","","","","","","",""
"html-keyboard-response","256","398879","0.0-13.0-0.6","5f5282f98bb76c54f2c603a7","64e77d7b61f440b60e28659d","64ec9bdaab6b5d330d2af3a4","null","null","<p style=""font-size: 60px; font-family: BACS"">DmAMEPEdK</p>","","","","","","","","","",""
"html-keyboard-response","257","399880","0.0-13.0-0.7","5f5282f98bb76c54f2c603a7","64e77d7b61f440b60e28659d","64ec9bdaab6b5d330d2af3a4","null","null","<p style=""font-size: 60px; font-family: BACS"">ckduANYZu</p>","","","","","","","","","",""
"html-keyboard-response","258","400890","0.0-13.0-0.8","5f5282f98bb76c54f2c603a7","64e77d7b61f440b60e28659d","64ec9bdaab6b5d330d2af3a4","null","null","<p style=""font-size: 60px; font-family: BACS"">aUZAQvlZ</p>","","","","","","","","","",""
"html-keyboard-response","259","401905","0.0-13.0-0.9","5f5282f98bb76c54f2c603a7","64e77d7b61f440b60e28659d","64ec9bdaab6b5d330d2af3a4","null","null","<p style=""font-size: 60px; font-family: BACS"">lAOKMmCd</p>","","","","","","","","","",""
"html-keyboard-response","260","402906","0.0-13.0-0.10","5f5282f98bb76c54f2c603a7","64e77d7b61f440b60e28659d","64ec9bdaab6b5d330d2af3a4","null","null","<p style=""font-size: 60px; font-family: BACS"">DmAMEbdtK</p>","","","","","","","","","",""
"html-keyboard-response","261","403922","0.0-13.0-0.11","5f5282f98bb76c54f2c603a7","64e77d7b61f440b60e28659d","64ec9bdaab6b5d330d2af3a4","null","null","<p style=""font-size: 60px; font-family: BACS"">mbZlQvlZ</p>","","","","","","","","","",""
"html-keyboard-response","262","404932","0.0-13.0-0.12","5f5282f98bb76c54f2c603a7","64e77d7b61f440b60e28659d","64ec9bdaab6b5d330d2af3a4","null","null","<p style=""font-size: 60px; font-family: BACS"">ktBdYTOM</p>","","","","","","","","","",""
"html-keyboard-response","263","405948","0.0-13.0-0.13","5f5282f98bb76c54f2c603a7","64e77d7b61f440b60e28659d","64ec9bdaab6b5d330d2af3a4","null","null","<p style=""font-size: 60px; font-family: BACS"">AZaJcvJQ</p>","","","","","","","","","",""
"html-keyboard-response","264","406962","0.0-13.0-0.14","5f5282f98bb76c54f2c603a7","64e77d7b61f440b60e28659d","64ec9bdaab6b5d330d2af3a4","null","null","<p style=""font-size: 60px; font-family: BACS"">RlAKcmCd</p>","","","","","","","","","",""
"html-keyboard-response","265","407976","0.0-13.0-0.15","5f5282f98bb76c54f2c603a7","64e77d7b61f440b60e28659d","64ec9bdaab6b5d330d2af3a4","null","null","<p style=""font-size: 60px; font-family: BACS"">LQurQvlZ</p>","","","","","","","","","",""
"html-keyboard-response","266","408990","0.0-13.0-0.16","5f5282f98bb76c54f2c603a7","64e77d7b61f440b60e28659d","64ec9bdaab6b5d330d2af3a4","null","null","<p style=""font-size: 60px; font-family: BACS"">ktBdPEdK</p>","","","","","","","","","",""
"html-keyboard-response","267","410007","0.0-13.0-0.17","5f5282f98bb76c54f2c603a7","64e77d7b61f440b60e28659d","64ec9bdaab6b5d330d2af3a4","null","null","<p style=""font-size: 60px; font-family: BACS"">ckduAJUNa</p>","","","","","","","","","",""
"html-keyboard-response","268","411022","0.0-13.0-0.18","5f5282f98bb76c54f2c603a7","64e77d7b61f440b60e28659d","64ec9bdaab6b5d330d2af3a4","null","null","<p style=""font-size: 60px; font-family: BACS"">mBmlAbdtK</p>","","","","","","","","","",""
"html-keyboard-response","269","412033","0.0-13.0-0.19","5f5282f98bb76c54f2c603a7","64e77d7b61f440b60e28659d","64ec9bdaab6b5d330d2af3a4","null","null","<p style=""font-size: 60px; font-family: BACS"">NbacAvcb</p>","","","","","","","","","",""
"html-keyboard-response","270","413048","0.0-13.0-0.20","5f5282f98bb76c54f2c603a7","64e77d7b61f440b60e28659d","64ec9bdaab6b5d330d2af3a4","null","null","<p style=""font-size: 60px; font-family: BACS"">mhtcYTOM</p>","","","","","","","","","",""
"html-keyboard-response","271","414064","0.0-13.0-0.21","5f5282f98bb76c54f2c603a7","64e77d7b61f440b60e28659d","64ec9bdaab6b5d330d2af3a4","null","null","<p style=""font-size: 60px; font-family: BACS"">UdbdvJQ</p>","","","","","","","","","",""
"html-keyboard-response","272","415069","0.0-13.0-0.22","5f5282f98bb76c54f2c603a7","64e77d7b61f440b60e28659d","64ec9bdaab6b5d330d2af3a4","null","null","<p style=""font-size: 60px; font-family: BACS"">LQurvcb</p>","","","","","","","","","",""
"html-keyboard-response","273","416081","0.0-13.0-0.23","5f5282f98bb76c54f2c603a7","64e77d7b61f440b60e28659d","64ec9bdaab6b5d330d2af3a4","null","null","<p style=""font-size: 60px; font-family: BACS"">NbacAJUNa</p>","","","","","","","","","",""
"html-keyboard-response","274","417096","0.0-13.0-0.24","5f5282f98bb76c54f2c603a7","64e77d7b61f440b60e28659d","64ec9bdaab6b5d330d2af3a4","null","null","<p style=""font-size: 60px; font-family: BACS"">TCbDCbdtK</p>","","","","","","","","","",""
"html-keyboard-response","275","418111","0.0-13.0-0.25","5f5282f98bb76c54f2c603a7","64e77d7b61f440b60e28659d","64ec9bdaab6b5d330d2af3a4","null","null","<p style=""font-size: 60px; font-family: BACS"">mhtcYDE</p>","","","","","","","","","",""
"html-keyboard-response","276","419122","0.0-13.0-0.26","5f5282f98bb76c54f2c603a7","64e77d7b61f440b60e28659d","64ec9bdaab6b5d330d2af3a4","null","null","<p style=""font-size: 60px; font-family: BACS"">RlAKcbdtK</p>","","","","","","","","","",""
"html-keyboard-response","277","420135","0.0-13.0-0.27","5f5282f98bb76c54f2c603a7","64e77d7b61f440b60e28659d","64ec9bdaab6b5d330d2af3a4","null","null","<p style=""font-size: 60px; font-family: BACS"">lAOKMPEdK</p>","","","","","","","","","",""
"html-keyboard-response","278","421137","0.0-13.0-0.28","5f5282f98bb76c54f2c603a7","64e77d7b61f440b60e28659d","64ec9bdaab6b5d330d2af3a4","null","null","<p style=""font-size: 60px; font-family: BACS"">ktBdYDE</p>","","","","","","","","","",""
"html-keyboard-response","279","422140","0.0-13.0-0.29","5f5282f98bb76c54f2c603a7","64e77d7b61f440b60e28659d","64ec9bdaab6b5d330d2af3a4","null","null","<p style=""font-size: 60px; font-family: BACS"">YKRkmCd</p>","","","","","","","","","",""
"html-keyboard-response","280","423155","0.0-13.0-0.30","5f5282f98bb76c54f2c603a7","64e77d7b61f440b60e28659d","64ec9bdaab6b5d330d2af3a4","null","null","<p style=""font-size: 60px; font-family: BACS"">mhtcPEdK</p>","","","","","","","","","",""
"html-keyboard-response","281","424158","0.0-13.0-0.31","5f5282f98bb76c54f2c603a7","64e77d7b61f440b60e28659d","64ec9bdaab6b5d330d2af3a4","null","null","<p style=""font-size: 60px; font-family: BACS"">RlAKcYTOM</p>","","","","","","","","","",""
"html-keyboard-response","282","425167","0.0-13.0-0.32","5f5282f98bb76c54f2c603a7","64e77d7b61f440b60e28659d","64ec9bdaab6b5d330d2af3a4","null","null","<p style=""font-size: 60px; font-family: BACS"">mbZlJUNa</p>","","","","","","","","","",""
"html-keyboard-response","283","426179","0.0-13.0-0.33","5f5282f98bb76c54f2c603a7","64e77d7b61f440b60e28659d","64ec9bdaab6b5d330d2af3a4","null","null","<p style=""font-size: 60px; font-family: BACS"">Udbdvcb</p>","","","","","","","","","",""
"html-keyboard-response","284","427190","0.0-13.0-0.34","5f5282f98bb76c54f2c603a7","64e77d7b61f440b60e28659d","64ec9bdaab6b5d330d2af3a4","null","null","<p style=""font-size: 60px; font-family: BACS"">DmAMEYTOM</p>","","","","","","","","","",""
"html-keyboard-response","285","428191","0.0-13.0-0.35","5f5282f98bb76c54f2c603a7","64e77d7b61f440b60e28659d","64ec9bdaab6b5d330d2af3a4","null","null","<p style=""font-size: 60px; font-family: BACS"">ktBdmCd</p>","","","","","","","","","",""
"html-keyboard-response","286","429206","0.0-13.0-0.36","5f5282f98bb76c54f2c603a7","64e77d7b61f440b60e28659d","64ec9bdaab6b5d330d2af3a4","null","null","<p style=""font-size: 60px; font-family: BACS"">mdlavcb</p>","","","","","","","","","",""
"html-keyboard-response","287","430207","0.0-13.0-0.37","5f5282f98bb76c54f2c603a7","64e77d7b61f440b60e28659d","64ec9bdaab6b5d330d2af3a4","null","null","<p style=""font-size: 60px; font-family: BACS"">GNAcaJUNa</p>","","","","","","","","","",""
"html-keyboard-response","288","431208","0.0-13.0-0.38","5f5282f98bb76c54f2c603a7","64e77d7b61f440b60e28659d","64ec9bdaab6b5d330d2af3a4","null","null","<p style=""font-size: 60px; font-family: BACS"">AZaJcQvlZ</p>","","","","","","","","","",""
"html-keyboard-response","289","432210","0.0-13.0-0.39","5f5282f98bb76c54f2c603a7","64e77d7b61f440b60e28659d","64ec9bdaab6b5d330d2af3a4","null","null","<p style=""font-size: 60px; font-family: BACS"">TdTDYDE</p>","","","","","","","","","",""
"html-keyboard-response","290","433220","0.0-13.0-0.40","5f5282f98bb76c54f2c603a7","64e77d7b61f440b60e28659d","64ec9bdaab6b5d330d2af3a4","null","null","<p style=""font-size: 60px; font-family: BACS"">YKRkbdtK</p>","","","","","","","","","",""
"html-keyboard-response","291","434234","0.0-13.0-0.41","5f5282f98bb76c54f2c603a7","64e77d7b61f440b60e28659d","64ec9bdaab6b5d330d2af3a4","null","null","<p style=""font-size: 60px; font-family: BACS"">tdDdmCd</p>","","","","","","","","","",""
"html-keyboard-response","292","435235","0.0-13.0-0.42","5f5282f98bb76c54f2c603a7","64e77d7b61f440b60e28659d","64ec9bdaab6b5d330d2af3a4","null","null","<p style=""font-size: 60px; font-family: BACS"">TdTDPEdK</p>","","","","","","","","","",""
"html-keyboard-response","293","436237","0.0-13.0-0.43","5f5282f98bb76c54f2c603a7","64e77d7b61f440b60e28659d","64ec9bdaab6b5d330d2af3a4","null","null","<p style=""font-size: 60px; font-family: BACS"">TCbDCmCd</p>","","","","","","","","","",""
"html-keyboard-response","294","437238","0.0-13.0-0.44","5f5282f98bb76c54f2c603a7","64e77d7b61f440b60e28659d","64ec9bdaab6b5d330d2af3a4","null","null","<p style=""font-size: 60px; font-family: BACS"">lAOKMYTOM</p>","","","","","","","","","",""
"html-keyboard-response","295","438253","0.0-13.0-0.45","5f5282f98bb76c54f2c603a7","64e77d7b61f440b60e28659d","64ec9bdaab6b5d330d2af3a4","null","null","<p style=""font-size: 60px; font-family: BACS"">TdTDbdtK</p>","","","","","","","","","",""
"html-keyboard-response","296","439268","0.0-13.0-0.46","5f5282f98bb76c54f2c603a7","64e77d7b61f440b60e28659d","64ec9bdaab6b5d330d2af3a4","null","null","<p style=""font-size: 60px; font-family: BACS"">DmAMEmCd</p>","","","","","","","","","",""
"html-keyboard-response","297","440269","0.0-13.0-0.47","5f5282f98bb76c54f2c603a7","64e77d7b61f440b60e28659d","64ec9bdaab6b5d330d2af3a4","null","null","<p style=""font-size: 60px; font-family: BACS"">RlAKcYDE</p>","","","","","","","","","",""
"html-keyboard-response","298","441271","0.0-13.0-0.48","5f5282f98bb76c54f2c603a7","64e77d7b61f440b60e28659d","64ec9bdaab6b5d330d2af3a4","null","null","<p style=""font-size: 60px; font-family: BACS"">ckduAvJQ</p>","","","","","","","","","",""
"html-keyboard-response","299","442272","0.0-13.0-0.49","5f5282f98bb76c54f2c603a7","64e77d7b61f440b60e28659d","64ec9bdaab6b5d330d2af3a4","null","null","<p style=""font-size: 60px; font-family: BACS"">AZaJcNYZu</p>","","","","","","","","","",""
"html-keyboard-response","300","443284","0.0-13.0-0.50","5f5282f98bb76c54f2c603a7","64e77d7b61f440b60e28659d","64ec9bdaab6b5d330d2af3a4","null","null","<p style=""font-size: 60px; font-family: BACS"">UdbdJUNa</p>","","","","","","","","","",""
"html-keyboard-response","301","444299","0.0-13.0-0.51","5f5282f98bb76c54f2c603a7","64e77d7b61f440b60e28659d","64ec9bdaab6b5d330d2af3a4","null","null","<p style=""font-size: 60px; font-family: BACS"">LQurvJQ</p>","","","","","","","","","",""
"html-keyboard-response","302","445301","0.0-13.0-0.52","5f5282f98bb76c54f2c603a7","64e77d7b61f440b60e28659d","64ec9bdaab6b5d330d2af3a4","null","null","<p style=""font-size: 60px; font-family: BACS"">aUZAvcb</p>","","","","","","","","","",""
"html-keyboard-response","303","446317","0.0-13.0-0.53","5f5282f98bb76c54f2c603a7","64e77d7b61f440b60e28659d","64ec9bdaab6b5d330d2af3a4","null","null","<p style=""font-size: 60px; font-family: BACS"">tdDdbdtK</p>","","","","","","","","","",""
"html-keyboard-response","304","447318","0.0-13.0-0.54","5f5282f98bb76c54f2c603a7","64e77d7b61f440b60e28659d","64ec9bdaab6b5d330d2af3a4","null","null","<p style=""font-size: 60px; font-family: BACS"">YKRkYTOM</p>","","","","","","","","","",""
"html-keyboard-response","305","448321","0.0-13.0-0.55","5f5282f98bb76c54f2c603a7","64e77d7b61f440b60e28659d","64ec9bdaab6b5d330d2af3a4","null","null","<p style=""font-size: 60px; font-family: BACS"">dmZvmNYZu</p>","","","","","","","","","",""
"html-keyboard-response","306","449322","0.0-13.0-0.56","5f5282f98bb76c54f2c603a7","64e77d7b61f440b60e28659d","64ec9bdaab6b5d330d2af3a4","null","null","<p style=""font-size: 60px; font-family: BACS"">mdlavJQ</p>","","","","","","","","","",""
"html-keyboard-response","307","450324","0.0-13.0-0.57","5f5282f98bb76c54f2c603a7","64e77d7b61f440b60e28659d","64ec9bdaab6b5d330d2af3a4","null","null","<p style=""font-size: 60px; font-family: BACS"">aUZANYZu</p>","","","","","","","","","",""
"html-keyboard-response","308","451326","0.0-13.0-0.58","5f5282f98bb76c54f2c603a7","64e77d7b61f440b60e28659d","64ec9bdaab6b5d330d2af3a4","null","null","<p style=""font-size: 60px; font-family: BACS"">TCbDCPEdK</p>","","","","","","","","","",""
"html-keyboard-response","309","452340","0.0-13.0-0.59","5f5282f98bb76c54f2c603a7","64e77d7b61f440b60e28659d","64ec9bdaab6b5d330d2af3a4","null","null","<p style=""font-size: 60px; font-family: BACS"">UdbdNYZu</p>","","","","","","","","","",""
"html-keyboard-response","310","453353","0.0-13.0-0.60","5f5282f98bb76c54f2c603a7","64e77d7b61f440b60e28659d","64ec9bdaab6b5d330d2af3a4","null","null","<p style=""font-size: 60px; font-family: BACS"">TCbDCYDE</p>","","","","","","","","","",""
"html-keyboard-response","311","454361","0.0-13.0-0.61","5f5282f98bb76c54f2c603a7","64e77d7b61f440b60e28659d","64ec9bdaab6b5d330d2af3a4","null","null","<p style=""font-size: 60px; font-family: BACS"">dmZvmQvlZ</p>","","","","","","","","","",""
"html-keyboard-response","312","455375","0.0-13.0-0.62","5f5282f98bb76c54f2c603a7","64e77d7b61f440b60e28659d","64ec9bdaab6b5d330d2af3a4","null","null","<p style=""font-size: 60px; font-family: BACS"">tdDdYDE</p>","","","","","","","","","",""
"html-keyboard-response","313","456376","0.0-13.0-0.63","5f5282f98bb76c54f2c603a7","64e77d7b61f440b60e28659d","64ec9bdaab6b5d330d2af3a4","null","null","<p style=""font-size: 60px; font-family: BACS"">dmZvmvJQ</p>","","","","","","","","","",""
"html-keyboard-response","314","457389","0.0-13.0-0.64","5f5282f98bb76c54f2c603a7","64e77d7b61f440b60e28659d","64ec9bdaab6b5d330d2af3a4","null","null","<p style=""font-size: 60px; font-family: BACS"">lAOKMYDE</p>","","","","","","","","","",""
"html-keyboard-response","315","458403","0.0-13.0-0.65","5f5282f98bb76c54f2c603a7","64e77d7b61f440b60e28659d","64ec9bdaab6b5d330d2af3a4","null","null","<p style=""font-size: 60px; font-family: BACS"">mBmlAmCd</p>","","","","","","","","","",""
"html-keyboard-response","316","459404","0.0-13.0-0.66","5f5282f98bb76c54f2c603a7","64e77d7b61f440b60e28659d","64ec9bdaab6b5d330d2af3a4","null","null","<p style=""font-size: 60px; font-family: BACS"">YKRkPEdK</p>","","","","","","","","","",""
"html-keyboard-response","317","460417","0.0-13.0-0.67","5f5282f98bb76c54f2c603a7","64e77d7b61f440b60e28659d","64ec9bdaab6b5d330d2af3a4","null","null","<p style=""font-size: 60px; font-family: BACS"">LQurNYZu</p>","","","","","","","","","",""
"html-keyboard-response","318","461432","0.0-13.0-0.68","5f5282f98bb76c54f2c603a7","64e77d7b61f440b60e28659d","64ec9bdaab6b5d330d2af3a4","null","null","<p style=""font-size: 60px; font-family: BACS"">mdlaQvlZ</p>","","","","","","","","","",""
"html-keyboard-response","319","462445","0.0-13.0-0.69","5f5282f98bb76c54f2c603a7","64e77d7b61f440b60e28659d","64ec9bdaab6b5d330d2af3a4","null","null","<p style=""font-size: 60px; font-family: BACS"">ckduAvcb</p>","","","","","","","","","",""
"html-keyboard-response","320","463446","0.0-13.0-0.70","5f5282f98bb76c54f2c603a7","64e77d7b61f440b60e28659d","64ec9bdaab6b5d330d2af3a4","null","null","<p style=""font-size: 60px; font-family: BACS"">aUZAJUNa</p>","","","","","","","","","",""
"html-keyboard-response","321","464461","0.0-13.0-0.71","5f5282f98bb76c54f2c603a7","64e77d7b61f440b60e28659d","64ec9bdaab6b5d330d2af3a4","null","null","<p style=""font-size: 60px; font-family: BACS"">tdDdYTOM</p>","","","","","","","","","",""
"html-keyboard-response","322","465475","0.0-13.0-0.72","5f5282f98bb76c54f2c603a7","64e77d7b61f440b60e28659d","64ec9bdaab6b5d330d2af3a4","null","null","<p style=""font-size: 60px; font-family: BACS"">mhtcbdtK</p>","","","","","","","","","",""
"html-keyboard-response","323","466481","0.0-13.0-0.73","5f5282f98bb76c54f2c603a7","64e77d7b61f440b60e28659d","64ec9bdaab6b5d330d2af3a4","null","null","<p style=""font-size: 60px; font-family: BACS"">GNAcaNYZu</p>","","","","","","","","","",""
"html-keyboard-response","324","467483","0.0-13.0-0.74","5f5282f98bb76c54f2c603a7","64e77d7b61f440b60e28659d","64ec9bdaab6b5d330d2af3a4","null","null","<p style=""font-size: 60px; font-family: BACS"">TdTDYTOM</p>","","","","","","","","","",""
"html-keyboard-response","325","468491","0.0-13.0-0.75","5f5282f98bb76c54f2c603a7","64e77d7b61f440b60e28659d","64ec9bdaab6b5d330d2af3a4","null","null","<p style=""font-size: 60px; font-family: BACS"">mBmlAYDE</p>","","","","","","","","","",""
"html-keyboard-response","326","469492","0.0-13.0-0.76","5f5282f98bb76c54f2c603a7","64e77d7b61f440b60e28659d","64ec9bdaab6b5d330d2af3a4","null","null","<p style=""font-size: 60px; font-family: BACS"">mbZlvJQ</p>","","","","","","","","","",""
"html-keyboard-response","327","470503","0.0-13.0-0.77","5f5282f98bb76c54f2c603a7","64e77d7b61f440b60e28659d","64ec9bdaab6b5d330d2af3a4","null","null","<p style=""font-size: 60px; font-family: BACS"">mdlaJUNa</p>","","","","","","","","","",""
"html-keyboard-response","328","471520","0.0-13.0-0.78","5f5282f98bb76c54f2c603a7","64e77d7b61f440b60e28659d","64ec9bdaab6b5d330d2af3a4","null","null","<p style=""font-size: 60px; font-family: BACS"">dmZvmvcb</p>","","","","","","","","","",""
"html-keyboard-response","329","472536","0.0-13.0-0.79","5f5282f98bb76c54f2c603a7","64e77d7b61f440b60e28659d","64ec9bdaab6b5d330d2af3a4","null","null","<p style=""font-size: 60px; font-family: BACS"">NbacAQvlZ</p>","","","","","","","","","",""
"html-keyboard-response","330","485469","0.0-14.0","5f5282f98bb76c54f2c603a7","64e77d7b61f440b60e28659d","64ec9bdaab6b5d330d2af3a4","12933"," ","<p>Great, you've seen the fourth block of words. You may now take a short break.</p>
      <p>Press the spacebar when you're ready to continue.</p>","","","","","","","","","",""
"html-keyboard-response","331","486473","0.0-15.0-0.0","5f5282f98bb76c54f2c603a7","64e77d7b61f440b60e28659d","64ec9bdaab6b5d330d2af3a4","null","null","<p style=""font-size: 60px; font-family: BACS"">YKRkmCd</p>","","","","","","","","","",""
"html-keyboard-response","332","487476","0.0-15.0-0.1","5f5282f98bb76c54f2c603a7","64e77d7b61f440b60e28659d","64ec9bdaab6b5d330d2af3a4","null","null","<p style=""font-size: 60px; font-family: BACS"">YKRkmCd</p>","","","","","","","","","",""
"html-keyboard-response","333","488492","0.0-15.0-0.2","5f5282f98bb76c54f2c603a7","64e77d7b61f440b60e28659d","64ec9bdaab6b5d330d2af3a4","null","null","<p style=""font-size: 60px; font-family: BACS"">YKRkmCd</p>","","","","","","","","","",""
"html-keyboard-response","334","489493","0.0-15.0-0.3","5f5282f98bb76c54f2c603a7","64e77d7b61f440b60e28659d","64ec9bdaab6b5d330d2af3a4","null","null","<p style=""font-size: 60px; font-family: BACS"">YKRkmCd</p>","","","","","","","","","",""
"html-keyboard-response","335","490495","0.0-15.0-0.4","5f5282f98bb76c54f2c603a7","64e77d7b61f440b60e28659d","64ec9bdaab6b5d330d2af3a4","null","null","<p style=""font-size: 60px; font-family: BACS"">YKRkmCd</p>","","","","","","","","","",""
"html-keyboard-response","336","491504","0.0-15.0-0.5","5f5282f98bb76c54f2c603a7","64e77d7b61f440b60e28659d","64ec9bdaab6b5d330d2af3a4","null","null","<p style=""font-size: 60px; font-family: BACS"">YKRkmCd</p>","","","","","","","","","",""
"html-keyboard-response","337","492506","0.0-15.0-0.6","5f5282f98bb76c54f2c603a7","64e77d7b61f440b60e28659d","64ec9bdaab6b5d330d2af3a4","null","null","<p style=""font-size: 60px; font-family: BACS"">YKRkmCd</p>","","","","","","","","","",""
"html-keyboard-response","338","493508","0.0-15.0-0.7","5f5282f98bb76c54f2c603a7","64e77d7b61f440b60e28659d","64ec9bdaab6b5d330d2af3a4","null","null","<p style=""font-size: 60px; font-family: BACS"">YKRkmCd</p>","","","","","","","","","",""
"html-keyboard-response","339","494516","0.0-15.0-0.8","5f5282f98bb76c54f2c603a7","64e77d7b61f440b60e28659d","64ec9bdaab6b5d330d2af3a4","null","null","<p style=""font-size: 60px; font-family: BACS"">YKRkmCd</p>","","","","","","","","","",""
"html-keyboard-response","340","495517","0.0-15.0-0.9","5f5282f98bb76c54f2c603a7","64e77d7b61f440b60e28659d","64ec9bdaab6b5d330d2af3a4","null","null","<p style=""font-size: 60px; font-family: BACS"">YKRkmCd</p>","","","","","","","","","",""
"html-keyboard-response","341","496530","0.0-15.0-0.10","5f5282f98bb76c54f2c603a7","64e77d7b61f440b60e28659d","64ec9bdaab6b5d330d2af3a4","null","null","<p style=""font-size: 60px; font-family: BACS"">YKRkmCd</p>","","","","","","","","","",""
"html-keyboard-response","342","497531","0.0-15.0-0.11","5f5282f98bb76c54f2c603a7","64e77d7b61f440b60e28659d","64ec9bdaab6b5d330d2af3a4","null","null","<p style=""font-size: 60px; font-family: BACS"">YKRkmCd</p>","","","","","","","","","",""
"html-keyboard-response","343","498533","0.0-15.0-0.12","5f5282f98bb76c54f2c603a7","64e77d7b61f440b60e28659d","64ec9bdaab6b5d330d2af3a4","null","null","<p style=""font-size: 60px; font-family: BACS"">YKRkmCd</p>","","","","","","","","","",""
"html-keyboard-response","344","499535","0.0-15.0-0.13","5f5282f98bb76c54f2c603a7","64e77d7b61f440b60e28659d","64ec9bdaab6b5d330d2af3a4","null","null","<p style=""font-size: 60px; font-family: BACS"">YKRkmCd</p>","","","","","","","","","",""
"html-keyboard-response","345","500552","0.0-15.0-0.14","5f5282f98bb76c54f2c603a7","64e77d7b61f440b60e28659d","64ec9bdaab6b5d330d2af3a4","null","null","<p style=""font-size: 60px; font-family: BACS"">YKRkmCd</p>","","","","","","","","","",""
"html-keyboard-response","346","501554","0.0-15.0-0.15","5f5282f98bb76c54f2c603a7","64e77d7b61f440b60e28659d","64ec9bdaab6b5d330d2af3a4","null","null","<p style=""font-size: 60px; font-family: BACS"">YKRkmCd</p>","","","","","","","","","",""
"html-keyboard-response","347","502569","0.0-15.0-0.16","5f5282f98bb76c54f2c603a7","64e77d7b61f440b60e28659d","64ec9bdaab6b5d330d2af3a4","null","null","<p style=""font-size: 60px; font-family: BACS"">YKRkmCd</p>","","","","","","","","","",""
"html-keyboard-response","348","503571","0.0-15.0-0.17","5f5282f98bb76c54f2c603a7","64e77d7b61f440b60e28659d","64ec9bdaab6b5d330d2af3a4","null","null","<p style=""font-size: 60px; font-family: BACS"">YKRkmCd</p>","","","","","","","","","",""
"html-keyboard-response","349","504573","0.0-15.0-0.18","5f5282f98bb76c54f2c603a7","64e77d7b61f440b60e28659d","64ec9bdaab6b5d330d2af3a4","null","null","<p style=""font-size: 60px; font-family: BACS"">YKRkmCd</p>","","","","","","","","","",""
"html-keyboard-response","350","505585","0.0-15.0-0.19","5f5282f98bb76c54f2c603a7","64e77d7b61f440b60e28659d","64ec9bdaab6b5d330d2af3a4","null","null","<p style=""font-size: 60px; font-family: BACS"">YKRkmCd</p>","","","","","","","","","",""
"html-keyboard-response","351","506601","0.0-15.0-0.20","5f5282f98bb76c54f2c603a7","64e77d7b61f440b60e28659d","64ec9bdaab6b5d330d2af3a4","null","null","<p style=""font-size: 60px; font-family: BACS"">YKRkmCd</p>","","","","","","","","","",""
"html-keyboard-response","352","507617","0.0-15.0-0.21","5f5282f98bb76c54f2c603a7","64e77d7b61f440b60e28659d","64ec9bdaab6b5d330d2af3a4","null","null","<p style=""font-size: 60px; font-family: BACS"">YKRkmCd</p>","","","","","","","","","",""
"html-keyboard-response","353","508634","0.0-15.0-0.22","5f5282f98bb76c54f2c603a7","64e77d7b61f440b60e28659d","64ec9bdaab6b5d330d2af3a4","null","null","<p style=""font-size: 60px; font-family: BACS"">YKRkmCd</p>","","","","","","","","","",""
"html-keyboard-response","354","509637","0.0-15.0-0.23","5f5282f98bb76c54f2c603a7","64e77d7b61f440b60e28659d","64ec9bdaab6b5d330d2af3a4","null","null","<p style=""font-size: 60px; font-family: BACS"">YKRkmCd</p>","","","","","","","","","",""
"html-keyboard-response","355","510639","0.0-15.0-0.24","5f5282f98bb76c54f2c603a7","64e77d7b61f440b60e28659d","64ec9bdaab6b5d330d2af3a4","null","null","<p style=""font-size: 60px; font-family: BACS"">YKRkmCd</p>","","","","","","","","","",""
"html-keyboard-response","356","511641","0.0-15.0-0.25","5f5282f98bb76c54f2c603a7","64e77d7b61f440b60e28659d","64ec9bdaab6b5d330d2af3a4","null","null","<p style=""font-size: 60px; font-family: BACS"">YKRkmCd</p>","","","","","","","","","",""
"html-keyboard-response","357","512642","0.0-15.0-0.26","5f5282f98bb76c54f2c603a7","64e77d7b61f440b60e28659d","64ec9bdaab6b5d330d2af3a4","null","null","<p style=""font-size: 60px; font-family: BACS"">YKRkmCd</p>","","","","","","","","","",""
"html-keyboard-response","358","513649","0.0-15.0-0.27","5f5282f98bb76c54f2c603a7","64e77d7b61f440b60e28659d","64ec9bdaab6b5d330d2af3a4","null","null","<p style=""font-size: 60px; font-family: BACS"">YKRkmCd</p>","","","","","","","","","",""
"html-keyboard-response","359","514659","0.0-15.0-0.28","5f5282f98bb76c54f2c603a7","64e77d7b61f440b60e28659d","64ec9bdaab6b5d330d2af3a4","null","null","<p style=""font-size: 60px; font-family: BACS"">YKRkmCd</p>","","","","","","","","","",""
"html-keyboard-response","360","515673","0.0-15.0-0.29","5f5282f98bb76c54f2c603a7","64e77d7b61f440b60e28659d","64ec9bdaab6b5d330d2af3a4","null","null","<p style=""font-size: 60px; font-family: BACS"">YKRkmCd</p>","","","","","","","","","",""
"html-keyboard-response","361","516682","0.0-15.0-0.30","5f5282f98bb76c54f2c603a7","64e77d7b61f440b60e28659d","64ec9bdaab6b5d330d2af3a4","null","null","<p style=""font-size: 60px; font-family: BACS"">YKRkmCd</p>","","","","","","","","","",""
"html-keyboard-response","362","517683","0.0-15.0-0.31","5f5282f98bb76c54f2c603a7","64e77d7b61f440b60e28659d","64ec9bdaab6b5d330d2af3a4","null","null","<p style=""font-size: 60px; font-family: BACS"">YKRkmCd</p>","","","","","","","","","",""
"html-keyboard-response","363","518685","0.0-15.0-0.32","5f5282f98bb76c54f2c603a7","64e77d7b61f440b60e28659d","64ec9bdaab6b5d330d2af3a4","null","null","<p style=""font-size: 60px; font-family: BACS"">YKRkmCd</p>","","","","","","","","","",""
"html-keyboard-response","364","519692","0.0-15.0-0.33","5f5282f98bb76c54f2c603a7","64e77d7b61f440b60e28659d","64ec9bdaab6b5d330d2af3a4","null","null","<p style=""font-size: 60px; font-family: BACS"">YKRkmCd</p>","","","","","","","","","",""
"html-keyboard-response","365","520703","0.0-15.0-0.34","5f5282f98bb76c54f2c603a7","64e77d7b61f440b60e28659d","64ec9bdaab6b5d330d2af3a4","null","null","<p style=""font-size: 60px; font-family: BACS"">YKRkmCd</p>","","","","","","","","","",""
"html-keyboard-response","366","521719","0.0-15.0-0.35","5f5282f98bb76c54f2c603a7","64e77d7b61f440b60e28659d","64ec9bdaab6b5d330d2af3a4","null","null","<p style=""font-size: 60px; font-family: BACS"">YKRkmCd</p>","","","","","","","","","",""
"html-keyboard-response","367","522720","0.0-15.0-0.36","5f5282f98bb76c54f2c603a7","64e77d7b61f440b60e28659d","64ec9bdaab6b5d330d2af3a4","null","null","<p style=""font-size: 60px; font-family: BACS"">YKRkmCd</p>","","","","","","","","","",""
"html-keyboard-response","368","523728","0.0-15.0-0.37","5f5282f98bb76c54f2c603a7","64e77d7b61f440b60e28659d","64ec9bdaab6b5d330d2af3a4","null","null","<p style=""font-size: 60px; font-family: BACS"">YKRkmCd</p>","","","","","","","","","",""
"html-keyboard-response","369","524746","0.0-15.0-0.38","5f5282f98bb76c54f2c603a7","64e77d7b61f440b60e28659d","64ec9bdaab6b5d330d2af3a4","null","null","<p style=""font-size: 60px; font-family: BACS"">YKRkmCd</p>","","","","","","","","","",""
"html-keyboard-response","370","525757","0.0-15.0-0.39","5f5282f98bb76c54f2c603a7","64e77d7b61f440b60e28659d","64ec9bdaab6b5d330d2af3a4","null","null","<p style=""font-size: 60px; font-family: BACS"">YKRkmCd</p>","","","","","","","","","",""
"html-keyboard-response","371","526761","0.0-15.0-0.40","5f5282f98bb76c54f2c603a7","64e77d7b61f440b60e28659d","64ec9bdaab6b5d330d2af3a4","null","null","<p style=""font-size: 60px; font-family: BACS"">YKRkmCd</p>","","","","","","","","","",""
"html-keyboard-response","372","527770","0.0-15.0-0.41","5f5282f98bb76c54f2c603a7","64e77d7b61f440b60e28659d","64ec9bdaab6b5d330d2af3a4","null","null","<p style=""font-size: 60px; font-family: BACS"">YKRkmCd</p>","","","","","","","","","",""
"html-keyboard-response","373","528781","0.0-15.0-0.42","5f5282f98bb76c54f2c603a7","64e77d7b61f440b60e28659d","64ec9bdaab6b5d330d2af3a4","null","null","<p style=""font-size: 60px; font-family: BACS"">YKRkmCd</p>","","","","","","","","","",""
"html-keyboard-response","374","529791","0.0-15.0-0.43","5f5282f98bb76c54f2c603a7","64e77d7b61f440b60e28659d","64ec9bdaab6b5d330d2af3a4","null","null","<p style=""font-size: 60px; font-family: BACS"">YKRkmCd</p>","","","","","","","","","",""
"html-keyboard-response","375","530804","0.0-15.0-0.44","5f5282f98bb76c54f2c603a7","64e77d7b61f440b60e28659d","64ec9bdaab6b5d330d2af3a4","null","null","<p style=""font-size: 60px; font-family: BACS"">YKRkmCd</p>","","","","","","","","","",""
"html-keyboard-response","376","531805","0.0-15.0-0.45","5f5282f98bb76c54f2c603a7","64e77d7b61f440b60e28659d","64ec9bdaab6b5d330d2af3a4","null","null","<p style=""font-size: 60px; font-family: BACS"">YKRkmCd</p>","","","","","","","","","",""
"html-keyboard-response","377","532821","0.0-15.0-0.46","5f5282f98bb76c54f2c603a7","64e77d7b61f440b60e28659d","64ec9bdaab6b5d330d2af3a4","null","null","<p style=""font-size: 60px; font-family: BACS"">YKRkmCd</p>","","","","","","","","","",""
"html-keyboard-response","378","533822","0.0-15.0-0.47","5f5282f98bb76c54f2c603a7","64e77d7b61f440b60e28659d","64ec9bdaab6b5d330d2af3a4","null","null","<p style=""font-size: 60px; font-family: BACS"">YKRkmCd</p>","","","","","","","","","",""
"html-keyboard-response","379","534836","0.0-15.0-0.48","5f5282f98bb76c54f2c603a7","64e77d7b61f440b60e28659d","64ec9bdaab6b5d330d2af3a4","null","null","<p style=""font-size: 60px; font-family: BACS"">YKRkmCd</p>","","","","","","","","","",""
"html-keyboard-response","380","535837","0.0-15.0-0.49","5f5282f98bb76c54f2c603a7","64e77d7b61f440b60e28659d","64ec9bdaab6b5d330d2af3a4","null","null","<p style=""font-size: 60px; font-family: BACS"">YKRkmCd</p>","","","","","","","","","",""
"html-keyboard-response","381","536839","0.0-15.0-0.50","5f5282f98bb76c54f2c603a7","64e77d7b61f440b60e28659d","64ec9bdaab6b5d330d2af3a4","null","null","<p style=""font-size: 60px; font-family: BACS"">YKRkmCd</p>","","","","","","","","","",""
"html-keyboard-response","382","537849","0.0-15.0-0.51","5f5282f98bb76c54f2c603a7","64e77d7b61f440b60e28659d","64ec9bdaab6b5d330d2af3a4","null","null","<p style=""font-size: 60px; font-family: BACS"">YKRkmCd</p>","","","","","","","","","",""
"html-keyboard-response","383","538850","0.0-15.0-0.52","5f5282f98bb76c54f2c603a7","64e77d7b61f440b60e28659d","64ec9bdaab6b5d330d2af3a4","null","null","<p style=""font-size: 60px; font-family: BACS"">YKRkmCd</p>","","","","","","","","","",""
"html-keyboard-response","384","539857","0.0-15.0-0.53","5f5282f98bb76c54f2c603a7","64e77d7b61f440b60e28659d","64ec9bdaab6b5d330d2af3a4","null","null","<p style=""font-size: 60px; font-family: BACS"">YKRkmCd</p>","","","","","","","","","",""
"html-keyboard-response","385","540861","0.0-15.0-0.54","5f5282f98bb76c54f2c603a7","64e77d7b61f440b60e28659d","64ec9bdaab6b5d330d2af3a4","null","null","<p style=""font-size: 60px; font-family: BACS"">YKRkmCd</p>","","","","","","","","","",""
"html-keyboard-response","386","541863","0.0-15.0-0.55","5f5282f98bb76c54f2c603a7","64e77d7b61f440b60e28659d","64ec9bdaab6b5d330d2af3a4","null","null","<p style=""font-size: 60px; font-family: BACS"">YKRkmCd</p>","","","","","","","","","",""
"html-keyboard-response","387","542864","0.0-15.0-0.56","5f5282f98bb76c54f2c603a7","64e77d7b61f440b60e28659d","64ec9bdaab6b5d330d2af3a4","null","null","<p style=""font-size: 60px; font-family: BACS"">YKRkmCd</p>","","","","","","","","","",""
"html-keyboard-response","388","543876","0.0-15.0-0.57","5f5282f98bb76c54f2c603a7","64e77d7b61f440b60e28659d","64ec9bdaab6b5d330d2af3a4","null","null","<p style=""font-size: 60px; font-family: BACS"">YKRkmCd</p>","","","","","","","","","",""
"html-keyboard-response","389","544877","0.0-15.0-0.58","5f5282f98bb76c54f2c603a7","64e77d7b61f440b60e28659d","64ec9bdaab6b5d330d2af3a4","null","null","<p style=""font-size: 60px; font-family: BACS"">YKRkmCd</p>","","","","","","","","","",""
"html-keyboard-response","390","545888","0.0-15.0-0.59","5f5282f98bb76c54f2c603a7","64e77d7b61f440b60e28659d","64ec9bdaab6b5d330d2af3a4","null","null","<p style=""font-size: 60px; font-family: BACS"">YKRkmCd</p>","","","","","","","","","",""
"html-keyboard-response","391","546903","0.0-15.0-0.60","5f5282f98bb76c54f2c603a7","64e77d7b61f440b60e28659d","64ec9bdaab6b5d330d2af3a4","null","null","<p style=""font-size: 60px; font-family: BACS"">YKRkmCd</p>","","","","","","","","","",""
"html-keyboard-response","392","547916","0.0-15.0-0.61","5f5282f98bb76c54f2c603a7","64e77d7b61f440b60e28659d","64ec9bdaab6b5d330d2af3a4","null","null","<p style=""font-size: 60px; font-family: BACS"">YKRkmCd</p>","","","","","","","","","",""
"html-keyboard-response","393","548925","0.0-15.0-0.62","5f5282f98bb76c54f2c603a7","64e77d7b61f440b60e28659d","64ec9bdaab6b5d330d2af3a4","null","null","<p style=""font-size: 60px; font-family: BACS"">YKRkmCd</p>","","","","","","","","","",""
