"trial_type","trial_index","time_elapsed","internal_node_id","subject_id","study_id","session_id","rt","response","stimulus","success","item","task","correct_response","testing_condition","correct","target","confound","name"
"pavlovia","0","2421","0.0-0.0","60e703e4908998ebc5679e8a","650c16f0f2faf8d7a0d14c09","651d21eb24d8ffa67781a807","","","","","","","","","","","",""
"survey-html-form","1","28780","0.0-1.0","60e703e4908998ebc5679e8a","650c16f0f2faf8d7a0d14c09","651d21eb24d8ffa67781a807","26358","{""ID"":""60e703e4908998ebc5679e8a""}","","","","","","","","","",""
"html-keyboard-response","2","48020","0.0-2.0","60e703e4908998ebc5679e8a","650c16f0f2faf8d7a0d14c09","651d21eb24d8ffa67781a807","19239"," ","<p style=""font-size: 15px;"">Before beginning, we ask that you read the consent information and confirm your agreement to participate in the experiment.</p>
      <p style=""font-size: 15px;""> We ask that you remember that this is a research project and that your participation is entirely voluntary. You can stop your participation at any time, without needing to provide any explanation. The study we're asking you to participate in aims at examining how readers process written words. You will be engaged in a session of apprximately 20 minutes, followed by a brief questionnaire. You will have the opportunity to take a few breaks during the experiment. You will be paid £4 for your participation, corresponding to a rate of £8/hour. While this experiment looks at cognitive faculties, this experiment doesn't constitute clinical proof of eventual pathologies.</p>
      <p style=""font-size: 15px;"">All of the information collected thanks to yours and others' participation will be held in a secure password-protected server, and will not be shared with anyone not authorised to view it. Your personal information will be kept with an arbitrary participant ID. Thanks to this data anonymity process, any researcher analysing the data won't be able to track the information back to a specific participant. Therefore, this process will make identifying you impossibile, even when results from the study will be published in scientific reviews, presented at congresses, or at any other public forum. More generally, the collected data will be treated in accordance with the laws on privacy and conformity to the Legislative Degree n. 196 ""Code regarding the protection of personal data"" of the 30th of June 2003 and to the European Regulation 2016/670 (General Data Protection Regulation - GDPR). The Data Protection Officer is Avv. Valentina Carollo, who can be contacted at the following email addresses: <a href=""mailto:dpo@sissa.it"">dpo@sissa.it</a> or <a href=""mailto:rpd@sissa.it"">rpd@sissa.it</a> - PEC: <a href=""mailto:protocollo@pec.sissa.it"">protocollo@pec.sissa.it</a>.</p>
      <p style=""font-size: 15px;""> Before expressing your consent to participate, we would like to remind you again that in case you need explanations on any aspect of the experimental procedure, the researcher is at your disposition (<a href=""mailto:aliebelt@sissa.it"">aliebelt@sissa.it</a>, <a href=""mailto:davide.crepaldi@sissa.it"">davide.crepaldi@sissa.it</a>).</p>
      <p style=""font-size: 15px;"">If you would like to download the informed consent form, you can do so here: <a href=""BASL-Informed_Consent.pdf"" download>informed consent form</a>.</p>
      <p style=""font-size: 15px;"">We ask that you press the spacebar to proceed to the consent section.</p>","","","","","","","","",""
"survey-html-form","3","78359","0.0-3.0","60e703e4908998ebc5679e8a","650c16f0f2faf8d7a0d14c09","651d21eb24d8ffa67781a807","30338","{""consent1"":""YES"",""consent2"":""YES"",""consent3"":""YES"",""consent4"":""YES"",""consent5"":""YES"",""consent6"":""YES""}","","","","","","","","","",""
"fullscreen","4","94666","0.0-4.0","60e703e4908998ebc5679e8a","650c16f0f2faf8d7a0d14c09","651d21eb24d8ffa67781a807","","","","true","","","","","","","",""
"html-keyboard-response","5","98206","0.0-5.0","60e703e4908998ebc5679e8a","650c16f0f2faf8d7a0d14c09","651d21eb24d8ffa67781a807","3540"," ","<p>Welcome, and thank you very much for your time!</p>
      <p>In this experiment, you'll be a language expert who's been asked to take a look at words that Earth has received in its first communication with aliens. Your task, in this first part of the experiment, is to pay close attention to the words you'll be shown; later, world leaders will ask you questions on what you saw. The words will be shown to you quite quickly; it seems that the aliens were in a hurry :-)</p>
      <p>Press the spacebar to continue.<p>","","","","","","","","",""
"html-keyboard-response","6","98258","0.0-6.0","60e703e4908998ebc5679e8a","650c16f0f2faf8d7a0d14c09","651d21eb24d8ffa67781a807","null","null","<p style=""font-size: 120px; font-family: BACS""> </p>","","","","","","","","",""
"html-keyboard-response","7","103911","0.0-7.0","60e703e4908998ebc5679e8a","650c16f0f2faf8d7a0d14c09","651d21eb24d8ffa67781a807","5653"," ","<p>Here is an example of the words you'll see:</p>
      <img src='esempio.png' height='400px'>
      <p>When you're ready to begin, press the spacebar.</p></div>","","","","","","","","",""
"html-keyboard-response","8","104926","0.0-8.0-0.0","60e703e4908998ebc5679e8a","650c16f0f2faf8d7a0d14c09","651d21eb24d8ffa67781a807","null","null","<p style=""font-size: 60px; font-family: BACS"">YOZNArv</p>","","","","","","","","",""
"html-keyboard-response","9","105943","0.0-8.0-0.1","60e703e4908998ebc5679e8a","650c16f0f2faf8d7a0d14c09","651d21eb24d8ffa67781a807","null","null","<p style=""font-size: 60px; font-family: BACS"">lcOcGlu</p>","","","","","","","","",""
"html-keyboard-response","10","106957","0.0-8.0-0.2","60e703e4908998ebc5679e8a","650c16f0f2faf8d7a0d14c09","651d21eb24d8ffa67781a807","null","null","<p style=""font-size: 60px; font-family: BACS"">AlUYmLJ</p>","","","","","","","","",""
"html-keyboard-response","11","107971","0.0-8.0-0.3","60e703e4908998ebc5679e8a","650c16f0f2faf8d7a0d14c09","651d21eb24d8ffa67781a807","null","null","<p style=""font-size: 60px; font-family: BACS"">kcdOtcMRl</p>","","","","","","","","",""
"html-keyboard-response","12","108984","0.0-8.0-0.4","60e703e4908998ebc5679e8a","650c16f0f2faf8d7a0d14c09","651d21eb24d8ffa67781a807","null","null","<p style=""font-size: 60px; font-family: BACS"">AlUYArv</p>","","","","","","","","",""
"html-keyboard-response","13","109999","0.0-8.0-0.5","60e703e4908998ebc5679e8a","650c16f0f2faf8d7a0d14c09","651d21eb24d8ffa67781a807","null","null","<p style=""font-size: 60px; font-family: BACS"">uAkrAld</p>","","","","","","","","",""
"html-keyboard-response","14","111000","0.0-8.0-0.6","60e703e4908998ebc5679e8a","650c16f0f2faf8d7a0d14c09","651d21eb24d8ffa67781a807","null","null","<p style=""font-size: 60px; font-family: BACS"">dMYBPcMRl</p>","","","","","","","","",""
"html-keyboard-response","15","112003","0.0-8.0-0.7","60e703e4908998ebc5679e8a","650c16f0f2faf8d7a0d14c09","651d21eb24d8ffa67781a807","null","null","<p style=""font-size: 60px; font-family: BACS"">vQdOArv</p>","","","","","","","","",""
"html-keyboard-response","16","113017","0.0-8.0-0.8","60e703e4908998ebc5679e8a","650c16f0f2faf8d7a0d14c09","651d21eb24d8ffa67781a807","null","null","<p style=""font-size: 60px; font-family: BACS"">uauOGlu</p>","","","","","","","","",""
"html-keyboard-response","17","114032","0.0-8.0-0.9","60e703e4908998ebc5679e8a","650c16f0f2faf8d7a0d14c09","651d21eb24d8ffa67781a807","null","null","<p style=""font-size: 60px; font-family: BACS"">tRdMDlDT</p>","","","","","","","","",""
"html-keyboard-response","18","115036","0.0-8.0-0.10","60e703e4908998ebc5679e8a","650c16f0f2faf8d7a0d14c09","651d21eb24d8ffa67781a807","null","null","<p style=""font-size: 60px; font-family: BACS"">dMYBPmKcD</p>","","","","","","","","",""
"html-keyboard-response","19","116049","0.0-8.0-0.11","60e703e4908998ebc5679e8a","650c16f0f2faf8d7a0d14c09","651d21eb24d8ffa67781a807","null","null","<p style=""font-size: 60px; font-family: BACS"">YOZNmLJ</p>","","","","","","","","",""
"html-keyboard-response","20","117051","0.0-8.0-0.12","60e703e4908998ebc5679e8a","650c16f0f2faf8d7a0d14c09","651d21eb24d8ffa67781a807","null","null","<p style=""font-size: 60px; font-family: BACS"">hCktmKcD</p>","","","","","","","","",""
"html-keyboard-response","21","118064","0.0-8.0-0.13","60e703e4908998ebc5679e8a","650c16f0f2faf8d7a0d14c09","651d21eb24d8ffa67781a807","null","null","<p style=""font-size: 60px; font-family: BACS"">PCPDhDlDT</p>","","","","","","","","",""
"html-keyboard-response","22","119066","0.0-8.0-0.14","60e703e4908998ebc5679e8a","650c16f0f2faf8d7a0d14c09","651d21eb24d8ffa67781a807","null","null","<p style=""font-size: 60px; font-family: BACS"">KBKBETmTm</p>","","","","","","","","",""
"html-keyboard-response","23","120080","0.0-8.0-0.15","60e703e4908998ebc5679e8a","650c16f0f2faf8d7a0d14c09","651d21eb24d8ffa67781a807","null","null","<p style=""font-size: 60px; font-family: BACS"">PCPDhmKcD</p>","","","","","","","","",""
"html-keyboard-response","24","121096","0.0-8.0-0.16","60e703e4908998ebc5679e8a","650c16f0f2faf8d7a0d14c09","651d21eb24d8ffa67781a807","null","null","<p style=""font-size: 60px; font-family: BACS"">tRdMYDTk</p>","","","","","","","","",""
"html-keyboard-response","25","122112","0.0-8.0-0.17","60e703e4908998ebc5679e8a","650c16f0f2faf8d7a0d14c09","651d21eb24d8ffa67781a807","null","null","<p style=""font-size: 60px; font-family: BACS"">vQdOAZbl</p>","","","","","","","","",""
"html-keyboard-response","26","123118","0.0-8.0-0.18","60e703e4908998ebc5679e8a","650c16f0f2faf8d7a0d14c09","651d21eb24d8ffa67781a807","null","null","<p style=""font-size: 60px; font-family: BACS"">lcOcmLJ</p>","","","","","","","","",""
"html-keyboard-response","27","124120","0.0-8.0-0.19","60e703e4908998ebc5679e8a","650c16f0f2faf8d7a0d14c09","651d21eb24d8ffa67781a807","null","null","<p style=""font-size: 60px; font-family: BACS"">DlDdDlDT</p>","","","","","","","","",""
"html-keyboard-response","28","125132","0.0-8.0-0.20","60e703e4908998ebc5679e8a","650c16f0f2faf8d7a0d14c09","651d21eb24d8ffa67781a807","null","null","<p style=""font-size: 60px; font-family: BACS"">KDPATmTm</p>","","","","","","","","",""
"html-keyboard-response","29","126148","0.0-8.0-0.21","60e703e4908998ebc5679e8a","650c16f0f2faf8d7a0d14c09","651d21eb24d8ffa67781a807","null","null","<p style=""font-size: 60px; font-family: BACS"">lcOcArv</p>","","","","","","","","",""
"html-keyboard-response","30","127162","0.0-8.0-0.22","60e703e4908998ebc5679e8a","650c16f0f2faf8d7a0d14c09","651d21eb24d8ffa67781a807","null","null","<p style=""font-size: 60px; font-family: BACS"">dMYBPTmTm</p>","","","","","","","","",""
"html-keyboard-response","31","128174","0.0-8.0-0.23","60e703e4908998ebc5679e8a","650c16f0f2faf8d7a0d14c09","651d21eb24d8ffa67781a807","null","null","<p style=""font-size: 60px; font-family: BACS"">aOLZUAZbl</p>","","","","","","","","",""
"html-keyboard-response","32","129177","0.0-8.0-0.24","60e703e4908998ebc5679e8a","650c16f0f2faf8d7a0d14c09","651d21eb24d8ffa67781a807","null","null","<p style=""font-size: 60px; font-family: BACS"">rvAJAld</p>","","","","","","","","",""
"html-keyboard-response","33","130179","0.0-8.0-0.25","60e703e4908998ebc5679e8a","650c16f0f2faf8d7a0d14c09","651d21eb24d8ffa67781a807","null","null","<p style=""font-size: 60px; font-family: BACS"">KdARDlDT</p>","","","","","","","","",""
"html-keyboard-response","34","131184","0.0-8.0-0.26","60e703e4908998ebc5679e8a","650c16f0f2faf8d7a0d14c09","651d21eb24d8ffa67781a807","null","null","<p style=""font-size: 60px; font-family: BACS"">PCPDhYDTk</p>","","","","","","","","",""
"html-keyboard-response","35","132198","0.0-8.0-0.27","60e703e4908998ebc5679e8a","650c16f0f2faf8d7a0d14c09","651d21eb24d8ffa67781a807","null","null","<p style=""font-size: 60px; font-family: BACS"">rvAJAZbl</p>","","","","","","","","",""
"html-keyboard-response","36","133203","0.0-8.0-0.28","60e703e4908998ebc5679e8a","650c16f0f2faf8d7a0d14c09","651d21eb24d8ffa67781a807","null","null","<p style=""font-size: 60px; font-family: BACS"">AlUYGlu</p>","","","","","","","","",""
"html-keyboard-response","37","134205","0.0-8.0-0.29","60e703e4908998ebc5679e8a","650c16f0f2faf8d7a0d14c09","651d21eb24d8ffa67781a807","null","null","<p style=""font-size: 60px; font-family: BACS"">kKEdMDlDT</p>","","","","","","","","",""
"html-keyboard-response","38","135215","0.0-8.0-0.30","60e703e4908998ebc5679e8a","650c16f0f2faf8d7a0d14c09","651d21eb24d8ffa67781a807","null","null","<p style=""font-size: 60px; font-family: BACS"">muYNGlu</p>","","","","","","","","",""
"html-keyboard-response","39","136216","0.0-8.0-0.31","60e703e4908998ebc5679e8a","650c16f0f2faf8d7a0d14c09","651d21eb24d8ffa67781a807","null","null","<p style=""font-size: 60px; font-family: BACS"">JuamlmLJ</p>","","","","","","","","",""
"html-keyboard-response","40","137219","0.0-8.0-0.32","60e703e4908998ebc5679e8a","650c16f0f2faf8d7a0d14c09","651d21eb24d8ffa67781a807","null","null","<p style=""font-size: 60px; font-family: BACS"">AlUYAld</p>","","","","","","","","",""
"html-keyboard-response","41","138233","0.0-8.0-0.33","60e703e4908998ebc5679e8a","650c16f0f2faf8d7a0d14c09","651d21eb24d8ffa67781a807","null","null","<p style=""font-size: 60px; font-family: BACS"">DlDdmKcD</p>","","","","","","","","",""
"html-keyboard-response","42","139233","0.0-8.0-0.34","60e703e4908998ebc5679e8a","650c16f0f2faf8d7a0d14c09","651d21eb24d8ffa67781a807","null","null","<p style=""font-size: 60px; font-family: BACS"">YOZNAld</p>","","","","","","","","",""
"html-keyboard-response","43","140249","0.0-8.0-0.35","60e703e4908998ebc5679e8a","650c16f0f2faf8d7a0d14c09","651d21eb24d8ffa67781a807","null","null","<p style=""font-size: 60px; font-family: BACS"">kcdOtmKcD</p>","","","","","","","","",""
"html-keyboard-response","44","141252","0.0-8.0-0.36","60e703e4908998ebc5679e8a","650c16f0f2faf8d7a0d14c09","651d21eb24d8ffa67781a807","null","null","<p style=""font-size: 60px; font-family: BACS"">DlDdcMRl</p>","","","","","","","","",""
"html-keyboard-response","45","142265","0.0-8.0-0.37","60e703e4908998ebc5679e8a","650c16f0f2faf8d7a0d14c09","651d21eb24d8ffa67781a807","null","null","<p style=""font-size: 60px; font-family: BACS"">KDPAmKcD</p>","","","","","","","","",""
"html-keyboard-response","46","143278","0.0-8.0-0.38","60e703e4908998ebc5679e8a","650c16f0f2faf8d7a0d14c09","651d21eb24d8ffa67781a807","null","null","<p style=""font-size: 60px; font-family: BACS"">muYNAld</p>","","","","","","","","",""
"html-keyboard-response","47","144292","0.0-8.0-0.39","60e703e4908998ebc5679e8a","650c16f0f2faf8d7a0d14c09","651d21eb24d8ffa67781a807","null","null","<p style=""font-size: 60px; font-family: BACS"">uAkrmLJ</p>","","","","","","","","",""
"html-keyboard-response","48","145308","0.0-8.0-0.40","60e703e4908998ebc5679e8a","650c16f0f2faf8d7a0d14c09","651d21eb24d8ffa67781a807","null","null","<p style=""font-size: 60px; font-family: BACS"">KdARTmTm</p>","","","","","","","","",""
"html-keyboard-response","49","146324","0.0-8.0-0.41","60e703e4908998ebc5679e8a","650c16f0f2faf8d7a0d14c09","651d21eb24d8ffa67781a807","null","null","<p style=""font-size: 60px; font-family: BACS"">JuamlGlu</p>","","","","","","","","",""
"html-keyboard-response","50","147339","0.0-8.0-0.42","60e703e4908998ebc5679e8a","650c16f0f2faf8d7a0d14c09","651d21eb24d8ffa67781a807","null","null","<p style=""font-size: 60px; font-family: BACS"">uauOArv</p>","","","","","","","","",""
"html-keyboard-response","51","148342","0.0-8.0-0.43","60e703e4908998ebc5679e8a","650c16f0f2faf8d7a0d14c09","651d21eb24d8ffa67781a807","null","null","<p style=""font-size: 60px; font-family: BACS"">PCPDhcMRl</p>","","","","","","","","",""
"html-keyboard-response","52","149352","0.0-8.0-0.44","60e703e4908998ebc5679e8a","650c16f0f2faf8d7a0d14c09","651d21eb24d8ffa67781a807","null","null","<p style=""font-size: 60px; font-family: BACS"">uAkrAZbl</p>","","","","","","","","",""
"html-keyboard-response","53","150353","0.0-8.0-0.45","60e703e4908998ebc5679e8a","650c16f0f2faf8d7a0d14c09","651d21eb24d8ffa67781a807","null","null","<p style=""font-size: 60px; font-family: BACS"">kKEdMcMRl</p>","","","","","","","","",""
"html-keyboard-response","54","151356","0.0-8.0-0.46","60e703e4908998ebc5679e8a","650c16f0f2faf8d7a0d14c09","651d21eb24d8ffa67781a807","null","null","<p style=""font-size: 60px; font-family: BACS"">JuamlAZbl</p>","","","","","","","","",""
"html-keyboard-response","55","152371","0.0-8.0-0.47","60e703e4908998ebc5679e8a","650c16f0f2faf8d7a0d14c09","651d21eb24d8ffa67781a807","null","null","<p style=""font-size: 60px; font-family: BACS"">aOLZUArv</p>","","","","","","","","",""
"html-keyboard-response","56","153379","0.0-8.0-0.48","60e703e4908998ebc5679e8a","650c16f0f2faf8d7a0d14c09","651d21eb24d8ffa67781a807","null","null","<p style=""font-size: 60px; font-family: BACS"">KBKBEcMRl</p>","","","","","","","","",""
"html-keyboard-response","57","154382","0.0-8.0-0.49","60e703e4908998ebc5679e8a","650c16f0f2faf8d7a0d14c09","651d21eb24d8ffa67781a807","null","null","<p style=""font-size: 60px; font-family: BACS"">hCktYDTk</p>","","","","","","","","",""
"html-keyboard-response","58","155397","0.0-8.0-0.50","60e703e4908998ebc5679e8a","650c16f0f2faf8d7a0d14c09","651d21eb24d8ffa67781a807","null","null","<p style=""font-size: 60px; font-family: BACS"">vQdOmLJ</p>","","","","","","","","",""
"html-keyboard-response","59","156400","0.0-8.0-0.51","60e703e4908998ebc5679e8a","650c16f0f2faf8d7a0d14c09","651d21eb24d8ffa67781a807","null","null","<p style=""font-size: 60px; font-family: BACS"">kKEdMmKcD</p>","","","","","","","","",""
"html-keyboard-response","60","157414","0.0-8.0-0.52","60e703e4908998ebc5679e8a","650c16f0f2faf8d7a0d14c09","651d21eb24d8ffa67781a807","null","null","<p style=""font-size: 60px; font-family: BACS"">KBKBEYDTk</p>","","","","","","","","",""
"html-keyboard-response","61","158428","0.0-8.0-0.53","60e703e4908998ebc5679e8a","650c16f0f2faf8d7a0d14c09","651d21eb24d8ffa67781a807","null","null","<p style=""font-size: 60px; font-family: BACS"">KdARmKcD</p>","","","","","","","","",""
"html-keyboard-response","62","159434","0.0-8.0-0.54","60e703e4908998ebc5679e8a","650c16f0f2faf8d7a0d14c09","651d21eb24d8ffa67781a807","null","null","<p style=""font-size: 60px; font-family: BACS"">DlDdTmTm</p>","","","","","","","","",""
"html-keyboard-response","63","160449","0.0-8.0-0.55","60e703e4908998ebc5679e8a","650c16f0f2faf8d7a0d14c09","651d21eb24d8ffa67781a807","null","null","<p style=""font-size: 60px; font-family: BACS"">KDPAYDTk</p>","","","","","","","","",""
"html-keyboard-response","64","161457","0.0-8.0-0.56","60e703e4908998ebc5679e8a","650c16f0f2faf8d7a0d14c09","651d21eb24d8ffa67781a807","null","null","<p style=""font-size: 60px; font-family: BACS"">uauOAZbl</p>","","","","","","","","",""
"html-keyboard-response","65","162462","0.0-8.0-0.57","60e703e4908998ebc5679e8a","650c16f0f2faf8d7a0d14c09","651d21eb24d8ffa67781a807","null","null","<p style=""font-size: 60px; font-family: BACS"">kcdOtYDTk</p>","","","","","","","","",""
"html-keyboard-response","66","163476","0.0-8.0-0.58","60e703e4908998ebc5679e8a","650c16f0f2faf8d7a0d14c09","651d21eb24d8ffa67781a807","null","null","<p style=""font-size: 60px; font-family: BACS"">aOLZUGlu</p>","","","","","","","","",""
"html-keyboard-response","67","164490","0.0-8.0-0.59","60e703e4908998ebc5679e8a","650c16f0f2faf8d7a0d14c09","651d21eb24d8ffa67781a807","null","null","<p style=""font-size: 60px; font-family: BACS"">YOZNAZbl</p>","","","","","","","","",""
"html-keyboard-response","68","165504","0.0-8.0-0.60","60e703e4908998ebc5679e8a","650c16f0f2faf8d7a0d14c09","651d21eb24d8ffa67781a807","null","null","<p style=""font-size: 60px; font-family: BACS"">muYNmLJ</p>","","","","","","","","",""
"html-keyboard-response","69","166505","0.0-8.0-0.61","60e703e4908998ebc5679e8a","650c16f0f2faf8d7a0d14c09","651d21eb24d8ffa67781a807","null","null","<p style=""font-size: 60px; font-family: BACS"">KDPADlDT</p>","","","","","","","","",""
"html-keyboard-response","70","167506","0.0-8.0-0.62","60e703e4908998ebc5679e8a","650c16f0f2faf8d7a0d14c09","651d21eb24d8ffa67781a807","null","null","<p style=""font-size: 60px; font-family: BACS"">lcOcAld</p>","","","","","","","","",""
"html-keyboard-response","71","168508","0.0-8.0-0.63","60e703e4908998ebc5679e8a","650c16f0f2faf8d7a0d14c09","651d21eb24d8ffa67781a807","null","null","<p style=""font-size: 60px; font-family: BACS"">dMYBPYDTk</p>","","","","","","","","",""
"html-keyboard-response","72","169510","0.0-8.0-0.64","60e703e4908998ebc5679e8a","650c16f0f2faf8d7a0d14c09","651d21eb24d8ffa67781a807","null","null","<p style=""font-size: 60px; font-family: BACS"">tRdMTmTm</p>","","","","","","","","",""
"html-keyboard-response","73","170516","0.0-8.0-0.65","60e703e4908998ebc5679e8a","650c16f0f2faf8d7a0d14c09","651d21eb24d8ffa67781a807","null","null","<p style=""font-size: 60px; font-family: BACS"">rvAJArv</p>","","","","","","","","",""
"html-keyboard-response","74","171518","0.0-8.0-0.66","60e703e4908998ebc5679e8a","650c16f0f2faf8d7a0d14c09","651d21eb24d8ffa67781a807","null","null","<p style=""font-size: 60px; font-family: BACS"">uAkrGlu</p>","","","","","","","","",""
"html-keyboard-response","75","172532","0.0-8.0-0.67","60e703e4908998ebc5679e8a","650c16f0f2faf8d7a0d14c09","651d21eb24d8ffa67781a807","null","null","<p style=""font-size: 60px; font-family: BACS"">vQdOAld</p>","","","","","","","","",""
"html-keyboard-response","76","173545","0.0-8.0-0.68","60e703e4908998ebc5679e8a","650c16f0f2faf8d7a0d14c09","651d21eb24d8ffa67781a807","null","null","<p style=""font-size: 60px; font-family: BACS"">tRdMcMRl</p>","","","","","","","","",""
"html-keyboard-response","77","174552","0.0-8.0-0.69","60e703e4908998ebc5679e8a","650c16f0f2faf8d7a0d14c09","651d21eb24d8ffa67781a807","null","null","<p style=""font-size: 60px; font-family: BACS"">uauOmLJ</p>","","","","","","","","",""
"html-keyboard-response","78","175567","0.0-8.0-0.70","60e703e4908998ebc5679e8a","650c16f0f2faf8d7a0d14c09","651d21eb24d8ffa67781a807","null","null","<p style=""font-size: 60px; font-family: BACS"">hCktcMRl</p>","","","","","","","","",""
"html-keyboard-response","79","176569","0.0-8.0-0.71","60e703e4908998ebc5679e8a","650c16f0f2faf8d7a0d14c09","651d21eb24d8ffa67781a807","null","null","<p style=""font-size: 60px; font-family: BACS"">JuamlArv</p>","","","","","","","","",""
"html-keyboard-response","80","177581","0.0-8.0-0.72","60e703e4908998ebc5679e8a","650c16f0f2faf8d7a0d14c09","651d21eb24d8ffa67781a807","null","null","<p style=""font-size: 60px; font-family: BACS"">muYNAZbl</p>","","","","","","","","",""
"html-keyboard-response","81","178595","0.0-8.0-0.73","60e703e4908998ebc5679e8a","650c16f0f2faf8d7a0d14c09","651d21eb24d8ffa67781a807","null","null","<p style=""font-size: 60px; font-family: BACS"">kcdOtTmTm</p>","","","","","","","","",""
"html-keyboard-response","82","179600","0.0-8.0-0.74","60e703e4908998ebc5679e8a","650c16f0f2faf8d7a0d14c09","651d21eb24d8ffa67781a807","null","null","<p style=""font-size: 60px; font-family: BACS"">aOLZUAld</p>","","","","","","","","",""
"html-keyboard-response","83","180604","0.0-8.0-0.75","60e703e4908998ebc5679e8a","650c16f0f2faf8d7a0d14c09","651d21eb24d8ffa67781a807","null","null","<p style=""font-size: 60px; font-family: BACS"">KdARYDTk</p>","","","","","","","","",""
"html-keyboard-response","84","181607","0.0-8.0-0.76","60e703e4908998ebc5679e8a","650c16f0f2faf8d7a0d14c09","651d21eb24d8ffa67781a807","null","null","<p style=""font-size: 60px; font-family: BACS"">hCktDlDT</p>","","","","","","","","",""
"html-keyboard-response","85","182622","0.0-8.0-0.77","60e703e4908998ebc5679e8a","650c16f0f2faf8d7a0d14c09","651d21eb24d8ffa67781a807","null","null","<p style=""font-size: 60px; font-family: BACS"">rvAJGlu</p>","","","","","","","","",""
"html-keyboard-response","86","183624","0.0-8.0-0.78","60e703e4908998ebc5679e8a","650c16f0f2faf8d7a0d14c09","651d21eb24d8ffa67781a807","null","null","<p style=""font-size: 60px; font-family: BACS"">kKEdMTmTm</p>","","","","","","","","",""
"html-keyboard-response","87","184637","0.0-8.0-0.79","60e703e4908998ebc5679e8a","650c16f0f2faf8d7a0d14c09","651d21eb24d8ffa67781a807","null","null","<p style=""font-size: 60px; font-family: BACS"">KBKBEDlDT</p>","","","","","","","","",""
"html-keyboard-response","88","192784","0.0-9.0","60e703e4908998ebc5679e8a","650c16f0f2faf8d7a0d14c09","651d21eb24d8ffa67781a807","8146"," ","<p>Great, you've seen the first block of words. You may now take a short break.</p>
      <p>Press the spacebar when you're ready to continue.</p>","","","","","","","","",""
"html-keyboard-response","89","193789","0.0-10.0-0.0","60e703e4908998ebc5679e8a","650c16f0f2faf8d7a0d14c09","651d21eb24d8ffa67781a807","null","null","<p style=""font-size: 60px; font-family: BACS"">dMYBPcMRl</p>","","","","","","","","",""
"html-keyboard-response","90","194797","0.0-10.0-0.1","60e703e4908998ebc5679e8a","650c16f0f2faf8d7a0d14c09","651d21eb24d8ffa67781a807","null","null","<p style=""font-size: 60px; font-family: BACS"">kKEdMDlDT</p>","","","","","","","","",""
"html-keyboard-response","91","195812","0.0-10.0-0.2","60e703e4908998ebc5679e8a","650c16f0f2faf8d7a0d14c09","651d21eb24d8ffa67781a807","null","null","<p style=""font-size: 60px; font-family: BACS"">uAkrAld</p>","","","","","","","","",""
"html-keyboard-response","92","196826","0.0-10.0-0.3","60e703e4908998ebc5679e8a","650c16f0f2faf8d7a0d14c09","651d21eb24d8ffa67781a807","null","null","<p style=""font-size: 60px; font-family: BACS"">kcdOtTmTm</p>","","","","","","","","",""
"html-keyboard-response","93","197838","0.0-10.0-0.4","60e703e4908998ebc5679e8a","650c16f0f2faf8d7a0d14c09","651d21eb24d8ffa67781a807","null","null","<p style=""font-size: 60px; font-family: BACS"">tRdMDlDT</p>","","","","","","","","",""
"html-keyboard-response","94","198845","0.0-10.0-0.5","60e703e4908998ebc5679e8a","650c16f0f2faf8d7a0d14c09","651d21eb24d8ffa67781a807","null","null","<p style=""font-size: 60px; font-family: BACS"">uauOmLJ</p>","","","","","","","","",""
"html-keyboard-response","95","199859","0.0-10.0-0.6","60e703e4908998ebc5679e8a","650c16f0f2faf8d7a0d14c09","651d21eb24d8ffa67781a807","null","null","<p style=""font-size: 60px; font-family: BACS"">lcOcArv</p>","","","","","","","","",""
"html-keyboard-response","96","200871","0.0-10.0-0.7","60e703e4908998ebc5679e8a","650c16f0f2faf8d7a0d14c09","651d21eb24d8ffa67781a807","null","null","<p style=""font-size: 60px; font-family: BACS"">dMYBPYDTk</p>","","","","","","","","",""
"html-keyboard-response","97","201887","0.0-10.0-0.8","60e703e4908998ebc5679e8a","650c16f0f2faf8d7a0d14c09","651d21eb24d8ffa67781a807","null","null","<p style=""font-size: 60px; font-family: BACS"">kKEdMmKcD</p>","","","","","","","","",""
"html-keyboard-response","98","202888","0.0-10.0-0.9","60e703e4908998ebc5679e8a","650c16f0f2faf8d7a0d14c09","651d21eb24d8ffa67781a807","null","null","<p style=""font-size: 60px; font-family: BACS"">KdARYDTk</p>","","","","","","","","",""
"html-keyboard-response","99","203890","0.0-10.0-0.10","60e703e4908998ebc5679e8a","650c16f0f2faf8d7a0d14c09","651d21eb24d8ffa67781a807","null","null","<p style=""font-size: 60px; font-family: BACS"">dMYBPTmTm</p>","","","","","","","","",""
"html-keyboard-response","100","204893","0.0-10.0-0.11","60e703e4908998ebc5679e8a","650c16f0f2faf8d7a0d14c09","651d21eb24d8ffa67781a807","null","null","<p style=""font-size: 60px; font-family: BACS"">DlDdDlDT</p>","","","","","","","","",""
"html-keyboard-response","101","205901","0.0-10.0-0.12","60e703e4908998ebc5679e8a","650c16f0f2faf8d7a0d14c09","651d21eb24d8ffa67781a807","null","null","<p style=""font-size: 60px; font-family: BACS"">JuamlGlu</p>","","","","","","","","",""
"html-keyboard-response","102","206905","0.0-10.0-0.13","60e703e4908998ebc5679e8a","650c16f0f2faf8d7a0d14c09","651d21eb24d8ffa67781a807","null","null","<p style=""font-size: 60px; font-family: BACS"">DlDdcMRl</p>","","","","","","","","",""
"html-keyboard-response","103","207918","0.0-10.0-0.14","60e703e4908998ebc5679e8a","650c16f0f2faf8d7a0d14c09","651d21eb24d8ffa67781a807","null","null","<p style=""font-size: 60px; font-family: BACS"">hCktmKcD</p>","","","","","","","","",""
"html-keyboard-response","104","208928","0.0-10.0-0.15","60e703e4908998ebc5679e8a","650c16f0f2faf8d7a0d14c09","651d21eb24d8ffa67781a807","null","null","<p style=""font-size: 60px; font-family: BACS"">rvAJArv</p>","","","","","","","","",""
"html-keyboard-response","105","209942","0.0-10.0-0.16","60e703e4908998ebc5679e8a","650c16f0f2faf8d7a0d14c09","651d21eb24d8ffa67781a807","null","null","<p style=""font-size: 60px; font-family: BACS"">JuamlmLJ</p>","","","","","","","","",""
"html-keyboard-response","106","210956","0.0-10.0-0.17","60e703e4908998ebc5679e8a","650c16f0f2faf8d7a0d14c09","651d21eb24d8ffa67781a807","null","null","<p style=""font-size: 60px; font-family: BACS"">kcdOtmKcD</p>","","","","","","","","",""
"html-keyboard-response","107","211971","0.0-10.0-0.18","60e703e4908998ebc5679e8a","650c16f0f2faf8d7a0d14c09","651d21eb24d8ffa67781a807","null","null","<p style=""font-size: 60px; font-family: BACS"">hCktDlDT</p>","","","","","","","","",""
"html-keyboard-response","108","212983","0.0-10.0-0.19","60e703e4908998ebc5679e8a","650c16f0f2faf8d7a0d14c09","651d21eb24d8ffa67781a807","null","null","<p style=""font-size: 60px; font-family: BACS"">rvAJAZbl</p>","","","","","","","","",""
"html-keyboard-response","109","213985","0.0-10.0-0.20","60e703e4908998ebc5679e8a","650c16f0f2faf8d7a0d14c09","651d21eb24d8ffa67781a807","null","null","<p style=""font-size: 60px; font-family: BACS"">KBKBEcMRl</p>","","","","","","","","",""
"html-keyboard-response","110","214992","0.0-10.0-0.21","60e703e4908998ebc5679e8a","650c16f0f2faf8d7a0d14c09","651d21eb24d8ffa67781a807","null","null","<p style=""font-size: 60px; font-family: BACS"">aOLZUAld</p>","","","","","","","","",""
"html-keyboard-response","111","216004","0.0-10.0-0.22","60e703e4908998ebc5679e8a","650c16f0f2faf8d7a0d14c09","651d21eb24d8ffa67781a807","null","null","<p style=""font-size: 60px; font-family: BACS"">KDPAYDTk</p>","","","","","","","","",""
"html-keyboard-response","112","217017","0.0-10.0-0.23","60e703e4908998ebc5679e8a","650c16f0f2faf8d7a0d14c09","651d21eb24d8ffa67781a807","null","null","<p style=""font-size: 60px; font-family: BACS"">DlDdTmTm</p>","","","","","","","","",""
"html-keyboard-response","113","218019","0.0-10.0-0.24","60e703e4908998ebc5679e8a","650c16f0f2faf8d7a0d14c09","651d21eb24d8ffa67781a807","null","null","<p style=""font-size: 60px; font-family: BACS"">lcOcAld</p>","","","","","","","","",""
"html-keyboard-response","114","219033","0.0-10.0-0.25","60e703e4908998ebc5679e8a","650c16f0f2faf8d7a0d14c09","651d21eb24d8ffa67781a807","null","null","<p style=""font-size: 60px; font-family: BACS"">tRdMYDTk</p>","","","","","","","","",""
"html-keyboard-response","115","220039","0.0-10.0-0.26","60e703e4908998ebc5679e8a","650c16f0f2faf8d7a0d14c09","651d21eb24d8ffa67781a807","null","null","<p style=""font-size: 60px; font-family: BACS"">KDPATmTm</p>","","","","","","","","",""
"html-keyboard-response","116","221046","0.0-10.0-0.27","60e703e4908998ebc5679e8a","650c16f0f2faf8d7a0d14c09","651d21eb24d8ffa67781a807","null","null","<p style=""font-size: 60px; font-family: BACS"">PCPDhYDTk</p>","","","","","","","","",""
"html-keyboard-response","117","222058","0.0-10.0-0.28","60e703e4908998ebc5679e8a","650c16f0f2faf8d7a0d14c09","651d21eb24d8ffa67781a807","null","null","<p style=""font-size: 60px; font-family: BACS"">lcOcmLJ</p>","","","","","","","","",""
"html-keyboard-response","118","223060","0.0-10.0-0.29","60e703e4908998ebc5679e8a","650c16f0f2faf8d7a0d14c09","651d21eb24d8ffa67781a807","null","null","<p style=""font-size: 60px; font-family: BACS"">aOLZUAZbl</p>","","","","","","","","",""
"html-keyboard-response","119","224062","0.0-10.0-0.30","60e703e4908998ebc5679e8a","650c16f0f2faf8d7a0d14c09","651d21eb24d8ffa67781a807","null","null","<p style=""font-size: 60px; font-family: BACS"">KBKBETmTm</p>","","","","","","","","",""
"html-keyboard-response","120","225079","0.0-10.0-0.31","60e703e4908998ebc5679e8a","650c16f0f2faf8d7a0d14c09","651d21eb24d8ffa67781a807","null","null","<p style=""font-size: 60px; font-family: BACS"">rvAJAld</p>","","","","","","","","",""
"html-keyboard-response","121","226090","0.0-10.0-0.32","60e703e4908998ebc5679e8a","650c16f0f2faf8d7a0d14c09","651d21eb24d8ffa67781a807","null","null","<p style=""font-size: 60px; font-family: BACS"">tRdMcMRl</p>","","","","","","","","",""
"html-keyboard-response","122","227102","0.0-10.0-0.33","60e703e4908998ebc5679e8a","650c16f0f2faf8d7a0d14c09","651d21eb24d8ffa67781a807","null","null","<p style=""font-size: 60px; font-family: BACS"">KdARDlDT</p>","","","","","","","","",""
"html-keyboard-response","123","228113","0.0-10.0-0.34","60e703e4908998ebc5679e8a","650c16f0f2faf8d7a0d14c09","651d21eb24d8ffa67781a807","null","null","<p style=""font-size: 60px; font-family: BACS"">muYNmLJ</p>","","","","","","","","",""
"html-keyboard-response","124","229114","0.0-10.0-0.35","60e703e4908998ebc5679e8a","650c16f0f2faf8d7a0d14c09","651d21eb24d8ffa67781a807","null","null","<p style=""font-size: 60px; font-family: BACS"">PCPDhcMRl</p>","","","","","","","","",""
"html-keyboard-response","125","230124","0.0-10.0-0.36","60e703e4908998ebc5679e8a","650c16f0f2faf8d7a0d14c09","651d21eb24d8ffa67781a807","null","null","<p style=""font-size: 60px; font-family: BACS"">AlUYAld</p>","","","","","","","","",""
"html-keyboard-response","126","231124","0.0-10.0-0.37","60e703e4908998ebc5679e8a","650c16f0f2faf8d7a0d14c09","651d21eb24d8ffa67781a807","null","null","<p style=""font-size: 60px; font-family: BACS"">vQdOArv</p>","","","","","","","","",""
"html-keyboard-response","127","232138","0.0-10.0-0.38","60e703e4908998ebc5679e8a","650c16f0f2faf8d7a0d14c09","651d21eb24d8ffa67781a807","null","null","<p style=""font-size: 60px; font-family: BACS"">muYNGlu</p>","","","","","","","","",""
"html-keyboard-response","128","233153","0.0-10.0-0.39","60e703e4908998ebc5679e8a","650c16f0f2faf8d7a0d14c09","651d21eb24d8ffa67781a807","null","null","<p style=""font-size: 60px; font-family: BACS"">KdARTmTm</p>","","","","","","","","",""
"html-keyboard-response","129","234169","0.0-10.0-0.40","60e703e4908998ebc5679e8a","650c16f0f2faf8d7a0d14c09","651d21eb24d8ffa67781a807","null","null","<p style=""font-size: 60px; font-family: BACS"">YOZNAld</p>","","","","","","","","",""
"html-keyboard-response","130","235170","0.0-10.0-0.41","60e703e4908998ebc5679e8a","650c16f0f2faf8d7a0d14c09","651d21eb24d8ffa67781a807","null","null","<p style=""font-size: 60px; font-family: BACS"">vQdOmLJ</p>","","","","","","","","",""
"html-keyboard-response","131","236183","0.0-10.0-0.42","60e703e4908998ebc5679e8a","650c16f0f2faf8d7a0d14c09","651d21eb24d8ffa67781a807","null","null","<p style=""font-size: 60px; font-family: BACS"">KDPADlDT</p>","","","","","","","","",""
"html-keyboard-response","132","237189","0.0-10.0-0.43","60e703e4908998ebc5679e8a","650c16f0f2faf8d7a0d14c09","651d21eb24d8ffa67781a807","null","null","<p style=""font-size: 60px; font-family: BACS"">YOZNmLJ</p>","","","","","","","","",""
"html-keyboard-response","133","238198","0.0-10.0-0.44","60e703e4908998ebc5679e8a","650c16f0f2faf8d7a0d14c09","651d21eb24d8ffa67781a807","null","null","<p style=""font-size: 60px; font-family: BACS"">uauOArv</p>","","","","","","","","",""
"html-keyboard-response","134","239199","0.0-10.0-0.45","60e703e4908998ebc5679e8a","650c16f0f2faf8d7a0d14c09","651d21eb24d8ffa67781a807","null","null","<p style=""font-size: 60px; font-family: BACS"">YOZNAZbl</p>","","","","","","","","",""
"html-keyboard-response","135","240208","0.0-10.0-0.46","60e703e4908998ebc5679e8a","650c16f0f2faf8d7a0d14c09","651d21eb24d8ffa67781a807","null","null","<p style=""font-size: 60px; font-family: BACS"">KBKBEYDTk</p>","","","","","","","","",""
"html-keyboard-response","136","241223","0.0-10.0-0.47","60e703e4908998ebc5679e8a","650c16f0f2faf8d7a0d14c09","651d21eb24d8ffa67781a807","null","null","<p style=""font-size: 60px; font-family: BACS"">vQdOAld</p>","","","","","","","","",""
"html-keyboard-response","137","242238","0.0-10.0-0.48","60e703e4908998ebc5679e8a","650c16f0f2faf8d7a0d14c09","651d21eb24d8ffa67781a807","null","null","<p style=""font-size: 60px; font-family: BACS"">JuamlArv</p>","","","","","","","","",""
"html-keyboard-response","138","243240","0.0-10.0-0.49","60e703e4908998ebc5679e8a","650c16f0f2faf8d7a0d14c09","651d21eb24d8ffa67781a807","null","null","<p style=""font-size: 60px; font-family: BACS"">KdARmKcD</p>","","","","","","","","",""
"html-keyboard-response","139","244244","0.0-10.0-0.50","60e703e4908998ebc5679e8a","650c16f0f2faf8d7a0d14c09","651d21eb24d8ffa67781a807","null","null","<p style=""font-size: 60px; font-family: BACS"">rvAJGlu</p>","","","","","","","","",""
"html-keyboard-response","140","245257","0.0-10.0-0.51","60e703e4908998ebc5679e8a","650c16f0f2faf8d7a0d14c09","651d21eb24d8ffa67781a807","null","null","<p style=""font-size: 60px; font-family: BACS"">KBKBEDlDT</p>","","","","","","","","",""
"html-keyboard-response","141","246264","0.0-10.0-0.52","60e703e4908998ebc5679e8a","650c16f0f2faf8d7a0d14c09","651d21eb24d8ffa67781a807","null","null","<p style=""font-size: 60px; font-family: BACS"">kcdOtcMRl</p>","","","","","","","","",""
"html-keyboard-response","142","247279","0.0-10.0-0.53","60e703e4908998ebc5679e8a","650c16f0f2faf8d7a0d14c09","651d21eb24d8ffa67781a807","null","null","<p style=""font-size: 60px; font-family: BACS"">aOLZUGlu</p>","","","","","","","","",""
"html-keyboard-response","143","248294","0.0-10.0-0.54","60e703e4908998ebc5679e8a","650c16f0f2faf8d7a0d14c09","651d21eb24d8ffa67781a807","null","null","<p style=""font-size: 60px; font-family: BACS"">hCktcMRl</p>","","","","","","","","",""
"html-keyboard-response","144","249309","0.0-10.0-0.55","60e703e4908998ebc5679e8a","650c16f0f2faf8d7a0d14c09","651d21eb24d8ffa67781a807","null","null","<p style=""font-size: 60px; font-family: BACS"">muYNAZbl</p>","","","","","","","","",""
"html-keyboard-response","145","250325","0.0-10.0-0.56","60e703e4908998ebc5679e8a","650c16f0f2faf8d7a0d14c09","651d21eb24d8ffa67781a807","null","null","<p style=""font-size: 60px; font-family: BACS"">PCPDhDlDT</p>","","","","","","","","",""
"html-keyboard-response","146","251326","0.0-10.0-0.57","60e703e4908998ebc5679e8a","650c16f0f2faf8d7a0d14c09","651d21eb24d8ffa67781a807","null","null","<p style=""font-size: 60px; font-family: BACS"">KDPAmKcD</p>","","","","","","","","",""
"html-keyboard-response","147","252329","0.0-10.0-0.58","60e703e4908998ebc5679e8a","650c16f0f2faf8d7a0d14c09","651d21eb24d8ffa67781a807","null","null","<p style=""font-size: 60px; font-family: BACS"">tRdMTmTm</p>","","","","","","","","",""
"html-keyboard-response","148","253343","0.0-10.0-0.59","60e703e4908998ebc5679e8a","650c16f0f2faf8d7a0d14c09","651d21eb24d8ffa67781a807","null","null","<p style=""font-size: 60px; font-family: BACS"">vQdOAZbl</p>","","","","","","","","",""
"html-keyboard-response","149","254357","0.0-10.0-0.60","60e703e4908998ebc5679e8a","650c16f0f2faf8d7a0d14c09","651d21eb24d8ffa67781a807","null","null","<p style=""font-size: 60px; font-family: BACS"">hCktYDTk</p>","","","","","","","","",""
"html-keyboard-response","150","255365","0.0-10.0-0.61","60e703e4908998ebc5679e8a","650c16f0f2faf8d7a0d14c09","651d21eb24d8ffa67781a807","null","null","<p style=""font-size: 60px; font-family: BACS"">dMYBPmKcD</p>","","","","","","","","",""
"html-keyboard-response","151","256377","0.0-10.0-0.62","60e703e4908998ebc5679e8a","650c16f0f2faf8d7a0d14c09","651d21eb24d8ffa67781a807","null","null","<p style=""font-size: 60px; font-family: BACS"">lcOcGlu</p>","","","","","","","","",""
"html-keyboard-response","152","257387","0.0-10.0-0.63","60e703e4908998ebc5679e8a","650c16f0f2faf8d7a0d14c09","651d21eb24d8ffa67781a807","null","null","<p style=""font-size: 60px; font-family: BACS"">kKEdMTmTm</p>","","","","","","","","",""
"html-keyboard-response","153","258399","0.0-10.0-0.64","60e703e4908998ebc5679e8a","650c16f0f2faf8d7a0d14c09","651d21eb24d8ffa67781a807","null","null","<p style=""font-size: 60px; font-family: BACS"">uAkrmLJ</p>","","","","","","","","",""
"html-keyboard-response","154","259412","0.0-10.0-0.65","60e703e4908998ebc5679e8a","650c16f0f2faf8d7a0d14c09","651d21eb24d8ffa67781a807","null","null","<p style=""font-size: 60px; font-family: BACS"">JuamlAZbl</p>","","","","","","","","",""
"html-keyboard-response","155","260424","0.0-10.0-0.66","60e703e4908998ebc5679e8a","650c16f0f2faf8d7a0d14c09","651d21eb24d8ffa67781a807","null","null","<p style=""font-size: 60px; font-family: BACS"">AlUYGlu</p>","","","","","","","","",""
"html-keyboard-response","156","261426","0.0-10.0-0.67","60e703e4908998ebc5679e8a","650c16f0f2faf8d7a0d14c09","651d21eb24d8ffa67781a807","null","null","<p style=""font-size: 60px; font-family: BACS"">uAkrAZbl</p>","","","","","","","","",""
"html-keyboard-response","157","262427","0.0-10.0-0.68","60e703e4908998ebc5679e8a","650c16f0f2faf8d7a0d14c09","651d21eb24d8ffa67781a807","null","null","<p style=""font-size: 60px; font-family: BACS"">YOZNArv</p>","","","","","","","","",""
"html-keyboard-response","158","263430","0.0-10.0-0.69","60e703e4908998ebc5679e8a","650c16f0f2faf8d7a0d14c09","651d21eb24d8ffa67781a807","null","null","<p style=""font-size: 60px; font-family: BACS"">muYNAld</p>","","","","","","","","",""
"html-keyboard-response","159","264443","0.0-10.0-0.70","60e703e4908998ebc5679e8a","650c16f0f2faf8d7a0d14c09","651d21eb24d8ffa67781a807","null","null","<p style=""font-size: 60px; font-family: BACS"">AlUYArv</p>","","","","","","","","",""
"html-keyboard-response","160","265446","0.0-10.0-0.71","60e703e4908998ebc5679e8a","650c16f0f2faf8d7a0d14c09","651d21eb24d8ffa67781a807","null","null","<p style=""font-size: 60px; font-family: BACS"">uAkrGlu</p>","","","","","","","","",""
"html-keyboard-response","161","266459","0.0-10.0-0.72","60e703e4908998ebc5679e8a","650c16f0f2faf8d7a0d14c09","651d21eb24d8ffa67781a807","null","null","<p style=""font-size: 60px; font-family: BACS"">PCPDhmKcD</p>","","","","","","","","",""
"html-keyboard-response","162","267471","0.0-10.0-0.73","60e703e4908998ebc5679e8a","650c16f0f2faf8d7a0d14c09","651d21eb24d8ffa67781a807","null","null","<p style=""font-size: 60px; font-family: BACS"">uauOGlu</p>","","","","","","","","",""
"html-keyboard-response","163","268485","0.0-10.0-0.74","60e703e4908998ebc5679e8a","650c16f0f2faf8d7a0d14c09","651d21eb24d8ffa67781a807","null","null","<p style=""font-size: 60px; font-family: BACS"">AlUYmLJ</p>","","","","","","","","",""
"html-keyboard-response","164","269487","0.0-10.0-0.75","60e703e4908998ebc5679e8a","650c16f0f2faf8d7a0d14c09","651d21eb24d8ffa67781a807","null","null","<p style=""font-size: 60px; font-family: BACS"">DlDdmKcD</p>","","","","","","","","",""
"html-keyboard-response","165","270489","0.0-10.0-0.76","60e703e4908998ebc5679e8a","650c16f0f2faf8d7a0d14c09","651d21eb24d8ffa67781a807","null","null","<p style=""font-size: 60px; font-family: BACS"">aOLZUArv</p>","","","","","","","","",""
"html-keyboard-response","166","271500","0.0-10.0-0.77","60e703e4908998ebc5679e8a","650c16f0f2faf8d7a0d14c09","651d21eb24d8ffa67781a807","null","null","<p style=""font-size: 60px; font-family: BACS"">kKEdMcMRl</p>","","","","","","","","",""
"html-keyboard-response","167","272502","0.0-10.0-0.78","60e703e4908998ebc5679e8a","650c16f0f2faf8d7a0d14c09","651d21eb24d8ffa67781a807","null","null","<p style=""font-size: 60px; font-family: BACS"">uauOAZbl</p>","","","","","","","","",""
"html-keyboard-response","168","273511","0.0-10.0-0.79","60e703e4908998ebc5679e8a","650c16f0f2faf8d7a0d14c09","651d21eb24d8ffa67781a807","null","null","<p style=""font-size: 60px; font-family: BACS"">kcdOtYDTk</p>","","","","","","","","",""
"html-keyboard-response","169","283848","0.0-11.0","60e703e4908998ebc5679e8a","650c16f0f2faf8d7a0d14c09","651d21eb24d8ffa67781a807","10336"," ","<p>Great, you've seen the second block of words. You may now take a short break.</p>
      <p>Press the spacebar when you're ready to continue.</p>","","","","","","","","",""
"html-keyboard-response","170","284850","0.0-12.0-0.0","60e703e4908998ebc5679e8a","650c16f0f2faf8d7a0d14c09","651d21eb24d8ffa67781a807","null","null","<p style=""font-size: 60px; font-family: BACS"">muYNGlu</p>","","","","","","","","",""
"html-keyboard-response","171","285862","0.0-12.0-0.1","60e703e4908998ebc5679e8a","650c16f0f2faf8d7a0d14c09","651d21eb24d8ffa67781a807","null","null","<p style=""font-size: 60px; font-family: BACS"">kKEdMDlDT</p>","","","","","","","","",""
"html-keyboard-response","172","286867","0.0-12.0-0.2","60e703e4908998ebc5679e8a","650c16f0f2faf8d7a0d14c09","651d21eb24d8ffa67781a807","null","null","<p style=""font-size: 60px; font-family: BACS"">uAkrAld</p>","","","","","","","","",""
"html-keyboard-response","173","287881","0.0-12.0-0.3","60e703e4908998ebc5679e8a","650c16f0f2faf8d7a0d14c09","651d21eb24d8ffa67781a807","null","null","<p style=""font-size: 60px; font-family: BACS"">YOZNArv</p>","","","","","","","","",""
"html-keyboard-response","174","288893","0.0-12.0-0.4","60e703e4908998ebc5679e8a","650c16f0f2faf8d7a0d14c09","651d21eb24d8ffa67781a807","null","null","<p style=""font-size: 60px; font-family: BACS"">uAkrGlu</p>","","","","","","","","",""
"html-keyboard-response","175","289894","0.0-12.0-0.5","60e703e4908998ebc5679e8a","650c16f0f2faf8d7a0d14c09","651d21eb24d8ffa67781a807","null","null","<p style=""font-size: 60px; font-family: BACS"">KdARmKcD</p>","","","","","","","","",""
"html-keyboard-response","176","290898","0.0-12.0-0.6","60e703e4908998ebc5679e8a","650c16f0f2faf8d7a0d14c09","651d21eb24d8ffa67781a807","null","null","<p style=""font-size: 60px; font-family: BACS"">muYNAld</p>","","","","","","","","",""
"html-keyboard-response","177","291903","0.0-12.0-0.7","60e703e4908998ebc5679e8a","650c16f0f2faf8d7a0d14c09","651d21eb24d8ffa67781a807","null","null","<p style=""font-size: 60px; font-family: BACS"">KBKBETmTm</p>","","","","","","","","",""
"html-keyboard-response","178","292910","0.0-12.0-0.8","60e703e4908998ebc5679e8a","650c16f0f2faf8d7a0d14c09","651d21eb24d8ffa67781a807","null","null","<p style=""font-size: 60px; font-family: BACS"">rvAJGlu</p>","","","","","","","","",""
"html-keyboard-response","179","293925","0.0-12.0-0.9","60e703e4908998ebc5679e8a","650c16f0f2faf8d7a0d14c09","651d21eb24d8ffa67781a807","null","null","<p style=""font-size: 60px; font-family: BACS"">KDPATmTm</p>","","","","","","","","",""
"html-keyboard-response","180","294938","0.0-12.0-0.10","60e703e4908998ebc5679e8a","650c16f0f2faf8d7a0d14c09","651d21eb24d8ffa67781a807","null","null","<p style=""font-size: 60px; font-family: BACS"">hCktYDTk</p>","","","","","","","","",""
"html-keyboard-response","181","295943","0.0-12.0-0.11","60e703e4908998ebc5679e8a","650c16f0f2faf8d7a0d14c09","651d21eb24d8ffa67781a807","null","null","<p style=""font-size: 60px; font-family: BACS"">KBKBEDlDT</p>","","","","","","","","",""
"html-keyboard-response","182","296949","0.0-12.0-0.12","60e703e4908998ebc5679e8a","650c16f0f2faf8d7a0d14c09","651d21eb24d8ffa67781a807","null","null","<p style=""font-size: 60px; font-family: BACS"">dMYBPmKcD</p>","","","","","","","","",""
"html-keyboard-response","183","297961","0.0-12.0-0.13","60e703e4908998ebc5679e8a","650c16f0f2faf8d7a0d14c09","651d21eb24d8ffa67781a807","null","null","<p style=""font-size: 60px; font-family: BACS"">lcOcmLJ</p>","","","","","","","","",""
"html-keyboard-response","184","298962","0.0-12.0-0.14","60e703e4908998ebc5679e8a","650c16f0f2faf8d7a0d14c09","651d21eb24d8ffa67781a807","null","null","<p style=""font-size: 60px; font-family: BACS"">aOLZUArv</p>","","","","","","","","",""
"html-keyboard-response","185","299974","0.0-12.0-0.15","60e703e4908998ebc5679e8a","650c16f0f2faf8d7a0d14c09","651d21eb24d8ffa67781a807","null","null","<p style=""font-size: 60px; font-family: BACS"">KDPAmKcD</p>","","","","","","","","",""
"html-keyboard-response","186","300975","0.0-12.0-0.16","60e703e4908998ebc5679e8a","650c16f0f2faf8d7a0d14c09","651d21eb24d8ffa67781a807","null","null","<p style=""font-size: 60px; font-family: BACS"">muYNAZbl</p>","","","","","","","","",""
"html-keyboard-response","187","301979","0.0-12.0-0.17","60e703e4908998ebc5679e8a","650c16f0f2faf8d7a0d14c09","651d21eb24d8ffa67781a807","null","null","<p style=""font-size: 60px; font-family: BACS"">dMYBPcMRl</p>","","","","","","","","",""
"html-keyboard-response","188","302994","0.0-12.0-0.18","60e703e4908998ebc5679e8a","650c16f0f2faf8d7a0d14c09","651d21eb24d8ffa67781a807","null","null","<p style=""font-size: 60px; font-family: BACS"">hCktmKcD</p>","","","","","","","","",""
"html-keyboard-response","189","304009","0.0-12.0-0.19","60e703e4908998ebc5679e8a","650c16f0f2faf8d7a0d14c09","651d21eb24d8ffa67781a807","null","null","<p style=""font-size: 60px; font-family: BACS"">KBKBEcMRl</p>","","","","","","","","",""
"html-keyboard-response","190","305018","0.0-12.0-0.20","60e703e4908998ebc5679e8a","650c16f0f2faf8d7a0d14c09","651d21eb24d8ffa67781a807","null","null","<p style=""font-size: 60px; font-family: BACS"">DlDdmKcD</p>","","","","","","","","",""
"html-keyboard-response","191","306031","0.0-12.0-0.21","60e703e4908998ebc5679e8a","650c16f0f2faf8d7a0d14c09","651d21eb24d8ffa67781a807","null","null","<p style=""font-size: 60px; font-family: BACS"">JuamlmLJ</p>","","","","","","","","",""
"html-keyboard-response","192","307043","0.0-12.0-0.22","60e703e4908998ebc5679e8a","650c16f0f2faf8d7a0d14c09","651d21eb24d8ffa67781a807","null","null","<p style=""font-size: 60px; font-family: BACS"">rvAJAld</p>","","","","","","","","",""
"html-keyboard-response","193","308049","0.0-12.0-0.23","60e703e4908998ebc5679e8a","650c16f0f2faf8d7a0d14c09","651d21eb24d8ffa67781a807","null","null","<p style=""font-size: 60px; font-family: BACS"">YOZNmLJ</p>","","","","","","","","",""
"html-keyboard-response","194","309064","0.0-12.0-0.24","60e703e4908998ebc5679e8a","650c16f0f2faf8d7a0d14c09","651d21eb24d8ffa67781a807","null","null","<p style=""font-size: 60px; font-family: BACS"">aOLZUAZbl</p>","","","","","","","","",""
"html-keyboard-response","195","310077","0.0-12.0-0.25","60e703e4908998ebc5679e8a","650c16f0f2faf8d7a0d14c09","651d21eb24d8ffa67781a807","null","null","<p style=""font-size: 60px; font-family: BACS"">tRdMYDTk</p>","","","","","","","","",""
"html-keyboard-response","196","311079","0.0-12.0-0.26","60e703e4908998ebc5679e8a","650c16f0f2faf8d7a0d14c09","651d21eb24d8ffa67781a807","null","null","<p style=""font-size: 60px; font-family: BACS"">hCktcMRl</p>","","","","","","","","",""
"html-keyboard-response","197","312094","0.0-12.0-0.27","60e703e4908998ebc5679e8a","650c16f0f2faf8d7a0d14c09","651d21eb24d8ffa67781a807","null","null","<p style=""font-size: 60px; font-family: BACS"">kcdOtYDTk</p>","","","","","","","","",""
"html-keyboard-response","198","313106","0.0-12.0-0.28","60e703e4908998ebc5679e8a","650c16f0f2faf8d7a0d14c09","651d21eb24d8ffa67781a807","null","null","<p style=""font-size: 60px; font-family: BACS"">tRdMcMRl</p>","","","","","","","","",""
"html-keyboard-response","199","314119","0.0-12.0-0.29","60e703e4908998ebc5679e8a","650c16f0f2faf8d7a0d14c09","651d21eb24d8ffa67781a807","null","null","<p style=""font-size: 60px; font-family: BACS"">YOZNAZbl</p>","","","","","","","","",""
"html-keyboard-response","200","315119","0.0-12.0-0.30","60e703e4908998ebc5679e8a","650c16f0f2faf8d7a0d14c09","651d21eb24d8ffa67781a807","null","null","<p style=""font-size: 60px; font-family: BACS"">DlDdTmTm</p>","","","","","","","","",""
"html-keyboard-response","201","316129","0.0-12.0-0.31","60e703e4908998ebc5679e8a","650c16f0f2faf8d7a0d14c09","651d21eb24d8ffa67781a807","null","null","<p style=""font-size: 60px; font-family: BACS"">uAkrAZbl</p>","","","","","","","","",""
"html-keyboard-response","202","317144","0.0-12.0-0.32","60e703e4908998ebc5679e8a","650c16f0f2faf8d7a0d14c09","651d21eb24d8ffa67781a807","null","null","<p style=""font-size: 60px; font-family: BACS"">kcdOtcMRl</p>","","","","","","","","",""
"html-keyboard-response","203","318158","0.0-12.0-0.33","60e703e4908998ebc5679e8a","650c16f0f2faf8d7a0d14c09","651d21eb24d8ffa67781a807","null","null","<p style=""font-size: 60px; font-family: BACS"">rvAJAZbl</p>","","","","","","","","",""
"html-keyboard-response","204","319173","0.0-12.0-0.34","60e703e4908998ebc5679e8a","650c16f0f2faf8d7a0d14c09","651d21eb24d8ffa67781a807","null","null","<p style=""font-size: 60px; font-family: BACS"">KBKBEYDTk</p>","","","","","","","","",""
"html-keyboard-response","205","320189","0.0-12.0-0.35","60e703e4908998ebc5679e8a","650c16f0f2faf8d7a0d14c09","651d21eb24d8ffa67781a807","null","null","<p style=""font-size: 60px; font-family: BACS"">lcOcGlu</p>","","","","","","","","",""
"html-keyboard-response","206","321192","0.0-12.0-0.36","60e703e4908998ebc5679e8a","650c16f0f2faf8d7a0d14c09","651d21eb24d8ffa67781a807","null","null","<p style=""font-size: 60px; font-family: BACS"">AlUYAld</p>","","","","","","","","",""
"html-keyboard-response","207","322206","0.0-12.0-0.37","60e703e4908998ebc5679e8a","650c16f0f2faf8d7a0d14c09","651d21eb24d8ffa67781a807","null","null","<p style=""font-size: 60px; font-family: BACS"">muYNmLJ</p>","","","","","","","","",""
"html-keyboard-response","208","323222","0.0-12.0-0.38","60e703e4908998ebc5679e8a","650c16f0f2faf8d7a0d14c09","651d21eb24d8ffa67781a807","null","null","<p style=""font-size: 60px; font-family: BACS"">kcdOtTmTm</p>","","","","","","","","",""
"html-keyboard-response","209","324236","0.0-12.0-0.39","60e703e4908998ebc5679e8a","650c16f0f2faf8d7a0d14c09","651d21eb24d8ffa67781a807","null","null","<p style=""font-size: 60px; font-family: BACS"">uauOGlu</p>","","","","","","","","",""
"html-keyboard-response","210","325248","0.0-12.0-0.40","60e703e4908998ebc5679e8a","650c16f0f2faf8d7a0d14c09","651d21eb24d8ffa67781a807","null","null","<p style=""font-size: 60px; font-family: BACS"">KdARYDTk</p>","","","","","","","","",""
"html-keyboard-response","211","326263","0.0-12.0-0.41","60e703e4908998ebc5679e8a","650c16f0f2faf8d7a0d14c09","651d21eb24d8ffa67781a807","null","null","<p style=""font-size: 60px; font-family: BACS"">lcOcArv</p>","","","","","","","","",""
"html-keyboard-response","212","327267","0.0-12.0-0.42","60e703e4908998ebc5679e8a","650c16f0f2faf8d7a0d14c09","651d21eb24d8ffa67781a807","null","null","<p style=""font-size: 60px; font-family: BACS"">KdARDlDT</p>","","","","","","","","",""
"html-keyboard-response","213","328278","0.0-12.0-0.43","60e703e4908998ebc5679e8a","650c16f0f2faf8d7a0d14c09","651d21eb24d8ffa67781a807","null","null","<p style=""font-size: 60px; font-family: BACS"">AlUYGlu</p>","","","","","","","","",""
"html-keyboard-response","214","329281","0.0-12.0-0.44","60e703e4908998ebc5679e8a","650c16f0f2faf8d7a0d14c09","651d21eb24d8ffa67781a807","null","null","<p style=""font-size: 60px; font-family: BACS"">dMYBPTmTm</p>","","","","","","","","",""
"html-keyboard-response","215","330296","0.0-12.0-0.45","60e703e4908998ebc5679e8a","650c16f0f2faf8d7a0d14c09","651d21eb24d8ffa67781a807","null","null","<p style=""font-size: 60px; font-family: BACS"">lcOcAld</p>","","","","","","","","",""
"html-keyboard-response","216","331300","0.0-12.0-0.46","60e703e4908998ebc5679e8a","650c16f0f2faf8d7a0d14c09","651d21eb24d8ffa67781a807","null","null","<p style=""font-size: 60px; font-family: BACS"">AlUYmLJ</p>","","","","","","","","",""
"html-keyboard-response","217","332303","0.0-12.0-0.47","60e703e4908998ebc5679e8a","650c16f0f2faf8d7a0d14c09","651d21eb24d8ffa67781a807","null","null","<p style=""font-size: 60px; font-family: BACS"">JuamlAZbl</p>","","","","","","","","",""
"html-keyboard-response","218","333319","0.0-12.0-0.48","60e703e4908998ebc5679e8a","650c16f0f2faf8d7a0d14c09","651d21eb24d8ffa67781a807","null","null","<p style=""font-size: 60px; font-family: BACS"">DlDdDlDT</p>","","","","","","","","",""
"html-keyboard-response","219","334334","0.0-12.0-0.49","60e703e4908998ebc5679e8a","650c16f0f2faf8d7a0d14c09","651d21eb24d8ffa67781a807","null","null","<p style=""font-size: 60px; font-family: BACS"">kKEdMcMRl</p>","","","","","","","","",""
"html-keyboard-response","220","335336","0.0-12.0-0.50","60e703e4908998ebc5679e8a","650c16f0f2faf8d7a0d14c09","651d21eb24d8ffa67781a807","null","null","<p style=""font-size: 60px; font-family: BACS"">PCPDhYDTk</p>","","","","","","","","",""
"html-keyboard-response","221","336352","0.0-12.0-0.51","60e703e4908998ebc5679e8a","650c16f0f2faf8d7a0d14c09","651d21eb24d8ffa67781a807","null","null","<p style=""font-size: 60px; font-family: BACS"">kcdOtmKcD</p>","","","","","","","","",""
"html-keyboard-response","222","337366","0.0-12.0-0.52","60e703e4908998ebc5679e8a","650c16f0f2faf8d7a0d14c09","651d21eb24d8ffa67781a807","null","null","<p style=""font-size: 60px; font-family: BACS"">KdARTmTm</p>","","","","","","","","",""
"html-keyboard-response","223","338380","0.0-12.0-0.53","60e703e4908998ebc5679e8a","650c16f0f2faf8d7a0d14c09","651d21eb24d8ffa67781a807","null","null","<p style=""font-size: 60px; font-family: BACS"">vQdOAZbl</p>","","","","","","","","",""
"html-keyboard-response","224","339393","0.0-12.0-0.54","60e703e4908998ebc5679e8a","650c16f0f2faf8d7a0d14c09","651d21eb24d8ffa67781a807","null","null","<p style=""font-size: 60px; font-family: BACS"">tRdMDlDT</p>","","","","","","","","",""
"html-keyboard-response","225","340408","0.0-12.0-0.55","60e703e4908998ebc5679e8a","650c16f0f2faf8d7a0d14c09","651d21eb24d8ffa67781a807","null","null","<p style=""font-size: 60px; font-family: BACS"">JuamlGlu</p>","","","","","","","","",""
"html-keyboard-response","226","341421","0.0-12.0-0.56","60e703e4908998ebc5679e8a","650c16f0f2faf8d7a0d14c09","651d21eb24d8ffa67781a807","null","null","<p style=""font-size: 60px; font-family: BACS"">KDPAYDTk</p>","","","","","","","","",""
"html-keyboard-response","227","342435","0.0-12.0-0.57","60e703e4908998ebc5679e8a","650c16f0f2faf8d7a0d14c09","651d21eb24d8ffa67781a807","null","null","<p style=""font-size: 60px; font-family: BACS"">kKEdMTmTm</p>","","","","","","","","",""
"html-keyboard-response","228","343441","0.0-12.0-0.58","60e703e4908998ebc5679e8a","650c16f0f2faf8d7a0d14c09","651d21eb24d8ffa67781a807","null","null","<p style=""font-size: 60px; font-family: BACS"">hCktDlDT</p>","","","","","","","","",""
"html-keyboard-response","229","344454","0.0-12.0-0.59","60e703e4908998ebc5679e8a","650c16f0f2faf8d7a0d14c09","651d21eb24d8ffa67781a807","null","null","<p style=""font-size: 60px; font-family: BACS"">JuamlArv</p>","","","","","","","","",""
"html-keyboard-response","230","345468","0.0-12.0-0.60","60e703e4908998ebc5679e8a","650c16f0f2faf8d7a0d14c09","651d21eb24d8ffa67781a807","null","null","<p style=""font-size: 60px; font-family: BACS"">uauOmLJ</p>","","","","","","","","",""
"html-keyboard-response","231","346478","0.0-12.0-0.61","60e703e4908998ebc5679e8a","650c16f0f2faf8d7a0d14c09","651d21eb24d8ffa67781a807","null","null","<p style=""font-size: 60px; font-family: BACS"">vQdOAld</p>","","","","","","","","",""
"html-keyboard-response","232","347490","0.0-12.0-0.62","60e703e4908998ebc5679e8a","650c16f0f2faf8d7a0d14c09","651d21eb24d8ffa67781a807","null","null","<p style=""font-size: 60px; font-family: BACS"">PCPDhcMRl</p>","","","","","","","","",""
"html-keyboard-response","233","348506","0.0-12.0-0.63","60e703e4908998ebc5679e8a","650c16f0f2faf8d7a0d14c09","651d21eb24d8ffa67781a807","null","null","<p style=""font-size: 60px; font-family: BACS"">uauOAZbl</p>","","","","","","","","",""
"html-keyboard-response","234","349518","0.0-12.0-0.64","60e703e4908998ebc5679e8a","650c16f0f2faf8d7a0d14c09","651d21eb24d8ffa67781a807","null","null","<p style=""font-size: 60px; font-family: BACS"">YOZNAld</p>","","","","","","","","",""
"html-keyboard-response","235","350530","0.0-12.0-0.65","60e703e4908998ebc5679e8a","650c16f0f2faf8d7a0d14c09","651d21eb24d8ffa67781a807","null","null","<p style=""font-size: 60px; font-family: BACS"">kKEdMmKcD</p>","","","","","","","","",""
"html-keyboard-response","236","351544","0.0-12.0-0.66","60e703e4908998ebc5679e8a","650c16f0f2faf8d7a0d14c09","651d21eb24d8ffa67781a807","null","null","<p style=""font-size: 60px; font-family: BACS"">vQdOArv</p>","","","","","","","","",""
"html-keyboard-response","237","352546","0.0-12.0-0.67","60e703e4908998ebc5679e8a","650c16f0f2faf8d7a0d14c09","651d21eb24d8ffa67781a807","null","null","<p style=""font-size: 60px; font-family: BACS"">tRdMTmTm</p>","","","","","","","","",""
"html-keyboard-response","238","353551","0.0-12.0-0.68","60e703e4908998ebc5679e8a","650c16f0f2faf8d7a0d14c09","651d21eb24d8ffa67781a807","null","null","<p style=""font-size: 60px; font-family: BACS"">KDPADlDT</p>","","","","","","","","",""
"html-keyboard-response","239","354552","0.0-12.0-0.69","60e703e4908998ebc5679e8a","650c16f0f2faf8d7a0d14c09","651d21eb24d8ffa67781a807","null","null","<p style=""font-size: 60px; font-family: BACS"">aOLZUAld</p>","","","","","","","","",""
"html-keyboard-response","240","355566","0.0-12.0-0.70","60e703e4908998ebc5679e8a","650c16f0f2faf8d7a0d14c09","651d21eb24d8ffa67781a807","null","null","<p style=""font-size: 60px; font-family: BACS"">dMYBPYDTk</p>","","","","","","","","",""
"html-keyboard-response","241","356580","0.0-12.0-0.71","60e703e4908998ebc5679e8a","650c16f0f2faf8d7a0d14c09","651d21eb24d8ffa67781a807","null","null","<p style=""font-size: 60px; font-family: BACS"">AlUYArv</p>","","","","","","","","",""
"html-keyboard-response","242","357597","0.0-12.0-0.72","60e703e4908998ebc5679e8a","650c16f0f2faf8d7a0d14c09","651d21eb24d8ffa67781a807","null","null","<p style=""font-size: 60px; font-family: BACS"">DlDdcMRl</p>","","","","","","","","",""
"html-keyboard-response","243","358600","0.0-12.0-0.73","60e703e4908998ebc5679e8a","650c16f0f2faf8d7a0d14c09","651d21eb24d8ffa67781a807","null","null","<p style=""font-size: 60px; font-family: BACS"">vQdOmLJ</p>","","","","","","","","",""
"html-keyboard-response","244","359614","0.0-12.0-0.74","60e703e4908998ebc5679e8a","650c16f0f2faf8d7a0d14c09","651d21eb24d8ffa67781a807","null","null","<p style=""font-size: 60px; font-family: BACS"">PCPDhDlDT</p>","","","","","","","","",""
"html-keyboard-response","245","360615","0.0-12.0-0.75","60e703e4908998ebc5679e8a","650c16f0f2faf8d7a0d14c09","651d21eb24d8ffa67781a807","null","null","<p style=""font-size: 60px; font-family: BACS"">aOLZUGlu</p>","","","","","","","","",""
"html-keyboard-response","246","361630","0.0-12.0-0.76","60e703e4908998ebc5679e8a","650c16f0f2faf8d7a0d14c09","651d21eb24d8ffa67781a807","null","null","<p style=""font-size: 60px; font-family: BACS"">rvAJArv</p>","","","","","","","","",""
"html-keyboard-response","247","362645","0.0-12.0-0.77","60e703e4908998ebc5679e8a","650c16f0f2faf8d7a0d14c09","651d21eb24d8ffa67781a807","null","null","<p style=""font-size: 60px; font-family: BACS"">PCPDhmKcD</p>","","","","","","","","",""
"html-keyboard-response","248","363659","0.0-12.0-0.78","60e703e4908998ebc5679e8a","650c16f0f2faf8d7a0d14c09","651d21eb24d8ffa67781a807","null","null","<p style=""font-size: 60px; font-family: BACS"">uauOArv</p>","","","","","","","","",""
"html-keyboard-response","249","364672","0.0-12.0-0.79","60e703e4908998ebc5679e8a","650c16f0f2faf8d7a0d14c09","651d21eb24d8ffa67781a807","null","null","<p style=""font-size: 60px; font-family: BACS"">uAkrmLJ</p>","","","","","","","","",""
"html-keyboard-response","250","374697","0.0-13.0","60e703e4908998ebc5679e8a","650c16f0f2faf8d7a0d14c09","651d21eb24d8ffa67781a807","10025"," ","<p>Great, you've seen the third block of words. You may now take a short break.</p>
      <p>Press the spacebar when you're ready to continue.</p>","","","","","","","","",""
"html-keyboard-response","251","375702","0.0-14.0-0.0","60e703e4908998ebc5679e8a","650c16f0f2faf8d7a0d14c09","651d21eb24d8ffa67781a807","null","null","<p style=""font-size: 60px; font-family: BACS"">hCktcMRl</p>","","","","","","","","",""
"html-keyboard-response","252","376716","0.0-14.0-0.1","60e703e4908998ebc5679e8a","650c16f0f2faf8d7a0d14c09","651d21eb24d8ffa67781a807","null","null","<p style=""font-size: 60px; font-family: BACS"">uAkrAld</p>","","","","","","","","",""
"html-keyboard-response","253","377730","0.0-14.0-0.2","60e703e4908998ebc5679e8a","650c16f0f2faf8d7a0d14c09","651d21eb24d8ffa67781a807","null","null","<p style=""font-size: 60px; font-family: BACS"">vQdOAZbl</p>","","","","","","","","",""
"html-keyboard-response","254","378732","0.0-14.0-0.3","60e703e4908998ebc5679e8a","650c16f0f2faf8d7a0d14c09","651d21eb24d8ffa67781a807","null","null","<p style=""font-size: 60px; font-family: BACS"">KDPATmTm</p>","","","","","","","","",""
"html-keyboard-response","255","379744","0.0-14.0-0.4","60e703e4908998ebc5679e8a","650c16f0f2faf8d7a0d14c09","651d21eb24d8ffa67781a807","null","null","<p style=""font-size: 60px; font-family: BACS"">uauOGlu</p>","","","","","","","","",""
"html-keyboard-response","256","380750","0.0-14.0-0.5","60e703e4908998ebc5679e8a","650c16f0f2faf8d7a0d14c09","651d21eb24d8ffa67781a807","null","null","<p style=""font-size: 60px; font-family: BACS"">JuamlmLJ</p>","","","","","","","","",""
"html-keyboard-response","257","381764","0.0-14.0-0.6","60e703e4908998ebc5679e8a","650c16f0f2faf8d7a0d14c09","651d21eb24d8ffa67781a807","null","null","<p style=""font-size: 60px; font-family: BACS"">rvAJAZbl</p>","","","","","","","","",""
"html-keyboard-response","258","382779","0.0-14.0-0.7","60e703e4908998ebc5679e8a","650c16f0f2faf8d7a0d14c09","651d21eb24d8ffa67781a807","null","null","<p style=""font-size: 60px; font-family: BACS"">DlDdDlDT</p>","","","","","","","","",""
"html-keyboard-response","259","383783","0.0-14.0-0.8","60e703e4908998ebc5679e8a","650c16f0f2faf8d7a0d14c09","651d21eb24d8ffa67781a807","null","null","<p style=""font-size: 60px; font-family: BACS"">kKEdMTmTm</p>","","","","","","","","",""
"html-keyboard-response","260","384798","0.0-14.0-0.9","60e703e4908998ebc5679e8a","650c16f0f2faf8d7a0d14c09","651d21eb24d8ffa67781a807","null","null","<p style=""font-size: 60px; font-family: BACS"">uauOArv</p>","","","","","","","","",""
"html-keyboard-response","261","385812","0.0-14.0-0.10","60e703e4908998ebc5679e8a","650c16f0f2faf8d7a0d14c09","651d21eb24d8ffa67781a807","null","null","<p style=""font-size: 60px; font-family: BACS"">KBKBEcMRl</p>","","","","","","","","",""
"html-keyboard-response","262","386827","0.0-14.0-0.11","60e703e4908998ebc5679e8a","650c16f0f2faf8d7a0d14c09","651d21eb24d8ffa67781a807","null","null","<p style=""font-size: 60px; font-family: BACS"">kKEdMmKcD</p>","","","","","","","","",""
"html-keyboard-response","263","387842","0.0-14.0-0.12","60e703e4908998ebc5679e8a","650c16f0f2faf8d7a0d14c09","651d21eb24d8ffa67781a807","null","null","<p style=""font-size: 60px; font-family: BACS"">muYNAZbl</p>","","","","","","","","",""
"html-keyboard-response","264","388843","0.0-14.0-0.13","60e703e4908998ebc5679e8a","650c16f0f2faf8d7a0d14c09","651d21eb24d8ffa67781a807","null","null","<p style=""font-size: 60px; font-family: BACS"">JuamlGlu</p>","","","","","","","","",""
"html-keyboard-response","265","389844","0.0-14.0-0.14","60e703e4908998ebc5679e8a","650c16f0f2faf8d7a0d14c09","651d21eb24d8ffa67781a807","null","null","<p style=""font-size: 60px; font-family: BACS"">kKEdMDlDT</p>","","","","","","","","",""
"html-keyboard-response","266","390853","0.0-14.0-0.15","60e703e4908998ebc5679e8a","650c16f0f2faf8d7a0d14c09","651d21eb24d8ffa67781a807","null","null","<p style=""font-size: 60px; font-family: BACS"">PCPDhmKcD</p>","","","","","","","","",""
"html-keyboard-response","267","391867","0.0-14.0-0.16","60e703e4908998ebc5679e8a","650c16f0f2faf8d7a0d14c09","651d21eb24d8ffa67781a807","null","null","<p style=""font-size: 60px; font-family: BACS"">rvAJArv</p>","","","","","","","","",""
"html-keyboard-response","268","392871","0.0-14.0-0.17","60e703e4908998ebc5679e8a","650c16f0f2faf8d7a0d14c09","651d21eb24d8ffa67781a807","null","null","<p style=""font-size: 60px; font-family: BACS"">kcdOtTmTm</p>","","","","","","","","",""
"html-keyboard-response","269","393873","0.0-14.0-0.18","60e703e4908998ebc5679e8a","650c16f0f2faf8d7a0d14c09","651d21eb24d8ffa67781a807","null","null","<p style=""font-size: 60px; font-family: BACS"">lcOcGlu</p>","","","","","","","","",""
"html-keyboard-response","270","394885","0.0-14.0-0.19","60e703e4908998ebc5679e8a","650c16f0f2faf8d7a0d14c09","651d21eb24d8ffa67781a807","null","null","<p style=""font-size: 60px; font-family: BACS"">JuamlAZbl</p>","","","","","","","","",""
"html-keyboard-response","271","395892","0.0-14.0-0.20","60e703e4908998ebc5679e8a","650c16f0f2faf8d7a0d14c09","651d21eb24d8ffa67781a807","null","null","<p style=""font-size: 60px; font-family: BACS"">KDPAmKcD</p>","","","","","","","","",""
"html-keyboard-response","272","396893","0.0-14.0-0.21","60e703e4908998ebc5679e8a","650c16f0f2faf8d7a0d14c09","651d21eb24d8ffa67781a807","null","null","<p style=""font-size: 60px; font-family: BACS"">KBKBEDlDT</p>","","","","","","","","",""
"html-keyboard-response","273","397906","0.0-14.0-0.22","60e703e4908998ebc5679e8a","650c16f0f2faf8d7a0d14c09","651d21eb24d8ffa67781a807","null","null","<p style=""font-size: 60px; font-family: BACS"">AlUYArv</p>","","","","","","","","",""
"html-keyboard-response","274","398921","0.0-14.0-0.23","60e703e4908998ebc5679e8a","650c16f0f2faf8d7a0d14c09","651d21eb24d8ffa67781a807","null","null","<p style=""font-size: 60px; font-family: BACS"">YOZNAld</p>","","","","","","","","",""
"html-keyboard-response","275","399935","0.0-14.0-0.24","60e703e4908998ebc5679e8a","650c16f0f2faf8d7a0d14c09","651d21eb24d8ffa67781a807","null","null","<p style=""font-size: 60px; font-family: BACS"">uauOmLJ</p>","","","","","","","","",""
"html-keyboard-response","276","400940","0.0-14.0-0.25","60e703e4908998ebc5679e8a","650c16f0f2faf8d7a0d14c09","651d21eb24d8ffa67781a807","null","null","<p style=""font-size: 60px; font-family: BACS"">dMYBPcMRl</p>","","","","","","","","",""
"html-keyboard-response","277","401955","0.0-14.0-0.26","60e703e4908998ebc5679e8a","650c16f0f2faf8d7a0d14c09","651d21eb24d8ffa67781a807","null","null","<p style=""font-size: 60px; font-family: BACS"">kcdOtmKcD</p>","","","","","","","","",""
"html-keyboard-response","278","402972","0.0-14.0-0.27","60e703e4908998ebc5679e8a","650c16f0f2faf8d7a0d14c09","651d21eb24d8ffa67781a807","null","null","<p style=""font-size: 60px; font-family: BACS"">muYNmLJ</p>","","","","","","","","",""
"html-keyboard-response","279","403979","0.0-14.0-0.28","60e703e4908998ebc5679e8a","650c16f0f2faf8d7a0d14c09","651d21eb24d8ffa67781a807","null","null","<p style=""font-size: 60px; font-family: BACS"">uAkrGlu</p>","","","","","","","","",""
"html-keyboard-response","280","404995","0.0-14.0-0.29","60e703e4908998ebc5679e8a","650c16f0f2faf8d7a0d14c09","651d21eb24d8ffa67781a807","null","null","<p style=""font-size: 60px; font-family: BACS"">dMYBPYDTk</p>","","","","","","","","",""
"html-keyboard-response","281","406002","0.0-14.0-0.30","60e703e4908998ebc5679e8a","650c16f0f2faf8d7a0d14c09","651d21eb24d8ffa67781a807","null","null","<p style=""font-size: 60px; font-family: BACS"">JuamlArv</p>","","","","","","","","",""
"html-keyboard-response","282","407003","0.0-14.0-0.31","60e703e4908998ebc5679e8a","650c16f0f2faf8d7a0d14c09","651d21eb24d8ffa67781a807","null","null","<p style=""font-size: 60px; font-family: BACS"">KDPADlDT</p>","","","","","","","","",""
"html-keyboard-response","283","408005","0.0-14.0-0.32","60e703e4908998ebc5679e8a","650c16f0f2faf8d7a0d14c09","651d21eb24d8ffa67781a807","null","null","<p style=""font-size: 60px; font-family: BACS"">lcOcArv</p>","","","","","","","","",""
"html-keyboard-response","284","409012","0.0-14.0-0.33","60e703e4908998ebc5679e8a","650c16f0f2faf8d7a0d14c09","651d21eb24d8ffa67781a807","null","null","<p style=""font-size: 60px; font-family: BACS"">AlUYAld</p>","","","","","","","","",""
"html-keyboard-response","285","410027","0.0-14.0-0.34","60e703e4908998ebc5679e8a","650c16f0f2faf8d7a0d14c09","651d21eb24d8ffa67781a807","null","null","<p style=""font-size: 60px; font-family: BACS"">DlDdcMRl</p>","","","","","","","","",""
"html-keyboard-response","286","411032","0.0-14.0-0.35","60e703e4908998ebc5679e8a","650c16f0f2faf8d7a0d14c09","651d21eb24d8ffa67781a807","null","null","<p style=""font-size: 60px; font-family: BACS"">hCktmKcD</p>","","","","","","","","",""
"html-keyboard-response","287","412046","0.0-14.0-0.36","60e703e4908998ebc5679e8a","650c16f0f2faf8d7a0d14c09","651d21eb24d8ffa67781a807","null","null","<p style=""font-size: 60px; font-family: BACS"">rvAJGlu</p>","","","","","","","","",""
"html-keyboard-response","288","413050","0.0-14.0-0.37","60e703e4908998ebc5679e8a","650c16f0f2faf8d7a0d14c09","651d21eb24d8ffa67781a807","null","null","<p style=""font-size: 60px; font-family: BACS"">tRdMTmTm</p>","","","","","","","","",""
"html-keyboard-response","289","414052","0.0-14.0-0.38","60e703e4908998ebc5679e8a","650c16f0f2faf8d7a0d14c09","651d21eb24d8ffa67781a807","null","null","<p style=""font-size: 60px; font-family: BACS"">KdARYDTk</p>","","","","","","","","",""
"html-keyboard-response","290","415067","0.0-14.0-0.39","60e703e4908998ebc5679e8a","650c16f0f2faf8d7a0d14c09","651d21eb24d8ffa67781a807","null","null","<p style=""font-size: 60px; font-family: BACS"">kcdOtcMRl</p>","","","","","","","","",""
"html-keyboard-response","291","416082","0.0-14.0-0.40","60e703e4908998ebc5679e8a","650c16f0f2faf8d7a0d14c09","651d21eb24d8ffa67781a807","null","null","<p style=""font-size: 60px; font-family: BACS"">KdARDlDT</p>","","","","","","","","",""
"html-keyboard-response","292","417093","0.0-14.0-0.41","60e703e4908998ebc5679e8a","650c16f0f2faf8d7a0d14c09","651d21eb24d8ffa67781a807","null","null","<p style=""font-size: 60px; font-family: BACS"">muYNGlu</p>","","","","","","","","",""
"html-keyboard-response","293","418097","0.0-14.0-0.42","60e703e4908998ebc5679e8a","650c16f0f2faf8d7a0d14c09","651d21eb24d8ffa67781a807","null","null","<p style=""font-size: 60px; font-family: BACS"">kKEdMcMRl</p>","","","","","","","","",""
"html-keyboard-response","294","419108","0.0-14.0-0.43","60e703e4908998ebc5679e8a","650c16f0f2faf8d7a0d14c09","651d21eb24d8ffa67781a807","null","null","<p style=""font-size: 60px; font-family: BACS"">dMYBPmKcD</p>","","","","","","","","",""
"html-keyboard-response","295","420123","0.0-14.0-0.44","60e703e4908998ebc5679e8a","650c16f0f2faf8d7a0d14c09","651d21eb24d8ffa67781a807","null","null","<p style=""font-size: 60px; font-family: BACS"">AlUYmLJ</p>","","","","","","","","",""
"html-keyboard-response","296","421136","0.0-14.0-0.45","60e703e4908998ebc5679e8a","650c16f0f2faf8d7a0d14c09","651d21eb24d8ffa67781a807","null","null","<p style=""font-size: 60px; font-family: BACS"">kcdOtYDTk</p>","","","","","","","","",""
"html-keyboard-response","297","422137","0.0-14.0-0.46","60e703e4908998ebc5679e8a","650c16f0f2faf8d7a0d14c09","651d21eb24d8ffa67781a807","null","null","<p style=""font-size: 60px; font-family: BACS"">DlDdmKcD</p>","","","","","","","","",""
"html-keyboard-response","298","423143","0.0-14.0-0.47","60e703e4908998ebc5679e8a","650c16f0f2faf8d7a0d14c09","651d21eb24d8ffa67781a807","null","null","<p style=""font-size: 60px; font-family: BACS"">lcOcmLJ</p>","","","","","","","","",""
"html-keyboard-response","299","424154","0.0-14.0-0.48","60e703e4908998ebc5679e8a","650c16f0f2faf8d7a0d14c09","651d21eb24d8ffa67781a807","null","null","<p style=""font-size: 60px; font-family: BACS"">aOLZUGlu</p>","","","","","","","","",""
"html-keyboard-response","300","425155","0.0-14.0-0.49","60e703e4908998ebc5679e8a","650c16f0f2faf8d7a0d14c09","651d21eb24d8ffa67781a807","null","null","<p style=""font-size: 60px; font-family: BACS"">PCPDhDlDT</p>","","","","","","","","",""
"html-keyboard-response","301","426166","0.0-14.0-0.50","60e703e4908998ebc5679e8a","650c16f0f2faf8d7a0d14c09","651d21eb24d8ffa67781a807","null","null","<p style=""font-size: 60px; font-family: BACS"">KDPAYDTk</p>","","","","","","","","",""
"html-keyboard-response","302","427181","0.0-14.0-0.51","60e703e4908998ebc5679e8a","650c16f0f2faf8d7a0d14c09","651d21eb24d8ffa67781a807","null","null","<p style=""font-size: 60px; font-family: BACS"">aOLZUAZbl</p>","","","","","","","","",""
"html-keyboard-response","303","428182","0.0-14.0-0.52","60e703e4908998ebc5679e8a","650c16f0f2faf8d7a0d14c09","651d21eb24d8ffa67781a807","null","null","<p style=""font-size: 60px; font-family: BACS"">lcOcAld</p>","","","","","","","","",""
"html-keyboard-response","304","429187","0.0-14.0-0.53","60e703e4908998ebc5679e8a","650c16f0f2faf8d7a0d14c09","651d21eb24d8ffa67781a807","null","null","<p style=""font-size: 60px; font-family: BACS"">dMYBPTmTm</p>","","","","","","","","",""
"html-keyboard-response","305","430197","0.0-14.0-0.54","60e703e4908998ebc5679e8a","650c16f0f2faf8d7a0d14c09","651d21eb24d8ffa67781a807","null","null","<p style=""font-size: 60px; font-family: BACS"">PCPDhcMRl</p>","","","","","","","","",""
"html-keyboard-response","306","431213","0.0-14.0-0.55","60e703e4908998ebc5679e8a","650c16f0f2faf8d7a0d14c09","651d21eb24d8ffa67781a807","null","null","<p style=""font-size: 60px; font-family: BACS"">YOZNAZbl</p>","","","","","","","","",""
"html-keyboard-response","307","432223","0.0-14.0-0.56","60e703e4908998ebc5679e8a","650c16f0f2faf8d7a0d14c09","651d21eb24d8ffa67781a807","null","null","<p style=""font-size: 60px; font-family: BACS"">tRdMDlDT</p>","","","","","","","","",""
"html-keyboard-response","308","433233","0.0-14.0-0.57","60e703e4908998ebc5679e8a","650c16f0f2faf8d7a0d14c09","651d21eb24d8ffa67781a807","null","null","<p style=""font-size: 60px; font-family: BACS"">vQdOArv</p>","","","","","","","","",""
"html-keyboard-response","309","434235","0.0-14.0-0.58","60e703e4908998ebc5679e8a","650c16f0f2faf8d7a0d14c09","651d21eb24d8ffa67781a807","null","null","<p style=""font-size: 60px; font-family: BACS"">YOZNmLJ</p>","","","","","","","","",""
"html-keyboard-response","310","435250","0.0-14.0-0.59","60e703e4908998ebc5679e8a","650c16f0f2faf8d7a0d14c09","651d21eb24d8ffa67781a807","null","null","<p style=""font-size: 60px; font-family: BACS"">tRdMYDTk</p>","","","","","","","","",""
"html-keyboard-response","311","436262","0.0-14.0-0.60","60e703e4908998ebc5679e8a","650c16f0f2faf8d7a0d14c09","651d21eb24d8ffa67781a807","null","null","<p style=""font-size: 60px; font-family: BACS"">vQdOAld</p>","","","","","","","","",""
"html-keyboard-response","312","437275","0.0-14.0-0.61","60e703e4908998ebc5679e8a","650c16f0f2faf8d7a0d14c09","651d21eb24d8ffa67781a807","null","null","<p style=""font-size: 60px; font-family: BACS"">KdARTmTm</p>","","","","","","","","",""
"html-keyboard-response","313","438285","0.0-14.0-0.62","60e703e4908998ebc5679e8a","650c16f0f2faf8d7a0d14c09","651d21eb24d8ffa67781a807","null","null","<p style=""font-size: 60px; font-family: BACS"">rvAJAld</p>","","","","","","","","",""
"html-keyboard-response","314","439298","0.0-14.0-0.63","60e703e4908998ebc5679e8a","650c16f0f2faf8d7a0d14c09","651d21eb24d8ffa67781a807","null","null","<p style=""font-size: 60px; font-family: BACS"">AlUYGlu</p>","","","","","","","","",""
"html-keyboard-response","315","440313","0.0-14.0-0.64","60e703e4908998ebc5679e8a","650c16f0f2faf8d7a0d14c09","651d21eb24d8ffa67781a807","null","null","<p style=""font-size: 60px; font-family: BACS"">uauOAZbl</p>","","","","","","","","",""
"html-keyboard-response","316","441325","0.0-14.0-0.65","60e703e4908998ebc5679e8a","650c16f0f2faf8d7a0d14c09","651d21eb24d8ffa67781a807","null","null","<p style=""font-size: 60px; font-family: BACS"">aOLZUAld</p>","","","","","","","","",""
"html-keyboard-response","317","442333","0.0-14.0-0.66","60e703e4908998ebc5679e8a","650c16f0f2faf8d7a0d14c09","651d21eb24d8ffa67781a807","null","null","<p style=""font-size: 60px; font-family: BACS"">uAkrAZbl</p>","","","","","","","","",""
"html-keyboard-response","318","443346","0.0-14.0-0.67","60e703e4908998ebc5679e8a","650c16f0f2faf8d7a0d14c09","651d21eb24d8ffa67781a807","null","null","<p style=""font-size: 60px; font-family: BACS"">hCktYDTk</p>","","","","","","","","",""
"html-keyboard-response","319","444347","0.0-14.0-0.68","60e703e4908998ebc5679e8a","650c16f0f2faf8d7a0d14c09","651d21eb24d8ffa67781a807","null","null","<p style=""font-size: 60px; font-family: BACS"">tRdMcMRl</p>","","","","","","","","",""
"html-keyboard-response","320","445362","0.0-14.0-0.69","60e703e4908998ebc5679e8a","650c16f0f2faf8d7a0d14c09","651d21eb24d8ffa67781a807","null","null","<p style=""font-size: 60px; font-family: BACS"">uAkrmLJ</p>","","","","","","","","",""
"html-keyboard-response","321","446375","0.0-14.0-0.70","60e703e4908998ebc5679e8a","650c16f0f2faf8d7a0d14c09","651d21eb24d8ffa67781a807","null","null","<p style=""font-size: 60px; font-family: BACS"">PCPDhYDTk</p>","","","","","","","","",""
"html-keyboard-response","322","447378","0.0-14.0-0.71","60e703e4908998ebc5679e8a","650c16f0f2faf8d7a0d14c09","651d21eb24d8ffa67781a807","null","null","<p style=""font-size: 60px; font-family: BACS"">vQdOmLJ</p>","","","","","","","","",""
"html-keyboard-response","323","448394","0.0-14.0-0.72","60e703e4908998ebc5679e8a","650c16f0f2faf8d7a0d14c09","651d21eb24d8ffa67781a807","null","null","<p style=""font-size: 60px; font-family: BACS"">KdARmKcD</p>","","","","","","","","",""
"html-keyboard-response","324","449406","0.0-14.0-0.73","60e703e4908998ebc5679e8a","650c16f0f2faf8d7a0d14c09","651d21eb24d8ffa67781a807","null","null","<p style=""font-size: 60px; font-family: BACS"">aOLZUArv</p>","","","","","","","","",""
"html-keyboard-response","325","450422","0.0-14.0-0.74","60e703e4908998ebc5679e8a","650c16f0f2faf8d7a0d14c09","651d21eb24d8ffa67781a807","null","null","<p style=""font-size: 60px; font-family: BACS"">hCktDlDT</p>","","","","","","","","",""
"html-keyboard-response","326","451437","0.0-14.0-0.75","60e703e4908998ebc5679e8a","650c16f0f2faf8d7a0d14c09","651d21eb24d8ffa67781a807","null","null","<p style=""font-size: 60px; font-family: BACS"">KBKBEYDTk</p>","","","","","","","","",""
"html-keyboard-response","327","452452","0.0-14.0-0.76","60e703e4908998ebc5679e8a","650c16f0f2faf8d7a0d14c09","651d21eb24d8ffa67781a807","null","null","<p style=""font-size: 60px; font-family: BACS"">DlDdTmTm</p>","","","","","","","","",""
"html-keyboard-response","328","453463","0.0-14.0-0.77","60e703e4908998ebc5679e8a","650c16f0f2faf8d7a0d14c09","651d21eb24d8ffa67781a807","null","null","<p style=""font-size: 60px; font-family: BACS"">muYNAld</p>","","","","","","","","",""
"html-keyboard-response","329","454467","0.0-14.0-0.78","60e703e4908998ebc5679e8a","650c16f0f2faf8d7a0d14c09","651d21eb24d8ffa67781a807","null","null","<p style=""font-size: 60px; font-family: BACS"">YOZNArv</p>","","","","","","","","",""
"html-keyboard-response","330","455467","0.0-14.0-0.79","60e703e4908998ebc5679e8a","650c16f0f2faf8d7a0d14c09","651d21eb24d8ffa67781a807","null","null","<p style=""font-size: 60px; font-family: BACS"">KBKBETmTm</p>","","","","","","","","",""
"html-keyboard-response","331","479129","0.0-15.0","60e703e4908998ebc5679e8a","650c16f0f2faf8d7a0d14c09","651d21eb24d8ffa67781a807","23661"," ","<p>Great, you've seen the fourth block of words. You may now take a short break.</p>
      <p>Press the spacebar when you're ready to continue.</p>","","","","","","","","",""
"html-keyboard-response","332","480138","0.0-16.0-0.0","60e703e4908998ebc5679e8a","650c16f0f2faf8d7a0d14c09","651d21eb24d8ffa67781a807","null","null","<p style=""font-size: 60px; font-family: BACS"">KBKBEDlDT</p>","","","","","","","","",""
"html-keyboard-response","333","481153","0.0-16.0-0.1","60e703e4908998ebc5679e8a","650c16f0f2faf8d7a0d14c09","651d21eb24d8ffa67781a807","null","null","<p style=""font-size: 60px; font-family: BACS"">KBKBEDlDT</p>","","","","","","","","",""
"html-keyboard-response","334","482168","0.0-16.0-0.2","60e703e4908998ebc5679e8a","650c16f0f2faf8d7a0d14c09","651d21eb24d8ffa67781a807","null","null","<p style=""font-size: 60px; font-family: BACS"">KBKBEDlDT</p>","","","","","","","","",""
"html-keyboard-response","335","483169","0.0-16.0-0.3","60e703e4908998ebc5679e8a","650c16f0f2faf8d7a0d14c09","651d21eb24d8ffa67781a807","null","null","<p style=""font-size: 60px; font-family: BACS"">KBKBEDlDT</p>","","","","","","","","",""
"html-keyboard-response","336","484184","0.0-16.0-0.4","60e703e4908998ebc5679e8a","650c16f0f2faf8d7a0d14c09","651d21eb24d8ffa67781a807","null","null","<p style=""font-size: 60px; font-family: BACS"">KBKBEDlDT</p>","","","","","","","","",""
"html-keyboard-response","337","485190","0.0-16.0-0.5","60e703e4908998ebc5679e8a","650c16f0f2faf8d7a0d14c09","651d21eb24d8ffa67781a807","null","null","<p style=""font-size: 60px; font-family: BACS"">KBKBEDlDT</p>","","","","","","","","",""
"html-keyboard-response","338","486191","0.0-16.0-0.6","60e703e4908998ebc5679e8a","650c16f0f2faf8d7a0d14c09","651d21eb24d8ffa67781a807","null","null","<p style=""font-size: 60px; font-family: BACS"">KBKBEDlDT</p>","","","","","","","","",""
"html-keyboard-response","339","487193","0.0-16.0-0.7","60e703e4908998ebc5679e8a","650c16f0f2faf8d7a0d14c09","651d21eb24d8ffa67781a807","null","null","<p style=""font-size: 60px; font-family: BACS"">KBKBEDlDT</p>","","","","","","","","",""
"html-keyboard-response","340","488203","0.0-16.0-0.8","60e703e4908998ebc5679e8a","650c16f0f2faf8d7a0d14c09","651d21eb24d8ffa67781a807","null","null","<p style=""font-size: 60px; font-family: BACS"">KBKBEDlDT</p>","","","","","","","","",""
"html-keyboard-response","341","489203","0.0-16.0-0.9","60e703e4908998ebc5679e8a","650c16f0f2faf8d7a0d14c09","651d21eb24d8ffa67781a807","null","null","<p style=""font-size: 60px; font-family: BACS"">KBKBEDlDT</p>","","","","","","","","",""
"html-keyboard-response","342","490208","0.0-16.0-0.10","60e703e4908998ebc5679e8a","650c16f0f2faf8d7a0d14c09","651d21eb24d8ffa67781a807","null","null","<p style=""font-size: 60px; font-family: BACS"">KBKBEDlDT</p>","","","","","","","","",""
"html-keyboard-response","343","491223","0.0-16.0-0.11","60e703e4908998ebc5679e8a","650c16f0f2faf8d7a0d14c09","651d21eb24d8ffa67781a807","null","null","<p style=""font-size: 60px; font-family: BACS"">KBKBEDlDT</p>","","","","","","","","",""
"html-keyboard-response","344","492224","0.0-16.0-0.12","60e703e4908998ebc5679e8a","650c16f0f2faf8d7a0d14c09","651d21eb24d8ffa67781a807","null","null","<p style=""font-size: 60px; font-family: BACS"">KBKBEDlDT</p>","","","","","","","","",""
"html-keyboard-response","345","493233","0.0-16.0-0.13","60e703e4908998ebc5679e8a","650c16f0f2faf8d7a0d14c09","651d21eb24d8ffa67781a807","null","null","<p style=""font-size: 60px; font-family: BACS"">KBKBEDlDT</p>","","","","","","","","",""
"html-keyboard-response","346","494240","0.0-16.0-0.14","60e703e4908998ebc5679e8a","650c16f0f2faf8d7a0d14c09","651d21eb24d8ffa67781a807","null","null","<p style=""font-size: 60px; font-family: BACS"">KBKBEDlDT</p>","","","","","","","","",""
"html-keyboard-response","347","495244","0.0-16.0-0.15","60e703e4908998ebc5679e8a","650c16f0f2faf8d7a0d14c09","651d21eb24d8ffa67781a807","null","null","<p style=""font-size: 60px; font-family: BACS"">KBKBEDlDT</p>","","","","","","","","",""
"html-keyboard-response","348","496246","0.0-16.0-0.16","60e703e4908998ebc5679e8a","650c16f0f2faf8d7a0d14c09","651d21eb24d8ffa67781a807","null","null","<p style=""font-size: 60px; font-family: BACS"">KBKBEDlDT</p>","","","","","","","","",""
"html-keyboard-response","349","497259","0.0-16.0-0.17","60e703e4908998ebc5679e8a","650c16f0f2faf8d7a0d14c09","651d21eb24d8ffa67781a807","null","null","<p style=""font-size: 60px; font-family: BACS"">KBKBEDlDT</p>","","","","","","","","",""
"html-keyboard-response","350","498271","0.0-16.0-0.18","60e703e4908998ebc5679e8a","650c16f0f2faf8d7a0d14c09","651d21eb24d8ffa67781a807","null","null","<p style=""font-size: 60px; font-family: BACS"">KBKBEDlDT</p>","","","","","","","","",""
"html-keyboard-response","351","499279","0.0-16.0-0.19","60e703e4908998ebc5679e8a","650c16f0f2faf8d7a0d14c09","651d21eb24d8ffa67781a807","null","null","<p style=""font-size: 60px; font-family: BACS"">KBKBEDlDT</p>","","","","","","","","",""
"html-keyboard-response","352","500296","0.0-16.0-0.20","60e703e4908998ebc5679e8a","650c16f0f2faf8d7a0d14c09","651d21eb24d8ffa67781a807","null","null","<p style=""font-size: 60px; font-family: BACS"">KBKBEDlDT</p>","","","","","","","","",""
"html-keyboard-response","353","501309","0.0-16.0-0.21","60e703e4908998ebc5679e8a","650c16f0f2faf8d7a0d14c09","651d21eb24d8ffa67781a807","null","null","<p style=""font-size: 60px; font-family: BACS"">KBKBEDlDT</p>","","","","","","","","",""
"html-keyboard-response","354","502322","0.0-16.0-0.22","60e703e4908998ebc5679e8a","650c16f0f2faf8d7a0d14c09","651d21eb24d8ffa67781a807","null","null","<p style=""font-size: 60px; font-family: BACS"">KBKBEDlDT</p>","","","","","","","","",""
"html-keyboard-response","355","503323","0.0-16.0-0.23","60e703e4908998ebc5679e8a","650c16f0f2faf8d7a0d14c09","651d21eb24d8ffa67781a807","null","null","<p style=""font-size: 60px; font-family: BACS"">KBKBEDlDT</p>","","","","","","","","",""
"html-keyboard-response","356","504324","0.0-16.0-0.24","60e703e4908998ebc5679e8a","650c16f0f2faf8d7a0d14c09","651d21eb24d8ffa67781a807","null","null","<p style=""font-size: 60px; font-family: BACS"">KBKBEDlDT</p>","","","","","","","","",""
"html-keyboard-response","357","505340","0.0-16.0-0.25","60e703e4908998ebc5679e8a","650c16f0f2faf8d7a0d14c09","651d21eb24d8ffa67781a807","null","null","<p style=""font-size: 60px; font-family: BACS"">KBKBEDlDT</p>","","","","","","","","",""
"html-keyboard-response","358","506354","0.0-16.0-0.26","60e703e4908998ebc5679e8a","650c16f0f2faf8d7a0d14c09","651d21eb24d8ffa67781a807","null","null","<p style=""font-size: 60px; font-family: BACS"">KBKBEDlDT</p>","","","","","","","","",""
"html-keyboard-response","359","507362","0.0-16.0-0.27","60e703e4908998ebc5679e8a","650c16f0f2faf8d7a0d14c09","651d21eb24d8ffa67781a807","null","null","<p style=""font-size: 60px; font-family: BACS"">KBKBEDlDT</p>","","","","","","","","",""
"html-keyboard-response","360","508364","0.0-16.0-0.28","60e703e4908998ebc5679e8a","650c16f0f2faf8d7a0d14c09","651d21eb24d8ffa67781a807","null","null","<p style=""font-size: 60px; font-family: BACS"">KBKBEDlDT</p>","","","","","","","","",""
"html-keyboard-response","361","509367","0.0-16.0-0.29","60e703e4908998ebc5679e8a","650c16f0f2faf8d7a0d14c09","651d21eb24d8ffa67781a807","null","null","<p style=""font-size: 60px; font-family: BACS"">KBKBEDlDT</p>","","","","","","","","",""
"html-keyboard-response","362","510379","0.0-16.0-0.30","60e703e4908998ebc5679e8a","650c16f0f2faf8d7a0d14c09","651d21eb24d8ffa67781a807","null","null","<p style=""font-size: 60px; font-family: BACS"">KBKBEDlDT</p>","","","","","","","","",""
"html-keyboard-response","363","511381","0.0-16.0-0.31","60e703e4908998ebc5679e8a","650c16f0f2faf8d7a0d14c09","651d21eb24d8ffa67781a807","null","null","<p style=""font-size: 60px; font-family: BACS"">KBKBEDlDT</p>","","","","","","","","",""
"html-keyboard-response","364","512384","0.0-16.0-0.32","60e703e4908998ebc5679e8a","650c16f0f2faf8d7a0d14c09","651d21eb24d8ffa67781a807","null","null","<p style=""font-size: 60px; font-family: BACS"">KBKBEDlDT</p>","","","","","","","","",""
"html-keyboard-response","365","513390","0.0-16.0-0.33","60e703e4908998ebc5679e8a","650c16f0f2faf8d7a0d14c09","651d21eb24d8ffa67781a807","null","null","<p style=""font-size: 60px; font-family: BACS"">KBKBEDlDT</p>","","","","","","","","",""
"html-keyboard-response","366","514395","0.0-16.0-0.34","60e703e4908998ebc5679e8a","650c16f0f2faf8d7a0d14c09","651d21eb24d8ffa67781a807","null","null","<p style=""font-size: 60px; font-family: BACS"">KBKBEDlDT</p>","","","","","","","","",""
"html-keyboard-response","367","515398","0.0-16.0-0.35","60e703e4908998ebc5679e8a","650c16f0f2faf8d7a0d14c09","651d21eb24d8ffa67781a807","null","null","<p style=""font-size: 60px; font-family: BACS"">KBKBEDlDT</p>","","","","","","","","",""
"html-keyboard-response","368","516399","0.0-16.0-0.36","60e703e4908998ebc5679e8a","650c16f0f2faf8d7a0d14c09","651d21eb24d8ffa67781a807","null","null","<p style=""font-size: 60px; font-family: BACS"">KBKBEDlDT</p>","","","","","","","","",""
"html-keyboard-response","369","517404","0.0-16.0-0.37","60e703e4908998ebc5679e8a","650c16f0f2faf8d7a0d14c09","651d21eb24d8ffa67781a807","null","null","<p style=""font-size: 60px; font-family: BACS"">KBKBEDlDT</p>","","","","","","","","",""
"html-keyboard-response","370","518406","0.0-16.0-0.38","60e703e4908998ebc5679e8a","650c16f0f2faf8d7a0d14c09","651d21eb24d8ffa67781a807","null","null","<p style=""font-size: 60px; font-family: BACS"">KBKBEDlDT</p>","","","","","","","","",""
"html-keyboard-response","371","519409","0.0-16.0-0.39","60e703e4908998ebc5679e8a","650c16f0f2faf8d7a0d14c09","651d21eb24d8ffa67781a807","null","null","<p style=""font-size: 60px; font-family: BACS"">KBKBEDlDT</p>","","","","","","","","",""
"html-keyboard-response","372","520420","0.0-16.0-0.40","60e703e4908998ebc5679e8a","650c16f0f2faf8d7a0d14c09","651d21eb24d8ffa67781a807","null","null","<p style=""font-size: 60px; font-family: BACS"">KBKBEDlDT</p>","","","","","","","","",""
"html-keyboard-response","373","521431","0.0-16.0-0.41","60e703e4908998ebc5679e8a","650c16f0f2faf8d7a0d14c09","651d21eb24d8ffa67781a807","null","null","<p style=""font-size: 60px; font-family: BACS"">KBKBEDlDT</p>","","","","","","","","",""
"html-keyboard-response","374","522437","0.0-16.0-0.42","60e703e4908998ebc5679e8a","650c16f0f2faf8d7a0d14c09","651d21eb24d8ffa67781a807","null","null","<p style=""font-size: 60px; font-family: BACS"">KBKBEDlDT</p>","","","","","","","","",""
"html-keyboard-response","375","523449","0.0-16.0-0.43","60e703e4908998ebc5679e8a","650c16f0f2faf8d7a0d14c09","651d21eb24d8ffa67781a807","null","null","<p style=""font-size: 60px; font-family: BACS"">KBKBEDlDT</p>","","","","","","","","",""
"html-keyboard-response","376","524450","0.0-16.0-0.44","60e703e4908998ebc5679e8a","650c16f0f2faf8d7a0d14c09","651d21eb24d8ffa67781a807","null","null","<p style=""font-size: 60px; font-family: BACS"">KBKBEDlDT</p>","","","","","","","","",""
"html-keyboard-response","377","525459","0.0-16.0-0.45","60e703e4908998ebc5679e8a","650c16f0f2faf8d7a0d14c09","651d21eb24d8ffa67781a807","null","null","<p style=""font-size: 60px; font-family: BACS"">KBKBEDlDT</p>","","","","","","","","",""
"html-keyboard-response","378","526461","0.0-16.0-0.46","60e703e4908998ebc5679e8a","650c16f0f2faf8d7a0d14c09","651d21eb24d8ffa67781a807","null","null","<p style=""font-size: 60px; font-family: BACS"">KBKBEDlDT</p>","","","","","","","","",""
"html-keyboard-response","379","527462","0.0-16.0-0.47","60e703e4908998ebc5679e8a","650c16f0f2faf8d7a0d14c09","651d21eb24d8ffa67781a807","null","null","<p style=""font-size: 60px; font-family: BACS"">KBKBEDlDT</p>","","","","","","","","",""
"html-keyboard-response","380","528466","0.0-16.0-0.48","60e703e4908998ebc5679e8a","650c16f0f2faf8d7a0d14c09","651d21eb24d8ffa67781a807","null","null","<p style=""font-size: 60px; font-family: BACS"">KBKBEDlDT</p>","","","","","","","","",""
"html-keyboard-response","381","529469","0.0-16.0-0.49","60e703e4908998ebc5679e8a","650c16f0f2faf8d7a0d14c09","651d21eb24d8ffa67781a807","null","null","<p style=""font-size: 60px; font-family: BACS"">KBKBEDlDT</p>","","","","","","","","",""
"html-keyboard-response","382","530471","0.0-16.0-0.50","60e703e4908998ebc5679e8a","650c16f0f2faf8d7a0d14c09","651d21eb24d8ffa67781a807","null","null","<p style=""font-size: 60px; font-family: BACS"">KBKBEDlDT</p>","","","","","","","","",""
"html-keyboard-response","383","531474","0.0-16.0-0.51","60e703e4908998ebc5679e8a","650c16f0f2faf8d7a0d14c09","651d21eb24d8ffa67781a807","null","null","<p style=""font-size: 60px; font-family: BACS"">KBKBEDlDT</p>","","","","","","","","",""
"html-keyboard-response","384","532482","0.0-16.0-0.52","60e703e4908998ebc5679e8a","650c16f0f2faf8d7a0d14c09","651d21eb24d8ffa67781a807","null","null","<p style=""font-size: 60px; font-family: BACS"">KBKBEDlDT</p>","","","","","","","","",""
"html-keyboard-response","385","533493","0.0-16.0-0.53","60e703e4908998ebc5679e8a","650c16f0f2faf8d7a0d14c09","651d21eb24d8ffa67781a807","null","null","<p style=""font-size: 60px; font-family: BACS"">KBKBEDlDT</p>","","","","","","","","",""
"html-keyboard-response","386","534509","0.0-16.0-0.54","60e703e4908998ebc5679e8a","650c16f0f2faf8d7a0d14c09","651d21eb24d8ffa67781a807","null","null","<p style=""font-size: 60px; font-family: BACS"">KBKBEDlDT</p>","","","","","","","","",""
"html-keyboard-response","387","535511","0.0-16.0-0.55","60e703e4908998ebc5679e8a","650c16f0f2faf8d7a0d14c09","651d21eb24d8ffa67781a807","null","null","<p style=""font-size: 60px; font-family: BACS"">KBKBEDlDT</p>","","","","","","","","",""
"html-keyboard-response","388","536522","0.0-16.0-0.56","60e703e4908998ebc5679e8a","650c16f0f2faf8d7a0d14c09","651d21eb24d8ffa67781a807","null","null","<p style=""font-size: 60px; font-family: BACS"">KBKBEDlDT</p>","","","","","","","","",""
"html-keyboard-response","389","537533","0.0-16.0-0.57","60e703e4908998ebc5679e8a","650c16f0f2faf8d7a0d14c09","651d21eb24d8ffa67781a807","null","null","<p style=""font-size: 60px; font-family: BACS"">KBKBEDlDT</p>","","","","","","","","",""
"html-keyboard-response","390","538545","0.0-16.0-0.58","60e703e4908998ebc5679e8a","650c16f0f2faf8d7a0d14c09","651d21eb24d8ffa67781a807","null","null","<p style=""font-size: 60px; font-family: BACS"">KBKBEDlDT</p>","","","","","","","","",""
"html-keyboard-response","391","539554","0.0-16.0-0.59","60e703e4908998ebc5679e8a","650c16f0f2faf8d7a0d14c09","651d21eb24d8ffa67781a807","null","null","<p style=""font-size: 60px; font-family: BACS"">KBKBEDlDT</p>","","","","","","","","",""
"html-keyboard-response","392","540555","0.0-16.0-0.60","60e703e4908998ebc5679e8a","650c16f0f2faf8d7a0d14c09","651d21eb24d8ffa67781a807","null","null","<p style=""font-size: 60px; font-family: BACS"">KBKBEDlDT</p>","","","","","","","","",""
"html-keyboard-response","393","541569","0.0-16.0-0.61","60e703e4908998ebc5679e8a","650c16f0f2faf8d7a0d14c09","651d21eb24d8ffa67781a807","null","null","<p style=""font-size: 60px; font-family: BACS"">KBKBEDlDT</p>","","","","","","","","",""
"html-keyboard-response","394","542569","0.0-16.0-0.62","60e703e4908998ebc5679e8a","650c16f0f2faf8d7a0d14c09","651d21eb24d8ffa67781a807","null","null","<p style=""font-size: 60px; font-family: BACS"">KBKBEDlDT</p>","","","","","","","","",""
"html-keyboard-response","395","543573","0.0-16.0-0.63","60e703e4908998ebc5679e8a","650c16f0f2faf8d7a0d14c09","651d21eb24d8ffa67781a807","null","null","<p style=""font-size: 60px; font-family: BACS"">KBKBEDlDT</p>","","","","","","","","",""
"html-keyboard-response","396","544574","0.0-16.0-0.64","60e703e4908998ebc5679e8a","650c16f0f2faf8d7a0d14c09","651d21eb24d8ffa67781a807","null","null","<p style=""font-size: 60px; font-family: BACS"">KBKBEDlDT</p>","","","","","","","","",""
"html-keyboard-response","397","545578","0.0-16.0-0.65","60e703e4908998ebc5679e8a","650c16f0f2faf8d7a0d14c09","651d21eb24d8ffa67781a807","null","null","<p style=""font-size: 60px; font-family: BACS"">KBKBEDlDT</p>","","","","","","","","",""
"html-keyboard-response","398","546584","0.0-16.0-0.66","60e703e4908998ebc5679e8a","650c16f0f2faf8d7a0d14c09","651d21eb24d8ffa67781a807","null","null","<p style=""font-size: 60px; font-family: BACS"">KBKBEDlDT</p>","","","","","","","","",""
