"trial_type","trial_index","time_elapsed","internal_node_id","subject_id","study_id","session_id","rt","response","stimulus","success","item","task","correct_response","testing_condition","correct","target","confound","name"
"pavlovia","0","723","0.0-0.0","5ec1c01a8ccaaa5ec0080c91","650c16f0f2faf8d7a0d14c09","651c1dd619168de2107f3287","","","","","","","","","","","",""
"survey-html-form","1","8220","0.0-1.0","5ec1c01a8ccaaa5ec0080c91","650c16f0f2faf8d7a0d14c09","651c1dd619168de2107f3287","7496","{""ID"":""5ec1c01a8ccaaa5ec0080c91""}","","","","","","","","","",""
"html-keyboard-response","2","25744","0.0-2.0","5ec1c01a8ccaaa5ec0080c91","650c16f0f2faf8d7a0d14c09","651c1dd619168de2107f3287","17521"," ","<p style=""font-size: 15px;"">Before beginning, we ask that you read the consent information and confirm your agreement to participate in the experiment.</p>
      <p style=""font-size: 15px;""> We ask that you remember that this is a research project and that your participation is entirely voluntary. You can stop your participation at any time, without needing to provide any explanation. The study we're asking you to participate in aims at examining how readers process written words. You will be engaged in a session of apprximately 20 minutes, followed by a brief questionnaire. You will have the opportunity to take a few breaks during the experiment. You will be paid £4 for your participation, corresponding to a rate of £8/hour. While this experiment looks at cognitive faculties, this experiment doesn't constitute clinical proof of eventual pathologies.</p>
      <p style=""font-size: 15px;"">All of the information collected thanks to yours and others' participation will be held in a secure password-protected server, and will not be shared with anyone not authorised to view it. Your personal information will be kept with an arbitrary participant ID. Thanks to this data anonymity process, any researcher analysing the data won't be able to track the information back to a specific participant. Therefore, this process will make identifying you impossibile, even when results from the study will be published in scientific reviews, presented at congresses, or at any other public forum. More generally, the collected data will be treated in accordance with the laws on privacy and conformity to the Legislative Degree n. 196 ""Code regarding the protection of personal data"" of the 30th of June 2003 and to the European Regulation 2016/670 (General Data Protection Regulation - GDPR). The Data Protection Officer is Avv. Valentina Carollo, who can be contacted at the following email addresses: <a href=""mailto:dpo@sissa.it"">dpo@sissa.it</a> or <a href=""mailto:rpd@sissa.it"">rpd@sissa.it</a> - PEC: <a href=""mailto:protocollo@pec.sissa.it"">protocollo@pec.sissa.it</a>.</p>
      <p style=""font-size: 15px;""> Before expressing your consent to participate, we would like to remind you again that in case you need explanations on any aspect of the experimental procedure, the researcher is at your disposition (<a href=""mailto:aliebelt@sissa.it"">aliebelt@sissa.it</a>, <a href=""mailto:davide.crepaldi@sissa.it"">davide.crepaldi@sissa.it</a>).</p>
      <p style=""font-size: 15px;"">If you would like to download the informed consent form, you can do so here: <a href=""BASL-Informed_Consent.pdf"" download>informed consent form</a>.</p>
      <p style=""font-size: 15px;"">We ask that you press the spacebar to proceed to the consent section.</p>","","","","","","","","",""
"survey-html-form","3","59973","0.0-3.0","5ec1c01a8ccaaa5ec0080c91","650c16f0f2faf8d7a0d14c09","651c1dd619168de2107f3287","34226","{""consent1"":""YES"",""consent2"":""YES"",""consent3"":""YES"",""consent4"":""YES"",""consent5"":""YES"",""consent6"":""YES""}","","","","","","","","","",""
"fullscreen","4","70814","0.0-4.0","5ec1c01a8ccaaa5ec0080c91","650c16f0f2faf8d7a0d14c09","651c1dd619168de2107f3287","","","","true","","","","","","","",""
"html-keyboard-response","5","91724","0.0-5.0","5ec1c01a8ccaaa5ec0080c91","650c16f0f2faf8d7a0d14c09","651c1dd619168de2107f3287","20907"," ","<p>Welcome, and thank you very much for your time!</p>
      <p>In this experiment, you'll be a language expert who's been asked to take a look at words that Earth has received in its first communication with aliens. Your task, in this first part of the experiment, is to pay close attention to the words you'll be shown; later, world leaders will ask you questions on what you saw. The words will be shown to you quite quickly; it seems that the aliens were in a hurry :-)</p>
      <p>Press the spacebar to continue.<p>","","","","","","","","",""
"html-keyboard-response","6","91788","0.0-6.0","5ec1c01a8ccaaa5ec0080c91","650c16f0f2faf8d7a0d14c09","651c1dd619168de2107f3287","null","null","<p style=""font-size: 120px; font-family: BACS""> </p>","","","","","","","","",""
"html-keyboard-response","7","100064","0.0-7.0","5ec1c01a8ccaaa5ec0080c91","650c16f0f2faf8d7a0d14c09","651c1dd619168de2107f3287","8275"," ","<p>Here is an example of the words you'll see:</p>
      <img src='esempio.png' height='400px'>
      <p>When you're ready to begin, press the spacebar.</p></div>","","","","","","","","",""
"html-keyboard-response","8","101085","0.0-8.0-0.0","5ec1c01a8ccaaa5ec0080c91","650c16f0f2faf8d7a0d14c09","651c1dd619168de2107f3287","null","null","<p style=""font-size: 60px; font-family: BACS"">bvkruZc</p>","","","","","","","","",""
"html-keyboard-response","9","102100","0.0-8.0-0.1","5ec1c01a8ccaaa5ec0080c91","650c16f0f2faf8d7a0d14c09","651c1dd619168de2107f3287","null","null","<p style=""font-size: 60px; font-family: BACS"">CkBOPkBD</p>","","","","","","","","",""
"html-keyboard-response","10","103109","0.0-8.0-0.2","5ec1c01a8ccaaa5ec0080c91","650c16f0f2faf8d7a0d14c09","651c1dd619168de2107f3287","null","null","<p style=""font-size: 60px; font-family: BACS"">NvuGruZc</p>","","","","","","","","",""
"html-keyboard-response","11","104114","0.0-8.0-0.3","5ec1c01a8ccaaa5ec0080c91","650c16f0f2faf8d7a0d14c09","651c1dd619168de2107f3287","null","null","<p style=""font-size: 60px; font-family: BACS"">CRdBdKmE</p>","","","","","","","","",""
"html-keyboard-response","12","105130","0.0-8.0-0.4","5ec1c01a8ccaaa5ec0080c91","650c16f0f2faf8d7a0d14c09","651c1dd619168de2107f3287","null","null","<p style=""font-size: 60px; font-family: BACS"">JAdLmukbY</p>","","","","","","","","",""
"html-keyboard-response","13","106146","0.0-8.0-0.5","5ec1c01a8ccaaa5ec0080c91","650c16f0f2faf8d7a0d14c09","651c1dd619168de2107f3287","null","null","<p style=""font-size: 60px; font-family: BACS"">KMDYtAPT</p>","","","","","","","","",""
"html-keyboard-response","14","107162","0.0-8.0-0.6","5ec1c01a8ccaaa5ec0080c91","650c16f0f2faf8d7a0d14c09","651c1dd619168de2107f3287","null","null","<p style=""font-size: 60px; font-family: BACS"">UrOQukbY</p>","","","","","","","","",""
"html-keyboard-response","15","108176","0.0-8.0-0.7","5ec1c01a8ccaaa5ec0080c91","650c16f0f2faf8d7a0d14c09","651c1dd619168de2107f3287","null","null","<p style=""font-size: 60px; font-family: BACS"">CkBOPBRDh</p>","","","","","","","","",""
"html-keyboard-response","16","109189","0.0-8.0-0.8","5ec1c01a8ccaaa5ec0080c91","650c16f0f2faf8d7a0d14c09","651c1dd619168de2107f3287","null","null","<p style=""font-size: 60px; font-family: BACS"">EMbDPlRE</p>","","","","","","","","",""
"html-keyboard-response","17","110194","0.0-8.0-0.9","5ec1c01a8ccaaa5ec0080c91","650c16f0f2faf8d7a0d14c09","651c1dd619168de2107f3287","null","null","<p style=""font-size: 60px; font-family: BACS"">kGamNukbY</p>","","","","","","","","",""
"html-keyboard-response","18","111207","0.0-8.0-0.10","5ec1c01a8ccaaa5ec0080c91","650c16f0f2faf8d7a0d14c09","651c1dd619168de2107f3287","null","null","<p style=""font-size: 60px; font-family: BACS"">TdTDlRE</p>","","","","","","","","",""
"html-keyboard-response","19","112222","0.0-8.0-0.11","5ec1c01a8ccaaa5ec0080c91","650c16f0f2faf8d7a0d14c09","651c1dd619168de2107f3287","null","null","<p style=""font-size: 60px; font-family: BACS"">NvuGrukbY</p>","","","","","","","","",""
"html-keyboard-response","20","113240","0.0-8.0-0.12","5ec1c01a8ccaaa5ec0080c91","650c16f0f2faf8d7a0d14c09","651c1dd619168de2107f3287","null","null","<p style=""font-size: 60px; font-family: BACS"">kGamNAld</p>","","","","","","","","",""
"html-keyboard-response","21","114248","0.0-8.0-0.13","5ec1c01a8ccaaa5ec0080c91","650c16f0f2faf8d7a0d14c09","651c1dd619168de2107f3287","null","null","<p style=""font-size: 60px; font-family: BACS"">BbODAPT</p>","","","","","","","","",""
"html-keyboard-response","22","115269","0.0-8.0-0.14","5ec1c01a8ccaaa5ec0080c91","650c16f0f2faf8d7a0d14c09","651c1dd619168de2107f3287","null","null","<p style=""font-size: 60px; font-family: BACS"">EMbDPKmE</p>","","","","","","","","",""
"html-keyboard-response","23","116279","0.0-8.0-0.15","5ec1c01a8ccaaa5ec0080c91","650c16f0f2faf8d7a0d14c09","651c1dd619168de2107f3287","null","null","<p style=""font-size: 60px; font-family: BACS"">kKRCBRDh</p>","","","","","","","","",""
"html-keyboard-response","24","117293","0.0-8.0-0.16","5ec1c01a8ccaaa5ec0080c91","650c16f0f2faf8d7a0d14c09","651c1dd619168de2107f3287","null","null","<p style=""font-size: 60px; font-family: BACS"">adYrcukbY</p>","","","","","","","","",""
"html-keyboard-response","25","118301","0.0-8.0-0.17","5ec1c01a8ccaaa5ec0080c91","650c16f0f2faf8d7a0d14c09","651c1dd619168de2107f3287","null","null","<p style=""font-size: 60px; font-family: BACS"">UrOQGUa</p>","","","","","","","","",""
"html-keyboard-response","26","119315","0.0-8.0-0.18","5ec1c01a8ccaaa5ec0080c91","650c16f0f2faf8d7a0d14c09","651c1dd619168de2107f3287","null","null","<p style=""font-size: 60px; font-family: BACS"">LckGNLcO</p>","","","","","","","","",""
"html-keyboard-response","27","120329","0.0-8.0-0.19","5ec1c01a8ccaaa5ec0080c91","650c16f0f2faf8d7a0d14c09","651c1dd619168de2107f3287","null","null","<p style=""font-size: 60px; font-family: BACS"">AmaclGUa</p>","","","","","","","","",""
"html-keyboard-response","28","121347","0.0-8.0-0.20","5ec1c01a8ccaaa5ec0080c91","650c16f0f2faf8d7a0d14c09","651c1dd619168de2107f3287","null","null","<p style=""font-size: 60px; font-family: BACS"">BbODKmE</p>","","","","","","","","",""
"html-keyboard-response","29","122360","0.0-8.0-0.21","5ec1c01a8ccaaa5ec0080c91","650c16f0f2faf8d7a0d14c09","651c1dd619168de2107f3287","null","null","<p style=""font-size: 60px; font-family: BACS"">adYrcLcO</p>","","","","","","","","",""
"html-keyboard-response","30","123374","0.0-8.0-0.22","5ec1c01a8ccaaa5ec0080c91","650c16f0f2faf8d7a0d14c09","651c1dd619168de2107f3287","null","null","<p style=""font-size: 60px; font-family: BACS"">bcORAPT</p>","","","","","","","","",""
"html-keyboard-response","31","124395","0.0-8.0-0.23","5ec1c01a8ccaaa5ec0080c91","650c16f0f2faf8d7a0d14c09","651c1dd619168de2107f3287","null","null","<p style=""font-size: 60px; font-family: BACS"">UrOQuZc</p>","","","","","","","","",""
"html-keyboard-response","32","125410","0.0-8.0-0.24","5ec1c01a8ccaaa5ec0080c91","650c16f0f2faf8d7a0d14c09","651c1dd619168de2107f3287","null","null","<p style=""font-size: 60px; font-family: BACS"">vblrAld</p>","","","","","","","","",""
"html-keyboard-response","33","126425","0.0-8.0-0.25","5ec1c01a8ccaaa5ec0080c91","650c16f0f2faf8d7a0d14c09","651c1dd619168de2107f3287","null","null","<p style=""font-size: 60px; font-family: BACS"">AmaclLcO</p>","","","","","","","","",""
"html-keyboard-response","34","127439","0.0-8.0-0.26","5ec1c01a8ccaaa5ec0080c91","650c16f0f2faf8d7a0d14c09","651c1dd619168de2107f3287","null","null","<p style=""font-size: 60px; font-family: BACS"">UrOQAld</p>","","","","","","","","",""
"html-keyboard-response","35","128452","0.0-8.0-0.27","5ec1c01a8ccaaa5ec0080c91","650c16f0f2faf8d7a0d14c09","651c1dd619168de2107f3287","null","null","<p style=""font-size: 60px; font-family: BACS"">NvuGrGUa</p>","","","","","","","","",""
"html-keyboard-response","36","129457","0.0-8.0-0.28","5ec1c01a8ccaaa5ec0080c91","650c16f0f2faf8d7a0d14c09","651c1dd619168de2107f3287","null","null","<p style=""font-size: 60px; font-family: BACS"">bcORkBD</p>","","","","","","","","",""
"html-keyboard-response","37","130470","0.0-8.0-0.29","5ec1c01a8ccaaa5ec0080c91","650c16f0f2faf8d7a0d14c09","651c1dd619168de2107f3287","null","null","<p style=""font-size: 60px; font-family: BACS"">MkmEdKmE</p>","","","","","","","","",""
"html-keyboard-response","38","131482","0.0-8.0-0.30","5ec1c01a8ccaaa5ec0080c91","650c16f0f2faf8d7a0d14c09","651c1dd619168de2107f3287","null","null","<p style=""font-size: 60px; font-family: BACS"">KMDYtlRE</p>","","","","","","","","",""
"html-keyboard-response","39","132496","0.0-8.0-0.31","5ec1c01a8ccaaa5ec0080c91","650c16f0f2faf8d7a0d14c09","651c1dd619168de2107f3287","null","null","<p style=""font-size: 60px; font-family: BACS"">bvkrukbY</p>","","","","","","","","",""
"html-keyboard-response","40","133515","0.0-8.0-0.32","5ec1c01a8ccaaa5ec0080c91","650c16f0f2faf8d7a0d14c09","651c1dd619168de2107f3287","null","null","<p style=""font-size: 60px; font-family: BACS"">DBlhKmE</p>","","","","","","","","",""
"html-keyboard-response","41","134520","0.0-8.0-0.33","5ec1c01a8ccaaa5ec0080c91","650c16f0f2faf8d7a0d14c09","651c1dd619168de2107f3287","null","null","<p style=""font-size: 60px; font-family: BACS"">CRdBdBRDh</p>","","","","","","","","",""
"html-keyboard-response","42","135529","0.0-8.0-0.34","5ec1c01a8ccaaa5ec0080c91","650c16f0f2faf8d7a0d14c09","651c1dd619168de2107f3287","null","null","<p style=""font-size: 60px; font-family: BACS"">vblrLcO</p>","","","","","","","","",""
"html-keyboard-response","43","136535","0.0-8.0-0.35","5ec1c01a8ccaaa5ec0080c91","650c16f0f2faf8d7a0d14c09","651c1dd619168de2107f3287","null","null","<p style=""font-size: 60px; font-family: BACS"">BbODBRDh</p>","","","","","","","","",""
"html-keyboard-response","44","137558","0.0-8.0-0.36","5ec1c01a8ccaaa5ec0080c91","650c16f0f2faf8d7a0d14c09","651c1dd619168de2107f3287","null","null","<p style=""font-size: 60px; font-family: BACS"">mbZlAld</p>","","","","","","","","",""
"html-keyboard-response","45","138579","0.0-8.0-0.37","5ec1c01a8ccaaa5ec0080c91","650c16f0f2faf8d7a0d14c09","651c1dd619168de2107f3287","null","null","<p style=""font-size: 60px; font-family: BACS"">JAdLmLcO</p>","","","","","","","","",""
"html-keyboard-response","46","139592","0.0-8.0-0.38","5ec1c01a8ccaaa5ec0080c91","650c16f0f2faf8d7a0d14c09","651c1dd619168de2107f3287","null","null","<p style=""font-size: 60px; font-family: BACS"">vblrukbY</p>","","","","","","","","",""
"html-keyboard-response","47","140613","0.0-8.0-0.39","5ec1c01a8ccaaa5ec0080c91","650c16f0f2faf8d7a0d14c09","651c1dd619168de2107f3287","null","null","<p style=""font-size: 60px; font-family: BACS"">KMDYtkBD</p>","","","","","","","","",""
"html-keyboard-response","48","141627","0.0-8.0-0.40","5ec1c01a8ccaaa5ec0080c91","650c16f0f2faf8d7a0d14c09","651c1dd619168de2107f3287","null","null","<p style=""font-size: 60px; font-family: BACS"">EMbDPAPT</p>","","","","","","","","",""
"html-keyboard-response","49","142645","0.0-8.0-0.41","5ec1c01a8ccaaa5ec0080c91","650c16f0f2faf8d7a0d14c09","651c1dd619168de2107f3287","null","null","<p style=""font-size: 60px; font-family: BACS"">bcORlRE</p>","","","","","","","","",""
"html-keyboard-response","50","143658","0.0-8.0-0.42","5ec1c01a8ccaaa5ec0080c91","650c16f0f2faf8d7a0d14c09","651c1dd619168de2107f3287","null","null","<p style=""font-size: 60px; font-family: BACS"">mbZluZc</p>","","","","","","","","",""
"html-keyboard-response","51","144673","0.0-8.0-0.43","5ec1c01a8ccaaa5ec0080c91","650c16f0f2faf8d7a0d14c09","651c1dd619168de2107f3287","null","null","<p style=""font-size: 60px; font-family: BACS"">MkmEdlRE</p>","","","","","","","","",""
"html-keyboard-response","52","145694","0.0-8.0-0.44","5ec1c01a8ccaaa5ec0080c91","650c16f0f2faf8d7a0d14c09","651c1dd619168de2107f3287","null","null","<p style=""font-size: 60px; font-family: BACS"">kKRCkBD</p>","","","","","","","","",""
"html-keyboard-response","53","146717","0.0-8.0-0.45","5ec1c01a8ccaaa5ec0080c91","650c16f0f2faf8d7a0d14c09","651c1dd619168de2107f3287","null","null","<p style=""font-size: 60px; font-family: BACS"">LckGNAld</p>","","","","","","","","",""
"html-keyboard-response","54","147722","0.0-8.0-0.46","5ec1c01a8ccaaa5ec0080c91","650c16f0f2faf8d7a0d14c09","651c1dd619168de2107f3287","null","null","<p style=""font-size: 60px; font-family: BACS"">bcORKmE</p>","","","","","","","","",""
"html-keyboard-response","55","148736","0.0-8.0-0.47","5ec1c01a8ccaaa5ec0080c91","650c16f0f2faf8d7a0d14c09","651c1dd619168de2107f3287","null","null","<p style=""font-size: 60px; font-family: BACS"">LckGNGUa</p>","","","","","","","","",""
"html-keyboard-response","56","149757","0.0-8.0-0.48","5ec1c01a8ccaaa5ec0080c91","650c16f0f2faf8d7a0d14c09","651c1dd619168de2107f3287","null","null","<p style=""font-size: 60px; font-family: BACS"">DBlhBRDh</p>","","","","","","","","",""
"html-keyboard-response","57","150771","0.0-8.0-0.49","5ec1c01a8ccaaa5ec0080c91","650c16f0f2faf8d7a0d14c09","651c1dd619168de2107f3287","null","null","<p style=""font-size: 60px; font-family: BACS"">LckGNuZc</p>","","","","","","","","",""
"html-keyboard-response","58","151787","0.0-8.0-0.50","5ec1c01a8ccaaa5ec0080c91","650c16f0f2faf8d7a0d14c09","651c1dd619168de2107f3287","null","null","<p style=""font-size: 60px; font-family: BACS"">MkmEdAPT</p>","","","","","","","","",""
"html-keyboard-response","59","152796","0.0-8.0-0.51","5ec1c01a8ccaaa5ec0080c91","650c16f0f2faf8d7a0d14c09","651c1dd619168de2107f3287","null","null","<p style=""font-size: 60px; font-family: BACS"">JAdLmAld</p>","","","","","","","","",""
"html-keyboard-response","60","153802","0.0-8.0-0.52","5ec1c01a8ccaaa5ec0080c91","650c16f0f2faf8d7a0d14c09","651c1dd619168de2107f3287","null","null","<p style=""font-size: 60px; font-family: BACS"">BbODkBD</p>","","","","","","","","",""
"html-keyboard-response","61","154810","0.0-8.0-0.53","5ec1c01a8ccaaa5ec0080c91","650c16f0f2faf8d7a0d14c09","651c1dd619168de2107f3287","null","null","<p style=""font-size: 60px; font-family: BACS"">CRdBdlRE</p>","","","","","","","","",""
"html-keyboard-response","62","155815","0.0-8.0-0.54","5ec1c01a8ccaaa5ec0080c91","650c16f0f2faf8d7a0d14c09","651c1dd619168de2107f3287","null","null","<p style=""font-size: 60px; font-family: BACS"">AmaclAld</p>","","","","","","","","",""
"html-keyboard-response","63","156833","0.0-8.0-0.55","5ec1c01a8ccaaa5ec0080c91","650c16f0f2faf8d7a0d14c09","651c1dd619168de2107f3287","null","null","<p style=""font-size: 60px; font-family: BACS"">JAdLmuZc</p>","","","","","","","","",""
"html-keyboard-response","64","157850","0.0-8.0-0.56","5ec1c01a8ccaaa5ec0080c91","650c16f0f2faf8d7a0d14c09","651c1dd619168de2107f3287","null","null","<p style=""font-size: 60px; font-family: BACS"">mbZlLcO</p>","","","","","","","","",""
"html-keyboard-response","65","158864","0.0-8.0-0.57","5ec1c01a8ccaaa5ec0080c91","650c16f0f2faf8d7a0d14c09","651c1dd619168de2107f3287","null","null","<p style=""font-size: 60px; font-family: BACS"">kKRClRE</p>","","","","","","","","",""
"html-keyboard-response","66","159879","0.0-8.0-0.58","5ec1c01a8ccaaa5ec0080c91","650c16f0f2faf8d7a0d14c09","651c1dd619168de2107f3287","null","null","<p style=""font-size: 60px; font-family: BACS"">adYrcuZc</p>","","","","","","","","",""
"html-keyboard-response","67","160889","0.0-8.0-0.59","5ec1c01a8ccaaa5ec0080c91","650c16f0f2faf8d7a0d14c09","651c1dd619168de2107f3287","null","null","<p style=""font-size: 60px; font-family: BACS"">MkmEdkBD</p>","","","","","","","","",""
"html-keyboard-response","68","161910","0.0-8.0-0.60","5ec1c01a8ccaaa5ec0080c91","650c16f0f2faf8d7a0d14c09","651c1dd619168de2107f3287","null","null","<p style=""font-size: 60px; font-family: BACS"">TdTDKmE</p>","","","","","","","","",""
"html-keyboard-response","69","162926","0.0-8.0-0.61","5ec1c01a8ccaaa5ec0080c91","650c16f0f2faf8d7a0d14c09","651c1dd619168de2107f3287","null","null","<p style=""font-size: 60px; font-family: BACS"">EMbDPBRDh</p>","","","","","","","","",""
"html-keyboard-response","70","163939","0.0-8.0-0.62","5ec1c01a8ccaaa5ec0080c91","650c16f0f2faf8d7a0d14c09","651c1dd619168de2107f3287","null","null","<p style=""font-size: 60px; font-family: BACS"">CRdBdkBD</p>","","","","","","","","",""
"html-keyboard-response","71","164953","0.0-8.0-0.63","5ec1c01a8ccaaa5ec0080c91","650c16f0f2faf8d7a0d14c09","651c1dd619168de2107f3287","null","null","<p style=""font-size: 60px; font-family: BACS"">TdTDBRDh</p>","","","","","","","","",""
"html-keyboard-response","72","165974","0.0-8.0-0.64","5ec1c01a8ccaaa5ec0080c91","650c16f0f2faf8d7a0d14c09","651c1dd619168de2107f3287","null","null","<p style=""font-size: 60px; font-family: BACS"">NvuGrLcO</p>","","","","","","","","",""
"html-keyboard-response","73","166998","0.0-8.0-0.65","5ec1c01a8ccaaa5ec0080c91","650c16f0f2faf8d7a0d14c09","651c1dd619168de2107f3287","null","null","<p style=""font-size: 60px; font-family: BACS"">CkBOPlRE</p>","","","","","","","","",""
"html-keyboard-response","74","168014","0.0-8.0-0.66","5ec1c01a8ccaaa5ec0080c91","650c16f0f2faf8d7a0d14c09","651c1dd619168de2107f3287","null","null","<p style=""font-size: 60px; font-family: BACS"">AmaclukbY</p>","","","","","","","","",""
"html-keyboard-response","75","169020","0.0-8.0-0.67","5ec1c01a8ccaaa5ec0080c91","650c16f0f2faf8d7a0d14c09","651c1dd619168de2107f3287","null","null","<p style=""font-size: 60px; font-family: BACS"">mbZlGUa</p>","","","","","","","","",""
"html-keyboard-response","76","170034","0.0-8.0-0.68","5ec1c01a8ccaaa5ec0080c91","650c16f0f2faf8d7a0d14c09","651c1dd619168de2107f3287","null","null","<p style=""font-size: 60px; font-family: BACS"">kGamNuZc</p>","","","","","","","","",""
"html-keyboard-response","77","171049","0.0-8.0-0.69","5ec1c01a8ccaaa5ec0080c91","650c16f0f2faf8d7a0d14c09","651c1dd619168de2107f3287","null","null","<p style=""font-size: 60px; font-family: BACS"">bvkrLcO</p>","","","","","","","","",""
"html-keyboard-response","78","172063","0.0-8.0-0.70","5ec1c01a8ccaaa5ec0080c91","650c16f0f2faf8d7a0d14c09","651c1dd619168de2107f3287","null","null","<p style=""font-size: 60px; font-family: BACS"">kKRCAPT</p>","","","","","","","","",""
"html-keyboard-response","79","173077","0.0-8.0-0.71","5ec1c01a8ccaaa5ec0080c91","650c16f0f2faf8d7a0d14c09","651c1dd619168de2107f3287","null","null","<p style=""font-size: 60px; font-family: BACS"">kGamNGUa</p>","","","","","","","","",""
"html-keyboard-response","80","174090","0.0-8.0-0.72","5ec1c01a8ccaaa5ec0080c91","650c16f0f2faf8d7a0d14c09","651c1dd619168de2107f3287","null","null","<p style=""font-size: 60px; font-family: BACS"">CkBOPKmE</p>","","","","","","","","",""
"html-keyboard-response","81","175109","0.0-8.0-0.73","5ec1c01a8ccaaa5ec0080c91","650c16f0f2faf8d7a0d14c09","651c1dd619168de2107f3287","null","null","<p style=""font-size: 60px; font-family: BACS"">vblrGUa</p>","","","","","","","","",""
"html-keyboard-response","82","176114","0.0-8.0-0.74","5ec1c01a8ccaaa5ec0080c91","650c16f0f2faf8d7a0d14c09","651c1dd619168de2107f3287","null","null","<p style=""font-size: 60px; font-family: BACS"">DBlhkBD</p>","","","","","","","","",""
"html-keyboard-response","83","177130","0.0-8.0-0.75","5ec1c01a8ccaaa5ec0080c91","650c16f0f2faf8d7a0d14c09","651c1dd619168de2107f3287","null","null","<p style=""font-size: 60px; font-family: BACS"">KMDYtBRDh</p>","","","","","","","","",""
"html-keyboard-response","84","178143","0.0-8.0-0.76","5ec1c01a8ccaaa5ec0080c91","650c16f0f2faf8d7a0d14c09","651c1dd619168de2107f3287","null","null","<p style=""font-size: 60px; font-family: BACS"">bvkrAld</p>","","","","","","","","",""
"html-keyboard-response","85","179156","0.0-8.0-0.77","5ec1c01a8ccaaa5ec0080c91","650c16f0f2faf8d7a0d14c09","651c1dd619168de2107f3287","null","null","<p style=""font-size: 60px; font-family: BACS"">TdTDAPT</p>","","","","","","","","",""
"html-keyboard-response","86","180161","0.0-8.0-0.78","5ec1c01a8ccaaa5ec0080c91","650c16f0f2faf8d7a0d14c09","651c1dd619168de2107f3287","null","null","<p style=""font-size: 60px; font-family: BACS"">adYrcGUa</p>","","","","","","","","",""
"html-keyboard-response","87","181169","0.0-8.0-0.79","5ec1c01a8ccaaa5ec0080c91","650c16f0f2faf8d7a0d14c09","651c1dd619168de2107f3287","null","null","<p style=""font-size: 60px; font-family: BACS"">DBlhAPT</p>","","","","","","","","",""
"html-keyboard-response","88","188310","0.0-9.0","5ec1c01a8ccaaa5ec0080c91","650c16f0f2faf8d7a0d14c09","651c1dd619168de2107f3287","7139"," ","<p>Great, you've seen the first block of words. You may now take a short break.</p>
      <p>Press the spacebar when you're ready to continue.</p>","","","","","","","","",""
"html-keyboard-response","89","189316","0.0-10.0-0.0","5ec1c01a8ccaaa5ec0080c91","650c16f0f2faf8d7a0d14c09","651c1dd619168de2107f3287","null","null","<p style=""font-size: 60px; font-family: BACS"">bcORkBD</p>","","","","","","","","",""
"html-keyboard-response","90","190327","0.0-10.0-0.1","5ec1c01a8ccaaa5ec0080c91","650c16f0f2faf8d7a0d14c09","651c1dd619168de2107f3287","null","null","<p style=""font-size: 60px; font-family: BACS"">TdTDAPT</p>","","","","","","","","",""
"html-keyboard-response","91","191349","0.0-10.0-0.2","5ec1c01a8ccaaa5ec0080c91","650c16f0f2faf8d7a0d14c09","651c1dd619168de2107f3287","null","null","<p style=""font-size: 60px; font-family: BACS"">vblrAld</p>","","","","","","","","",""
"html-keyboard-response","92","192362","0.0-10.0-0.3","5ec1c01a8ccaaa5ec0080c91","650c16f0f2faf8d7a0d14c09","651c1dd619168de2107f3287","null","null","<p style=""font-size: 60px; font-family: BACS"">EMbDPAPT</p>","","","","","","","","",""
"html-keyboard-response","93","193375","0.0-10.0-0.4","5ec1c01a8ccaaa5ec0080c91","650c16f0f2faf8d7a0d14c09","651c1dd619168de2107f3287","null","null","<p style=""font-size: 60px; font-family: BACS"">DBlhkBD</p>","","","","","","","","",""
"html-keyboard-response","94","194392","0.0-10.0-0.5","5ec1c01a8ccaaa5ec0080c91","650c16f0f2faf8d7a0d14c09","651c1dd619168de2107f3287","null","null","<p style=""font-size: 60px; font-family: BACS"">TdTDBRDh</p>","","","","","","","","",""
"html-keyboard-response","95","195413","0.0-10.0-0.6","5ec1c01a8ccaaa5ec0080c91","650c16f0f2faf8d7a0d14c09","651c1dd619168de2107f3287","null","null","<p style=""font-size: 60px; font-family: BACS"">kGamNuZc</p>","","","","","","","","",""
"html-keyboard-response","96","196426","0.0-10.0-0.7","5ec1c01a8ccaaa5ec0080c91","650c16f0f2faf8d7a0d14c09","651c1dd619168de2107f3287","null","null","<p style=""font-size: 60px; font-family: BACS"">EMbDPlRE</p>","","","","","","","","",""
"html-keyboard-response","97","197439","0.0-10.0-0.8","5ec1c01a8ccaaa5ec0080c91","650c16f0f2faf8d7a0d14c09","651c1dd619168de2107f3287","null","null","<p style=""font-size: 60px; font-family: BACS"">LckGNGUa</p>","","","","","","","","",""
"html-keyboard-response","98","198462","0.0-10.0-0.9","5ec1c01a8ccaaa5ec0080c91","650c16f0f2faf8d7a0d14c09","651c1dd619168de2107f3287","null","null","<p style=""font-size: 60px; font-family: BACS"">BbODKmE</p>","","","","","","","","",""
"html-keyboard-response","99","199475","0.0-10.0-0.10","5ec1c01a8ccaaa5ec0080c91","650c16f0f2faf8d7a0d14c09","651c1dd619168de2107f3287","null","null","<p style=""font-size: 60px; font-family: BACS"">JAdLmuZc</p>","","","","","","","","",""
"html-keyboard-response","100","200487","0.0-10.0-0.11","5ec1c01a8ccaaa5ec0080c91","650c16f0f2faf8d7a0d14c09","651c1dd619168de2107f3287","null","null","<p style=""font-size: 60px; font-family: BACS"">NvuGrLcO</p>","","","","","","","","",""
"html-keyboard-response","101","201509","0.0-10.0-0.12","5ec1c01a8ccaaa5ec0080c91","650c16f0f2faf8d7a0d14c09","651c1dd619168de2107f3287","null","null","<p style=""font-size: 60px; font-family: BACS"">AmaclGUa</p>","","","","","","","","",""
"html-keyboard-response","102","202522","0.0-10.0-0.13","5ec1c01a8ccaaa5ec0080c91","650c16f0f2faf8d7a0d14c09","651c1dd619168de2107f3287","null","null","<p style=""font-size: 60px; font-family: BACS"">bcORlRE</p>","","","","","","","","",""
"html-keyboard-response","103","203530","0.0-10.0-0.14","5ec1c01a8ccaaa5ec0080c91","650c16f0f2faf8d7a0d14c09","651c1dd619168de2107f3287","null","null","<p style=""font-size: 60px; font-family: BACS"">DBlhBRDh</p>","","","","","","","","",""
"html-keyboard-response","104","204550","0.0-10.0-0.15","5ec1c01a8ccaaa5ec0080c91","650c16f0f2faf8d7a0d14c09","651c1dd619168de2107f3287","null","null","<p style=""font-size: 60px; font-family: BACS"">kKRCAPT</p>","","","","","","","","",""
"html-keyboard-response","105","205566","0.0-10.0-0.16","5ec1c01a8ccaaa5ec0080c91","650c16f0f2faf8d7a0d14c09","651c1dd619168de2107f3287","null","null","<p style=""font-size: 60px; font-family: BACS"">JAdLmAld</p>","","","","","","","","",""
"html-keyboard-response","106","206570","0.0-10.0-0.17","5ec1c01a8ccaaa5ec0080c91","650c16f0f2faf8d7a0d14c09","651c1dd619168de2107f3287","null","null","<p style=""font-size: 60px; font-family: BACS"">KMDYtAPT</p>","","","","","","","","",""
"html-keyboard-response","107","207578","0.0-10.0-0.18","5ec1c01a8ccaaa5ec0080c91","650c16f0f2faf8d7a0d14c09","651c1dd619168de2107f3287","null","null","<p style=""font-size: 60px; font-family: BACS"">kGamNGUa</p>","","","","","","","","",""
"html-keyboard-response","108","208594","0.0-10.0-0.19","5ec1c01a8ccaaa5ec0080c91","650c16f0f2faf8d7a0d14c09","651c1dd619168de2107f3287","null","null","<p style=""font-size: 60px; font-family: BACS"">UrOQAld</p>","","","","","","","","",""
"html-keyboard-response","109","209612","0.0-10.0-0.20","5ec1c01a8ccaaa5ec0080c91","650c16f0f2faf8d7a0d14c09","651c1dd619168de2107f3287","null","null","<p style=""font-size: 60px; font-family: BACS"">bvkrLcO</p>","","","","","","","","",""
"html-keyboard-response","110","210627","0.0-10.0-0.21","5ec1c01a8ccaaa5ec0080c91","650c16f0f2faf8d7a0d14c09","651c1dd619168de2107f3287","null","null","<p style=""font-size: 60px; font-family: BACS"">CkBOPBRDh</p>","","","","","","","","",""
"html-keyboard-response","111","211640","0.0-10.0-0.22","5ec1c01a8ccaaa5ec0080c91","650c16f0f2faf8d7a0d14c09","651c1dd619168de2107f3287","null","null","<p style=""font-size: 60px; font-family: BACS"">TdTDKmE</p>","","","","","","","","",""
"html-keyboard-response","112","212663","0.0-10.0-0.23","5ec1c01a8ccaaa5ec0080c91","650c16f0f2faf8d7a0d14c09","651c1dd619168de2107f3287","null","null","<p style=""font-size: 60px; font-family: BACS"">mbZlLcO</p>","","","","","","","","",""
"html-keyboard-response","113","213676","0.0-10.0-0.24","5ec1c01a8ccaaa5ec0080c91","650c16f0f2faf8d7a0d14c09","651c1dd619168de2107f3287","null","null","<p style=""font-size: 60px; font-family: BACS"">CRdBdlRE</p>","","","","","","","","",""
"html-keyboard-response","114","214689","0.0-10.0-0.25","5ec1c01a8ccaaa5ec0080c91","650c16f0f2faf8d7a0d14c09","651c1dd619168de2107f3287","null","null","<p style=""font-size: 60px; font-family: BACS"">JAdLmLcO</p>","","","","","","","","",""
"html-keyboard-response","115","215699","0.0-10.0-0.26","5ec1c01a8ccaaa5ec0080c91","650c16f0f2faf8d7a0d14c09","651c1dd619168de2107f3287","null","null","<p style=""font-size: 60px; font-family: BACS"">bvkrAld</p>","","","","","","","","",""
"html-keyboard-response","116","216719","0.0-10.0-0.27","5ec1c01a8ccaaa5ec0080c91","650c16f0f2faf8d7a0d14c09","651c1dd619168de2107f3287","null","null","<p style=""font-size: 60px; font-family: BACS"">CkBOPlRE</p>","","","","","","","","",""
"html-keyboard-response","117","217741","0.0-10.0-0.28","5ec1c01a8ccaaa5ec0080c91","650c16f0f2faf8d7a0d14c09","651c1dd619168de2107f3287","null","null","<p style=""font-size: 60px; font-family: BACS"">NvuGrukbY</p>","","","","","","","","",""
"html-keyboard-response","118","218754","0.0-10.0-0.29","5ec1c01a8ccaaa5ec0080c91","650c16f0f2faf8d7a0d14c09","651c1dd619168de2107f3287","null","null","<p style=""font-size: 60px; font-family: BACS"">bcORAPT</p>","","","","","","","","",""
"html-keyboard-response","119","219766","0.0-10.0-0.30","5ec1c01a8ccaaa5ec0080c91","650c16f0f2faf8d7a0d14c09","651c1dd619168de2107f3287","null","null","<p style=""font-size: 60px; font-family: BACS"">bvkrukbY</p>","","","","","","","","",""
"html-keyboard-response","120","220771","0.0-10.0-0.31","5ec1c01a8ccaaa5ec0080c91","650c16f0f2faf8d7a0d14c09","651c1dd619168de2107f3287","null","null","<p style=""font-size: 60px; font-family: BACS"">KMDYtBRDh</p>","","","","","","","","",""
"html-keyboard-response","121","221786","0.0-10.0-0.32","5ec1c01a8ccaaa5ec0080c91","650c16f0f2faf8d7a0d14c09","651c1dd619168de2107f3287","null","null","<p style=""font-size: 60px; font-family: BACS"">NvuGrGUa</p>","","","","","","","","",""
"html-keyboard-response","122","222799","0.0-10.0-0.33","5ec1c01a8ccaaa5ec0080c91","650c16f0f2faf8d7a0d14c09","651c1dd619168de2107f3287","null","null","<p style=""font-size: 60px; font-family: BACS"">EMbDPKmE</p>","","","","","","","","",""
"html-keyboard-response","123","223820","0.0-10.0-0.34","5ec1c01a8ccaaa5ec0080c91","650c16f0f2faf8d7a0d14c09","651c1dd619168de2107f3287","null","null","<p style=""font-size: 60px; font-family: BACS"">MkmEdAPT</p>","","","","","","","","",""
"html-keyboard-response","124","224836","0.0-10.0-0.35","5ec1c01a8ccaaa5ec0080c91","650c16f0f2faf8d7a0d14c09","651c1dd619168de2107f3287","null","null","<p style=""font-size: 60px; font-family: BACS"">mbZlGUa</p>","","","","","","","","",""
"html-keyboard-response","125","225852","0.0-10.0-0.36","5ec1c01a8ccaaa5ec0080c91","650c16f0f2faf8d7a0d14c09","651c1dd619168de2107f3287","null","null","<p style=""font-size: 60px; font-family: BACS"">AmaclAld</p>","","","","","","","","",""
"html-keyboard-response","126","226867","0.0-10.0-0.37","5ec1c01a8ccaaa5ec0080c91","650c16f0f2faf8d7a0d14c09","651c1dd619168de2107f3287","null","null","<p style=""font-size: 60px; font-family: BACS"">BbODAPT</p>","","","","","","","","",""
"html-keyboard-response","127","227874","0.0-10.0-0.38","5ec1c01a8ccaaa5ec0080c91","650c16f0f2faf8d7a0d14c09","651c1dd619168de2107f3287","null","null","<p style=""font-size: 60px; font-family: BACS"">UrOQukbY</p>","","","","","","","","",""
"html-keyboard-response","128","228880","0.0-10.0-0.39","5ec1c01a8ccaaa5ec0080c91","650c16f0f2faf8d7a0d14c09","651c1dd619168de2107f3287","null","null","<p style=""font-size: 60px; font-family: BACS"">CkBOPKmE</p>","","","","","","","","",""
"html-keyboard-response","129","229895","0.0-10.0-0.40","5ec1c01a8ccaaa5ec0080c91","650c16f0f2faf8d7a0d14c09","651c1dd619168de2107f3287","null","null","<p style=""font-size: 60px; font-family: BACS"">AmaclukbY</p>","","","","","","","","",""
"html-keyboard-response","130","230909","0.0-10.0-0.41","5ec1c01a8ccaaa5ec0080c91","650c16f0f2faf8d7a0d14c09","651c1dd619168de2107f3287","null","null","<p style=""font-size: 60px; font-family: BACS"">LckGNAld</p>","","","","","","","","",""
"html-keyboard-response","131","231912","0.0-10.0-0.42","5ec1c01a8ccaaa5ec0080c91","650c16f0f2faf8d7a0d14c09","651c1dd619168de2107f3287","null","null","<p style=""font-size: 60px; font-family: BACS"">adYrcLcO</p>","","","","","","","","",""
"html-keyboard-response","132","232925","0.0-10.0-0.43","5ec1c01a8ccaaa5ec0080c91","650c16f0f2faf8d7a0d14c09","651c1dd619168de2107f3287","null","null","<p style=""font-size: 60px; font-family: BACS"">kKRCkBD</p>","","","","","","","","",""
"html-keyboard-response","133","233940","0.0-10.0-0.44","5ec1c01a8ccaaa5ec0080c91","650c16f0f2faf8d7a0d14c09","651c1dd619168de2107f3287","null","null","<p style=""font-size: 60px; font-family: BACS"">UrOQGUa</p>","","","","","","","","",""
"html-keyboard-response","134","234959","0.0-10.0-0.45","5ec1c01a8ccaaa5ec0080c91","650c16f0f2faf8d7a0d14c09","651c1dd619168de2107f3287","null","null","<p style=""font-size: 60px; font-family: BACS"">KMDYtkBD</p>","","","","","","","","",""
"html-keyboard-response","135","235976","0.0-10.0-0.46","5ec1c01a8ccaaa5ec0080c91","650c16f0f2faf8d7a0d14c09","651c1dd619168de2107f3287","null","null","<p style=""font-size: 60px; font-family: BACS"">mbZlAld</p>","","","","","","","","",""
"html-keyboard-response","136","236998","0.0-10.0-0.47","5ec1c01a8ccaaa5ec0080c91","650c16f0f2faf8d7a0d14c09","651c1dd619168de2107f3287","null","null","<p style=""font-size: 60px; font-family: BACS"">bcORKmE</p>","","","","","","","","",""
"html-keyboard-response","137","238019","0.0-10.0-0.48","5ec1c01a8ccaaa5ec0080c91","650c16f0f2faf8d7a0d14c09","651c1dd619168de2107f3287","null","null","<p style=""font-size: 60px; font-family: BACS"">mbZluZc</p>","","","","","","","","",""
"html-keyboard-response","138","239024","0.0-10.0-0.49","5ec1c01a8ccaaa5ec0080c91","650c16f0f2faf8d7a0d14c09","651c1dd619168de2107f3287","null","null","<p style=""font-size: 60px; font-family: BACS"">TdTDlRE</p>","","","","","","","","",""
"html-keyboard-response","139","240037","0.0-10.0-0.50","5ec1c01a8ccaaa5ec0080c91","650c16f0f2faf8d7a0d14c09","651c1dd619168de2107f3287","null","null","<p style=""font-size: 60px; font-family: BACS"">DBlhKmE</p>","","","","","","","","",""
"html-keyboard-response","140","241050","0.0-10.0-0.51","5ec1c01a8ccaaa5ec0080c91","650c16f0f2faf8d7a0d14c09","651c1dd619168de2107f3287","null","null","<p style=""font-size: 60px; font-family: BACS"">BbODkBD</p>","","","","","","","","",""
"html-keyboard-response","141","242065","0.0-10.0-0.52","5ec1c01a8ccaaa5ec0080c91","650c16f0f2faf8d7a0d14c09","651c1dd619168de2107f3287","null","null","<p style=""font-size: 60px; font-family: BACS"">kGamNukbY</p>","","","","","","","","",""
"html-keyboard-response","142","243085","0.0-10.0-0.53","5ec1c01a8ccaaa5ec0080c91","650c16f0f2faf8d7a0d14c09","651c1dd619168de2107f3287","null","null","<p style=""font-size: 60px; font-family: BACS"">UrOQuZc</p>","","","","","","","","",""
"html-keyboard-response","143","244100","0.0-10.0-0.54","5ec1c01a8ccaaa5ec0080c91","650c16f0f2faf8d7a0d14c09","651c1dd619168de2107f3287","null","null","<p style=""font-size: 60px; font-family: BACS"">MkmEdlRE</p>","","","","","","","","",""
"html-keyboard-response","144","245113","0.0-10.0-0.55","5ec1c01a8ccaaa5ec0080c91","650c16f0f2faf8d7a0d14c09","651c1dd619168de2107f3287","null","null","<p style=""font-size: 60px; font-family: BACS"">LckGNuZc</p>","","","","","","","","",""
"html-keyboard-response","145","246133","0.0-10.0-0.56","5ec1c01a8ccaaa5ec0080c91","650c16f0f2faf8d7a0d14c09","651c1dd619168de2107f3287","null","null","<p style=""font-size: 60px; font-family: BACS"">EMbDPBRDh</p>","","","","","","","","",""
"html-keyboard-response","146","247140","0.0-10.0-0.57","5ec1c01a8ccaaa5ec0080c91","650c16f0f2faf8d7a0d14c09","651c1dd619168de2107f3287","null","null","<p style=""font-size: 60px; font-family: BACS"">JAdLmukbY</p>","","","","","","","","",""
"html-keyboard-response","147","248147","0.0-10.0-0.58","5ec1c01a8ccaaa5ec0080c91","650c16f0f2faf8d7a0d14c09","651c1dd619168de2107f3287","null","null","<p style=""font-size: 60px; font-family: BACS"">MkmEdkBD</p>","","","","","","","","",""
"html-keyboard-response","148","249157","0.0-10.0-0.59","5ec1c01a8ccaaa5ec0080c91","650c16f0f2faf8d7a0d14c09","651c1dd619168de2107f3287","null","null","<p style=""font-size: 60px; font-family: BACS"">vblrukbY</p>","","","","","","","","",""
"html-keyboard-response","149","250172","0.0-10.0-0.60","5ec1c01a8ccaaa5ec0080c91","650c16f0f2faf8d7a0d14c09","651c1dd619168de2107f3287","null","null","<p style=""font-size: 60px; font-family: BACS"">kKRClRE</p>","","","","","","","","",""
"html-keyboard-response","150","251186","0.0-10.0-0.61","5ec1c01a8ccaaa5ec0080c91","650c16f0f2faf8d7a0d14c09","651c1dd619168de2107f3287","null","null","<p style=""font-size: 60px; font-family: BACS"">CRdBdkBD</p>","","","","","","","","",""
"html-keyboard-response","151","252193","0.0-10.0-0.62","5ec1c01a8ccaaa5ec0080c91","650c16f0f2faf8d7a0d14c09","651c1dd619168de2107f3287","null","null","<p style=""font-size: 60px; font-family: BACS"">DBlhAPT</p>","","","","","","","","",""
"html-keyboard-response","152","253204","0.0-10.0-0.63","5ec1c01a8ccaaa5ec0080c91","650c16f0f2faf8d7a0d14c09","651c1dd619168de2107f3287","null","null","<p style=""font-size: 60px; font-family: BACS"">CRdBdKmE</p>","","","","","","","","",""
"html-keyboard-response","153","254217","0.0-10.0-0.64","5ec1c01a8ccaaa5ec0080c91","650c16f0f2faf8d7a0d14c09","651c1dd619168de2107f3287","null","null","<p style=""font-size: 60px; font-family: BACS"">vblrGUa</p>","","","","","","","","",""
"html-keyboard-response","154","255224","0.0-10.0-0.65","5ec1c01a8ccaaa5ec0080c91","650c16f0f2faf8d7a0d14c09","651c1dd619168de2107f3287","null","null","<p style=""font-size: 60px; font-family: BACS"">kKRCBRDh</p>","","","","","","","","",""
"html-keyboard-response","155","256233","0.0-10.0-0.66","5ec1c01a8ccaaa5ec0080c91","650c16f0f2faf8d7a0d14c09","651c1dd619168de2107f3287","null","null","<p style=""font-size: 60px; font-family: BACS"">adYrcukbY</p>","","","","","","","","",""
"html-keyboard-response","156","257249","0.0-10.0-0.67","5ec1c01a8ccaaa5ec0080c91","650c16f0f2faf8d7a0d14c09","651c1dd619168de2107f3287","null","null","<p style=""font-size: 60px; font-family: BACS"">AmaclLcO</p>","","","","","","","","",""
"html-keyboard-response","157","258266","0.0-10.0-0.68","5ec1c01a8ccaaa5ec0080c91","650c16f0f2faf8d7a0d14c09","651c1dd619168de2107f3287","null","null","<p style=""font-size: 60px; font-family: BACS"">CRdBdBRDh</p>","","","","","","","","",""
"html-keyboard-response","158","259281","0.0-10.0-0.69","5ec1c01a8ccaaa5ec0080c91","650c16f0f2faf8d7a0d14c09","651c1dd619168de2107f3287","null","null","<p style=""font-size: 60px; font-family: BACS"">adYrcuZc</p>","","","","","","","","",""
"html-keyboard-response","159","260288","0.0-10.0-0.70","5ec1c01a8ccaaa5ec0080c91","650c16f0f2faf8d7a0d14c09","651c1dd619168de2107f3287","null","null","<p style=""font-size: 60px; font-family: BACS"">MkmEdKmE</p>","","","","","","","","",""
"html-keyboard-response","160","261301","0.0-10.0-0.71","5ec1c01a8ccaaa5ec0080c91","650c16f0f2faf8d7a0d14c09","651c1dd619168de2107f3287","null","null","<p style=""font-size: 60px; font-family: BACS"">vblrLcO</p>","","","","","","","","",""
"html-keyboard-response","161","262315","0.0-10.0-0.72","5ec1c01a8ccaaa5ec0080c91","650c16f0f2faf8d7a0d14c09","651c1dd619168de2107f3287","null","null","<p style=""font-size: 60px; font-family: BACS"">BbODBRDh</p>","","","","","","","","",""
"html-keyboard-response","162","263328","0.0-10.0-0.73","5ec1c01a8ccaaa5ec0080c91","650c16f0f2faf8d7a0d14c09","651c1dd619168de2107f3287","null","null","<p style=""font-size: 60px; font-family: BACS"">KMDYtlRE</p>","","","","","","","","",""
"html-keyboard-response","163","264346","0.0-10.0-0.74","5ec1c01a8ccaaa5ec0080c91","650c16f0f2faf8d7a0d14c09","651c1dd619168de2107f3287","null","null","<p style=""font-size: 60px; font-family: BACS"">CkBOPkBD</p>","","","","","","","","",""
"html-keyboard-response","164","265358","0.0-10.0-0.75","5ec1c01a8ccaaa5ec0080c91","650c16f0f2faf8d7a0d14c09","651c1dd619168de2107f3287","null","null","<p style=""font-size: 60px; font-family: BACS"">NvuGruZc</p>","","","","","","","","",""
"html-keyboard-response","165","266363","0.0-10.0-0.76","5ec1c01a8ccaaa5ec0080c91","650c16f0f2faf8d7a0d14c09","651c1dd619168de2107f3287","null","null","<p style=""font-size: 60px; font-family: BACS"">adYrcGUa</p>","","","","","","","","",""
"html-keyboard-response","166","267372","0.0-10.0-0.77","5ec1c01a8ccaaa5ec0080c91","650c16f0f2faf8d7a0d14c09","651c1dd619168de2107f3287","null","null","<p style=""font-size: 60px; font-family: BACS"">kGamNAld</p>","","","","","","","","",""
"html-keyboard-response","167","268389","0.0-10.0-0.78","5ec1c01a8ccaaa5ec0080c91","650c16f0f2faf8d7a0d14c09","651c1dd619168de2107f3287","null","null","<p style=""font-size: 60px; font-family: BACS"">LckGNLcO</p>","","","","","","","","",""
"html-keyboard-response","168","269395","0.0-10.0-0.79","5ec1c01a8ccaaa5ec0080c91","650c16f0f2faf8d7a0d14c09","651c1dd619168de2107f3287","null","null","<p style=""font-size: 60px; font-family: BACS"">bvkruZc</p>","","","","","","","","",""
"html-keyboard-response","169","277738","0.0-11.0","5ec1c01a8ccaaa5ec0080c91","650c16f0f2faf8d7a0d14c09","651c1dd619168de2107f3287","8341"," ","<p>Great, you've seen the second block of words. You may now take a short break.</p>
      <p>Press the spacebar when you're ready to continue.</p>","","","","","","","","",""
"html-keyboard-response","170","278753","0.0-12.0-0.0","5ec1c01a8ccaaa5ec0080c91","650c16f0f2faf8d7a0d14c09","651c1dd619168de2107f3287","null","null","<p style=""font-size: 60px; font-family: BACS"">vblrLcO</p>","","","","","","","","",""
"html-keyboard-response","171","279764","0.0-12.0-0.1","5ec1c01a8ccaaa5ec0080c91","650c16f0f2faf8d7a0d14c09","651c1dd619168de2107f3287","null","null","<p style=""font-size: 60px; font-family: BACS"">kGamNukbY</p>","","","","","","","","",""
"html-keyboard-response","172","280783","0.0-12.0-0.2","5ec1c01a8ccaaa5ec0080c91","650c16f0f2faf8d7a0d14c09","651c1dd619168de2107f3287","null","null","<p style=""font-size: 60px; font-family: BACS"">MkmEdkBD</p>","","","","","","","","",""
"html-keyboard-response","173","281797","0.0-12.0-0.3","5ec1c01a8ccaaa5ec0080c91","650c16f0f2faf8d7a0d14c09","651c1dd619168de2107f3287","null","null","<p style=""font-size: 60px; font-family: BACS"">vblrAld</p>","","","","","","","","",""
"html-keyboard-response","174","282814","0.0-12.0-0.4","5ec1c01a8ccaaa5ec0080c91","650c16f0f2faf8d7a0d14c09","651c1dd619168de2107f3287","null","null","<p style=""font-size: 60px; font-family: BACS"">bcORAPT</p>","","","","","","","","",""
"html-keyboard-response","175","283831","0.0-12.0-0.5","5ec1c01a8ccaaa5ec0080c91","650c16f0f2faf8d7a0d14c09","651c1dd619168de2107f3287","null","null","<p style=""font-size: 60px; font-family: BACS"">KMDYtBRDh</p>","","","","","","","","",""
"html-keyboard-response","176","284843","0.0-12.0-0.6","5ec1c01a8ccaaa5ec0080c91","650c16f0f2faf8d7a0d14c09","651c1dd619168de2107f3287","null","null","<p style=""font-size: 60px; font-family: BACS"">UrOQuZc</p>","","","","","","","","",""
"html-keyboard-response","177","285860","0.0-12.0-0.7","5ec1c01a8ccaaa5ec0080c91","650c16f0f2faf8d7a0d14c09","651c1dd619168de2107f3287","null","null","<p style=""font-size: 60px; font-family: BACS"">NvuGrLcO</p>","","","","","","","","",""
"html-keyboard-response","178","286879","0.0-12.0-0.8","5ec1c01a8ccaaa5ec0080c91","650c16f0f2faf8d7a0d14c09","651c1dd619168de2107f3287","null","null","<p style=""font-size: 60px; font-family: BACS"">JAdLmAld</p>","","","","","","","","",""
"html-keyboard-response","179","287894","0.0-12.0-0.9","5ec1c01a8ccaaa5ec0080c91","650c16f0f2faf8d7a0d14c09","651c1dd619168de2107f3287","null","null","<p style=""font-size: 60px; font-family: BACS"">adYrcuZc</p>","","","","","","","","",""
"html-keyboard-response","180","288910","0.0-12.0-0.10","5ec1c01a8ccaaa5ec0080c91","650c16f0f2faf8d7a0d14c09","651c1dd619168de2107f3287","null","null","<p style=""font-size: 60px; font-family: BACS"">CRdBdBRDh</p>","","","","","","","","",""
"html-keyboard-response","181","289926","0.0-12.0-0.11","5ec1c01a8ccaaa5ec0080c91","650c16f0f2faf8d7a0d14c09","651c1dd619168de2107f3287","null","null","<p style=""font-size: 60px; font-family: BACS"">LckGNGUa</p>","","","","","","","","",""
"html-keyboard-response","182","290933","0.0-12.0-0.12","5ec1c01a8ccaaa5ec0080c91","650c16f0f2faf8d7a0d14c09","651c1dd619168de2107f3287","null","null","<p style=""font-size: 60px; font-family: BACS"">mbZlLcO</p>","","","","","","","","",""
"html-keyboard-response","183","291949","0.0-12.0-0.13","5ec1c01a8ccaaa5ec0080c91","650c16f0f2faf8d7a0d14c09","651c1dd619168de2107f3287","null","null","<p style=""font-size: 60px; font-family: BACS"">KMDYtlRE</p>","","","","","","","","",""
"html-keyboard-response","184","292971","0.0-12.0-0.14","5ec1c01a8ccaaa5ec0080c91","650c16f0f2faf8d7a0d14c09","651c1dd619168de2107f3287","null","null","<p style=""font-size: 60px; font-family: BACS"">BbODkBD</p>","","","","","","","","",""
"html-keyboard-response","185","293986","0.0-12.0-0.15","5ec1c01a8ccaaa5ec0080c91","650c16f0f2faf8d7a0d14c09","651c1dd619168de2107f3287","null","null","<p style=""font-size: 60px; font-family: BACS"">UrOQGUa</p>","","","","","","","","",""
"html-keyboard-response","186","294999","0.0-12.0-0.16","5ec1c01a8ccaaa5ec0080c91","650c16f0f2faf8d7a0d14c09","651c1dd619168de2107f3287","null","null","<p style=""font-size: 60px; font-family: BACS"">LckGNuZc</p>","","","","","","","","",""
"html-keyboard-response","187","296014","0.0-12.0-0.17","5ec1c01a8ccaaa5ec0080c91","650c16f0f2faf8d7a0d14c09","651c1dd619168de2107f3287","null","null","<p style=""font-size: 60px; font-family: BACS"">CkBOPBRDh</p>","","","","","","","","",""
"html-keyboard-response","188","297035","0.0-12.0-0.18","5ec1c01a8ccaaa5ec0080c91","650c16f0f2faf8d7a0d14c09","651c1dd619168de2107f3287","null","null","<p style=""font-size: 60px; font-family: BACS"">bvkrLcO</p>","","","","","","","","",""
"html-keyboard-response","189","298044","0.0-12.0-0.19","5ec1c01a8ccaaa5ec0080c91","650c16f0f2faf8d7a0d14c09","651c1dd619168de2107f3287","null","null","<p style=""font-size: 60px; font-family: BACS"">kKRCAPT</p>","","","","","","","","",""
"html-keyboard-response","190","299050","0.0-12.0-0.20","5ec1c01a8ccaaa5ec0080c91","650c16f0f2faf8d7a0d14c09","651c1dd619168de2107f3287","null","null","<p style=""font-size: 60px; font-family: BACS"">DBlhkBD</p>","","","","","","","","",""
"html-keyboard-response","191","300066","0.0-12.0-0.21","5ec1c01a8ccaaa5ec0080c91","650c16f0f2faf8d7a0d14c09","651c1dd619168de2107f3287","null","null","<p style=""font-size: 60px; font-family: BACS"">kKRClRE</p>","","","","","","","","",""
"html-keyboard-response","192","301081","0.0-12.0-0.22","5ec1c01a8ccaaa5ec0080c91","650c16f0f2faf8d7a0d14c09","651c1dd619168de2107f3287","null","null","<p style=""font-size: 60px; font-family: BACS"">bvkruZc</p>","","","","","","","","",""
"html-keyboard-response","193","302089","0.0-12.0-0.23","5ec1c01a8ccaaa5ec0080c91","650c16f0f2faf8d7a0d14c09","651c1dd619168de2107f3287","null","null","<p style=""font-size: 60px; font-family: BACS"">CRdBdKmE</p>","","","","","","","","",""
"html-keyboard-response","194","303109","0.0-12.0-0.24","5ec1c01a8ccaaa5ec0080c91","650c16f0f2faf8d7a0d14c09","651c1dd619168de2107f3287","null","null","<p style=""font-size: 60px; font-family: BACS"">MkmEdlRE</p>","","","","","","","","",""
"html-keyboard-response","195","304123","0.0-12.0-0.25","5ec1c01a8ccaaa5ec0080c91","650c16f0f2faf8d7a0d14c09","651c1dd619168de2107f3287","null","null","<p style=""font-size: 60px; font-family: BACS"">bcORKmE</p>","","","","","","","","",""
"html-keyboard-response","196","305143","0.0-12.0-0.26","5ec1c01a8ccaaa5ec0080c91","650c16f0f2faf8d7a0d14c09","651c1dd619168de2107f3287","null","null","<p style=""font-size: 60px; font-family: BACS"">EMbDPlRE</p>","","","","","","","","",""
"html-keyboard-response","197","306157","0.0-12.0-0.27","5ec1c01a8ccaaa5ec0080c91","650c16f0f2faf8d7a0d14c09","651c1dd619168de2107f3287","null","null","<p style=""font-size: 60px; font-family: BACS"">UrOQukbY</p>","","","","","","","","",""
"html-keyboard-response","198","307172","0.0-12.0-0.28","5ec1c01a8ccaaa5ec0080c91","650c16f0f2faf8d7a0d14c09","651c1dd619168de2107f3287","null","null","<p style=""font-size: 60px; font-family: BACS"">TdTDAPT</p>","","","","","","","","",""
"html-keyboard-response","199","308188","0.0-12.0-0.29","5ec1c01a8ccaaa5ec0080c91","650c16f0f2faf8d7a0d14c09","651c1dd619168de2107f3287","null","null","<p style=""font-size: 60px; font-family: BACS"">kKRCBRDh</p>","","","","","","","","",""
"html-keyboard-response","200","309206","0.0-12.0-0.30","5ec1c01a8ccaaa5ec0080c91","650c16f0f2faf8d7a0d14c09","651c1dd619168de2107f3287","null","null","<p style=""font-size: 60px; font-family: BACS"">vblrukbY</p>","","","","","","","","",""
"html-keyboard-response","201","310220","0.0-12.0-0.31","5ec1c01a8ccaaa5ec0080c91","650c16f0f2faf8d7a0d14c09","651c1dd619168de2107f3287","null","null","<p style=""font-size: 60px; font-family: BACS"">UrOQAld</p>","","","","","","","","",""
"html-keyboard-response","202","311236","0.0-12.0-0.32","5ec1c01a8ccaaa5ec0080c91","650c16f0f2faf8d7a0d14c09","651c1dd619168de2107f3287","null","null","<p style=""font-size: 60px; font-family: BACS"">DBlhBRDh</p>","","","","","","","","",""
"html-keyboard-response","203","312251","0.0-12.0-0.33","5ec1c01a8ccaaa5ec0080c91","650c16f0f2faf8d7a0d14c09","651c1dd619168de2107f3287","null","null","<p style=""font-size: 60px; font-family: BACS"">NvuGrukbY</p>","","","","","","","","",""
"html-keyboard-response","204","313264","0.0-12.0-0.34","5ec1c01a8ccaaa5ec0080c91","650c16f0f2faf8d7a0d14c09","651c1dd619168de2107f3287","null","null","<p style=""font-size: 60px; font-family: BACS"">TdTDKmE</p>","","","","","","","","",""
"html-keyboard-response","205","314286","0.0-12.0-0.35","5ec1c01a8ccaaa5ec0080c91","650c16f0f2faf8d7a0d14c09","651c1dd619168de2107f3287","null","null","<p style=""font-size: 60px; font-family: BACS"">MkmEdAPT</p>","","","","","","","","",""
"html-keyboard-response","206","315301","0.0-12.0-0.36","5ec1c01a8ccaaa5ec0080c91","650c16f0f2faf8d7a0d14c09","651c1dd619168de2107f3287","null","null","<p style=""font-size: 60px; font-family: BACS"">mbZluZc</p>","","","","","","","","",""
"html-keyboard-response","207","316309","0.0-12.0-0.37","5ec1c01a8ccaaa5ec0080c91","650c16f0f2faf8d7a0d14c09","651c1dd619168de2107f3287","null","null","<p style=""font-size: 60px; font-family: BACS"">kGamNGUa</p>","","","","","","","","",""
"html-keyboard-response","208","317316","0.0-12.0-0.38","5ec1c01a8ccaaa5ec0080c91","650c16f0f2faf8d7a0d14c09","651c1dd619168de2107f3287","null","null","<p style=""font-size: 60px; font-family: BACS"">EMbDPBRDh</p>","","","","","","","","",""
"html-keyboard-response","209","318332","0.0-12.0-0.39","5ec1c01a8ccaaa5ec0080c91","650c16f0f2faf8d7a0d14c09","651c1dd619168de2107f3287","null","null","<p style=""font-size: 60px; font-family: BACS"">mbZlGUa</p>","","","","","","","","",""
"html-keyboard-response","210","319347","0.0-12.0-0.40","5ec1c01a8ccaaa5ec0080c91","650c16f0f2faf8d7a0d14c09","651c1dd619168de2107f3287","null","null","<p style=""font-size: 60px; font-family: BACS"">DBlhAPT</p>","","","","","","","","",""
"html-keyboard-response","211","320359","0.0-12.0-0.41","5ec1c01a8ccaaa5ec0080c91","650c16f0f2faf8d7a0d14c09","651c1dd619168de2107f3287","null","null","<p style=""font-size: 60px; font-family: BACS"">bvkrAld</p>","","","","","","","","",""
"html-keyboard-response","212","321380","0.0-12.0-0.42","5ec1c01a8ccaaa5ec0080c91","650c16f0f2faf8d7a0d14c09","651c1dd619168de2107f3287","null","null","<p style=""font-size: 60px; font-family: BACS"">BbODAPT</p>","","","","","","","","",""
"html-keyboard-response","213","322394","0.0-12.0-0.43","5ec1c01a8ccaaa5ec0080c91","650c16f0f2faf8d7a0d14c09","651c1dd619168de2107f3287","null","null","<p style=""font-size: 60px; font-family: BACS"">MkmEdKmE</p>","","","","","","","","",""
"html-keyboard-response","214","323402","0.0-12.0-0.44","5ec1c01a8ccaaa5ec0080c91","650c16f0f2faf8d7a0d14c09","651c1dd619168de2107f3287","null","null","<p style=""font-size: 60px; font-family: BACS"">TdTDBRDh</p>","","","","","","","","",""
"html-keyboard-response","215","324423","0.0-12.0-0.45","5ec1c01a8ccaaa5ec0080c91","650c16f0f2faf8d7a0d14c09","651c1dd619168de2107f3287","null","null","<p style=""font-size: 60px; font-family: BACS"">CkBOPkBD</p>","","","","","","","","",""
"html-keyboard-response","216","325436","0.0-12.0-0.46","5ec1c01a8ccaaa5ec0080c91","650c16f0f2faf8d7a0d14c09","651c1dd619168de2107f3287","null","null","<p style=""font-size: 60px; font-family: BACS"">adYrcukbY</p>","","","","","","","","",""
"html-keyboard-response","217","326441","0.0-12.0-0.47","5ec1c01a8ccaaa5ec0080c91","650c16f0f2faf8d7a0d14c09","651c1dd619168de2107f3287","null","null","<p style=""font-size: 60px; font-family: BACS"">CRdBdlRE</p>","","","","","","","","",""
"html-keyboard-response","218","327456","0.0-12.0-0.48","5ec1c01a8ccaaa5ec0080c91","650c16f0f2faf8d7a0d14c09","651c1dd619168de2107f3287","null","null","<p style=""font-size: 60px; font-family: BACS"">AmaclukbY</p>","","","","","","","","",""
"html-keyboard-response","219","328471","0.0-12.0-0.49","5ec1c01a8ccaaa5ec0080c91","650c16f0f2faf8d7a0d14c09","651c1dd619168de2107f3287","null","null","<p style=""font-size: 60px; font-family: BACS"">KMDYtkBD</p>","","","","","","","","",""
"html-keyboard-response","220","329485","0.0-12.0-0.50","5ec1c01a8ccaaa5ec0080c91","650c16f0f2faf8d7a0d14c09","651c1dd619168de2107f3287","null","null","<p style=""font-size: 60px; font-family: BACS"">EMbDPKmE</p>","","","","","","","","",""
"html-keyboard-response","221","330498","0.0-12.0-0.51","5ec1c01a8ccaaa5ec0080c91","650c16f0f2faf8d7a0d14c09","651c1dd619168de2107f3287","null","null","<p style=""font-size: 60px; font-family: BACS"">NvuGrGUa</p>","","","","","","","","",""
"html-keyboard-response","222","331519","0.0-12.0-0.52","5ec1c01a8ccaaa5ec0080c91","650c16f0f2faf8d7a0d14c09","651c1dd619168de2107f3287","null","null","<p style=""font-size: 60px; font-family: BACS"">AmaclLcO</p>","","","","","","","","",""
"html-keyboard-response","223","332543","0.0-12.0-0.53","5ec1c01a8ccaaa5ec0080c91","650c16f0f2faf8d7a0d14c09","651c1dd619168de2107f3287","null","null","<p style=""font-size: 60px; font-family: BACS"">DBlhKmE</p>","","","","","","","","",""
"html-keyboard-response","224","333563","0.0-12.0-0.54","5ec1c01a8ccaaa5ec0080c91","650c16f0f2faf8d7a0d14c09","651c1dd619168de2107f3287","null","null","<p style=""font-size: 60px; font-family: BACS"">AmaclGUa</p>","","","","","","","","",""
"html-keyboard-response","225","334576","0.0-12.0-0.55","5ec1c01a8ccaaa5ec0080c91","650c16f0f2faf8d7a0d14c09","651c1dd619168de2107f3287","null","null","<p style=""font-size: 60px; font-family: BACS"">CRdBdkBD</p>","","","","","","","","",""
"html-keyboard-response","226","335598","0.0-12.0-0.56","5ec1c01a8ccaaa5ec0080c91","650c16f0f2faf8d7a0d14c09","651c1dd619168de2107f3287","null","null","<p style=""font-size: 60px; font-family: BACS"">JAdLmukbY</p>","","","","","","","","",""
"html-keyboard-response","227","336613","0.0-12.0-0.57","5ec1c01a8ccaaa5ec0080c91","650c16f0f2faf8d7a0d14c09","651c1dd619168de2107f3287","null","null","<p style=""font-size: 60px; font-family: BACS"">TdTDlRE</p>","","","","","","","","",""
"html-keyboard-response","228","337625","0.0-12.0-0.58","5ec1c01a8ccaaa5ec0080c91","650c16f0f2faf8d7a0d14c09","651c1dd619168de2107f3287","null","null","<p style=""font-size: 60px; font-family: BACS"">adYrcGUa</p>","","","","","","","","",""
"html-keyboard-response","229","338639","0.0-12.0-0.59","5ec1c01a8ccaaa5ec0080c91","650c16f0f2faf8d7a0d14c09","651c1dd619168de2107f3287","null","null","<p style=""font-size: 60px; font-family: BACS"">BbODKmE</p>","","","","","","","","",""
"html-keyboard-response","230","339654","0.0-12.0-0.60","5ec1c01a8ccaaa5ec0080c91","650c16f0f2faf8d7a0d14c09","651c1dd619168de2107f3287","null","null","<p style=""font-size: 60px; font-family: BACS"">adYrcLcO</p>","","","","","","","","",""
"html-keyboard-response","231","340677","0.0-12.0-0.61","5ec1c01a8ccaaa5ec0080c91","650c16f0f2faf8d7a0d14c09","651c1dd619168de2107f3287","null","null","<p style=""font-size: 60px; font-family: BACS"">KMDYtAPT</p>","","","","","","","","",""
"html-keyboard-response","232","341690","0.0-12.0-0.62","5ec1c01a8ccaaa5ec0080c91","650c16f0f2faf8d7a0d14c09","651c1dd619168de2107f3287","null","null","<p style=""font-size: 60px; font-family: BACS"">BbODBRDh</p>","","","","","","","","",""
"html-keyboard-response","233","342702","0.0-12.0-0.63","5ec1c01a8ccaaa5ec0080c91","650c16f0f2faf8d7a0d14c09","651c1dd619168de2107f3287","null","null","<p style=""font-size: 60px; font-family: BACS"">JAdLmLcO</p>","","","","","","","","",""
"html-keyboard-response","234","343708","0.0-12.0-0.64","5ec1c01a8ccaaa5ec0080c91","650c16f0f2faf8d7a0d14c09","651c1dd619168de2107f3287","null","null","<p style=""font-size: 60px; font-family: BACS"">bvkrukbY</p>","","","","","","","","",""
"html-keyboard-response","235","344716","0.0-12.0-0.65","5ec1c01a8ccaaa5ec0080c91","650c16f0f2faf8d7a0d14c09","651c1dd619168de2107f3287","null","null","<p style=""font-size: 60px; font-family: BACS"">LckGNAld</p>","","","","","","","","",""
"html-keyboard-response","236","345722","0.0-12.0-0.66","5ec1c01a8ccaaa5ec0080c91","650c16f0f2faf8d7a0d14c09","651c1dd619168de2107f3287","null","null","<p style=""font-size: 60px; font-family: BACS"">NvuGruZc</p>","","","","","","","","",""
"html-keyboard-response","237","346739","0.0-12.0-0.67","5ec1c01a8ccaaa5ec0080c91","650c16f0f2faf8d7a0d14c09","651c1dd619168de2107f3287","null","null","<p style=""font-size: 60px; font-family: BACS"">vblrGUa</p>","","","","","","","","",""
"html-keyboard-response","238","347746","0.0-12.0-0.68","5ec1c01a8ccaaa5ec0080c91","650c16f0f2faf8d7a0d14c09","651c1dd619168de2107f3287","null","null","<p style=""font-size: 60px; font-family: BACS"">kGamNuZc</p>","","","","","","","","",""
"html-keyboard-response","239","348761","0.0-12.0-0.69","5ec1c01a8ccaaa5ec0080c91","650c16f0f2faf8d7a0d14c09","651c1dd619168de2107f3287","null","null","<p style=""font-size: 60px; font-family: BACS"">mbZlAld</p>","","","","","","","","",""
"html-keyboard-response","240","349781","0.0-12.0-0.70","5ec1c01a8ccaaa5ec0080c91","650c16f0f2faf8d7a0d14c09","651c1dd619168de2107f3287","null","null","<p style=""font-size: 60px; font-family: BACS"">bcORlRE</p>","","","","","","","","",""
"html-keyboard-response","241","350794","0.0-12.0-0.71","5ec1c01a8ccaaa5ec0080c91","650c16f0f2faf8d7a0d14c09","651c1dd619168de2107f3287","null","null","<p style=""font-size: 60px; font-family: BACS"">LckGNLcO</p>","","","","","","","","",""
"html-keyboard-response","242","351802","0.0-12.0-0.72","5ec1c01a8ccaaa5ec0080c91","650c16f0f2faf8d7a0d14c09","651c1dd619168de2107f3287","null","null","<p style=""font-size: 60px; font-family: BACS"">kGamNAld</p>","","","","","","","","",""
"html-keyboard-response","243","352808","0.0-12.0-0.73","5ec1c01a8ccaaa5ec0080c91","650c16f0f2faf8d7a0d14c09","651c1dd619168de2107f3287","null","null","<p style=""font-size: 60px; font-family: BACS"">EMbDPAPT</p>","","","","","","","","",""
"html-keyboard-response","244","353831","0.0-12.0-0.74","5ec1c01a8ccaaa5ec0080c91","650c16f0f2faf8d7a0d14c09","651c1dd619168de2107f3287","null","null","<p style=""font-size: 60px; font-family: BACS"">bcORkBD</p>","","","","","","","","",""
"html-keyboard-response","245","354844","0.0-12.0-0.75","5ec1c01a8ccaaa5ec0080c91","650c16f0f2faf8d7a0d14c09","651c1dd619168de2107f3287","null","null","<p style=""font-size: 60px; font-family: BACS"">AmaclAld</p>","","","","","","","","",""
"html-keyboard-response","246","355863","0.0-12.0-0.76","5ec1c01a8ccaaa5ec0080c91","650c16f0f2faf8d7a0d14c09","651c1dd619168de2107f3287","null","null","<p style=""font-size: 60px; font-family: BACS"">kKRCkBD</p>","","","","","","","","",""
"html-keyboard-response","247","356876","0.0-12.0-0.77","5ec1c01a8ccaaa5ec0080c91","650c16f0f2faf8d7a0d14c09","651c1dd619168de2107f3287","null","null","<p style=""font-size: 60px; font-family: BACS"">CkBOPlRE</p>","","","","","","","","",""
"html-keyboard-response","248","357894","0.0-12.0-0.78","5ec1c01a8ccaaa5ec0080c91","650c16f0f2faf8d7a0d14c09","651c1dd619168de2107f3287","null","null","<p style=""font-size: 60px; font-family: BACS"">JAdLmuZc</p>","","","","","","","","",""
"html-keyboard-response","249","358919","0.0-12.0-0.79","5ec1c01a8ccaaa5ec0080c91","650c16f0f2faf8d7a0d14c09","651c1dd619168de2107f3287","null","null","<p style=""font-size: 60px; font-family: BACS"">CkBOPKmE</p>","","","","","","","","",""
"html-keyboard-response","250","362020","0.0-13.0","5ec1c01a8ccaaa5ec0080c91","650c16f0f2faf8d7a0d14c09","651c1dd619168de2107f3287","3099"," ","<p>Great, you've seen the third block of words. You may now take a short break.</p>
      <p>Press the spacebar when you're ready to continue.</p>","","","","","","","","",""
"html-keyboard-response","251","363032","0.0-14.0-0.0","5ec1c01a8ccaaa5ec0080c91","650c16f0f2faf8d7a0d14c09","651c1dd619168de2107f3287","null","null","<p style=""font-size: 60px; font-family: BACS"">DBlhAPT</p>","","","","","","","","",""
"html-keyboard-response","252","364055","0.0-14.0-0.1","5ec1c01a8ccaaa5ec0080c91","650c16f0f2faf8d7a0d14c09","651c1dd619168de2107f3287","null","null","<p style=""font-size: 60px; font-family: BACS"">EMbDPlRE</p>","","","","","","","","",""
"html-keyboard-response","253","365070","0.0-14.0-0.2","5ec1c01a8ccaaa5ec0080c91","650c16f0f2faf8d7a0d14c09","651c1dd619168de2107f3287","null","null","<p style=""font-size: 60px; font-family: BACS"">vblrGUa</p>","","","","","","","","",""
"html-keyboard-response","254","366084","0.0-14.0-0.3","5ec1c01a8ccaaa5ec0080c91","650c16f0f2faf8d7a0d14c09","651c1dd619168de2107f3287","null","null","<p style=""font-size: 60px; font-family: BACS"">mbZlAld</p>","","","","","","","","",""
"html-keyboard-response","255","367096","0.0-14.0-0.4","5ec1c01a8ccaaa5ec0080c91","650c16f0f2faf8d7a0d14c09","651c1dd619168de2107f3287","null","null","<p style=""font-size: 60px; font-family: BACS"">kGamNGUa</p>","","","","","","","","",""
"html-keyboard-response","256","368117","0.0-14.0-0.5","5ec1c01a8ccaaa5ec0080c91","650c16f0f2faf8d7a0d14c09","651c1dd619168de2107f3287","null","null","<p style=""font-size: 60px; font-family: BACS"">BbODAPT</p>","","","","","","","","",""
"html-keyboard-response","257","369132","0.0-14.0-0.6","5ec1c01a8ccaaa5ec0080c91","650c16f0f2faf8d7a0d14c09","651c1dd619168de2107f3287","null","null","<p style=""font-size: 60px; font-family: BACS"">bvkrAld</p>","","","","","","","","",""
"html-keyboard-response","258","370145","0.0-14.0-0.7","5ec1c01a8ccaaa5ec0080c91","650c16f0f2faf8d7a0d14c09","651c1dd619168de2107f3287","null","null","<p style=""font-size: 60px; font-family: BACS"">KMDYtkBD</p>","","","","","","","","",""
"html-keyboard-response","259","371160","0.0-14.0-0.8","5ec1c01a8ccaaa5ec0080c91","650c16f0f2faf8d7a0d14c09","651c1dd619168de2107f3287","null","null","<p style=""font-size: 60px; font-family: BACS"">UrOQGUa</p>","","","","","","","","",""
"html-keyboard-response","260","372175","0.0-14.0-0.9","5ec1c01a8ccaaa5ec0080c91","650c16f0f2faf8d7a0d14c09","651c1dd619168de2107f3287","null","null","<p style=""font-size: 60px; font-family: BACS"">TdTDAPT</p>","","","","","","","","",""
"html-keyboard-response","261","373190","0.0-14.0-0.10","5ec1c01a8ccaaa5ec0080c91","650c16f0f2faf8d7a0d14c09","651c1dd619168de2107f3287","null","null","<p style=""font-size: 60px; font-family: BACS"">DBlhBRDh</p>","","","","","","","","",""
"html-keyboard-response","262","374196","0.0-14.0-0.11","5ec1c01a8ccaaa5ec0080c91","650c16f0f2faf8d7a0d14c09","651c1dd619168de2107f3287","null","null","<p style=""font-size: 60px; font-family: BACS"">EMbDPKmE</p>","","","","","","","","",""
"html-keyboard-response","263","375210","0.0-14.0-0.12","5ec1c01a8ccaaa5ec0080c91","650c16f0f2faf8d7a0d14c09","651c1dd619168de2107f3287","null","null","<p style=""font-size: 60px; font-family: BACS"">KMDYtlRE</p>","","","","","","","","",""
"html-keyboard-response","264","376224","0.0-14.0-0.13","5ec1c01a8ccaaa5ec0080c91","650c16f0f2faf8d7a0d14c09","651c1dd619168de2107f3287","null","null","<p style=""font-size: 60px; font-family: BACS"">mbZluZc</p>","","","","","","","","",""
"html-keyboard-response","265","377238","0.0-14.0-0.14","5ec1c01a8ccaaa5ec0080c91","650c16f0f2faf8d7a0d14c09","651c1dd619168de2107f3287","null","null","<p style=""font-size: 60px; font-family: BACS"">CkBOPKmE</p>","","","","","","","","",""
"html-keyboard-response","266","378244","0.0-14.0-0.15","5ec1c01a8ccaaa5ec0080c91","650c16f0f2faf8d7a0d14c09","651c1dd619168de2107f3287","null","null","<p style=""font-size: 60px; font-family: BACS"">bcORkBD</p>","","","","","","","","",""
"html-keyboard-response","267","379258","0.0-14.0-0.16","5ec1c01a8ccaaa5ec0080c91","650c16f0f2faf8d7a0d14c09","651c1dd619168de2107f3287","null","null","<p style=""font-size: 60px; font-family: BACS"">JAdLmAld</p>","","","","","","","","",""
"html-keyboard-response","268","380266","0.0-14.0-0.17","5ec1c01a8ccaaa5ec0080c91","650c16f0f2faf8d7a0d14c09","651c1dd619168de2107f3287","null","null","<p style=""font-size: 60px; font-family: BACS"">UrOQukbY</p>","","","","","","","","",""
"html-keyboard-response","269","381272","0.0-14.0-0.18","5ec1c01a8ccaaa5ec0080c91","650c16f0f2faf8d7a0d14c09","651c1dd619168de2107f3287","null","null","<p style=""font-size: 60px; font-family: BACS"">bcORAPT</p>","","","","","","","","",""
"html-keyboard-response","270","382285","0.0-14.0-0.19","5ec1c01a8ccaaa5ec0080c91","650c16f0f2faf8d7a0d14c09","651c1dd619168de2107f3287","null","null","<p style=""font-size: 60px; font-family: BACS"">DBlhKmE</p>","","","","","","","","",""
"html-keyboard-response","271","383303","0.0-14.0-0.20","5ec1c01a8ccaaa5ec0080c91","650c16f0f2faf8d7a0d14c09","651c1dd619168de2107f3287","null","null","<p style=""font-size: 60px; font-family: BACS"">AmaclGUa</p>","","","","","","","","",""
"html-keyboard-response","272","384322","0.0-14.0-0.21","5ec1c01a8ccaaa5ec0080c91","650c16f0f2faf8d7a0d14c09","651c1dd619168de2107f3287","null","null","<p style=""font-size: 60px; font-family: BACS"">EMbDPBRDh</p>","","","","","","","","",""
"html-keyboard-response","273","385335","0.0-14.0-0.22","5ec1c01a8ccaaa5ec0080c91","650c16f0f2faf8d7a0d14c09","651c1dd619168de2107f3287","null","null","<p style=""font-size: 60px; font-family: BACS"">AmaclLcO</p>","","","","","","","","",""
"html-keyboard-response","274","386348","0.0-14.0-0.23","5ec1c01a8ccaaa5ec0080c91","650c16f0f2faf8d7a0d14c09","651c1dd619168de2107f3287","null","null","<p style=""font-size: 60px; font-family: BACS"">DBlhkBD</p>","","","","","","","","",""
"html-keyboard-response","275","387360","0.0-14.0-0.24","5ec1c01a8ccaaa5ec0080c91","650c16f0f2faf8d7a0d14c09","651c1dd619168de2107f3287","null","null","<p style=""font-size: 60px; font-family: BACS"">KMDYtBRDh</p>","","","","","","","","",""
"html-keyboard-response","276","388382","0.0-14.0-0.25","5ec1c01a8ccaaa5ec0080c91","650c16f0f2faf8d7a0d14c09","651c1dd619168de2107f3287","null","null","<p style=""font-size: 60px; font-family: BACS"">MkmEdlRE</p>","","","","","","","","",""
"html-keyboard-response","277","389397","0.0-14.0-0.26","5ec1c01a8ccaaa5ec0080c91","650c16f0f2faf8d7a0d14c09","651c1dd619168de2107f3287","null","null","<p style=""font-size: 60px; font-family: BACS"">UrOQAld</p>","","","","","","","","",""
"html-keyboard-response","278","390411","0.0-14.0-0.27","5ec1c01a8ccaaa5ec0080c91","650c16f0f2faf8d7a0d14c09","651c1dd619168de2107f3287","null","null","<p style=""font-size: 60px; font-family: BACS"">vblrukbY</p>","","","","","","","","",""
"html-keyboard-response","279","391416","0.0-14.0-0.28","5ec1c01a8ccaaa5ec0080c91","650c16f0f2faf8d7a0d14c09","651c1dd619168de2107f3287","null","null","<p style=""font-size: 60px; font-family: BACS"">LckGNLcO</p>","","","","","","","","",""
"html-keyboard-response","280","392431","0.0-14.0-0.29","5ec1c01a8ccaaa5ec0080c91","650c16f0f2faf8d7a0d14c09","651c1dd619168de2107f3287","null","null","<p style=""font-size: 60px; font-family: BACS"">UrOQuZc</p>","","","","","","","","",""
"html-keyboard-response","281","393445","0.0-14.0-0.30","5ec1c01a8ccaaa5ec0080c91","650c16f0f2faf8d7a0d14c09","651c1dd619168de2107f3287","null","null","<p style=""font-size: 60px; font-family: BACS"">BbODBRDh</p>","","","","","","","","",""
"html-keyboard-response","282","394459","0.0-14.0-0.31","5ec1c01a8ccaaa5ec0080c91","650c16f0f2faf8d7a0d14c09","651c1dd619168de2107f3287","null","null","<p style=""font-size: 60px; font-family: BACS"">kGamNAld</p>","","","","","","","","",""
"html-keyboard-response","283","395473","0.0-14.0-0.32","5ec1c01a8ccaaa5ec0080c91","650c16f0f2faf8d7a0d14c09","651c1dd619168de2107f3287","null","null","<p style=""font-size: 60px; font-family: BACS"">kKRClRE</p>","","","","","","","","",""
"html-keyboard-response","284","396487","0.0-14.0-0.33","5ec1c01a8ccaaa5ec0080c91","650c16f0f2faf8d7a0d14c09","651c1dd619168de2107f3287","null","null","<p style=""font-size: 60px; font-family: BACS"">adYrcGUa</p>","","","","","","","","",""
"html-keyboard-response","285","397509","0.0-14.0-0.34","5ec1c01a8ccaaa5ec0080c91","650c16f0f2faf8d7a0d14c09","651c1dd619168de2107f3287","null","null","<p style=""font-size: 60px; font-family: BACS"">TdTDKmE</p>","","","","","","","","",""
"html-keyboard-response","286","398523","0.0-14.0-0.35","5ec1c01a8ccaaa5ec0080c91","650c16f0f2faf8d7a0d14c09","651c1dd619168de2107f3287","null","null","<p style=""font-size: 60px; font-family: BACS"">LckGNGUa</p>","","","","","","","","",""
"html-keyboard-response","287","399541","0.0-14.0-0.36","5ec1c01a8ccaaa5ec0080c91","650c16f0f2faf8d7a0d14c09","651c1dd619168de2107f3287","null","null","<p style=""font-size: 60px; font-family: BACS"">CRdBdKmE</p>","","","","","","","","",""
"html-keyboard-response","288","400561","0.0-14.0-0.37","5ec1c01a8ccaaa5ec0080c91","650c16f0f2faf8d7a0d14c09","651c1dd619168de2107f3287","null","null","<p style=""font-size: 60px; font-family: BACS"">NvuGrGUa</p>","","","","","","","","",""
"html-keyboard-response","289","401582","0.0-14.0-0.38","5ec1c01a8ccaaa5ec0080c91","650c16f0f2faf8d7a0d14c09","651c1dd619168de2107f3287","null","null","<p style=""font-size: 60px; font-family: BACS"">bvkruZc</p>","","","","","","","","",""
"html-keyboard-response","290","402597","0.0-14.0-0.39","5ec1c01a8ccaaa5ec0080c91","650c16f0f2faf8d7a0d14c09","651c1dd619168de2107f3287","null","null","<p style=""font-size: 60px; font-family: BACS"">MkmEdAPT</p>","","","","","","","","",""
"html-keyboard-response","291","403611","0.0-14.0-0.40","5ec1c01a8ccaaa5ec0080c91","650c16f0f2faf8d7a0d14c09","651c1dd619168de2107f3287","null","null","<p style=""font-size: 60px; font-family: BACS"">TdTDlRE</p>","","","","","","","","",""
"html-keyboard-response","292","404618","0.0-14.0-0.41","5ec1c01a8ccaaa5ec0080c91","650c16f0f2faf8d7a0d14c09","651c1dd619168de2107f3287","null","null","<p style=""font-size: 60px; font-family: BACS"">MkmEdKmE</p>","","","","","","","","",""
"html-keyboard-response","293","405631","0.0-14.0-0.42","5ec1c01a8ccaaa5ec0080c91","650c16f0f2faf8d7a0d14c09","651c1dd619168de2107f3287","null","null","<p style=""font-size: 60px; font-family: BACS"">adYrcLcO</p>","","","","","","","","",""
"html-keyboard-response","294","406645","0.0-14.0-0.43","5ec1c01a8ccaaa5ec0080c91","650c16f0f2faf8d7a0d14c09","651c1dd619168de2107f3287","null","null","<p style=""font-size: 60px; font-family: BACS"">CkBOPBRDh</p>","","","","","","","","",""
"html-keyboard-response","295","407660","0.0-14.0-0.44","5ec1c01a8ccaaa5ec0080c91","650c16f0f2faf8d7a0d14c09","651c1dd619168de2107f3287","null","null","<p style=""font-size: 60px; font-family: BACS"">NvuGrukbY</p>","","","","","","","","",""
"html-keyboard-response","296","408665","0.0-14.0-0.45","5ec1c01a8ccaaa5ec0080c91","650c16f0f2faf8d7a0d14c09","651c1dd619168de2107f3287","null","null","<p style=""font-size: 60px; font-family: BACS"">kKRCAPT</p>","","","","","","","","",""
"html-keyboard-response","297","409675","0.0-14.0-0.46","5ec1c01a8ccaaa5ec0080c91","650c16f0f2faf8d7a0d14c09","651c1dd619168de2107f3287","null","null","<p style=""font-size: 60px; font-family: BACS"">BbODkBD</p>","","","","","","","","",""
"html-keyboard-response","298","410695","0.0-14.0-0.47","5ec1c01a8ccaaa5ec0080c91","650c16f0f2faf8d7a0d14c09","651c1dd619168de2107f3287","null","null","<p style=""font-size: 60px; font-family: BACS"">bvkrukbY</p>","","","","","","","","",""
"html-keyboard-response","299","411708","0.0-14.0-0.48","5ec1c01a8ccaaa5ec0080c91","650c16f0f2faf8d7a0d14c09","651c1dd619168de2107f3287","null","null","<p style=""font-size: 60px; font-family: BACS"">kGamNuZc</p>","","","","","","","","",""
"html-keyboard-response","300","412721","0.0-14.0-0.49","5ec1c01a8ccaaa5ec0080c91","650c16f0f2faf8d7a0d14c09","651c1dd619168de2107f3287","null","null","<p style=""font-size: 60px; font-family: BACS"">AmaclAld</p>","","","","","","","","",""
"html-keyboard-response","301","413743","0.0-14.0-0.50","5ec1c01a8ccaaa5ec0080c91","650c16f0f2faf8d7a0d14c09","651c1dd619168de2107f3287","null","null","<p style=""font-size: 60px; font-family: BACS"">JAdLmuZc</p>","","","","","","","","",""
"html-keyboard-response","302","414758","0.0-14.0-0.51","5ec1c01a8ccaaa5ec0080c91","650c16f0f2faf8d7a0d14c09","651c1dd619168de2107f3287","null","null","<p style=""font-size: 60px; font-family: BACS"">vblrAld</p>","","","","","","","","",""
"html-keyboard-response","303","415782","0.0-14.0-0.52","5ec1c01a8ccaaa5ec0080c91","650c16f0f2faf8d7a0d14c09","651c1dd619168de2107f3287","null","null","<p style=""font-size: 60px; font-family: BACS"">kKRCBRDh</p>","","","","","","","","",""
"html-keyboard-response","304","416804","0.0-14.0-0.53","5ec1c01a8ccaaa5ec0080c91","650c16f0f2faf8d7a0d14c09","651c1dd619168de2107f3287","null","null","<p style=""font-size: 60px; font-family: BACS"">mbZlGUa</p>","","","","","","","","",""
"html-keyboard-response","305","417823","0.0-14.0-0.54","5ec1c01a8ccaaa5ec0080c91","650c16f0f2faf8d7a0d14c09","651c1dd619168de2107f3287","null","null","<p style=""font-size: 60px; font-family: BACS"">bcORlRE</p>","","","","","","","","",""
"html-keyboard-response","306","418838","0.0-14.0-0.55","5ec1c01a8ccaaa5ec0080c91","650c16f0f2faf8d7a0d14c09","651c1dd619168de2107f3287","null","null","<p style=""font-size: 60px; font-family: BACS"">adYrcuZc</p>","","","","","","","","",""
"html-keyboard-response","307","419852","0.0-14.0-0.56","5ec1c01a8ccaaa5ec0080c91","650c16f0f2faf8d7a0d14c09","651c1dd619168de2107f3287","null","null","<p style=""font-size: 60px; font-family: BACS"">mbZlLcO</p>","","","","","","","","",""
"html-keyboard-response","308","420864","0.0-14.0-0.57","5ec1c01a8ccaaa5ec0080c91","650c16f0f2faf8d7a0d14c09","651c1dd619168de2107f3287","null","null","<p style=""font-size: 60px; font-family: BACS"">kKRCkBD</p>","","","","","","","","",""
"html-keyboard-response","309","421884","0.0-14.0-0.58","5ec1c01a8ccaaa5ec0080c91","650c16f0f2faf8d7a0d14c09","651c1dd619168de2107f3287","null","null","<p style=""font-size: 60px; font-family: BACS"">CRdBdlRE</p>","","","","","","","","",""
"html-keyboard-response","310","422893","0.0-14.0-0.59","5ec1c01a8ccaaa5ec0080c91","650c16f0f2faf8d7a0d14c09","651c1dd619168de2107f3287","null","null","<p style=""font-size: 60px; font-family: BACS"">JAdLmukbY</p>","","","","","","","","",""
"html-keyboard-response","311","423899","0.0-14.0-0.60","5ec1c01a8ccaaa5ec0080c91","650c16f0f2faf8d7a0d14c09","651c1dd619168de2107f3287","null","null","<p style=""font-size: 60px; font-family: BACS"">LckGNAld</p>","","","","","","","","",""
"html-keyboard-response","312","424908","0.0-14.0-0.61","5ec1c01a8ccaaa5ec0080c91","650c16f0f2faf8d7a0d14c09","651c1dd619168de2107f3287","null","null","<p style=""font-size: 60px; font-family: BACS"">CRdBdBRDh</p>","","","","","","","","",""
"html-keyboard-response","313","425914","0.0-14.0-0.62","5ec1c01a8ccaaa5ec0080c91","650c16f0f2faf8d7a0d14c09","651c1dd619168de2107f3287","null","null","<p style=""font-size: 60px; font-family: BACS"">vblrLcO</p>","","","","","","","","",""
"html-keyboard-response","314","426927","0.0-14.0-0.63","5ec1c01a8ccaaa5ec0080c91","650c16f0f2faf8d7a0d14c09","651c1dd619168de2107f3287","null","null","<p style=""font-size: 60px; font-family: BACS"">EMbDPAPT</p>","","","","","","","","",""
"html-keyboard-response","315","427944","0.0-14.0-0.64","5ec1c01a8ccaaa5ec0080c91","650c16f0f2faf8d7a0d14c09","651c1dd619168de2107f3287","null","null","<p style=""font-size: 60px; font-family: BACS"">TdTDBRDh</p>","","","","","","","","",""
"html-keyboard-response","316","428961","0.0-14.0-0.65","5ec1c01a8ccaaa5ec0080c91","650c16f0f2faf8d7a0d14c09","651c1dd619168de2107f3287","null","null","<p style=""font-size: 60px; font-family: BACS"">CkBOPkBD</p>","","","","","","","","",""
"html-keyboard-response","317","429971","0.0-14.0-0.66","5ec1c01a8ccaaa5ec0080c91","650c16f0f2faf8d7a0d14c09","651c1dd619168de2107f3287","null","null","<p style=""font-size: 60px; font-family: BACS"">KMDYtAPT</p>","","","","","","","","",""
"html-keyboard-response","318","430977","0.0-14.0-0.67","5ec1c01a8ccaaa5ec0080c91","650c16f0f2faf8d7a0d14c09","651c1dd619168de2107f3287","null","null","<p style=""font-size: 60px; font-family: BACS"">MkmEdkBD</p>","","","","","","","","",""
"html-keyboard-response","319","431992","0.0-14.0-0.68","5ec1c01a8ccaaa5ec0080c91","650c16f0f2faf8d7a0d14c09","651c1dd619168de2107f3287","null","null","<p style=""font-size: 60px; font-family: BACS"">CkBOPlRE</p>","","","","","","","","",""
"html-keyboard-response","320","433008","0.0-14.0-0.69","5ec1c01a8ccaaa5ec0080c91","650c16f0f2faf8d7a0d14c09","651c1dd619168de2107f3287","null","null","<p style=""font-size: 60px; font-family: BACS"">AmaclukbY</p>","","","","","","","","",""
"html-keyboard-response","321","434016","0.0-14.0-0.70","5ec1c01a8ccaaa5ec0080c91","650c16f0f2faf8d7a0d14c09","651c1dd619168de2107f3287","null","null","<p style=""font-size: 60px; font-family: BACS"">NvuGruZc</p>","","","","","","","","",""
"html-keyboard-response","322","435031","0.0-14.0-0.71","5ec1c01a8ccaaa5ec0080c91","650c16f0f2faf8d7a0d14c09","651c1dd619168de2107f3287","null","null","<p style=""font-size: 60px; font-family: BACS"">adYrcukbY</p>","","","","","","","","",""
"html-keyboard-response","323","436039","0.0-14.0-0.72","5ec1c01a8ccaaa5ec0080c91","650c16f0f2faf8d7a0d14c09","651c1dd619168de2107f3287","null","null","<p style=""font-size: 60px; font-family: BACS"">bvkrLcO</p>","","","","","","","","",""
"html-keyboard-response","324","437053","0.0-14.0-0.73","5ec1c01a8ccaaa5ec0080c91","650c16f0f2faf8d7a0d14c09","651c1dd619168de2107f3287","null","null","<p style=""font-size: 60px; font-family: BACS"">bcORKmE</p>","","","","","","","","",""
"html-keyboard-response","325","438067","0.0-14.0-0.74","5ec1c01a8ccaaa5ec0080c91","650c16f0f2faf8d7a0d14c09","651c1dd619168de2107f3287","null","null","<p style=""font-size: 60px; font-family: BACS"">CRdBdkBD</p>","","","","","","","","",""
"html-keyboard-response","326","439082","0.0-14.0-0.75","5ec1c01a8ccaaa5ec0080c91","650c16f0f2faf8d7a0d14c09","651c1dd619168de2107f3287","null","null","<p style=""font-size: 60px; font-family: BACS"">LckGNuZc</p>","","","","","","","","",""
"html-keyboard-response","327","440100","0.0-14.0-0.76","5ec1c01a8ccaaa5ec0080c91","650c16f0f2faf8d7a0d14c09","651c1dd619168de2107f3287","null","null","<p style=""font-size: 60px; font-family: BACS"">JAdLmLcO</p>","","","","","","","","",""
"html-keyboard-response","328","441114","0.0-14.0-0.77","5ec1c01a8ccaaa5ec0080c91","650c16f0f2faf8d7a0d14c09","651c1dd619168de2107f3287","null","null","<p style=""font-size: 60px; font-family: BACS"">kGamNukbY</p>","","","","","","","","",""
"html-keyboard-response","329","442129","0.0-14.0-0.78","5ec1c01a8ccaaa5ec0080c91","650c16f0f2faf8d7a0d14c09","651c1dd619168de2107f3287","null","null","<p style=""font-size: 60px; font-family: BACS"">NvuGrLcO</p>","","","","","","","","",""
"html-keyboard-response","330","443143","0.0-14.0-0.79","5ec1c01a8ccaaa5ec0080c91","650c16f0f2faf8d7a0d14c09","651c1dd619168de2107f3287","null","null","<p style=""font-size: 60px; font-family: BACS"">BbODKmE</p>","","","","","","","","",""
"html-keyboard-response","331","461729","0.0-15.0","5ec1c01a8ccaaa5ec0080c91","650c16f0f2faf8d7a0d14c09","651c1dd619168de2107f3287","18584"," ","<p>Great, you've seen the fourth block of words. You may now take a short break.</p>
      <p>Press the spacebar when you're ready to continue.</p>","","","","","","","","",""
"html-keyboard-response","332","462743","0.0-16.0-0.0","5ec1c01a8ccaaa5ec0080c91","650c16f0f2faf8d7a0d14c09","651c1dd619168de2107f3287","null","null","<p style=""font-size: 60px; font-family: BACS"">DBlhAPT</p>","","","","","","","","",""
"html-keyboard-response","333","463757","0.0-16.0-0.1","5ec1c01a8ccaaa5ec0080c91","650c16f0f2faf8d7a0d14c09","651c1dd619168de2107f3287","null","null","<p style=""font-size: 60px; font-family: BACS"">DBlhAPT</p>","","","","","","","","",""
"html-keyboard-response","334","464771","0.0-16.0-0.2","5ec1c01a8ccaaa5ec0080c91","650c16f0f2faf8d7a0d14c09","651c1dd619168de2107f3287","null","null","<p style=""font-size: 60px; font-family: BACS"">DBlhAPT</p>","","","","","","","","",""
"html-keyboard-response","335","465777","0.0-16.0-0.3","5ec1c01a8ccaaa5ec0080c91","650c16f0f2faf8d7a0d14c09","651c1dd619168de2107f3287","null","null","<p style=""font-size: 60px; font-family: BACS"">DBlhAPT</p>","","","","","","","","",""
"html-keyboard-response","336","466786","0.0-16.0-0.4","5ec1c01a8ccaaa5ec0080c91","650c16f0f2faf8d7a0d14c09","651c1dd619168de2107f3287","null","null","<p style=""font-size: 60px; font-family: BACS"">DBlhAPT</p>","","","","","","","","",""
"html-keyboard-response","337","467793","0.0-16.0-0.5","5ec1c01a8ccaaa5ec0080c91","650c16f0f2faf8d7a0d14c09","651c1dd619168de2107f3287","null","null","<p style=""font-size: 60px; font-family: BACS"">DBlhAPT</p>","","","","","","","","",""
"html-keyboard-response","338","468807","0.0-16.0-0.6","5ec1c01a8ccaaa5ec0080c91","650c16f0f2faf8d7a0d14c09","651c1dd619168de2107f3287","null","null","<p style=""font-size: 60px; font-family: BACS"">DBlhAPT</p>","","","","","","","","",""
"html-keyboard-response","339","469816","0.0-16.0-0.7","5ec1c01a8ccaaa5ec0080c91","650c16f0f2faf8d7a0d14c09","651c1dd619168de2107f3287","null","null","<p style=""font-size: 60px; font-family: BACS"">DBlhAPT</p>","","","","","","","","",""
"html-keyboard-response","340","470838","0.0-16.0-0.8","5ec1c01a8ccaaa5ec0080c91","650c16f0f2faf8d7a0d14c09","651c1dd619168de2107f3287","null","null","<p style=""font-size: 60px; font-family: BACS"">DBlhAPT</p>","","","","","","","","",""
"html-keyboard-response","341","471851","0.0-16.0-0.9","5ec1c01a8ccaaa5ec0080c91","650c16f0f2faf8d7a0d14c09","651c1dd619168de2107f3287","null","null","<p style=""font-size: 60px; font-family: BACS"">DBlhAPT</p>","","","","","","","","",""
"html-keyboard-response","342","472865","0.0-16.0-0.10","5ec1c01a8ccaaa5ec0080c91","650c16f0f2faf8d7a0d14c09","651c1dd619168de2107f3287","null","null","<p style=""font-size: 60px; font-family: BACS"">DBlhAPT</p>","","","","","","","","",""
"html-keyboard-response","343","473886","0.0-16.0-0.11","5ec1c01a8ccaaa5ec0080c91","650c16f0f2faf8d7a0d14c09","651c1dd619168de2107f3287","null","null","<p style=""font-size: 60px; font-family: BACS"">DBlhAPT</p>","","","","","","","","",""
"html-keyboard-response","344","474910","0.0-16.0-0.12","5ec1c01a8ccaaa5ec0080c91","650c16f0f2faf8d7a0d14c09","651c1dd619168de2107f3287","null","null","<p style=""font-size: 60px; font-family: BACS"">DBlhAPT</p>","","","","","","","","",""
"html-keyboard-response","345","475931","0.0-16.0-0.13","5ec1c01a8ccaaa5ec0080c91","650c16f0f2faf8d7a0d14c09","651c1dd619168de2107f3287","null","null","<p style=""font-size: 60px; font-family: BACS"">DBlhAPT</p>","","","","","","","","",""
"html-keyboard-response","346","476946","0.0-16.0-0.14","5ec1c01a8ccaaa5ec0080c91","650c16f0f2faf8d7a0d14c09","651c1dd619168de2107f3287","null","null","<p style=""font-size: 60px; font-family: BACS"">DBlhAPT</p>","","","","","","","","",""
"html-keyboard-response","347","477966","0.0-16.0-0.15","5ec1c01a8ccaaa5ec0080c91","650c16f0f2faf8d7a0d14c09","651c1dd619168de2107f3287","null","null","<p style=""font-size: 60px; font-family: BACS"">DBlhAPT</p>","","","","","","","","",""
"html-keyboard-response","348","478974","0.0-16.0-0.16","5ec1c01a8ccaaa5ec0080c91","650c16f0f2faf8d7a0d14c09","651c1dd619168de2107f3287","null","null","<p style=""font-size: 60px; font-family: BACS"">DBlhAPT</p>","","","","","","","","",""
"html-keyboard-response","349","479980","0.0-16.0-0.17","5ec1c01a8ccaaa5ec0080c91","650c16f0f2faf8d7a0d14c09","651c1dd619168de2107f3287","null","null","<p style=""font-size: 60px; font-family: BACS"">DBlhAPT</p>","","","","","","","","",""
"html-keyboard-response","350","480989","0.0-16.0-0.18","5ec1c01a8ccaaa5ec0080c91","650c16f0f2faf8d7a0d14c09","651c1dd619168de2107f3287","null","null","<p style=""font-size: 60px; font-family: BACS"">DBlhAPT</p>","","","","","","","","",""
"html-keyboard-response","351","481995","0.0-16.0-0.19","5ec1c01a8ccaaa5ec0080c91","650c16f0f2faf8d7a0d14c09","651c1dd619168de2107f3287","null","null","<p style=""font-size: 60px; font-family: BACS"">DBlhAPT</p>","","","","","","","","",""
"html-keyboard-response","352","483008","0.0-16.0-0.20","5ec1c01a8ccaaa5ec0080c91","650c16f0f2faf8d7a0d14c09","651c1dd619168de2107f3287","null","null","<p style=""font-size: 60px; font-family: BACS"">DBlhAPT</p>","","","","","","","","",""
"html-keyboard-response","353","484021","0.0-16.0-0.21","5ec1c01a8ccaaa5ec0080c91","650c16f0f2faf8d7a0d14c09","651c1dd619168de2107f3287","null","null","<p style=""font-size: 60px; font-family: BACS"">DBlhAPT</p>","","","","","","","","",""
"html-keyboard-response","354","485036","0.0-16.0-0.22","5ec1c01a8ccaaa5ec0080c91","650c16f0f2faf8d7a0d14c09","651c1dd619168de2107f3287","null","null","<p style=""font-size: 60px; font-family: BACS"">DBlhAPT</p>","","","","","","","","",""
"html-keyboard-response","355","486050","0.0-16.0-0.23","5ec1c01a8ccaaa5ec0080c91","650c16f0f2faf8d7a0d14c09","651c1dd619168de2107f3287","null","null","<p style=""font-size: 60px; font-family: BACS"">DBlhAPT</p>","","","","","","","","",""
"html-keyboard-response","356","487071","0.0-16.0-0.24","5ec1c01a8ccaaa5ec0080c91","650c16f0f2faf8d7a0d14c09","651c1dd619168de2107f3287","null","null","<p style=""font-size: 60px; font-family: BACS"">DBlhAPT</p>","","","","","","","","",""
"html-keyboard-response","357","488085","0.0-16.0-0.25","5ec1c01a8ccaaa5ec0080c91","650c16f0f2faf8d7a0d14c09","651c1dd619168de2107f3287","null","null","<p style=""font-size: 60px; font-family: BACS"">DBlhAPT</p>","","","","","","","","",""
"html-keyboard-response","358","489097","0.0-16.0-0.26","5ec1c01a8ccaaa5ec0080c91","650c16f0f2faf8d7a0d14c09","651c1dd619168de2107f3287","null","null","<p style=""font-size: 60px; font-family: BACS"">DBlhAPT</p>","","","","","","","","",""
"html-keyboard-response","359","490103","0.0-16.0-0.27","5ec1c01a8ccaaa5ec0080c91","650c16f0f2faf8d7a0d14c09","651c1dd619168de2107f3287","null","null","<p style=""font-size: 60px; font-family: BACS"">DBlhAPT</p>","","","","","","","","",""
"html-keyboard-response","360","491119","0.0-16.0-0.28","5ec1c01a8ccaaa5ec0080c91","650c16f0f2faf8d7a0d14c09","651c1dd619168de2107f3287","null","null","<p style=""font-size: 60px; font-family: BACS"">DBlhAPT</p>","","","","","","","","",""
"html-keyboard-response","361","492133","0.0-16.0-0.29","5ec1c01a8ccaaa5ec0080c91","650c16f0f2faf8d7a0d14c09","651c1dd619168de2107f3287","null","null","<p style=""font-size: 60px; font-family: BACS"">DBlhAPT</p>","","","","","","","","",""
"html-keyboard-response","362","493135","0.0-16.0-0.30","5ec1c01a8ccaaa5ec0080c91","650c16f0f2faf8d7a0d14c09","651c1dd619168de2107f3287","null","null","<p style=""font-size: 60px; font-family: BACS"">DBlhAPT</p>","","","","","","","","",""
"html-keyboard-response","363","494159","0.0-16.0-0.31","5ec1c01a8ccaaa5ec0080c91","650c16f0f2faf8d7a0d14c09","651c1dd619168de2107f3287","null","null","<p style=""font-size: 60px; font-family: BACS"">DBlhAPT</p>","","","","","","","","",""
"html-keyboard-response","364","495180","0.0-16.0-0.32","5ec1c01a8ccaaa5ec0080c91","650c16f0f2faf8d7a0d14c09","651c1dd619168de2107f3287","null","null","<p style=""font-size: 60px; font-family: BACS"">DBlhAPT</p>","","","","","","","","",""
"html-keyboard-response","365","496194","0.0-16.0-0.33","5ec1c01a8ccaaa5ec0080c91","650c16f0f2faf8d7a0d14c09","651c1dd619168de2107f3287","null","null","<p style=""font-size: 60px; font-family: BACS"">DBlhAPT</p>","","","","","","","","",""
"html-keyboard-response","366","497214","0.0-16.0-0.34","5ec1c01a8ccaaa5ec0080c91","650c16f0f2faf8d7a0d14c09","651c1dd619168de2107f3287","null","null","<p style=""font-size: 60px; font-family: BACS"">DBlhAPT</p>","","","","","","","","",""
"html-keyboard-response","367","498228","0.0-16.0-0.35","5ec1c01a8ccaaa5ec0080c91","650c16f0f2faf8d7a0d14c09","651c1dd619168de2107f3287","null","null","<p style=""font-size: 60px; font-family: BACS"">DBlhAPT</p>","","","","","","","","",""
"html-keyboard-response","368","499240","0.0-16.0-0.36","5ec1c01a8ccaaa5ec0080c91","650c16f0f2faf8d7a0d14c09","651c1dd619168de2107f3287","null","null","<p style=""font-size: 60px; font-family: BACS"">DBlhAPT</p>","","","","","","","","",""
"html-keyboard-response","369","500262","0.0-16.0-0.37","5ec1c01a8ccaaa5ec0080c91","650c16f0f2faf8d7a0d14c09","651c1dd619168de2107f3287","null","null","<p style=""font-size: 60px; font-family: BACS"">DBlhAPT</p>","","","","","","","","",""
"html-keyboard-response","370","501279","0.0-16.0-0.38","5ec1c01a8ccaaa5ec0080c91","650c16f0f2faf8d7a0d14c09","651c1dd619168de2107f3287","null","null","<p style=""font-size: 60px; font-family: BACS"">DBlhAPT</p>","","","","","","","","",""
"html-keyboard-response","371","502292","0.0-16.0-0.39","5ec1c01a8ccaaa5ec0080c91","650c16f0f2faf8d7a0d14c09","651c1dd619168de2107f3287","null","null","<p style=""font-size: 60px; font-family: BACS"">DBlhAPT</p>","","","","","","","","",""
"html-keyboard-response","372","503302","0.0-16.0-0.40","5ec1c01a8ccaaa5ec0080c91","650c16f0f2faf8d7a0d14c09","651c1dd619168de2107f3287","null","null","<p style=""font-size: 60px; font-family: BACS"">DBlhAPT</p>","","","","","","","","",""
"html-keyboard-response","373","504324","0.0-16.0-0.41","5ec1c01a8ccaaa5ec0080c91","650c16f0f2faf8d7a0d14c09","651c1dd619168de2107f3287","null","null","<p style=""font-size: 60px; font-family: BACS"">DBlhAPT</p>","","","","","","","","",""
"html-keyboard-response","374","505333","0.0-16.0-0.42","5ec1c01a8ccaaa5ec0080c91","650c16f0f2faf8d7a0d14c09","651c1dd619168de2107f3287","null","null","<p style=""font-size: 60px; font-family: BACS"">DBlhAPT</p>","","","","","","","","",""
"html-keyboard-response","375","506340","0.0-16.0-0.43","5ec1c01a8ccaaa5ec0080c91","650c16f0f2faf8d7a0d14c09","651c1dd619168de2107f3287","null","null","<p style=""font-size: 60px; font-family: BACS"">DBlhAPT</p>","","","","","","","","",""
"html-keyboard-response","376","507354","0.0-16.0-0.44","5ec1c01a8ccaaa5ec0080c91","650c16f0f2faf8d7a0d14c09","651c1dd619168de2107f3287","null","null","<p style=""font-size: 60px; font-family: BACS"">DBlhAPT</p>","","","","","","","","",""
"html-keyboard-response","377","508368","0.0-16.0-0.45","5ec1c01a8ccaaa5ec0080c91","650c16f0f2faf8d7a0d14c09","651c1dd619168de2107f3287","null","null","<p style=""font-size: 60px; font-family: BACS"">DBlhAPT</p>","","","","","","","","",""
"html-keyboard-response","378","509382","0.0-16.0-0.46","5ec1c01a8ccaaa5ec0080c91","650c16f0f2faf8d7a0d14c09","651c1dd619168de2107f3287","null","null","<p style=""font-size: 60px; font-family: BACS"">DBlhAPT</p>","","","","","","","","",""
"html-keyboard-response","379","510395","0.0-16.0-0.47","5ec1c01a8ccaaa5ec0080c91","650c16f0f2faf8d7a0d14c09","651c1dd619168de2107f3287","null","null","<p style=""font-size: 60px; font-family: BACS"">DBlhAPT</p>","","","","","","","","",""
"html-keyboard-response","380","511414","0.0-16.0-0.48","5ec1c01a8ccaaa5ec0080c91","650c16f0f2faf8d7a0d14c09","651c1dd619168de2107f3287","null","null","<p style=""font-size: 60px; font-family: BACS"">DBlhAPT</p>","","","","","","","","",""
"html-keyboard-response","381","512435","0.0-16.0-0.49","5ec1c01a8ccaaa5ec0080c91","650c16f0f2faf8d7a0d14c09","651c1dd619168de2107f3287","null","null","<p style=""font-size: 60px; font-family: BACS"">DBlhAPT</p>","","","","","","","","",""
"html-keyboard-response","382","513449","0.0-16.0-0.50","5ec1c01a8ccaaa5ec0080c91","650c16f0f2faf8d7a0d14c09","651c1dd619168de2107f3287","null","null","<p style=""font-size: 60px; font-family: BACS"">DBlhAPT</p>","","","","","","","","",""
"html-keyboard-response","383","514462","0.0-16.0-0.51","5ec1c01a8ccaaa5ec0080c91","650c16f0f2faf8d7a0d14c09","651c1dd619168de2107f3287","null","null","<p style=""font-size: 60px; font-family: BACS"">DBlhAPT</p>","","","","","","","","",""
"html-keyboard-response","384","515476","0.0-16.0-0.52","5ec1c01a8ccaaa5ec0080c91","650c16f0f2faf8d7a0d14c09","651c1dd619168de2107f3287","null","null","<p style=""font-size: 60px; font-family: BACS"">DBlhAPT</p>","","","","","","","","",""
"html-keyboard-response","385","516481","0.0-16.0-0.53","5ec1c01a8ccaaa5ec0080c91","650c16f0f2faf8d7a0d14c09","651c1dd619168de2107f3287","null","null","<p style=""font-size: 60px; font-family: BACS"">DBlhAPT</p>","","","","","","","","",""
"html-keyboard-response","386","517487","0.0-16.0-0.54","5ec1c01a8ccaaa5ec0080c91","650c16f0f2faf8d7a0d14c09","651c1dd619168de2107f3287","null","null","<p style=""font-size: 60px; font-family: BACS"">DBlhAPT</p>","","","","","","","","",""
"html-keyboard-response","387","518509","0.0-16.0-0.55","5ec1c01a8ccaaa5ec0080c91","650c16f0f2faf8d7a0d14c09","651c1dd619168de2107f3287","null","null","<p style=""font-size: 60px; font-family: BACS"">DBlhAPT</p>","","","","","","","","",""
"html-keyboard-response","388","519526","0.0-16.0-0.56","5ec1c01a8ccaaa5ec0080c91","650c16f0f2faf8d7a0d14c09","651c1dd619168de2107f3287","null","null","<p style=""font-size: 60px; font-family: BACS"">DBlhAPT</p>","","","","","","","","",""
"html-keyboard-response","389","520539","0.0-16.0-0.57","5ec1c01a8ccaaa5ec0080c91","650c16f0f2faf8d7a0d14c09","651c1dd619168de2107f3287","null","null","<p style=""font-size: 60px; font-family: BACS"">DBlhAPT</p>","","","","","","","","",""
"html-keyboard-response","390","521553","0.0-16.0-0.58","5ec1c01a8ccaaa5ec0080c91","650c16f0f2faf8d7a0d14c09","651c1dd619168de2107f3287","null","null","<p style=""font-size: 60px; font-family: BACS"">DBlhAPT</p>","","","","","","","","",""
"html-keyboard-response","391","522566","0.0-16.0-0.59","5ec1c01a8ccaaa5ec0080c91","650c16f0f2faf8d7a0d14c09","651c1dd619168de2107f3287","null","null","<p style=""font-size: 60px; font-family: BACS"">DBlhAPT</p>","","","","","","","","",""
"html-keyboard-response","392","523570","0.0-16.0-0.60","5ec1c01a8ccaaa5ec0080c91","650c16f0f2faf8d7a0d14c09","651c1dd619168de2107f3287","null","null","<p style=""font-size: 60px; font-family: BACS"">DBlhAPT</p>","","","","","","","","",""
"html-keyboard-response","393","524590","0.0-16.0-0.61","5ec1c01a8ccaaa5ec0080c91","650c16f0f2faf8d7a0d14c09","651c1dd619168de2107f3287","null","null","<p style=""font-size: 60px; font-family: BACS"">DBlhAPT</p>","","","","","","","","",""
"html-keyboard-response","394","525603","0.0-16.0-0.62","5ec1c01a8ccaaa5ec0080c91","650c16f0f2faf8d7a0d14c09","651c1dd619168de2107f3287","null","null","<p style=""font-size: 60px; font-family: BACS"">DBlhAPT</p>","","","","","","","","",""
"html-keyboard-response","395","526617","0.0-16.0-0.63","5ec1c01a8ccaaa5ec0080c91","650c16f0f2faf8d7a0d14c09","651c1dd619168de2107f3287","null","null","<p style=""font-size: 60px; font-family: BACS"">DBlhAPT</p>","","","","","","","","",""
"html-keyboard-response","396","527635","0.0-16.0-0.64","5ec1c01a8ccaaa5ec0080c91","650c16f0f2faf8d7a0d14c09","651c1dd619168de2107f3287","null","null","<p style=""font-size: 60px; font-family: BACS"">DBlhAPT</p>","","","","","","","","",""
"html-keyboard-response","397","528649","0.0-16.0-0.65","5ec1c01a8ccaaa5ec0080c91","650c16f0f2faf8d7a0d14c09","651c1dd619168de2107f3287","null","null","<p style=""font-size: 60px; font-family: BACS"">DBlhAPT</p>","","","","","","","","",""
"html-keyboard-response","398","529662","0.0-16.0-0.66","5ec1c01a8ccaaa5ec0080c91","650c16f0f2faf8d7a0d14c09","651c1dd619168de2107f3287","null","null","<p style=""font-size: 60px; font-family: BACS"">DBlhAPT</p>","","","","","","","","",""
