trial_type,trial_index,time_elapsed,internal_node_id,subject_id,study_id,session_id,rt,response,stimulus,success,item,task,correct_response,testing_condition,correct,target,confound,name,view_history
pavlovia,0,684,0.0-0.0,616494f1ae4537c01914c758,650c16f0f2faf8d7a0d14c09,651c1cf402e85bb8995fdc12,,,,,,,,,,,,,
survey-html-form,1,4367,0.0-1.0,616494f1ae4537c01914c758,650c16f0f2faf8d7a0d14c09,651c1cf402e85bb8995fdc12,3680,"{""ID"":""616494f1ae4537c01914c758""}",,,,,,,,,,,
html-keyboard-response,2,179360,0.0-2.0,616494f1ae4537c01914c758,650c16f0f2faf8d7a0d14c09,651c1cf402e85bb8995fdc12,174990, ,"<p style=""font-size: 15px;"">Before beginning, we ask that you read the consent information and confirm your agreement to participate in the experiment.</p>
      <p style=""font-size: 15px;""> We ask that you remember that this is a research project and that your participation is entirely voluntary. You can stop your participation at any time, without needing to provide any explanation. The study we're asking you to participate in aims at examining how readers process written words. You will be engaged in a session of apprximately 20 minutes, followed by a brief questionnaire. You will have the opportunity to take a few breaks during the experiment. You will be paid £4 for your participation, corresponding to a rate of £8/hour. While this experiment looks at cognitive faculties, this experiment doesn't constitute clinical proof of eventual pathologies.</p>
      <p style=""font-size: 15px;"">All of the information collected thanks to yours and others' participation will be held in a secure password-protected server, and will not be shared with anyone not authorised to view it. Your personal information will be kept with an arbitrary participant ID. Thanks to this data anonymity process, any researcher analysing the data won't be able to track the information back to a specific participant. Therefore, this process will make identifying you impossibile, even when results from the study will be published in scientific reviews, presented at congresses, or at any other public forum. More generally, the collected data will be treated in accordance with the laws on privacy and conformity to the Legislative Degree n. 196 ""Code regarding the protection of personal data"" of the 30th of June 2003 and to the European Regulation 2016/670 (General Data Protection Regulation - GDPR). The Data Protection Officer is Avv. Valentina Carollo, who can be contacted at the following email addresses: <a href=""mailto:dpo@sissa.it"">dpo@sissa.it</a> or <a href=""mailto:rpd@sissa.it"">rpd@sissa.it</a> - PEC: <a href=""mailto:protocollo@pec.sissa.it"">protocollo@pec.sissa.it</a>.</p>
      <p style=""font-size: 15px;""> Before expressing your consent to participate, we would like to remind you again that in case you need explanations on any aspect of the experimental procedure, the researcher is at your disposition (<a href=""mailto:aliebelt@sissa.it"">aliebelt@sissa.it</a>, <a href=""mailto:davide.crepaldi@sissa.it"">davide.crepaldi@sissa.it</a>).</p>
      <p style=""font-size: 15px;"">If you would like to download the informed consent form, you can do so here: <a href=""BASL-Informed_Consent.pdf"" download>informed consent form</a>.</p>
      <p style=""font-size: 15px;"">We ask that you press the spacebar to proceed to the consent section.</p>",,,,,,,,,,
survey-html-form,3,931481,0.0-3.0,616494f1ae4537c01914c758,650c16f0f2faf8d7a0d14c09,651c1cf402e85bb8995fdc12,752118,"{""consent1"":""YES"",""consent2"":""YES"",""consent3"":""YES"",""consent4"":""YES"",""consent5"":""YES"",""consent6"":""YES""}",,,,,,,,,,,
fullscreen,4,938116,0.0-4.0,616494f1ae4537c01914c758,650c16f0f2faf8d7a0d14c09,651c1cf402e85bb8995fdc12,,,,TRUE,,,,,,,,,
html-keyboard-response,5,1445134,0.0-5.0,616494f1ae4537c01914c758,650c16f0f2faf8d7a0d14c09,651c1cf402e85bb8995fdc12,507018, ,"<p>Welcome, and thank you very much for your time!</p>
      <p>In this experiment, you'll be a language expert who's been asked to take a look at words that Earth has received in its first communication with aliens. Your task, in this first part of the experiment, is to pay close attention to the words you'll be shown; later, world leaders will ask you questions on what you saw. The words will be shown to you quite quickly; it seems that the aliens were in a hurry :-)</p>
      <p>Press the spacebar to continue.<p>",,,,,,,,,,
html-keyboard-response,6,1445187,0.0-6.0,616494f1ae4537c01914c758,650c16f0f2faf8d7a0d14c09,651c1cf402e85bb8995fdc12,null,null,"<p style=""font-size: 120px; font-family: BACS""> </p>",,,,,,,,,,
html-keyboard-response,7,1449393,0.0-7.0,616494f1ae4537c01914c758,650c16f0f2faf8d7a0d14c09,651c1cf402e85bb8995fdc12,4206, ,"<p>Here is an example of the words you'll see:</p>
      <img src='esempio.png' height='400px'>
      <p>When you're ready to begin, press the spacebar.</p></div>",,,,,,,,,,
html-keyboard-response,8,1450409,0.0-8.0-0.0,616494f1ae4537c01914c758,650c16f0f2faf8d7a0d14c09,651c1cf402e85bb8995fdc12,null,null,"<p style=""font-size: 60px; font-family: BACS"">vmuLluda</p>",,,,,,,,,,
html-keyboard-response,9,1451422,0.0-8.0-0.1,616494f1ae4537c01914c758,650c16f0f2faf8d7a0d14c09,651c1cf402e85bb8995fdc12,null,null,"<p style=""font-size: 60px; font-family: BACS"">YKRkBRDh</p>",,,,,,,,,,
html-keyboard-response,10,1452436,0.0-8.0-0.2,616494f1ae4537c01914c758,650c16f0f2faf8d7a0d14c09,651c1cf402e85bb8995fdc12,null,null,"<p style=""font-size: 60px; font-family: BACS"">hBmMCOdOP</p>",,,,,,,,,,
html-keyboard-response,11,1453453,0.0-8.0-0.3,616494f1ae4537c01914c758,650c16f0f2faf8d7a0d14c09,651c1cf402e85bb8995fdc12,null,null,"<p style=""font-size: 60px; font-family: BACS"">hAROKBRDh</p>",,,,,,,,,,
html-keyboard-response,12,1454455,0.0-8.0-0.4,616494f1ae4537c01914c758,650c16f0f2faf8d7a0d14c09,651c1cf402e85bb8995fdc12,null,null,"<p style=""font-size: 60px; font-family: BACS"">cRElDTbk</p>",,,,,,,,,,
html-keyboard-response,13,1455472,0.0-8.0-0.5,616494f1ae4537c01914c758,650c16f0f2faf8d7a0d14c09,651c1cf402e85bb8995fdc12,null,null,"<p style=""font-size: 60px; font-family: BACS"">laYmrLUOk</p>",,,,,,,,,,
html-keyboard-response,14,1456481,0.0-8.0-0.6,616494f1ae4537c01914c758,650c16f0f2faf8d7a0d14c09,651c1cf402e85bb8995fdc12,null,null,"<p style=""font-size: 60px; font-family: BACS"">aYaNvUdm</p>",,,,,,,,,,
html-keyboard-response,15,1457483,0.0-8.0-0.7,616494f1ae4537c01914c758,650c16f0f2faf8d7a0d14c09,651c1cf402e85bb8995fdc12,null,null,"<p style=""font-size: 60px; font-family: BACS"">PMPtkdPc</p>",,,,,,,,,,
html-keyboard-response,16,1458487,0.0-8.0-0.8,616494f1ae4537c01914c758,650c16f0f2faf8d7a0d14c09,651c1cf402e85bb8995fdc12,null,null,"<p style=""font-size: 60px; font-family: BACS"">TAdhMOdOP</p>",,,,,,,,,,
html-keyboard-response,17,1459491,0.0-8.0-0.9,616494f1ae4537c01914c758,650c16f0f2faf8d7a0d14c09,651c1cf402e85bb8995fdc12,null,null,"<p style=""font-size: 60px; font-family: BACS"">aYaNuda</p>",,,,,,,,,,
html-keyboard-response,18,1460499,0.0-8.0-0.10,616494f1ae4537c01914c758,650c16f0f2faf8d7a0d14c09,651c1cf402e85bb8995fdc12,null,null,"<p style=""font-size: 60px; font-family: BACS"">hAROKOdOP</p>",,,,,,,,,,
html-keyboard-response,19,1461502,0.0-8.0-0.11,616494f1ae4537c01914c758,650c16f0f2faf8d7a0d14c09,651c1cf402e85bb8995fdc12,null,null,"<p style=""font-size: 60px; font-family: BACS"">OcYMbTE</p>",,,,,,,,,,
html-keyboard-response,20,1462513,0.0-8.0-0.12,616494f1ae4537c01914c758,650c16f0f2faf8d7a0d14c09,651c1cf402e85bb8995fdc12,null,null,"<p style=""font-size: 60px; font-family: BACS"">bvkruda</p>",,,,,,,,,,
html-keyboard-response,21,1463519,0.0-8.0-0.13,616494f1ae4537c01914c758,650c16f0f2faf8d7a0d14c09,651c1cf402e85bb8995fdc12,null,null,"<p style=""font-size: 60px; font-family: BACS"">AbkacrdY</p>",,,,,,,,,,
html-keyboard-response,22,1464523,0.0-8.0-0.14,616494f1ae4537c01914c758,650c16f0f2faf8d7a0d14c09,651c1cf402e85bb8995fdc12,null,null,"<p style=""font-size: 60px; font-family: BACS"">hBmMCdPc</p>",,,,,,,,,,
html-keyboard-response,23,1465540,0.0-8.0-0.15,616494f1ae4537c01914c758,650c16f0f2faf8d7a0d14c09,651c1cf402e85bb8995fdc12,null,null,"<p style=""font-size: 60px; font-family: BACS"">GLYrALUOk</p>",,,,,,,,,,
html-keyboard-response,24,1466556,0.0-8.0-0.16,616494f1ae4537c01914c758,650c16f0f2faf8d7a0d14c09,651c1cf402e85bb8995fdc12,null,null,"<p style=""font-size: 60px; font-family: BACS"">cRElDbTE</p>",,,,,,,,,,
html-keyboard-response,25,1467571,0.0-8.0-0.17,616494f1ae4537c01914c758,650c16f0f2faf8d7a0d14c09,651c1cf402e85bb8995fdc12,null,null,"<p style=""font-size: 60px; font-family: BACS"">UdlGQuda</p>",,,,,,,,,,
html-keyboard-response,26,1468573,0.0-8.0-0.18,616494f1ae4537c01914c758,650c16f0f2faf8d7a0d14c09,651c1cf402e85bb8995fdc12,null,null,"<p style=""font-size: 60px; font-family: BACS"">aYaNLcO</p>",,,,,,,,,,
html-keyboard-response,27,1469588,0.0-8.0-0.19,616494f1ae4537c01914c758,650c16f0f2faf8d7a0d14c09,651c1cf402e85bb8995fdc12,null,null,"<p style=""font-size: 60px; font-family: BACS"">dOYmlTbk</p>",,,,,,,,,,
html-keyboard-response,28,1470591,0.0-8.0-0.20,616494f1ae4537c01914c758,650c16f0f2faf8d7a0d14c09,651c1cf402e85bb8995fdc12,null,null,"<p style=""font-size: 60px; font-family: BACS"">YKRkbTE</p>",,,,,,,,,,
html-keyboard-response,29,1471607,0.0-8.0-0.21,616494f1ae4537c01914c758,650c16f0f2faf8d7a0d14c09,651c1cf402e85bb8995fdc12,null,null,"<p style=""font-size: 60px; font-family: BACS"">TAdhMBRDh</p>",,,,,,,,,,
html-keyboard-response,30,1472623,0.0-8.0-0.22,616494f1ae4537c01914c758,650c16f0f2faf8d7a0d14c09,651c1cf402e85bb8995fdc12,null,null,"<p style=""font-size: 60px; font-family: BACS"">laYmrvUdm</p>",,,,,,,,,,
html-keyboard-response,31,1473640,0.0-8.0-0.23,616494f1ae4537c01914c758,650c16f0f2faf8d7a0d14c09,651c1cf402e85bb8995fdc12,null,null,"<p style=""font-size: 60px; font-family: BACS"">PCPDhBRDh</p>",,,,,,,,,,
html-keyboard-response,32,1474656,0.0-8.0-0.24,616494f1ae4537c01914c758,650c16f0f2faf8d7a0d14c09,651c1cf402e85bb8995fdc12,null,null,"<p style=""font-size: 60px; font-family: BACS"">bvkrLUOk</p>",,,,,,,,,,
html-keyboard-response,33,1475658,0.0-8.0-0.25,616494f1ae4537c01914c758,650c16f0f2faf8d7a0d14c09,651c1cf402e85bb8995fdc12,null,null,"<p style=""font-size: 60px; font-family: BACS"">PMPtkBRDh</p>",,,,,,,,,,
html-keyboard-response,34,1476673,0.0-8.0-0.26,616494f1ae4537c01914c758,650c16f0f2faf8d7a0d14c09,651c1cf402e85bb8995fdc12,null,null,"<p style=""font-size: 60px; font-family: BACS"">vmuLlcrdY</p>",,,,,,,,,,
html-keyboard-response,35,1477674,0.0-8.0-0.27,616494f1ae4537c01914c758,650c16f0f2faf8d7a0d14c09,651c1cf402e85bb8995fdc12,null,null,"<p style=""font-size: 60px; font-family: BACS"">AlNULUOk</p>",,,,,,,,,,
html-keyboard-response,36,1478689,0.0-8.0-0.28,616494f1ae4537c01914c758,650c16f0f2faf8d7a0d14c09,651c1cf402e85bb8995fdc12,null,null,"<p style=""font-size: 60px; font-family: BACS"">PCPDhbTE</p>",,,,,,,,,,
html-keyboard-response,37,1479691,0.0-8.0-0.29,616494f1ae4537c01914c758,650c16f0f2faf8d7a0d14c09,651c1cf402e85bb8995fdc12,null,null,"<p style=""font-size: 60px; font-family: BACS"">OcYMBRDh</p>",,,,,,,,,,
html-keyboard-response,38,1480707,0.0-8.0-0.30,616494f1ae4537c01914c758,650c16f0f2faf8d7a0d14c09,651c1cf402e85bb8995fdc12,null,null,"<p style=""font-size: 60px; font-family: BACS"">YKRkTbk</p>",,,,,,,,,,
html-keyboard-response,39,1481709,0.0-8.0-0.31,616494f1ae4537c01914c758,650c16f0f2faf8d7a0d14c09,651c1cf402e85bb8995fdc12,null,null,"<p style=""font-size: 60px; font-family: BACS"">GLYrAcrdY</p>",,,,,,,,,,
html-keyboard-response,40,1482725,0.0-8.0-0.32,616494f1ae4537c01914c758,650c16f0f2faf8d7a0d14c09,651c1cf402e85bb8995fdc12,null,null,"<p style=""font-size: 60px; font-family: BACS"">AbkavUdm</p>",,,,,,,,,,
html-keyboard-response,41,1483727,0.0-8.0-0.33,616494f1ae4537c01914c758,650c16f0f2faf8d7a0d14c09,651c1cf402e85bb8995fdc12,null,null,"<p style=""font-size: 60px; font-family: BACS"">hAROKbTE</p>",,,,,,,,,,
html-keyboard-response,42,1484740,0.0-8.0-0.34,616494f1ae4537c01914c758,650c16f0f2faf8d7a0d14c09,651c1cf402e85bb8995fdc12,null,null,"<p style=""font-size: 60px; font-family: BACS"">bYuQLUOk</p>",,,,,,,,,,
html-keyboard-response,43,1485742,0.0-8.0-0.35,616494f1ae4537c01914c758,650c16f0f2faf8d7a0d14c09,651c1cf402e85bb8995fdc12,null,null,"<p style=""font-size: 60px; font-family: BACS"">PMPtkTbk</p>",,,,,,,,,,
html-keyboard-response,44,1486758,0.0-8.0-0.36,616494f1ae4537c01914c758,650c16f0f2faf8d7a0d14c09,651c1cf402e85bb8995fdc12,null,null,"<p style=""font-size: 60px; font-family: BACS"">rvOvUcrdY</p>",,,,,,,,,,
html-keyboard-response,45,1487774,0.0-8.0-0.37,616494f1ae4537c01914c758,650c16f0f2faf8d7a0d14c09,651c1cf402e85bb8995fdc12,null,null,"<p style=""font-size: 60px; font-family: BACS"">dYdAdPc</p>",,,,,,,,,,
html-keyboard-response,46,1488777,0.0-8.0-0.38,616494f1ae4537c01914c758,650c16f0f2faf8d7a0d14c09,651c1cf402e85bb8995fdc12,null,null,"<p style=""font-size: 60px; font-family: BACS"">UdlGQLcO</p>",,,,,,,,,,
html-keyboard-response,47,1489781,0.0-8.0-0.39,616494f1ae4537c01914c758,650c16f0f2faf8d7a0d14c09,651c1cf402e85bb8995fdc12,null,null,"<p style=""font-size: 60px; font-family: BACS"">TAdhMTbk</p>",,,,,,,,,,
html-keyboard-response,48,1490790,0.0-8.0-0.40,616494f1ae4537c01914c758,650c16f0f2faf8d7a0d14c09,651c1cf402e85bb8995fdc12,null,null,"<p style=""font-size: 60px; font-family: BACS"">dOYmlbTE</p>",,,,,,,,,,
html-keyboard-response,49,1491797,0.0-8.0-0.41,616494f1ae4537c01914c758,650c16f0f2faf8d7a0d14c09,651c1cf402e85bb8995fdc12,null,null,"<p style=""font-size: 60px; font-family: BACS"">Abkauda</p>",,,,,,,,,,
html-keyboard-response,50,1492798,0.0-8.0-0.42,616494f1ae4537c01914c758,650c16f0f2faf8d7a0d14c09,651c1cf402e85bb8995fdc12,null,null,"<p style=""font-size: 60px; font-family: BACS"">UdlGQLUOk</p>",,,,,,,,,,
html-keyboard-response,51,1493814,0.0-8.0-0.43,616494f1ae4537c01914c758,650c16f0f2faf8d7a0d14c09,651c1cf402e85bb8995fdc12,null,null,"<p style=""font-size: 60px; font-family: BACS"">rvOvUuda</p>",,,,,,,,,,
html-keyboard-response,52,1494816,0.0-8.0-0.44,616494f1ae4537c01914c758,650c16f0f2faf8d7a0d14c09,651c1cf402e85bb8995fdc12,null,null,"<p style=""font-size: 60px; font-family: BACS"">hBmMCBRDh</p>",,,,,,,,,,
html-keyboard-response,53,1495817,0.0-8.0-0.45,616494f1ae4537c01914c758,650c16f0f2faf8d7a0d14c09,651c1cf402e85bb8995fdc12,null,null,"<p style=""font-size: 60px; font-family: BACS"">vmuLlLUOk</p>",,,,,,,,,,
html-keyboard-response,54,1496826,0.0-8.0-0.46,616494f1ae4537c01914c758,650c16f0f2faf8d7a0d14c09,651c1cf402e85bb8995fdc12,null,null,"<p style=""font-size: 60px; font-family: BACS"">AlNUcrdY</p>",,,,,,,,,,
html-keyboard-response,55,1497843,0.0-8.0-0.47,616494f1ae4537c01914c758,650c16f0f2faf8d7a0d14c09,651c1cf402e85bb8995fdc12,null,null,"<p style=""font-size: 60px; font-family: BACS"">laYmrLcO</p>",,,,,,,,,,
html-keyboard-response,56,1498844,0.0-8.0-0.48,616494f1ae4537c01914c758,650c16f0f2faf8d7a0d14c09,651c1cf402e85bb8995fdc12,null,null,"<p style=""font-size: 60px; font-family: BACS"">hBmMCbTE</p>",,,,,,,,,,
html-keyboard-response,57,1499859,0.0-8.0-0.49,616494f1ae4537c01914c758,650c16f0f2faf8d7a0d14c09,651c1cf402e85bb8995fdc12,null,null,"<p style=""font-size: 60px; font-family: BACS"">bvkrcrdY</p>",,,,,,,,,,
html-keyboard-response,58,1500875,0.0-8.0-0.50,616494f1ae4537c01914c758,650c16f0f2faf8d7a0d14c09,651c1cf402e85bb8995fdc12,null,null,"<p style=""font-size: 60px; font-family: BACS"">rvOvULUOk</p>",,,,,,,,,,
html-keyboard-response,59,1501878,0.0-8.0-0.51,616494f1ae4537c01914c758,650c16f0f2faf8d7a0d14c09,651c1cf402e85bb8995fdc12,null,null,"<p style=""font-size: 60px; font-family: BACS"">bYuQLcO</p>",,,,,,,,,,
html-keyboard-response,60,1502894,0.0-8.0-0.52,616494f1ae4537c01914c758,650c16f0f2faf8d7a0d14c09,651c1cf402e85bb8995fdc12,null,null,"<p style=""font-size: 60px; font-family: BACS"">cRElDOdOP</p>",,,,,,,,,,
html-keyboard-response,61,1503910,0.0-8.0-0.53,616494f1ae4537c01914c758,650c16f0f2faf8d7a0d14c09,651c1cf402e85bb8995fdc12,null,null,"<p style=""font-size: 60px; font-family: BACS"">GLYrALcO</p>",,,,,,,,,,
html-keyboard-response,62,1504925,0.0-8.0-0.54,616494f1ae4537c01914c758,650c16f0f2faf8d7a0d14c09,651c1cf402e85bb8995fdc12,null,null,"<p style=""font-size: 60px; font-family: BACS"">hAROKTbk</p>",,,,,,,,,,
html-keyboard-response,63,1505929,0.0-8.0-0.55,616494f1ae4537c01914c758,650c16f0f2faf8d7a0d14c09,651c1cf402e85bb8995fdc12,null,null,"<p style=""font-size: 60px; font-family: BACS"">PMPtkOdOP</p>",,,,,,,,,,
html-keyboard-response,64,1506930,0.0-8.0-0.56,616494f1ae4537c01914c758,650c16f0f2faf8d7a0d14c09,651c1cf402e85bb8995fdc12,null,null,"<p style=""font-size: 60px; font-family: BACS"">dYdATbk</p>",,,,,,,,,,
html-keyboard-response,65,1507944,0.0-8.0-0.57,616494f1ae4537c01914c758,650c16f0f2faf8d7a0d14c09,651c1cf402e85bb8995fdc12,null,null,"<p style=""font-size: 60px; font-family: BACS"">OcYMOdOP</p>",,,,,,,,,,
html-keyboard-response,66,1508961,0.0-8.0-0.58,616494f1ae4537c01914c758,650c16f0f2faf8d7a0d14c09,651c1cf402e85bb8995fdc12,null,null,"<p style=""font-size: 60px; font-family: BACS"">YKRkdPc</p>",,,,,,,,,,
html-keyboard-response,67,1509962,0.0-8.0-0.59,616494f1ae4537c01914c758,650c16f0f2faf8d7a0d14c09,651c1cf402e85bb8995fdc12,null,null,"<p style=""font-size: 60px; font-family: BACS"">dOYmlBRDh</p>",,,,,,,,,,
html-keyboard-response,68,1510978,0.0-8.0-0.60,616494f1ae4537c01914c758,650c16f0f2faf8d7a0d14c09,651c1cf402e85bb8995fdc12,null,null,"<p style=""font-size: 60px; font-family: BACS"">PCPDhdPc</p>",,,,,,,,,,
html-keyboard-response,69,1511979,0.0-8.0-0.61,616494f1ae4537c01914c758,650c16f0f2faf8d7a0d14c09,651c1cf402e85bb8995fdc12,null,null,"<p style=""font-size: 60px; font-family: BACS"">bYuQvUdm</p>",,,,,,,,,,
html-keyboard-response,70,1512995,0.0-8.0-0.62,616494f1ae4537c01914c758,650c16f0f2faf8d7a0d14c09,651c1cf402e85bb8995fdc12,null,null,"<p style=""font-size: 60px; font-family: BACS"">laYmruda</p>",,,,,,,,,,
html-keyboard-response,71,1514011,0.0-8.0-0.63,616494f1ae4537c01914c758,650c16f0f2faf8d7a0d14c09,651c1cf402e85bb8995fdc12,null,null,"<p style=""font-size: 60px; font-family: BACS"">TAdhMdPc</p>",,,,,,,,,,
html-keyboard-response,72,1515013,0.0-8.0-0.64,616494f1ae4537c01914c758,650c16f0f2faf8d7a0d14c09,651c1cf402e85bb8995fdc12,null,null,"<p style=""font-size: 60px; font-family: BACS"">bvkrvUdm</p>",,,,,,,,,,
html-keyboard-response,73,1516019,0.0-8.0-0.65,616494f1ae4537c01914c758,650c16f0f2faf8d7a0d14c09,651c1cf402e85bb8995fdc12,null,null,"<p style=""font-size: 60px; font-family: BACS"">AbkaLcO</p>",,,,,,,,,,
html-keyboard-response,74,1517021,0.0-8.0-0.66,616494f1ae4537c01914c758,650c16f0f2faf8d7a0d14c09,651c1cf402e85bb8995fdc12,null,null,"<p style=""font-size: 60px; font-family: BACS"">dYdAbTE</p>",,,,,,,,,,
html-keyboard-response,75,1518036,0.0-8.0-0.67,616494f1ae4537c01914c758,650c16f0f2faf8d7a0d14c09,651c1cf402e85bb8995fdc12,null,null,"<p style=""font-size: 60px; font-family: BACS"">aYaNcrdY</p>",,,,,,,,,,
html-keyboard-response,76,1519047,0.0-8.0-0.68,616494f1ae4537c01914c758,650c16f0f2faf8d7a0d14c09,651c1cf402e85bb8995fdc12,null,null,"<p style=""font-size: 60px; font-family: BACS"">OcYMTbk</p>",,,,,,,,,,
html-keyboard-response,77,1520062,0.0-8.0-0.69,616494f1ae4537c01914c758,650c16f0f2faf8d7a0d14c09,651c1cf402e85bb8995fdc12,null,null,"<p style=""font-size: 60px; font-family: BACS"">AlNULcO</p>",,,,,,,,,,
html-keyboard-response,78,1521064,0.0-8.0-0.70,616494f1ae4537c01914c758,650c16f0f2faf8d7a0d14c09,651c1cf402e85bb8995fdc12,null,null,"<p style=""font-size: 60px; font-family: BACS"">cRElDdPc</p>",,,,,,,,,,
html-keyboard-response,79,1522080,0.0-8.0-0.71,616494f1ae4537c01914c758,650c16f0f2faf8d7a0d14c09,651c1cf402e85bb8995fdc12,null,null,"<p style=""font-size: 60px; font-family: BACS"">vmuLlLcO</p>",,,,,,,,,,
html-keyboard-response,80,1523095,0.0-8.0-0.72,616494f1ae4537c01914c758,650c16f0f2faf8d7a0d14c09,651c1cf402e85bb8995fdc12,null,null,"<p style=""font-size: 60px; font-family: BACS"">GLYrAuda</p>",,,,,,,,,,
html-keyboard-response,81,1524104,0.0-8.0-0.73,616494f1ae4537c01914c758,650c16f0f2faf8d7a0d14c09,651c1cf402e85bb8995fdc12,null,null,"<p style=""font-size: 60px; font-family: BACS"">AlNUvUdm</p>",,,,,,,,,,
html-keyboard-response,82,1525114,0.0-8.0-0.74,616494f1ae4537c01914c758,650c16f0f2faf8d7a0d14c09,651c1cf402e85bb8995fdc12,null,null,"<p style=""font-size: 60px; font-family: BACS"">PCPDhOdOP</p>",,,,,,,,,,
html-keyboard-response,83,1526124,0.0-8.0-0.75,616494f1ae4537c01914c758,650c16f0f2faf8d7a0d14c09,651c1cf402e85bb8995fdc12,null,null,"<p style=""font-size: 60px; font-family: BACS"">rvOvUvUdm</p>",,,,,,,,,,
html-keyboard-response,84,1527140,0.0-8.0-0.76,616494f1ae4537c01914c758,650c16f0f2faf8d7a0d14c09,651c1cf402e85bb8995fdc12,null,null,"<p style=""font-size: 60px; font-family: BACS"">bYuQcrdY</p>",,,,,,,,,,
html-keyboard-response,85,1528148,0.0-8.0-0.77,616494f1ae4537c01914c758,650c16f0f2faf8d7a0d14c09,651c1cf402e85bb8995fdc12,null,null,"<p style=""font-size: 60px; font-family: BACS"">UdlGQvUdm</p>",,,,,,,,,,
html-keyboard-response,86,1529155,0.0-8.0-0.78,616494f1ae4537c01914c758,650c16f0f2faf8d7a0d14c09,651c1cf402e85bb8995fdc12,null,null,"<p style=""font-size: 60px; font-family: BACS"">dYdAOdOP</p>",,,,,,,,,,
html-keyboard-response,87,1530164,0.0-8.0-0.79,616494f1ae4537c01914c758,650c16f0f2faf8d7a0d14c09,651c1cf402e85bb8995fdc12,null,null,"<p style=""font-size: 60px; font-family: BACS"">dOYmldPc</p>",,,,,,,,,,
html-keyboard-response,88,1533553,0.0-9.0,616494f1ae4537c01914c758,650c16f0f2faf8d7a0d14c09,651c1cf402e85bb8995fdc12,3387, ,"<p>Great, you've seen the first block of words. You may now take a short break.</p>
      <p>Press the spacebar when you're ready to continue.</p>",,,,,,,,,,
html-keyboard-response,89,1534568,0.0-10.0-0.0,616494f1ae4537c01914c758,650c16f0f2faf8d7a0d14c09,651c1cf402e85bb8995fdc12,null,null,"<p style=""font-size: 60px; font-family: BACS"">AlNULcO</p>",,,,,,,,,,
html-keyboard-response,90,1535577,0.0-10.0-0.1,616494f1ae4537c01914c758,650c16f0f2faf8d7a0d14c09,651c1cf402e85bb8995fdc12,null,null,"<p style=""font-size: 60px; font-family: BACS"">PMPtkOdOP</p>",,,,,,,,,,
html-keyboard-response,91,1536586,0.0-10.0-0.2,616494f1ae4537c01914c758,650c16f0f2faf8d7a0d14c09,651c1cf402e85bb8995fdc12,null,null,"<p style=""font-size: 60px; font-family: BACS"">UdlGQLUOk</p>",,,,,,,,,,
html-keyboard-response,92,1537597,0.0-10.0-0.3,616494f1ae4537c01914c758,650c16f0f2faf8d7a0d14c09,651c1cf402e85bb8995fdc12,null,null,"<p style=""font-size: 60px; font-family: BACS"">rvOvUuda</p>",,,,,,,,,,
html-keyboard-response,93,1538613,0.0-10.0-0.4,616494f1ae4537c01914c758,650c16f0f2faf8d7a0d14c09,651c1cf402e85bb8995fdc12,null,null,"<p style=""font-size: 60px; font-family: BACS"">hBmMCBRDh</p>",,,,,,,,,,
html-keyboard-response,94,1539630,0.0-10.0-0.5,616494f1ae4537c01914c758,650c16f0f2faf8d7a0d14c09,651c1cf402e85bb8995fdc12,null,null,"<p style=""font-size: 60px; font-family: BACS"">cRElDOdOP</p>",,,,,,,,,,
html-keyboard-response,95,1540646,0.0-10.0-0.6,616494f1ae4537c01914c758,650c16f0f2faf8d7a0d14c09,651c1cf402e85bb8995fdc12,null,null,"<p style=""font-size: 60px; font-family: BACS"">PCPDhbTE</p>",,,,,,,,,,
html-keyboard-response,96,1541648,0.0-10.0-0.7,616494f1ae4537c01914c758,650c16f0f2faf8d7a0d14c09,651c1cf402e85bb8995fdc12,null,null,"<p style=""font-size: 60px; font-family: BACS"">bYuQvUdm</p>",,,,,,,,,,
html-keyboard-response,97,1542664,0.0-10.0-0.8,616494f1ae4537c01914c758,650c16f0f2faf8d7a0d14c09,651c1cf402e85bb8995fdc12,null,null,"<p style=""font-size: 60px; font-family: BACS"">cRElDbTE</p>",,,,,,,,,,
html-keyboard-response,98,1543680,0.0-10.0-0.9,616494f1ae4537c01914c758,650c16f0f2faf8d7a0d14c09,651c1cf402e85bb8995fdc12,null,null,"<p style=""font-size: 60px; font-family: BACS"">hBmMCdPc</p>",,,,,,,,,,
html-keyboard-response,99,1544684,0.0-10.0-0.10,616494f1ae4537c01914c758,650c16f0f2faf8d7a0d14c09,651c1cf402e85bb8995fdc12,null,null,"<p style=""font-size: 60px; font-family: BACS"">vmuLlLcO</p>",,,,,,,,,,
html-keyboard-response,100,1545699,0.0-10.0-0.11,616494f1ae4537c01914c758,650c16f0f2faf8d7a0d14c09,651c1cf402e85bb8995fdc12,null,null,"<p style=""font-size: 60px; font-family: BACS"">YKRkBRDh</p>",,,,,,,,,,
html-keyboard-response,101,1546703,0.0-10.0-0.12,616494f1ae4537c01914c758,650c16f0f2faf8d7a0d14c09,651c1cf402e85bb8995fdc12,null,null,"<p style=""font-size: 60px; font-family: BACS"">bvkruda</p>",,,,,,,,,,
html-keyboard-response,102,1547716,0.0-10.0-0.13,616494f1ae4537c01914c758,650c16f0f2faf8d7a0d14c09,651c1cf402e85bb8995fdc12,null,null,"<p style=""font-size: 60px; font-family: BACS"">PCPDhdPc</p>",,,,,,,,,,
html-keyboard-response,103,1548718,0.0-10.0-0.14,616494f1ae4537c01914c758,650c16f0f2faf8d7a0d14c09,651c1cf402e85bb8995fdc12,null,null,"<p style=""font-size: 60px; font-family: BACS"">hAROKBRDh</p>",,,,,,,,,,
html-keyboard-response,104,1549733,0.0-10.0-0.15,616494f1ae4537c01914c758,650c16f0f2faf8d7a0d14c09,651c1cf402e85bb8995fdc12,null,null,"<p style=""font-size: 60px; font-family: BACS"">YKRkbTE</p>",,,,,,,,,,
html-keyboard-response,105,1550739,0.0-10.0-0.16,616494f1ae4537c01914c758,650c16f0f2faf8d7a0d14c09,651c1cf402e85bb8995fdc12,null,null,"<p style=""font-size: 60px; font-family: BACS"">cRElDdPc</p>",,,,,,,,,,
html-keyboard-response,106,1551751,0.0-10.0-0.17,616494f1ae4537c01914c758,650c16f0f2faf8d7a0d14c09,651c1cf402e85bb8995fdc12,null,null,"<p style=""font-size: 60px; font-family: BACS"">dOYmlTbk</p>",,,,,,,,,,
html-keyboard-response,107,1552765,0.0-10.0-0.18,616494f1ae4537c01914c758,650c16f0f2faf8d7a0d14c09,651c1cf402e85bb8995fdc12,null,null,"<p style=""font-size: 60px; font-family: BACS"">bvkrcrdY</p>",,,,,,,,,,
html-keyboard-response,108,1553780,0.0-10.0-0.19,616494f1ae4537c01914c758,650c16f0f2faf8d7a0d14c09,651c1cf402e85bb8995fdc12,null,null,"<p style=""font-size: 60px; font-family: BACS"">laYmrLcO</p>",,,,,,,,,,
html-keyboard-response,109,1554790,0.0-10.0-0.20,616494f1ae4537c01914c758,650c16f0f2faf8d7a0d14c09,651c1cf402e85bb8995fdc12,null,null,"<p style=""font-size: 60px; font-family: BACS"">UdlGQuda</p>",,,,,,,,,,
html-keyboard-response,110,1555803,0.0-10.0-0.21,616494f1ae4537c01914c758,650c16f0f2faf8d7a0d14c09,651c1cf402e85bb8995fdc12,null,null,"<p style=""font-size: 60px; font-family: BACS"">AlNUvUdm</p>",,,,,,,,,,
html-keyboard-response,111,1556818,0.0-10.0-0.22,616494f1ae4537c01914c758,650c16f0f2faf8d7a0d14c09,651c1cf402e85bb8995fdc12,null,null,"<p style=""font-size: 60px; font-family: BACS"">laYmruda</p>",,,,,,,,,,
html-keyboard-response,112,1557830,0.0-10.0-0.23,616494f1ae4537c01914c758,650c16f0f2faf8d7a0d14c09,651c1cf402e85bb8995fdc12,null,null,"<p style=""font-size: 60px; font-family: BACS"">OcYMbTE</p>",,,,,,,,,,
html-keyboard-response,113,1558842,0.0-10.0-0.24,616494f1ae4537c01914c758,650c16f0f2faf8d7a0d14c09,651c1cf402e85bb8995fdc12,null,null,"<p style=""font-size: 60px; font-family: BACS"">GLYrALcO</p>",,,,,,,,,,
html-keyboard-response,114,1559852,0.0-10.0-0.25,616494f1ae4537c01914c758,650c16f0f2faf8d7a0d14c09,651c1cf402e85bb8995fdc12,null,null,"<p style=""font-size: 60px; font-family: BACS"">TAdhMBRDh</p>",,,,,,,,,,
html-keyboard-response,115,1560862,0.0-10.0-0.26,616494f1ae4537c01914c758,650c16f0f2faf8d7a0d14c09,651c1cf402e85bb8995fdc12,null,null,"<p style=""font-size: 60px; font-family: BACS"">hBmMCOdOP</p>",,,,,,,,,,
html-keyboard-response,116,1561873,0.0-10.0-0.27,616494f1ae4537c01914c758,650c16f0f2faf8d7a0d14c09,651c1cf402e85bb8995fdc12,null,null,"<p style=""font-size: 60px; font-family: BACS"">vmuLlcrdY</p>",,,,,,,,,,
html-keyboard-response,117,1562885,0.0-10.0-0.28,616494f1ae4537c01914c758,650c16f0f2faf8d7a0d14c09,651c1cf402e85bb8995fdc12,null,null,"<p style=""font-size: 60px; font-family: BACS"">dYdAbTE</p>",,,,,,,,,,
html-keyboard-response,118,1563899,0.0-10.0-0.29,616494f1ae4537c01914c758,650c16f0f2faf8d7a0d14c09,651c1cf402e85bb8995fdc12,null,null,"<p style=""font-size: 60px; font-family: BACS"">YKRkdPc</p>",,,,,,,,,,
html-keyboard-response,119,1564905,0.0-10.0-0.30,616494f1ae4537c01914c758,650c16f0f2faf8d7a0d14c09,651c1cf402e85bb8995fdc12,null,null,"<p style=""font-size: 60px; font-family: BACS"">hBmMCbTE</p>",,,,,,,,,,
html-keyboard-response,120,1565911,0.0-10.0-0.31,616494f1ae4537c01914c758,650c16f0f2faf8d7a0d14c09,651c1cf402e85bb8995fdc12,null,null,"<p style=""font-size: 60px; font-family: BACS"">GLYrAuda</p>",,,,,,,,,,
html-keyboard-response,121,1566919,0.0-10.0-0.32,616494f1ae4537c01914c758,650c16f0f2faf8d7a0d14c09,651c1cf402e85bb8995fdc12,null,null,"<p style=""font-size: 60px; font-family: BACS"">bYuQcrdY</p>",,,,,,,,,,
html-keyboard-response,122,1567927,0.0-10.0-0.33,616494f1ae4537c01914c758,650c16f0f2faf8d7a0d14c09,651c1cf402e85bb8995fdc12,null,null,"<p style=""font-size: 60px; font-family: BACS"">PCPDhOdOP</p>",,,,,,,,,,
html-keyboard-response,123,1568933,0.0-10.0-0.34,616494f1ae4537c01914c758,650c16f0f2faf8d7a0d14c09,651c1cf402e85bb8995fdc12,null,null,"<p style=""font-size: 60px; font-family: BACS"">YKRkTbk</p>",,,,,,,,,,
html-keyboard-response,124,1569934,0.0-10.0-0.35,616494f1ae4537c01914c758,650c16f0f2faf8d7a0d14c09,651c1cf402e85bb8995fdc12,null,null,"<p style=""font-size: 60px; font-family: BACS"">UdlGQLcO</p>",,,,,,,,,,
html-keyboard-response,125,1570941,0.0-10.0-0.36,616494f1ae4537c01914c758,650c16f0f2faf8d7a0d14c09,651c1cf402e85bb8995fdc12,null,null,"<p style=""font-size: 60px; font-family: BACS"">hAROKOdOP</p>",,,,,,,,,,
html-keyboard-response,126,1571951,0.0-10.0-0.37,616494f1ae4537c01914c758,650c16f0f2faf8d7a0d14c09,651c1cf402e85bb8995fdc12,null,null,"<p style=""font-size: 60px; font-family: BACS"">TAdhMdPc</p>",,,,,,,,,,
html-keyboard-response,127,1572956,0.0-10.0-0.38,616494f1ae4537c01914c758,650c16f0f2faf8d7a0d14c09,651c1cf402e85bb8995fdc12,null,null,"<p style=""font-size: 60px; font-family: BACS"">hAROKTbk</p>",,,,,,,,,,
html-keyboard-response,128,1573967,0.0-10.0-0.39,616494f1ae4537c01914c758,650c16f0f2faf8d7a0d14c09,651c1cf402e85bb8995fdc12,null,null,"<p style=""font-size: 60px; font-family: BACS"">OcYMBRDh</p>",,,,,,,,,,
html-keyboard-response,129,1574978,0.0-10.0-0.40,616494f1ae4537c01914c758,650c16f0f2faf8d7a0d14c09,651c1cf402e85bb8995fdc12,null,null,"<p style=""font-size: 60px; font-family: BACS"">UdlGQvUdm</p>",,,,,,,,,,
html-keyboard-response,130,1575988,0.0-10.0-0.41,616494f1ae4537c01914c758,650c16f0f2faf8d7a0d14c09,651c1cf402e85bb8995fdc12,null,null,"<p style=""font-size: 60px; font-family: BACS"">AbkaLcO</p>",,,,,,,,,,
html-keyboard-response,131,1576999,0.0-10.0-0.42,616494f1ae4537c01914c758,650c16f0f2faf8d7a0d14c09,651c1cf402e85bb8995fdc12,null,null,"<p style=""font-size: 60px; font-family: BACS"">bvkrvUdm</p>",,,,,,,,,,
html-keyboard-response,132,1578013,0.0-10.0-0.43,616494f1ae4537c01914c758,650c16f0f2faf8d7a0d14c09,651c1cf402e85bb8995fdc12,null,null,"<p style=""font-size: 60px; font-family: BACS"">aYaNcrdY</p>",,,,,,,,,,
html-keyboard-response,133,1579027,0.0-10.0-0.44,616494f1ae4537c01914c758,650c16f0f2faf8d7a0d14c09,651c1cf402e85bb8995fdc12,null,null,"<p style=""font-size: 60px; font-family: BACS"">laYmrvUdm</p>",,,,,,,,,,
html-keyboard-response,134,1580041,0.0-10.0-0.45,616494f1ae4537c01914c758,650c16f0f2faf8d7a0d14c09,651c1cf402e85bb8995fdc12,null,null,"<p style=""font-size: 60px; font-family: BACS"">OcYMTbk</p>",,,,,,,,,,
html-keyboard-response,135,1581054,0.0-10.0-0.46,616494f1ae4537c01914c758,650c16f0f2faf8d7a0d14c09,651c1cf402e85bb8995fdc12,null,null,"<p style=""font-size: 60px; font-family: BACS"">vmuLlLUOk</p>",,,,,,,,,,
html-keyboard-response,136,1582058,0.0-10.0-0.47,616494f1ae4537c01914c758,650c16f0f2faf8d7a0d14c09,651c1cf402e85bb8995fdc12,null,null,"<p style=""font-size: 60px; font-family: BACS"">dOYmlbTE</p>",,,,,,,,,,
html-keyboard-response,137,1583073,0.0-10.0-0.48,616494f1ae4537c01914c758,650c16f0f2faf8d7a0d14c09,651c1cf402e85bb8995fdc12,null,null,"<p style=""font-size: 60px; font-family: BACS"">AbkavUdm</p>",,,,,,,,,,
html-keyboard-response,138,1584086,0.0-10.0-0.49,616494f1ae4537c01914c758,650c16f0f2faf8d7a0d14c09,651c1cf402e85bb8995fdc12,null,null,"<p style=""font-size: 60px; font-family: BACS"">bYuQLUOk</p>",,,,,,,,,,
html-keyboard-response,139,1585091,0.0-10.0-0.50,616494f1ae4537c01914c758,650c16f0f2faf8d7a0d14c09,651c1cf402e85bb8995fdc12,null,null,"<p style=""font-size: 60px; font-family: BACS"">vmuLluda</p>",,,,,,,,,,
html-keyboard-response,140,1586105,0.0-10.0-0.51,616494f1ae4537c01914c758,650c16f0f2faf8d7a0d14c09,651c1cf402e85bb8995fdc12,null,null,"<p style=""font-size: 60px; font-family: BACS"">dOYmlBRDh</p>",,,,,,,,,,
html-keyboard-response,141,1587119,0.0-10.0-0.52,616494f1ae4537c01914c758,650c16f0f2faf8d7a0d14c09,651c1cf402e85bb8995fdc12,null,null,"<p style=""font-size: 60px; font-family: BACS"">AlNULUOk</p>",,,,,,,,,,
html-keyboard-response,142,1588135,0.0-10.0-0.53,616494f1ae4537c01914c758,650c16f0f2faf8d7a0d14c09,651c1cf402e85bb8995fdc12,null,null,"<p style=""font-size: 60px; font-family: BACS"">AbkacrdY</p>",,,,,,,,,,
html-keyboard-response,143,1589137,0.0-10.0-0.54,616494f1ae4537c01914c758,650c16f0f2faf8d7a0d14c09,651c1cf402e85bb8995fdc12,null,null,"<p style=""font-size: 60px; font-family: BACS"">rvOvULUOk</p>",,,,,,,,,,
html-keyboard-response,144,1590152,0.0-10.0-0.55,616494f1ae4537c01914c758,650c16f0f2faf8d7a0d14c09,651c1cf402e85bb8995fdc12,null,null,"<p style=""font-size: 60px; font-family: BACS"">PMPtkTbk</p>",,,,,,,,,,
html-keyboard-response,145,1591167,0.0-10.0-0.56,616494f1ae4537c01914c758,650c16f0f2faf8d7a0d14c09,651c1cf402e85bb8995fdc12,null,null,"<p style=""font-size: 60px; font-family: BACS"">dYdAdPc</p>",,,,,,,,,,
html-keyboard-response,146,1592176,0.0-10.0-0.57,616494f1ae4537c01914c758,650c16f0f2faf8d7a0d14c09,651c1cf402e85bb8995fdc12,null,null,"<p style=""font-size: 60px; font-family: BACS"">aYaNvUdm</p>",,,,,,,,,,
html-keyboard-response,147,1593186,0.0-10.0-0.58,616494f1ae4537c01914c758,650c16f0f2faf8d7a0d14c09,651c1cf402e85bb8995fdc12,null,null,"<p style=""font-size: 60px; font-family: BACS"">TAdhMTbk</p>",,,,,,,,,,
html-keyboard-response,148,1594199,0.0-10.0-0.59,616494f1ae4537c01914c758,650c16f0f2faf8d7a0d14c09,651c1cf402e85bb8995fdc12,null,null,"<p style=""font-size: 60px; font-family: BACS"">rvOvUvUdm</p>",,,,,,,,,,
html-keyboard-response,149,1595212,0.0-10.0-0.60,616494f1ae4537c01914c758,650c16f0f2faf8d7a0d14c09,651c1cf402e85bb8995fdc12,null,null,"<p style=""font-size: 60px; font-family: BACS"">bYuQLcO</p>",,,,,,,,,,
html-keyboard-response,150,1596223,0.0-10.0-0.61,616494f1ae4537c01914c758,650c16f0f2faf8d7a0d14c09,651c1cf402e85bb8995fdc12,null,null,"<p style=""font-size: 60px; font-family: BACS"">rvOvUcrdY</p>",,,,,,,,,,
html-keyboard-response,151,1597234,0.0-10.0-0.62,616494f1ae4537c01914c758,650c16f0f2faf8d7a0d14c09,651c1cf402e85bb8995fdc12,null,null,"<p style=""font-size: 60px; font-family: BACS"">bvkrLUOk</p>",,,,,,,,,,
html-keyboard-response,152,1598248,0.0-10.0-0.63,616494f1ae4537c01914c758,650c16f0f2faf8d7a0d14c09,651c1cf402e85bb8995fdc12,null,null,"<p style=""font-size: 60px; font-family: BACS"">aYaNLcO</p>",,,,,,,,,,
html-keyboard-response,153,1599262,0.0-10.0-0.64,616494f1ae4537c01914c758,650c16f0f2faf8d7a0d14c09,651c1cf402e85bb8995fdc12,null,null,"<p style=""font-size: 60px; font-family: BACS"">GLYrALUOk</p>",,,,,,,,,,
html-keyboard-response,154,1600279,0.0-10.0-0.65,616494f1ae4537c01914c758,650c16f0f2faf8d7a0d14c09,651c1cf402e85bb8995fdc12,null,null,"<p style=""font-size: 60px; font-family: BACS"">cRElDTbk</p>",,,,,,,,,,
html-keyboard-response,155,1601294,0.0-10.0-0.66,616494f1ae4537c01914c758,650c16f0f2faf8d7a0d14c09,651c1cf402e85bb8995fdc12,null,null,"<p style=""font-size: 60px; font-family: BACS"">PCPDhBRDh</p>",,,,,,,,,,
html-keyboard-response,156,1602299,0.0-10.0-0.67,616494f1ae4537c01914c758,650c16f0f2faf8d7a0d14c09,651c1cf402e85bb8995fdc12,null,null,"<p style=""font-size: 60px; font-family: BACS"">aYaNuda</p>",,,,,,,,,,
html-keyboard-response,157,1603315,0.0-10.0-0.68,616494f1ae4537c01914c758,650c16f0f2faf8d7a0d14c09,651c1cf402e85bb8995fdc12,null,null,"<p style=""font-size: 60px; font-family: BACS"">hAROKbTE</p>",,,,,,,,,,
html-keyboard-response,158,1604328,0.0-10.0-0.69,616494f1ae4537c01914c758,650c16f0f2faf8d7a0d14c09,651c1cf402e85bb8995fdc12,null,null,"<p style=""font-size: 60px; font-family: BACS"">OcYMOdOP</p>",,,,,,,,,,
html-keyboard-response,159,1605342,0.0-10.0-0.70,616494f1ae4537c01914c758,650c16f0f2faf8d7a0d14c09,651c1cf402e85bb8995fdc12,null,null,"<p style=""font-size: 60px; font-family: BACS"">PMPtkBRDh</p>",,,,,,,,,,
html-keyboard-response,160,1606358,0.0-10.0-0.71,616494f1ae4537c01914c758,650c16f0f2faf8d7a0d14c09,651c1cf402e85bb8995fdc12,null,null,"<p style=""font-size: 60px; font-family: BACS"">GLYrAcrdY</p>",,,,,,,,,,
html-keyboard-response,161,1607369,0.0-10.0-0.72,616494f1ae4537c01914c758,650c16f0f2faf8d7a0d14c09,651c1cf402e85bb8995fdc12,null,null,"<p style=""font-size: 60px; font-family: BACS"">dYdATbk</p>",,,,,,,,,,
html-keyboard-response,162,1608382,0.0-10.0-0.73,616494f1ae4537c01914c758,650c16f0f2faf8d7a0d14c09,651c1cf402e85bb8995fdc12,null,null,"<p style=""font-size: 60px; font-family: BACS"">laYmrLUOk</p>",,,,,,,,,,
html-keyboard-response,163,1609393,0.0-10.0-0.74,616494f1ae4537c01914c758,650c16f0f2faf8d7a0d14c09,651c1cf402e85bb8995fdc12,null,null,"<p style=""font-size: 60px; font-family: BACS"">AlNUcrdY</p>",,,,,,,,,,
html-keyboard-response,164,1610404,0.0-10.0-0.75,616494f1ae4537c01914c758,650c16f0f2faf8d7a0d14c09,651c1cf402e85bb8995fdc12,null,null,"<p style=""font-size: 60px; font-family: BACS"">dOYmldPc</p>",,,,,,,,,,
html-keyboard-response,165,1611415,0.0-10.0-0.76,616494f1ae4537c01914c758,650c16f0f2faf8d7a0d14c09,651c1cf402e85bb8995fdc12,null,null,"<p style=""font-size: 60px; font-family: BACS"">TAdhMOdOP</p>",,,,,,,,,,
html-keyboard-response,166,1612430,0.0-10.0-0.77,616494f1ae4537c01914c758,650c16f0f2faf8d7a0d14c09,651c1cf402e85bb8995fdc12,null,null,"<p style=""font-size: 60px; font-family: BACS"">Abkauda</p>",,,,,,,,,,
html-keyboard-response,167,1613442,0.0-10.0-0.78,616494f1ae4537c01914c758,650c16f0f2faf8d7a0d14c09,651c1cf402e85bb8995fdc12,null,null,"<p style=""font-size: 60px; font-family: BACS"">PMPtkdPc</p>",,,,,,,,,,
html-keyboard-response,168,1614454,0.0-10.0-0.79,616494f1ae4537c01914c758,650c16f0f2faf8d7a0d14c09,651c1cf402e85bb8995fdc12,null,null,"<p style=""font-size: 60px; font-family: BACS"">dYdAOdOP</p>",,,,,,,,,,
html-keyboard-response,169,1720112,0.0-11.0,616494f1ae4537c01914c758,650c16f0f2faf8d7a0d14c09,651c1cf402e85bb8995fdc12,105656, ,"<p>Great, you've seen the second block of words. You may now take a short break.</p>
      <p>Press the spacebar when you're ready to continue.</p>",,,,,,,,,,
html-keyboard-response,170,1721116,0.0-12.0-0.0,616494f1ae4537c01914c758,650c16f0f2faf8d7a0d14c09,651c1cf402e85bb8995fdc12,null,null,"<p style=""font-size: 60px; font-family: BACS"">vmuLlLUOk</p>",,,,,,,,,,
html-keyboard-response,171,1722132,0.0-12.0-0.1,616494f1ae4537c01914c758,650c16f0f2faf8d7a0d14c09,651c1cf402e85bb8995fdc12,null,null,"<p style=""font-size: 60px; font-family: BACS"">YKRkTbk</p>",,,,,,,,,,
html-keyboard-response,172,1723134,0.0-12.0-0.2,616494f1ae4537c01914c758,650c16f0f2faf8d7a0d14c09,651c1cf402e85bb8995fdc12,null,null,"<p style=""font-size: 60px; font-family: BACS"">PMPtkdPc</p>",,,,,,,,,,
html-keyboard-response,173,1724138,0.0-12.0-0.3,616494f1ae4537c01914c758,650c16f0f2faf8d7a0d14c09,651c1cf402e85bb8995fdc12,null,null,"<p style=""font-size: 60px; font-family: BACS"">hAROKTbk</p>",,,,,,,,,,
html-keyboard-response,174,1725146,0.0-12.0-0.4,616494f1ae4537c01914c758,650c16f0f2faf8d7a0d14c09,651c1cf402e85bb8995fdc12,null,null,"<p style=""font-size: 60px; font-family: BACS"">laYmrLUOk</p>",,,,,,,,,,
html-keyboard-response,175,1726151,0.0-12.0-0.5,616494f1ae4537c01914c758,650c16f0f2faf8d7a0d14c09,651c1cf402e85bb8995fdc12,null,null,"<p style=""font-size: 60px; font-family: BACS"">OcYMbTE</p>",,,,,,,,,,
html-keyboard-response,176,1727152,0.0-12.0-0.6,616494f1ae4537c01914c758,650c16f0f2faf8d7a0d14c09,651c1cf402e85bb8995fdc12,null,null,"<p style=""font-size: 60px; font-family: BACS"">TAdhMBRDh</p>",,,,,,,,,,
html-keyboard-response,177,1728167,0.0-12.0-0.7,616494f1ae4537c01914c758,650c16f0f2faf8d7a0d14c09,651c1cf402e85bb8995fdc12,null,null,"<p style=""font-size: 60px; font-family: BACS"">dYdAbTE</p>",,,,,,,,,,
html-keyboard-response,178,1729183,0.0-12.0-0.8,616494f1ae4537c01914c758,650c16f0f2faf8d7a0d14c09,651c1cf402e85bb8995fdc12,null,null,"<p style=""font-size: 60px; font-family: BACS"">bYuQLUOk</p>",,,,,,,,,,
html-keyboard-response,179,1730184,0.0-12.0-0.9,616494f1ae4537c01914c758,650c16f0f2faf8d7a0d14c09,651c1cf402e85bb8995fdc12,null,null,"<p style=""font-size: 60px; font-family: BACS"">PMPtkBRDh</p>",,,,,,,,,,
html-keyboard-response,180,1731200,0.0-12.0-0.10,616494f1ae4537c01914c758,650c16f0f2faf8d7a0d14c09,651c1cf402e85bb8995fdc12,null,null,"<p style=""font-size: 60px; font-family: BACS"">TAdhMOdOP</p>",,,,,,,,,,
html-keyboard-response,181,1732201,0.0-12.0-0.11,616494f1ae4537c01914c758,650c16f0f2faf8d7a0d14c09,651c1cf402e85bb8995fdc12,null,null,"<p style=""font-size: 60px; font-family: BACS"">dOYmlTbk</p>",,,,,,,,,,
html-keyboard-response,182,1733216,0.0-12.0-0.12,616494f1ae4537c01914c758,650c16f0f2faf8d7a0d14c09,651c1cf402e85bb8995fdc12,null,null,"<p style=""font-size: 60px; font-family: BACS"">hBmMCbTE</p>",,,,,,,,,,
html-keyboard-response,183,1734228,0.0-12.0-0.13,616494f1ae4537c01914c758,650c16f0f2faf8d7a0d14c09,651c1cf402e85bb8995fdc12,null,null,"<p style=""font-size: 60px; font-family: BACS"">rvOvUvUdm</p>",,,,,,,,,,
html-keyboard-response,184,1735240,0.0-12.0-0.14,616494f1ae4537c01914c758,650c16f0f2faf8d7a0d14c09,651c1cf402e85bb8995fdc12,null,null,"<p style=""font-size: 60px; font-family: BACS"">vmuLluda</p>",,,,,,,,,,
html-keyboard-response,185,1736241,0.0-12.0-0.15,616494f1ae4537c01914c758,650c16f0f2faf8d7a0d14c09,651c1cf402e85bb8995fdc12,null,null,"<p style=""font-size: 60px; font-family: BACS"">bYuQLcO</p>",,,,,,,,,,
html-keyboard-response,186,1737258,0.0-12.0-0.16,616494f1ae4537c01914c758,650c16f0f2faf8d7a0d14c09,651c1cf402e85bb8995fdc12,null,null,"<p style=""font-size: 60px; font-family: BACS"">dYdAOdOP</p>",,,,,,,,,,
html-keyboard-response,187,1738259,0.0-12.0-0.17,616494f1ae4537c01914c758,650c16f0f2faf8d7a0d14c09,651c1cf402e85bb8995fdc12,null,null,"<p style=""font-size: 60px; font-family: BACS"">PCPDhdPc</p>",,,,,,,,,,
html-keyboard-response,188,1739269,0.0-12.0-0.18,616494f1ae4537c01914c758,650c16f0f2faf8d7a0d14c09,651c1cf402e85bb8995fdc12,null,null,"<p style=""font-size: 60px; font-family: BACS"">AbkacrdY</p>",,,,,,,,,,
html-keyboard-response,189,1740281,0.0-12.0-0.19,616494f1ae4537c01914c758,650c16f0f2faf8d7a0d14c09,651c1cf402e85bb8995fdc12,null,null,"<p style=""font-size: 60px; font-family: BACS"">GLYrALcO</p>",,,,,,,,,,
html-keyboard-response,190,1741285,0.0-12.0-0.20,616494f1ae4537c01914c758,650c16f0f2faf8d7a0d14c09,651c1cf402e85bb8995fdc12,null,null,"<p style=""font-size: 60px; font-family: BACS"">rvOvULUOk</p>",,,,,,,,,,
html-keyboard-response,191,1742290,0.0-12.0-0.21,616494f1ae4537c01914c758,650c16f0f2faf8d7a0d14c09,651c1cf402e85bb8995fdc12,null,null,"<p style=""font-size: 60px; font-family: BACS"">AbkavUdm</p>",,,,,,,,,,
html-keyboard-response,192,1743293,0.0-12.0-0.22,616494f1ae4537c01914c758,650c16f0f2faf8d7a0d14c09,651c1cf402e85bb8995fdc12,null,null,"<p style=""font-size: 60px; font-family: BACS"">GLYrAcrdY</p>",,,,,,,,,,
html-keyboard-response,193,1744308,0.0-12.0-0.23,616494f1ae4537c01914c758,650c16f0f2faf8d7a0d14c09,651c1cf402e85bb8995fdc12,null,null,"<p style=""font-size: 60px; font-family: BACS"">PCPDhOdOP</p>",,,,,,,,,,
html-keyboard-response,194,1745313,0.0-12.0-0.24,616494f1ae4537c01914c758,650c16f0f2faf8d7a0d14c09,651c1cf402e85bb8995fdc12,null,null,"<p style=""font-size: 60px; font-family: BACS"">YKRkdPc</p>",,,,,,,,,,
html-keyboard-response,195,1746318,0.0-12.0-0.25,616494f1ae4537c01914c758,650c16f0f2faf8d7a0d14c09,651c1cf402e85bb8995fdc12,null,null,"<p style=""font-size: 60px; font-family: BACS"">PCPDhBRDh</p>",,,,,,,,,,
html-keyboard-response,196,1747335,0.0-12.0-0.26,616494f1ae4537c01914c758,650c16f0f2faf8d7a0d14c09,651c1cf402e85bb8995fdc12,null,null,"<p style=""font-size: 60px; font-family: BACS"">cRElDbTE</p>",,,,,,,,,,
html-keyboard-response,197,1748342,0.0-12.0-0.27,616494f1ae4537c01914c758,650c16f0f2faf8d7a0d14c09,651c1cf402e85bb8995fdc12,null,null,"<p style=""font-size: 60px; font-family: BACS"">GLYrAuda</p>",,,,,,,,,,
html-keyboard-response,198,1749343,0.0-12.0-0.28,616494f1ae4537c01914c758,650c16f0f2faf8d7a0d14c09,651c1cf402e85bb8995fdc12,null,null,"<p style=""font-size: 60px; font-family: BACS"">TAdhMdPc</p>",,,,,,,,,,
html-keyboard-response,199,1750359,0.0-12.0-0.29,616494f1ae4537c01914c758,650c16f0f2faf8d7a0d14c09,651c1cf402e85bb8995fdc12,null,null,"<p style=""font-size: 60px; font-family: BACS"">PCPDhbTE</p>",,,,,,,,,,
html-keyboard-response,200,1751369,0.0-12.0-0.30,616494f1ae4537c01914c758,650c16f0f2faf8d7a0d14c09,651c1cf402e85bb8995fdc12,null,null,"<p style=""font-size: 60px; font-family: BACS"">vmuLlLcO</p>",,,,,,,,,,
html-keyboard-response,201,1752376,0.0-12.0-0.31,616494f1ae4537c01914c758,650c16f0f2faf8d7a0d14c09,651c1cf402e85bb8995fdc12,null,null,"<p style=""font-size: 60px; font-family: BACS"">dOYmlbTE</p>",,,,,,,,,,
html-keyboard-response,202,1753381,0.0-12.0-0.32,616494f1ae4537c01914c758,650c16f0f2faf8d7a0d14c09,651c1cf402e85bb8995fdc12,null,null,"<p style=""font-size: 60px; font-family: BACS"">OcYMBRDh</p>",,,,,,,,,,
html-keyboard-response,203,1754395,0.0-12.0-0.33,616494f1ae4537c01914c758,650c16f0f2faf8d7a0d14c09,651c1cf402e85bb8995fdc12,null,null,"<p style=""font-size: 60px; font-family: BACS"">PMPtkOdOP</p>",,,,,,,,,,
html-keyboard-response,204,1755402,0.0-12.0-0.34,616494f1ae4537c01914c758,650c16f0f2faf8d7a0d14c09,651c1cf402e85bb8995fdc12,null,null,"<p style=""font-size: 60px; font-family: BACS"">bvkrcrdY</p>",,,,,,,,,,
html-keyboard-response,205,1756404,0.0-12.0-0.35,616494f1ae4537c01914c758,650c16f0f2faf8d7a0d14c09,651c1cf402e85bb8995fdc12,null,null,"<p style=""font-size: 60px; font-family: BACS"">AlNUvUdm</p>",,,,,,,,,,
html-keyboard-response,206,1757412,0.0-12.0-0.36,616494f1ae4537c01914c758,650c16f0f2faf8d7a0d14c09,651c1cf402e85bb8995fdc12,null,null,"<p style=""font-size: 60px; font-family: BACS"">UdlGQLcO</p>",,,,,,,,,,
html-keyboard-response,207,1758426,0.0-12.0-0.37,616494f1ae4537c01914c758,650c16f0f2faf8d7a0d14c09,651c1cf402e85bb8995fdc12,null,null,"<p style=""font-size: 60px; font-family: BACS"">aYaNuda</p>",,,,,,,,,,
html-keyboard-response,208,1759428,0.0-12.0-0.38,616494f1ae4537c01914c758,650c16f0f2faf8d7a0d14c09,651c1cf402e85bb8995fdc12,null,null,"<p style=""font-size: 60px; font-family: BACS"">TAdhMTbk</p>",,,,,,,,,,
html-keyboard-response,209,1760435,0.0-12.0-0.39,616494f1ae4537c01914c758,650c16f0f2faf8d7a0d14c09,651c1cf402e85bb8995fdc12,null,null,"<p style=""font-size: 60px; font-family: BACS"">hAROKBRDh</p>",,,,,,,,,,
html-keyboard-response,210,1761443,0.0-12.0-0.40,616494f1ae4537c01914c758,650c16f0f2faf8d7a0d14c09,651c1cf402e85bb8995fdc12,null,null,"<p style=""font-size: 60px; font-family: BACS"">AlNULcO</p>",,,,,,,,,,
html-keyboard-response,211,1762455,0.0-12.0-0.41,616494f1ae4537c01914c758,650c16f0f2faf8d7a0d14c09,651c1cf402e85bb8995fdc12,null,null,"<p style=""font-size: 60px; font-family: BACS"">Abkauda</p>",,,,,,,,,,
html-keyboard-response,212,1763462,0.0-12.0-0.42,616494f1ae4537c01914c758,650c16f0f2faf8d7a0d14c09,651c1cf402e85bb8995fdc12,null,null,"<p style=""font-size: 60px; font-family: BACS"">OcYMTbk</p>",,,,,,,,,,
html-keyboard-response,213,1764476,0.0-12.0-0.43,616494f1ae4537c01914c758,650c16f0f2faf8d7a0d14c09,651c1cf402e85bb8995fdc12,null,null,"<p style=""font-size: 60px; font-family: BACS"">rvOvUuda</p>",,,,,,,,,,
html-keyboard-response,214,1765489,0.0-12.0-0.44,616494f1ae4537c01914c758,650c16f0f2faf8d7a0d14c09,651c1cf402e85bb8995fdc12,null,null,"<p style=""font-size: 60px; font-family: BACS"">dOYmldPc</p>",,,,,,,,,,
html-keyboard-response,215,1766505,0.0-12.0-0.45,616494f1ae4537c01914c758,650c16f0f2faf8d7a0d14c09,651c1cf402e85bb8995fdc12,null,null,"<p style=""font-size: 60px; font-family: BACS"">bYuQvUdm</p>",,,,,,,,,,
html-keyboard-response,216,1767521,0.0-12.0-0.46,616494f1ae4537c01914c758,650c16f0f2faf8d7a0d14c09,651c1cf402e85bb8995fdc12,null,null,"<p style=""font-size: 60px; font-family: BACS"">rvOvUcrdY</p>",,,,,,,,,,
html-keyboard-response,217,1768537,0.0-12.0-0.47,616494f1ae4537c01914c758,650c16f0f2faf8d7a0d14c09,651c1cf402e85bb8995fdc12,null,null,"<p style=""font-size: 60px; font-family: BACS"">UdlGQuda</p>",,,,,,,,,,
html-keyboard-response,218,1769540,0.0-12.0-0.48,616494f1ae4537c01914c758,650c16f0f2faf8d7a0d14c09,651c1cf402e85bb8995fdc12,null,null,"<p style=""font-size: 60px; font-family: BACS"">cRElDTbk</p>",,,,,,,,,,
html-keyboard-response,219,1770555,0.0-12.0-0.49,616494f1ae4537c01914c758,650c16f0f2faf8d7a0d14c09,651c1cf402e85bb8995fdc12,null,null,"<p style=""font-size: 60px; font-family: BACS"">AlNUcrdY</p>",,,,,,,,,,
html-keyboard-response,220,1771571,0.0-12.0-0.50,616494f1ae4537c01914c758,650c16f0f2faf8d7a0d14c09,651c1cf402e85bb8995fdc12,null,null,"<p style=""font-size: 60px; font-family: BACS"">OcYMOdOP</p>",,,,,,,,,,
html-keyboard-response,221,1772587,0.0-12.0-0.51,616494f1ae4537c01914c758,650c16f0f2faf8d7a0d14c09,651c1cf402e85bb8995fdc12,null,null,"<p style=""font-size: 60px; font-family: BACS"">UdlGQvUdm</p>",,,,,,,,,,
html-keyboard-response,222,1773588,0.0-12.0-0.52,616494f1ae4537c01914c758,650c16f0f2faf8d7a0d14c09,651c1cf402e85bb8995fdc12,null,null,"<p style=""font-size: 60px; font-family: BACS"">vmuLlcrdY</p>",,,,,,,,,,
html-keyboard-response,223,1774595,0.0-12.0-0.53,616494f1ae4537c01914c758,650c16f0f2faf8d7a0d14c09,651c1cf402e85bb8995fdc12,null,null,"<p style=""font-size: 60px; font-family: BACS"">hBmMCdPc</p>",,,,,,,,,,
html-keyboard-response,224,1775600,0.0-12.0-0.54,616494f1ae4537c01914c758,650c16f0f2faf8d7a0d14c09,651c1cf402e85bb8995fdc12,null,null,"<p style=""font-size: 60px; font-family: BACS"">bvkruda</p>",,,,,,,,,,
html-keyboard-response,225,1776611,0.0-12.0-0.55,616494f1ae4537c01914c758,650c16f0f2faf8d7a0d14c09,651c1cf402e85bb8995fdc12,null,null,"<p style=""font-size: 60px; font-family: BACS"">cRElDOdOP</p>",,,,,,,,,,
html-keyboard-response,226,1777622,0.0-12.0-0.56,616494f1ae4537c01914c758,650c16f0f2faf8d7a0d14c09,651c1cf402e85bb8995fdc12,null,null,"<p style=""font-size: 60px; font-family: BACS"">bvkrLUOk</p>",,,,,,,,,,
html-keyboard-response,227,1778637,0.0-12.0-0.57,616494f1ae4537c01914c758,650c16f0f2faf8d7a0d14c09,651c1cf402e85bb8995fdc12,null,null,"<p style=""font-size: 60px; font-family: BACS"">cRElDdPc</p>",,,,,,,,,,
html-keyboard-response,228,1779646,0.0-12.0-0.58,616494f1ae4537c01914c758,650c16f0f2faf8d7a0d14c09,651c1cf402e85bb8995fdc12,null,null,"<p style=""font-size: 60px; font-family: BACS"">aYaNcrdY</p>",,,,,,,,,,
html-keyboard-response,229,1780655,0.0-12.0-0.59,616494f1ae4537c01914c758,650c16f0f2faf8d7a0d14c09,651c1cf402e85bb8995fdc12,null,null,"<p style=""font-size: 60px; font-family: BACS"">laYmrLcO</p>",,,,,,,,,,
html-keyboard-response,230,1781663,0.0-12.0-0.60,616494f1ae4537c01914c758,650c16f0f2faf8d7a0d14c09,651c1cf402e85bb8995fdc12,null,null,"<p style=""font-size: 60px; font-family: BACS"">hBmMCBRDh</p>",,,,,,,,,,
html-keyboard-response,231,1782675,0.0-12.0-0.61,616494f1ae4537c01914c758,650c16f0f2faf8d7a0d14c09,651c1cf402e85bb8995fdc12,null,null,"<p style=""font-size: 60px; font-family: BACS"">bvkrvUdm</p>",,,,,,,,,,
html-keyboard-response,232,1783680,0.0-12.0-0.62,616494f1ae4537c01914c758,650c16f0f2faf8d7a0d14c09,651c1cf402e85bb8995fdc12,null,null,"<p style=""font-size: 60px; font-family: BACS"">aYaNLcO</p>",,,,,,,,,,
html-keyboard-response,233,1784695,0.0-12.0-0.63,616494f1ae4537c01914c758,650c16f0f2faf8d7a0d14c09,651c1cf402e85bb8995fdc12,null,null,"<p style=""font-size: 60px; font-family: BACS"">hBmMCOdOP</p>",,,,,,,,,,
html-keyboard-response,234,1785697,0.0-12.0-0.64,616494f1ae4537c01914c758,650c16f0f2faf8d7a0d14c09,651c1cf402e85bb8995fdc12,null,null,"<p style=""font-size: 60px; font-family: BACS"">YKRkBRDh</p>",,,,,,,,,,
html-keyboard-response,235,1786712,0.0-12.0-0.65,616494f1ae4537c01914c758,650c16f0f2faf8d7a0d14c09,651c1cf402e85bb8995fdc12,null,null,"<p style=""font-size: 60px; font-family: BACS"">PMPtkTbk</p>",,,,,,,,,,
html-keyboard-response,236,1787714,0.0-12.0-0.66,616494f1ae4537c01914c758,650c16f0f2faf8d7a0d14c09,651c1cf402e85bb8995fdc12,null,null,"<p style=""font-size: 60px; font-family: BACS"">GLYrALUOk</p>",,,,,,,,,,
html-keyboard-response,237,1788727,0.0-12.0-0.67,616494f1ae4537c01914c758,650c16f0f2faf8d7a0d14c09,651c1cf402e85bb8995fdc12,null,null,"<p style=""font-size: 60px; font-family: BACS"">bYuQcrdY</p>",,,,,,,,,,
html-keyboard-response,238,1789734,0.0-12.0-0.68,616494f1ae4537c01914c758,650c16f0f2faf8d7a0d14c09,651c1cf402e85bb8995fdc12,null,null,"<p style=""font-size: 60px; font-family: BACS"">UdlGQLUOk</p>",,,,,,,,,,
html-keyboard-response,239,1790743,0.0-12.0-0.69,616494f1ae4537c01914c758,650c16f0f2faf8d7a0d14c09,651c1cf402e85bb8995fdc12,null,null,"<p style=""font-size: 60px; font-family: BACS"">YKRkbTE</p>",,,,,,,,,,
html-keyboard-response,240,1791755,0.0-12.0-0.70,616494f1ae4537c01914c758,650c16f0f2faf8d7a0d14c09,651c1cf402e85bb8995fdc12,null,null,"<p style=""font-size: 60px; font-family: BACS"">dOYmlBRDh</p>",,,,,,,,,,
html-keyboard-response,241,1792763,0.0-12.0-0.71,616494f1ae4537c01914c758,650c16f0f2faf8d7a0d14c09,651c1cf402e85bb8995fdc12,null,null,"<p style=""font-size: 60px; font-family: BACS"">laYmrvUdm</p>",,,,,,,,,,
html-keyboard-response,242,1793777,0.0-12.0-0.72,616494f1ae4537c01914c758,650c16f0f2faf8d7a0d14c09,651c1cf402e85bb8995fdc12,null,null,"<p style=""font-size: 60px; font-family: BACS"">AbkaLcO</p>",,,,,,,,,,
html-keyboard-response,243,1794789,0.0-12.0-0.73,616494f1ae4537c01914c758,650c16f0f2faf8d7a0d14c09,651c1cf402e85bb8995fdc12,null,null,"<p style=""font-size: 60px; font-family: BACS"">dYdAdPc</p>",,,,,,,,,,
html-keyboard-response,244,1795801,0.0-12.0-0.74,616494f1ae4537c01914c758,650c16f0f2faf8d7a0d14c09,651c1cf402e85bb8995fdc12,null,null,"<p style=""font-size: 60px; font-family: BACS"">hAROKbTE</p>",,,,,,,,,,
html-keyboard-response,245,1796810,0.0-12.0-0.75,616494f1ae4537c01914c758,650c16f0f2faf8d7a0d14c09,651c1cf402e85bb8995fdc12,null,null,"<p style=""font-size: 60px; font-family: BACS"">aYaNvUdm</p>",,,,,,,,,,
html-keyboard-response,246,1797819,0.0-12.0-0.76,616494f1ae4537c01914c758,650c16f0f2faf8d7a0d14c09,651c1cf402e85bb8995fdc12,null,null,"<p style=""font-size: 60px; font-family: BACS"">hAROKOdOP</p>",,,,,,,,,,
html-keyboard-response,247,1798834,0.0-12.0-0.77,616494f1ae4537c01914c758,650c16f0f2faf8d7a0d14c09,651c1cf402e85bb8995fdc12,null,null,"<p style=""font-size: 60px; font-family: BACS"">laYmruda</p>",,,,,,,,,,
html-keyboard-response,248,1799845,0.0-12.0-0.78,616494f1ae4537c01914c758,650c16f0f2faf8d7a0d14c09,651c1cf402e85bb8995fdc12,null,null,"<p style=""font-size: 60px; font-family: BACS"">AlNULUOk</p>",,,,,,,,,,
html-keyboard-response,249,1800858,0.0-12.0-0.79,616494f1ae4537c01914c758,650c16f0f2faf8d7a0d14c09,651c1cf402e85bb8995fdc12,null,null,"<p style=""font-size: 60px; font-family: BACS"">dYdATbk</p>",,,,,,,,,,
html-keyboard-response,250,1901504,0.0-13.0,616494f1ae4537c01914c758,650c16f0f2faf8d7a0d14c09,651c1cf402e85bb8995fdc12,100645, ,"<p>Great, you've seen the third block of words. You may now take a short break.</p>
      <p>Press the spacebar when you're ready to continue.</p>",,,,,,,,,,
html-keyboard-response,251,1902518,0.0-14.0-0.0,616494f1ae4537c01914c758,650c16f0f2faf8d7a0d14c09,651c1cf402e85bb8995fdc12,null,null,"<p style=""font-size: 60px; font-family: BACS"">rvOvULUOk</p>",,,,,,,,,,
html-keyboard-response,252,1903520,0.0-14.0-0.1,616494f1ae4537c01914c758,650c16f0f2faf8d7a0d14c09,651c1cf402e85bb8995fdc12,null,null,"<p style=""font-size: 60px; font-family: BACS"">aYaNuda</p>",,,,,,,,,,
html-keyboard-response,253,1904534,0.0-14.0-0.2,616494f1ae4537c01914c758,650c16f0f2faf8d7a0d14c09,651c1cf402e85bb8995fdc12,null,null,"<p style=""font-size: 60px; font-family: BACS"">dYdAOdOP</p>",,,,,,,,,,
html-keyboard-response,254,1905535,0.0-14.0-0.3,616494f1ae4537c01914c758,650c16f0f2faf8d7a0d14c09,651c1cf402e85bb8995fdc12,null,null,"<p style=""font-size: 60px; font-family: BACS"">bvkruda</p>",,,,,,,,,,
html-keyboard-response,255,1906550,0.0-14.0-0.4,616494f1ae4537c01914c758,650c16f0f2faf8d7a0d14c09,651c1cf402e85bb8995fdc12,null,null,"<p style=""font-size: 60px; font-family: BACS"">PMPtkOdOP</p>",,,,,,,,,,
html-keyboard-response,256,1907552,0.0-14.0-0.5,616494f1ae4537c01914c758,650c16f0f2faf8d7a0d14c09,651c1cf402e85bb8995fdc12,null,null,"<p style=""font-size: 60px; font-family: BACS"">PCPDhdPc</p>",,,,,,,,,,
html-keyboard-response,257,1908557,0.0-14.0-0.6,616494f1ae4537c01914c758,650c16f0f2faf8d7a0d14c09,651c1cf402e85bb8995fdc12,null,null,"<p style=""font-size: 60px; font-family: BACS"">vmuLluda</p>",,,,,,,,,,
html-keyboard-response,258,1909568,0.0-14.0-0.7,616494f1ae4537c01914c758,650c16f0f2faf8d7a0d14c09,651c1cf402e85bb8995fdc12,null,null,"<p style=""font-size: 60px; font-family: BACS"">rvOvUvUdm</p>",,,,,,,,,,
html-keyboard-response,259,1910584,0.0-14.0-0.8,616494f1ae4537c01914c758,650c16f0f2faf8d7a0d14c09,651c1cf402e85bb8995fdc12,null,null,"<p style=""font-size: 60px; font-family: BACS"">dYdAdPc</p>",,,,,,,,,,
html-keyboard-response,260,1911585,0.0-14.0-0.9,616494f1ae4537c01914c758,650c16f0f2faf8d7a0d14c09,651c1cf402e85bb8995fdc12,null,null,"<p style=""font-size: 60px; font-family: BACS"">UdlGQLcO</p>",,,,,,,,,,
html-keyboard-response,261,1912602,0.0-14.0-0.10,616494f1ae4537c01914c758,650c16f0f2faf8d7a0d14c09,651c1cf402e85bb8995fdc12,null,null,"<p style=""font-size: 60px; font-family: BACS"">TAdhMdPc</p>",,,,,,,,,,
html-keyboard-response,262,1913603,0.0-14.0-0.11,616494f1ae4537c01914c758,650c16f0f2faf8d7a0d14c09,651c1cf402e85bb8995fdc12,null,null,"<p style=""font-size: 60px; font-family: BACS"">AlNUvUdm</p>",,,,,,,,,,
html-keyboard-response,263,1914618,0.0-14.0-0.12,616494f1ae4537c01914c758,650c16f0f2faf8d7a0d14c09,651c1cf402e85bb8995fdc12,null,null,"<p style=""font-size: 60px; font-family: BACS"">PCPDhbTE</p>",,,,,,,,,,
html-keyboard-response,264,1915636,0.0-14.0-0.13,616494f1ae4537c01914c758,650c16f0f2faf8d7a0d14c09,651c1cf402e85bb8995fdc12,null,null,"<p style=""font-size: 60px; font-family: BACS"">TAdhMOdOP</p>",,,,,,,,,,
html-keyboard-response,265,1916652,0.0-14.0-0.14,616494f1ae4537c01914c758,650c16f0f2faf8d7a0d14c09,651c1cf402e85bb8995fdc12,null,null,"<p style=""font-size: 60px; font-family: BACS"">dOYmlTbk</p>",,,,,,,,,,
html-keyboard-response,266,1917669,0.0-14.0-0.15,616494f1ae4537c01914c758,650c16f0f2faf8d7a0d14c09,651c1cf402e85bb8995fdc12,null,null,"<p style=""font-size: 60px; font-family: BACS"">YKRkBRDh</p>",,,,,,,,,,
html-keyboard-response,267,1918684,0.0-14.0-0.16,616494f1ae4537c01914c758,650c16f0f2faf8d7a0d14c09,651c1cf402e85bb8995fdc12,null,null,"<p style=""font-size: 60px; font-family: BACS"">dYdAbTE</p>",,,,,,,,,,
html-keyboard-response,268,1919685,0.0-14.0-0.17,616494f1ae4537c01914c758,650c16f0f2faf8d7a0d14c09,651c1cf402e85bb8995fdc12,null,null,"<p style=""font-size: 60px; font-family: BACS"">GLYrAcrdY</p>",,,,,,,,,,
html-keyboard-response,269,1920687,0.0-14.0-0.18,616494f1ae4537c01914c758,650c16f0f2faf8d7a0d14c09,651c1cf402e85bb8995fdc12,null,null,"<p style=""font-size: 60px; font-family: BACS"">AlNULUOk</p>",,,,,,,,,,
html-keyboard-response,270,1921702,0.0-14.0-0.19,616494f1ae4537c01914c758,650c16f0f2faf8d7a0d14c09,651c1cf402e85bb8995fdc12,null,null,"<p style=""font-size: 60px; font-family: BACS"">bYuQcrdY</p>",,,,,,,,,,
html-keyboard-response,271,1922704,0.0-14.0-0.20,616494f1ae4537c01914c758,650c16f0f2faf8d7a0d14c09,651c1cf402e85bb8995fdc12,null,null,"<p style=""font-size: 60px; font-family: BACS"">aYaNvUdm</p>",,,,,,,,,,
html-keyboard-response,272,1923719,0.0-14.0-0.21,616494f1ae4537c01914c758,650c16f0f2faf8d7a0d14c09,651c1cf402e85bb8995fdc12,null,null,"<p style=""font-size: 60px; font-family: BACS"">PCPDhOdOP</p>",,,,,,,,,,
html-keyboard-response,273,1924724,0.0-14.0-0.22,616494f1ae4537c01914c758,650c16f0f2faf8d7a0d14c09,651c1cf402e85bb8995fdc12,null,null,"<p style=""font-size: 60px; font-family: BACS"">aYaNLcO</p>",,,,,,,,,,
html-keyboard-response,274,1925734,0.0-14.0-0.23,616494f1ae4537c01914c758,650c16f0f2faf8d7a0d14c09,651c1cf402e85bb8995fdc12,null,null,"<p style=""font-size: 60px; font-family: BACS"">cRElDdPc</p>",,,,,,,,,,
html-keyboard-response,275,1926737,0.0-14.0-0.24,616494f1ae4537c01914c758,650c16f0f2faf8d7a0d14c09,651c1cf402e85bb8995fdc12,null,null,"<p style=""font-size: 60px; font-family: BACS"">YKRkTbk</p>",,,,,,,,,,
html-keyboard-response,276,1927751,0.0-14.0-0.25,616494f1ae4537c01914c758,650c16f0f2faf8d7a0d14c09,651c1cf402e85bb8995fdc12,null,null,"<p style=""font-size: 60px; font-family: BACS"">bYuQLcO</p>",,,,,,,,,,
html-keyboard-response,277,1928755,0.0-14.0-0.26,616494f1ae4537c01914c758,650c16f0f2faf8d7a0d14c09,651c1cf402e85bb8995fdc12,null,null,"<p style=""font-size: 60px; font-family: BACS"">cRElDOdOP</p>",,,,,,,,,,
html-keyboard-response,278,1929771,0.0-14.0-0.27,616494f1ae4537c01914c758,650c16f0f2faf8d7a0d14c09,651c1cf402e85bb8995fdc12,null,null,"<p style=""font-size: 60px; font-family: BACS"">TAdhMBRDh</p>",,,,,,,,,,
html-keyboard-response,279,1930787,0.0-14.0-0.28,616494f1ae4537c01914c758,650c16f0f2faf8d7a0d14c09,651c1cf402e85bb8995fdc12,null,null,"<p style=""font-size: 60px; font-family: BACS"">bYuQvUdm</p>",,,,,,,,,,
html-keyboard-response,280,1931804,0.0-14.0-0.29,616494f1ae4537c01914c758,650c16f0f2faf8d7a0d14c09,651c1cf402e85bb8995fdc12,null,null,"<p style=""font-size: 60px; font-family: BACS"">PMPtkBRDh</p>",,,,,,,,,,
html-keyboard-response,281,1932819,0.0-14.0-0.30,616494f1ae4537c01914c758,650c16f0f2faf8d7a0d14c09,651c1cf402e85bb8995fdc12,null,null,"<p style=""font-size: 60px; font-family: BACS"">OcYMbTE</p>",,,,,,,,,,
html-keyboard-response,282,1933822,0.0-14.0-0.31,616494f1ae4537c01914c758,650c16f0f2faf8d7a0d14c09,651c1cf402e85bb8995fdc12,null,null,"<p style=""font-size: 60px; font-family: BACS"">bvkrvUdm</p>",,,,,,,,,,
html-keyboard-response,283,1934836,0.0-14.0-0.32,616494f1ae4537c01914c758,650c16f0f2faf8d7a0d14c09,651c1cf402e85bb8995fdc12,null,null,"<p style=""font-size: 60px; font-family: BACS"">bYuQLUOk</p>",,,,,,,,,,
html-keyboard-response,284,1935839,0.0-14.0-0.33,616494f1ae4537c01914c758,650c16f0f2faf8d7a0d14c09,651c1cf402e85bb8995fdc12,null,null,"<p style=""font-size: 60px; font-family: BACS"">Abkauda</p>",,,,,,,,,,
html-keyboard-response,285,1936855,0.0-14.0-0.34,616494f1ae4537c01914c758,650c16f0f2faf8d7a0d14c09,651c1cf402e85bb8995fdc12,null,null,"<p style=""font-size: 60px; font-family: BACS"">UdlGQLUOk</p>",,,,,,,,,,
html-keyboard-response,286,1937871,0.0-14.0-0.35,616494f1ae4537c01914c758,650c16f0f2faf8d7a0d14c09,651c1cf402e85bb8995fdc12,null,null,"<p style=""font-size: 60px; font-family: BACS"">vmuLlcrdY</p>",,,,,,,,,,
html-keyboard-response,287,1938888,0.0-14.0-0.36,616494f1ae4537c01914c758,650c16f0f2faf8d7a0d14c09,651c1cf402e85bb8995fdc12,null,null,"<p style=""font-size: 60px; font-family: BACS"">hAROKTbk</p>",,,,,,,,,,
html-keyboard-response,288,1939903,0.0-14.0-0.37,616494f1ae4537c01914c758,650c16f0f2faf8d7a0d14c09,651c1cf402e85bb8995fdc12,null,null,"<p style=""font-size: 60px; font-family: BACS"">rvOvUuda</p>",,,,,,,,,,
html-keyboard-response,289,1940906,0.0-14.0-0.38,616494f1ae4537c01914c758,650c16f0f2faf8d7a0d14c09,651c1cf402e85bb8995fdc12,null,null,"<p style=""font-size: 60px; font-family: BACS"">hAROKOdOP</p>",,,,,,,,,,
html-keyboard-response,290,1941921,0.0-14.0-0.39,616494f1ae4537c01914c758,650c16f0f2faf8d7a0d14c09,651c1cf402e85bb8995fdc12,null,null,"<p style=""font-size: 60px; font-family: BACS"">GLYrALUOk</p>",,,,,,,,,,
html-keyboard-response,291,1942924,0.0-14.0-0.40,616494f1ae4537c01914c758,650c16f0f2faf8d7a0d14c09,651c1cf402e85bb8995fdc12,null,null,"<p style=""font-size: 60px; font-family: BACS"">cRElDTbk</p>",,,,,,,,,,
html-keyboard-response,292,1943938,0.0-14.0-0.41,616494f1ae4537c01914c758,650c16f0f2faf8d7a0d14c09,651c1cf402e85bb8995fdc12,null,null,"<p style=""font-size: 60px; font-family: BACS"">AbkavUdm</p>",,,,,,,,,,
html-keyboard-response,293,1944941,0.0-14.0-0.42,616494f1ae4537c01914c758,650c16f0f2faf8d7a0d14c09,651c1cf402e85bb8995fdc12,null,null,"<p style=""font-size: 60px; font-family: BACS"">hAROKBRDh</p>",,,,,,,,,,
html-keyboard-response,294,1945954,0.0-14.0-0.43,616494f1ae4537c01914c758,650c16f0f2faf8d7a0d14c09,651c1cf402e85bb8995fdc12,null,null,"<p style=""font-size: 60px; font-family: BACS"">PMPtkTbk</p>",,,,,,,,,,
html-keyboard-response,295,1946970,0.0-14.0-0.44,616494f1ae4537c01914c758,650c16f0f2faf8d7a0d14c09,651c1cf402e85bb8995fdc12,null,null,"<p style=""font-size: 60px; font-family: BACS"">hBmMCdPc</p>",,,,,,,,,,
html-keyboard-response,296,1947973,0.0-14.0-0.45,616494f1ae4537c01914c758,650c16f0f2faf8d7a0d14c09,651c1cf402e85bb8995fdc12,null,null,"<p style=""font-size: 60px; font-family: BACS"">vmuLlLcO</p>",,,,,,,,,,
html-keyboard-response,297,1948990,0.0-14.0-0.46,616494f1ae4537c01914c758,650c16f0f2faf8d7a0d14c09,651c1cf402e85bb8995fdc12,null,null,"<p style=""font-size: 60px; font-family: BACS"">hBmMCbTE</p>",,,,,,,,,,
html-keyboard-response,298,1950005,0.0-14.0-0.47,616494f1ae4537c01914c758,650c16f0f2faf8d7a0d14c09,651c1cf402e85bb8995fdc12,null,null,"<p style=""font-size: 60px; font-family: BACS"">YKRkdPc</p>",,,,,,,,,,
html-keyboard-response,299,1951006,0.0-14.0-0.48,616494f1ae4537c01914c758,650c16f0f2faf8d7a0d14c09,651c1cf402e85bb8995fdc12,null,null,"<p style=""font-size: 60px; font-family: BACS"">laYmrLcO</p>",,,,,,,,,,
html-keyboard-response,300,1952007,0.0-14.0-0.49,616494f1ae4537c01914c758,650c16f0f2faf8d7a0d14c09,651c1cf402e85bb8995fdc12,null,null,"<p style=""font-size: 60px; font-family: BACS"">UdlGQuda</p>",,,,,,,,,,
html-keyboard-response,301,1953013,0.0-14.0-0.50,616494f1ae4537c01914c758,650c16f0f2faf8d7a0d14c09,651c1cf402e85bb8995fdc12,null,null,"<p style=""font-size: 60px; font-family: BACS"">laYmrLUOk</p>",,,,,,,,,,
html-keyboard-response,302,1954030,0.0-14.0-0.51,616494f1ae4537c01914c758,650c16f0f2faf8d7a0d14c09,651c1cf402e85bb8995fdc12,null,null,"<p style=""font-size: 60px; font-family: BACS"">YKRkbTE</p>",,,,,,,,,,
html-keyboard-response,303,1955032,0.0-14.0-0.52,616494f1ae4537c01914c758,650c16f0f2faf8d7a0d14c09,651c1cf402e85bb8995fdc12,null,null,"<p style=""font-size: 60px; font-family: BACS"">OcYMTbk</p>",,,,,,,,,,
html-keyboard-response,304,1956035,0.0-14.0-0.53,616494f1ae4537c01914c758,650c16f0f2faf8d7a0d14c09,651c1cf402e85bb8995fdc12,null,null,"<p style=""font-size: 60px; font-family: BACS"">AlNUcrdY</p>",,,,,,,,,,
html-keyboard-response,305,1957037,0.0-14.0-0.54,616494f1ae4537c01914c758,650c16f0f2faf8d7a0d14c09,651c1cf402e85bb8995fdc12,null,null,"<p style=""font-size: 60px; font-family: BACS"">GLYrALcO</p>",,,,,,,,,,
html-keyboard-response,306,1958047,0.0-14.0-0.55,616494f1ae4537c01914c758,650c16f0f2faf8d7a0d14c09,651c1cf402e85bb8995fdc12,null,null,"<p style=""font-size: 60px; font-family: BACS"">PCPDhBRDh</p>",,,,,,,,,,
html-keyboard-response,307,1959064,0.0-14.0-0.56,616494f1ae4537c01914c758,650c16f0f2faf8d7a0d14c09,651c1cf402e85bb8995fdc12,null,null,"<p style=""font-size: 60px; font-family: BACS"">hAROKbTE</p>",,,,,,,,,,
html-keyboard-response,308,1960066,0.0-14.0-0.57,616494f1ae4537c01914c758,650c16f0f2faf8d7a0d14c09,651c1cf402e85bb8995fdc12,null,null,"<p style=""font-size: 60px; font-family: BACS"">rvOvUcrdY</p>",,,,,,,,,,
html-keyboard-response,309,1961082,0.0-14.0-0.58,616494f1ae4537c01914c758,650c16f0f2faf8d7a0d14c09,651c1cf402e85bb8995fdc12,null,null,"<p style=""font-size: 60px; font-family: BACS"">hBmMCBRDh</p>",,,,,,,,,,
html-keyboard-response,310,1962084,0.0-14.0-0.59,616494f1ae4537c01914c758,650c16f0f2faf8d7a0d14c09,651c1cf402e85bb8995fdc12,null,null,"<p style=""font-size: 60px; font-family: BACS"">dOYmldPc</p>",,,,,,,,,,
html-keyboard-response,311,1963097,0.0-14.0-0.60,616494f1ae4537c01914c758,650c16f0f2faf8d7a0d14c09,651c1cf402e85bb8995fdc12,null,null,"<p style=""font-size: 60px; font-family: BACS"">laYmrvUdm</p>",,,,,,,,,,
html-keyboard-response,312,1964110,0.0-14.0-0.61,616494f1ae4537c01914c758,650c16f0f2faf8d7a0d14c09,651c1cf402e85bb8995fdc12,null,null,"<p style=""font-size: 60px; font-family: BACS"">TAdhMTbk</p>",,,,,,,,,,
html-keyboard-response,313,1965115,0.0-14.0-0.62,616494f1ae4537c01914c758,650c16f0f2faf8d7a0d14c09,651c1cf402e85bb8995fdc12,null,null,"<p style=""font-size: 60px; font-family: BACS"">dOYmlbTE</p>",,,,,,,,,,
html-keyboard-response,314,1966120,0.0-14.0-0.63,616494f1ae4537c01914c758,650c16f0f2faf8d7a0d14c09,651c1cf402e85bb8995fdc12,null,null,"<p style=""font-size: 60px; font-family: BACS"">PMPtkdPc</p>",,,,,,,,,,
html-keyboard-response,315,1967130,0.0-14.0-0.64,616494f1ae4537c01914c758,650c16f0f2faf8d7a0d14c09,651c1cf402e85bb8995fdc12,null,null,"<p style=""font-size: 60px; font-family: BACS"">GLYrAuda</p>",,,,,,,,,,
html-keyboard-response,316,1968133,0.0-14.0-0.65,616494f1ae4537c01914c758,650c16f0f2faf8d7a0d14c09,651c1cf402e85bb8995fdc12,null,null,"<p style=""font-size: 60px; font-family: BACS"">bvkrcrdY</p>",,,,,,,,,,
html-keyboard-response,317,1969148,0.0-14.0-0.66,616494f1ae4537c01914c758,650c16f0f2faf8d7a0d14c09,651c1cf402e85bb8995fdc12,null,null,"<p style=""font-size: 60px; font-family: BACS"">OcYMOdOP</p>",,,,,,,,,,
html-keyboard-response,318,1970152,0.0-14.0-0.67,616494f1ae4537c01914c758,650c16f0f2faf8d7a0d14c09,651c1cf402e85bb8995fdc12,null,null,"<p style=""font-size: 60px; font-family: BACS"">dOYmlBRDh</p>",,,,,,,,,,
html-keyboard-response,319,1971164,0.0-14.0-0.68,616494f1ae4537c01914c758,650c16f0f2faf8d7a0d14c09,651c1cf402e85bb8995fdc12,null,null,"<p style=""font-size: 60px; font-family: BACS"">AlNULcO</p>",,,,,,,,,,
html-keyboard-response,320,1972181,0.0-14.0-0.69,616494f1ae4537c01914c758,650c16f0f2faf8d7a0d14c09,651c1cf402e85bb8995fdc12,null,null,"<p style=""font-size: 60px; font-family: BACS"">laYmruda</p>",,,,,,,,,,
html-keyboard-response,321,1973183,0.0-14.0-0.70,616494f1ae4537c01914c758,650c16f0f2faf8d7a0d14c09,651c1cf402e85bb8995fdc12,null,null,"<p style=""font-size: 60px; font-family: BACS"">bvkrLUOk</p>",,,,,,,,,,
html-keyboard-response,322,1974198,0.0-14.0-0.71,616494f1ae4537c01914c758,650c16f0f2faf8d7a0d14c09,651c1cf402e85bb8995fdc12,null,null,"<p style=""font-size: 60px; font-family: BACS"">aYaNcrdY</p>",,,,,,,,,,
html-keyboard-response,323,1975214,0.0-14.0-0.72,616494f1ae4537c01914c758,650c16f0f2faf8d7a0d14c09,651c1cf402e85bb8995fdc12,null,null,"<p style=""font-size: 60px; font-family: BACS"">UdlGQvUdm</p>",,,,,,,,,,
html-keyboard-response,324,1976230,0.0-14.0-0.73,616494f1ae4537c01914c758,650c16f0f2faf8d7a0d14c09,651c1cf402e85bb8995fdc12,null,null,"<p style=""font-size: 60px; font-family: BACS"">AbkacrdY</p>",,,,,,,,,,
html-keyboard-response,325,1977233,0.0-14.0-0.74,616494f1ae4537c01914c758,650c16f0f2faf8d7a0d14c09,651c1cf402e85bb8995fdc12,null,null,"<p style=""font-size: 60px; font-family: BACS"">dYdATbk</p>",,,,,,,,,,
html-keyboard-response,326,1978237,0.0-14.0-0.75,616494f1ae4537c01914c758,650c16f0f2faf8d7a0d14c09,651c1cf402e85bb8995fdc12,null,null,"<p style=""font-size: 60px; font-family: BACS"">OcYMBRDh</p>",,,,,,,,,,
html-keyboard-response,327,1979243,0.0-14.0-0.76,616494f1ae4537c01914c758,650c16f0f2faf8d7a0d14c09,651c1cf402e85bb8995fdc12,null,null,"<p style=""font-size: 60px; font-family: BACS"">hBmMCOdOP</p>",,,,,,,,,,
html-keyboard-response,328,1980258,0.0-14.0-0.77,616494f1ae4537c01914c758,650c16f0f2faf8d7a0d14c09,651c1cf402e85bb8995fdc12,null,null,"<p style=""font-size: 60px; font-family: BACS"">AbkaLcO</p>",,,,,,,,,,
html-keyboard-response,329,1981260,0.0-14.0-0.78,616494f1ae4537c01914c758,650c16f0f2faf8d7a0d14c09,651c1cf402e85bb8995fdc12,null,null,"<p style=""font-size: 60px; font-family: BACS"">cRElDbTE</p>",,,,,,,,,,
html-keyboard-response,330,1982274,0.0-14.0-0.79,616494f1ae4537c01914c758,650c16f0f2faf8d7a0d14c09,651c1cf402e85bb8995fdc12,null,null,"<p style=""font-size: 60px; font-family: BACS"">vmuLlLUOk</p>",,,,,,,,,,
html-keyboard-response,331,1990391,0.0-15.0,616494f1ae4537c01914c758,650c16f0f2faf8d7a0d14c09,651c1cf402e85bb8995fdc12,8117, ,"<p>Great, you've seen the fourth block of words. You may now take a short break.</p>
      <p>Press the spacebar when you're ready to continue.</p>",,,,,,,,,,
html-keyboard-response,332,1991393,0.0-16.0-0.0,616494f1ae4537c01914c758,650c16f0f2faf8d7a0d14c09,651c1cf402e85bb8995fdc12,null,null,"<p style=""font-size: 60px; font-family: BACS"">dOYmldPc</p>",,,,,,,,,,
html-keyboard-response,333,1992403,0.0-16.0-0.1,616494f1ae4537c01914c758,650c16f0f2faf8d7a0d14c09,651c1cf402e85bb8995fdc12,null,null,"<p style=""font-size: 60px; font-family: BACS"">dOYmldPc</p>",,,,,,,,,,
html-keyboard-response,334,1993415,0.0-16.0-0.2,616494f1ae4537c01914c758,650c16f0f2faf8d7a0d14c09,651c1cf402e85bb8995fdc12,null,null,"<p style=""font-size: 60px; font-family: BACS"">dOYmldPc</p>",,,,,,,,,,
html-keyboard-response,335,1994428,0.0-16.0-0.3,616494f1ae4537c01914c758,650c16f0f2faf8d7a0d14c09,651c1cf402e85bb8995fdc12,null,null,"<p style=""font-size: 60px; font-family: BACS"">dOYmldPc</p>",,,,,,,,,,
html-keyboard-response,336,1995442,0.0-16.0-0.4,616494f1ae4537c01914c758,650c16f0f2faf8d7a0d14c09,651c1cf402e85bb8995fdc12,null,null,"<p style=""font-size: 60px; font-family: BACS"">dOYmldPc</p>",,,,,,,,,,
html-keyboard-response,337,1996444,0.0-16.0-0.5,616494f1ae4537c01914c758,650c16f0f2faf8d7a0d14c09,651c1cf402e85bb8995fdc12,null,null,"<p style=""font-size: 60px; font-family: BACS"">dOYmldPc</p>",,,,,,,,,,
html-keyboard-response,338,1997446,0.0-16.0-0.6,616494f1ae4537c01914c758,650c16f0f2faf8d7a0d14c09,651c1cf402e85bb8995fdc12,null,null,"<p style=""font-size: 60px; font-family: BACS"">dOYmldPc</p>",,,,,,,,,,
html-keyboard-response,339,1998451,0.0-16.0-0.7,616494f1ae4537c01914c758,650c16f0f2faf8d7a0d14c09,651c1cf402e85bb8995fdc12,null,null,"<p style=""font-size: 60px; font-family: BACS"">dOYmldPc</p>",,,,,,,,,,
html-keyboard-response,340,1999464,0.0-16.0-0.8,616494f1ae4537c01914c758,650c16f0f2faf8d7a0d14c09,651c1cf402e85bb8995fdc12,null,null,"<p style=""font-size: 60px; font-family: BACS"">dOYmldPc</p>",,,,,,,,,,
html-keyboard-response,341,2000480,0.0-16.0-0.9,616494f1ae4537c01914c758,650c16f0f2faf8d7a0d14c09,651c1cf402e85bb8995fdc12,null,null,"<p style=""font-size: 60px; font-family: BACS"">dOYmldPc</p>",,,,,,,,,,
html-keyboard-response,342,2001492,0.0-16.0-0.10,616494f1ae4537c01914c758,650c16f0f2faf8d7a0d14c09,651c1cf402e85bb8995fdc12,null,null,"<p style=""font-size: 60px; font-family: BACS"">dOYmldPc</p>",,,,,,,,,,
html-keyboard-response,343,2002509,0.0-16.0-0.11,616494f1ae4537c01914c758,650c16f0f2faf8d7a0d14c09,651c1cf402e85bb8995fdc12,null,null,"<p style=""font-size: 60px; font-family: BACS"">dOYmldPc</p>",,,,,,,,,,
html-keyboard-response,344,2003520,0.0-16.0-0.12,616494f1ae4537c01914c758,650c16f0f2faf8d7a0d14c09,651c1cf402e85bb8995fdc12,null,null,"<p style=""font-size: 60px; font-family: BACS"">dOYmldPc</p>",,,,,,,,,,
html-keyboard-response,345,2004528,0.0-16.0-0.13,616494f1ae4537c01914c758,650c16f0f2faf8d7a0d14c09,651c1cf402e85bb8995fdc12,null,null,"<p style=""font-size: 60px; font-family: BACS"">dOYmldPc</p>",,,,,,,,,,
html-keyboard-response,346,2005531,0.0-16.0-0.14,616494f1ae4537c01914c758,650c16f0f2faf8d7a0d14c09,651c1cf402e85bb8995fdc12,null,null,"<p style=""font-size: 60px; font-family: BACS"">dOYmldPc</p>",,,,,,,,,,
html-keyboard-response,347,2006532,0.0-16.0-0.15,616494f1ae4537c01914c758,650c16f0f2faf8d7a0d14c09,651c1cf402e85bb8995fdc12,null,null,"<p style=""font-size: 60px; font-family: BACS"">dOYmldPc</p>",,,,,,,,,,
html-keyboard-response,348,2007538,0.0-16.0-0.16,616494f1ae4537c01914c758,650c16f0f2faf8d7a0d14c09,651c1cf402e85bb8995fdc12,null,null,"<p style=""font-size: 60px; font-family: BACS"">dOYmldPc</p>",,,,,,,,,,
html-keyboard-response,349,2008552,0.0-16.0-0.17,616494f1ae4537c01914c758,650c16f0f2faf8d7a0d14c09,651c1cf402e85bb8995fdc12,null,null,"<p style=""font-size: 60px; font-family: BACS"">dOYmldPc</p>",,,,,,,,,,
html-keyboard-response,350,2009556,0.0-16.0-0.18,616494f1ae4537c01914c758,650c16f0f2faf8d7a0d14c09,651c1cf402e85bb8995fdc12,null,null,"<p style=""font-size: 60px; font-family: BACS"">dOYmldPc</p>",,,,,,,,,,
html-keyboard-response,351,2010569,0.0-16.0-0.19,616494f1ae4537c01914c758,650c16f0f2faf8d7a0d14c09,651c1cf402e85bb8995fdc12,null,null,"<p style=""font-size: 60px; font-family: BACS"">dOYmldPc</p>",,,,,,,,,,
html-keyboard-response,352,2011570,0.0-16.0-0.20,616494f1ae4537c01914c758,650c16f0f2faf8d7a0d14c09,651c1cf402e85bb8995fdc12,null,null,"<p style=""font-size: 60px; font-family: BACS"">dOYmldPc</p>",,,,,,,,,,
html-keyboard-response,353,2012585,0.0-16.0-0.21,616494f1ae4537c01914c758,650c16f0f2faf8d7a0d14c09,651c1cf402e85bb8995fdc12,null,null,"<p style=""font-size: 60px; font-family: BACS"">dOYmldPc</p>",,,,,,,,,,
html-keyboard-response,354,2013594,0.0-16.0-0.22,616494f1ae4537c01914c758,650c16f0f2faf8d7a0d14c09,651c1cf402e85bb8995fdc12,null,null,"<p style=""font-size: 60px; font-family: BACS"">dOYmldPc</p>",,,,,,,,,,
html-keyboard-response,355,2014595,0.0-16.0-0.23,616494f1ae4537c01914c758,650c16f0f2faf8d7a0d14c09,651c1cf402e85bb8995fdc12,null,null,"<p style=""font-size: 60px; font-family: BACS"">dOYmldPc</p>",,,,,,,,,,
html-keyboard-response,356,2015602,0.0-16.0-0.24,616494f1ae4537c01914c758,650c16f0f2faf8d7a0d14c09,651c1cf402e85bb8995fdc12,null,null,"<p style=""font-size: 60px; font-family: BACS"">dOYmldPc</p>",,,,,,,,,,
html-keyboard-response,357,2016608,0.0-16.0-0.25,616494f1ae4537c01914c758,650c16f0f2faf8d7a0d14c09,651c1cf402e85bb8995fdc12,null,null,"<p style=""font-size: 60px; font-family: BACS"">dOYmldPc</p>",,,,,,,,,,
html-keyboard-response,358,2017613,0.0-16.0-0.26,616494f1ae4537c01914c758,650c16f0f2faf8d7a0d14c09,651c1cf402e85bb8995fdc12,null,null,"<p style=""font-size: 60px; font-family: BACS"">dOYmldPc</p>",,,,,,,,,,
html-keyboard-response,359,2018615,0.0-16.0-0.27,616494f1ae4537c01914c758,650c16f0f2faf8d7a0d14c09,651c1cf402e85bb8995fdc12,null,null,"<p style=""font-size: 60px; font-family: BACS"">dOYmldPc</p>",,,,,,,,,,
html-keyboard-response,360,2019619,0.0-16.0-0.28,616494f1ae4537c01914c758,650c16f0f2faf8d7a0d14c09,651c1cf402e85bb8995fdc12,null,null,"<p style=""font-size: 60px; font-family: BACS"">dOYmldPc</p>",,,,,,,,,,
html-keyboard-response,361,2020623,0.0-16.0-0.29,616494f1ae4537c01914c758,650c16f0f2faf8d7a0d14c09,651c1cf402e85bb8995fdc12,null,null,"<p style=""font-size: 60px; font-family: BACS"">dOYmldPc</p>",,,,,,,,,,
html-keyboard-response,362,2021636,0.0-16.0-0.30,616494f1ae4537c01914c758,650c16f0f2faf8d7a0d14c09,651c1cf402e85bb8995fdc12,null,null,"<p style=""font-size: 60px; font-family: BACS"">dOYmldPc</p>",,,,,,,,,,
html-keyboard-response,363,2022646,0.0-16.0-0.31,616494f1ae4537c01914c758,650c16f0f2faf8d7a0d14c09,651c1cf402e85bb8995fdc12,null,null,"<p style=""font-size: 60px; font-family: BACS"">dOYmldPc</p>",,,,,,,,,,
html-keyboard-response,364,2023651,0.0-16.0-0.32,616494f1ae4537c01914c758,650c16f0f2faf8d7a0d14c09,651c1cf402e85bb8995fdc12,null,null,"<p style=""font-size: 60px; font-family: BACS"">dOYmldPc</p>",,,,,,,,,,
html-keyboard-response,365,2024663,0.0-16.0-0.33,616494f1ae4537c01914c758,650c16f0f2faf8d7a0d14c09,651c1cf402e85bb8995fdc12,null,null,"<p style=""font-size: 60px; font-family: BACS"">dOYmldPc</p>",,,,,,,,,,
html-keyboard-response,366,2025679,0.0-16.0-0.34,616494f1ae4537c01914c758,650c16f0f2faf8d7a0d14c09,651c1cf402e85bb8995fdc12,null,null,"<p style=""font-size: 60px; font-family: BACS"">dOYmldPc</p>",,,,,,,,,,
html-keyboard-response,367,2026685,0.0-16.0-0.35,616494f1ae4537c01914c758,650c16f0f2faf8d7a0d14c09,651c1cf402e85bb8995fdc12,null,null,"<p style=""font-size: 60px; font-family: BACS"">dOYmldPc</p>",,,,,,,,,,
html-keyboard-response,368,2027689,0.0-16.0-0.36,616494f1ae4537c01914c758,650c16f0f2faf8d7a0d14c09,651c1cf402e85bb8995fdc12,null,null,"<p style=""font-size: 60px; font-family: BACS"">dOYmldPc</p>",,,,,,,,,,
html-keyboard-response,369,2028697,0.0-16.0-0.37,616494f1ae4537c01914c758,650c16f0f2faf8d7a0d14c09,651c1cf402e85bb8995fdc12,null,null,"<p style=""font-size: 60px; font-family: BACS"">dOYmldPc</p>",,,,,,,,,,
html-keyboard-response,370,2029703,0.0-16.0-0.38,616494f1ae4537c01914c758,650c16f0f2faf8d7a0d14c09,651c1cf402e85bb8995fdc12,null,null,"<p style=""font-size: 60px; font-family: BACS"">dOYmldPc</p>",,,,,,,,,,
html-keyboard-response,371,2030713,0.0-16.0-0.39,616494f1ae4537c01914c758,650c16f0f2faf8d7a0d14c09,651c1cf402e85bb8995fdc12,null,null,"<p style=""font-size: 60px; font-family: BACS"">dOYmldPc</p>",,,,,,,,,,
html-keyboard-response,372,2031725,0.0-16.0-0.40,616494f1ae4537c01914c758,650c16f0f2faf8d7a0d14c09,651c1cf402e85bb8995fdc12,null,null,"<p style=""font-size: 60px; font-family: BACS"">dOYmldPc</p>",,,,,,,,,,
html-keyboard-response,373,2032734,0.0-16.0-0.41,616494f1ae4537c01914c758,650c16f0f2faf8d7a0d14c09,651c1cf402e85bb8995fdc12,null,null,"<p style=""font-size: 60px; font-family: BACS"">dOYmldPc</p>",,,,,,,,,,
html-keyboard-response,374,2033738,0.0-16.0-0.42,616494f1ae4537c01914c758,650c16f0f2faf8d7a0d14c09,651c1cf402e85bb8995fdc12,null,null,"<p style=""font-size: 60px; font-family: BACS"">dOYmldPc</p>",,,,,,,,,,
html-keyboard-response,375,2034753,0.0-16.0-0.43,616494f1ae4537c01914c758,650c16f0f2faf8d7a0d14c09,651c1cf402e85bb8995fdc12,null,null,"<p style=""font-size: 60px; font-family: BACS"">dOYmldPc</p>",,,,,,,,,,
html-keyboard-response,376,2035757,0.0-16.0-0.44,616494f1ae4537c01914c758,650c16f0f2faf8d7a0d14c09,651c1cf402e85bb8995fdc12,null,null,"<p style=""font-size: 60px; font-family: BACS"">dOYmldPc</p>",,,,,,,,,,
html-keyboard-response,377,2036771,0.0-16.0-0.45,616494f1ae4537c01914c758,650c16f0f2faf8d7a0d14c09,651c1cf402e85bb8995fdc12,null,null,"<p style=""font-size: 60px; font-family: BACS"">dOYmldPc</p>",,,,,,,,,,
html-keyboard-response,378,2037773,0.0-16.0-0.46,616494f1ae4537c01914c758,650c16f0f2faf8d7a0d14c09,651c1cf402e85bb8995fdc12,null,null,"<p style=""font-size: 60px; font-family: BACS"">dOYmldPc</p>",,,,,,,,,,
html-keyboard-response,379,2038787,0.0-16.0-0.47,616494f1ae4537c01914c758,650c16f0f2faf8d7a0d14c09,651c1cf402e85bb8995fdc12,null,null,"<p style=""font-size: 60px; font-family: BACS"">dOYmldPc</p>",,,,,,,,,,
html-keyboard-response,380,2039789,0.0-16.0-0.48,616494f1ae4537c01914c758,650c16f0f2faf8d7a0d14c09,651c1cf402e85bb8995fdc12,null,null,"<p style=""font-size: 60px; font-family: BACS"">dOYmldPc</p>",,,,,,,,,,
html-keyboard-response,381,2040804,0.0-16.0-0.49,616494f1ae4537c01914c758,650c16f0f2faf8d7a0d14c09,651c1cf402e85bb8995fdc12,null,null,"<p style=""font-size: 60px; font-family: BACS"">dOYmldPc</p>",,,,,,,,,,
html-keyboard-response,382,2041819,0.0-16.0-0.50,616494f1ae4537c01914c758,650c16f0f2faf8d7a0d14c09,651c1cf402e85bb8995fdc12,null,null,"<p style=""font-size: 60px; font-family: BACS"">dOYmldPc</p>",,,,,,,,,,
html-keyboard-response,383,2042832,0.0-16.0-0.51,616494f1ae4537c01914c758,650c16f0f2faf8d7a0d14c09,651c1cf402e85bb8995fdc12,null,null,"<p style=""font-size: 60px; font-family: BACS"">dOYmldPc</p>",,,,,,,,,,
html-keyboard-response,384,2043833,0.0-16.0-0.52,616494f1ae4537c01914c758,650c16f0f2faf8d7a0d14c09,651c1cf402e85bb8995fdc12,null,null,"<p style=""font-size: 60px; font-family: BACS"">dOYmldPc</p>",,,,,,,,,,
html-keyboard-response,385,2044849,0.0-16.0-0.53,616494f1ae4537c01914c758,650c16f0f2faf8d7a0d14c09,651c1cf402e85bb8995fdc12,null,null,"<p style=""font-size: 60px; font-family: BACS"">dOYmldPc</p>",,,,,,,,,,
html-keyboard-response,386,2045851,0.0-16.0-0.54,616494f1ae4537c01914c758,650c16f0f2faf8d7a0d14c09,651c1cf402e85bb8995fdc12,null,null,"<p style=""font-size: 60px; font-family: BACS"">dOYmldPc</p>",,,,,,,,,,
html-keyboard-response,387,2046865,0.0-16.0-0.55,616494f1ae4537c01914c758,650c16f0f2faf8d7a0d14c09,651c1cf402e85bb8995fdc12,null,null,"<p style=""font-size: 60px; font-family: BACS"">dOYmldPc</p>",,,,,,,,,,
html-keyboard-response,388,2047866,0.0-16.0-0.56,616494f1ae4537c01914c758,650c16f0f2faf8d7a0d14c09,651c1cf402e85bb8995fdc12,null,null,"<p style=""font-size: 60px; font-family: BACS"">dOYmldPc</p>",,,,,,,,,,
html-keyboard-response,389,2048882,0.0-16.0-0.57,616494f1ae4537c01914c758,650c16f0f2faf8d7a0d14c09,651c1cf402e85bb8995fdc12,null,null,"<p style=""font-size: 60px; font-family: BACS"">dOYmldPc</p>",,,,,,,,,,
html-keyboard-response,390,2049886,0.0-16.0-0.58,616494f1ae4537c01914c758,650c16f0f2faf8d7a0d14c09,651c1cf402e85bb8995fdc12,null,null,"<p style=""font-size: 60px; font-family: BACS"">dOYmldPc</p>",,,,,,,,,,
html-keyboard-response,391,2050890,0.0-16.0-0.59,616494f1ae4537c01914c758,650c16f0f2faf8d7a0d14c09,651c1cf402e85bb8995fdc12,null,null,"<p style=""font-size: 60px; font-family: BACS"">dOYmldPc</p>",,,,,,,,,,
html-keyboard-response,392,2051898,0.0-16.0-0.60,616494f1ae4537c01914c758,650c16f0f2faf8d7a0d14c09,651c1cf402e85bb8995fdc12,null,null,"<p style=""font-size: 60px; font-family: BACS"">dOYmldPc</p>",,,,,,,,,,
html-keyboard-response,393,2052901,0.0-16.0-0.61,616494f1ae4537c01914c758,650c16f0f2faf8d7a0d14c09,651c1cf402e85bb8995fdc12,null,null,"<p style=""font-size: 60px; font-family: BACS"">dOYmldPc</p>",,,,,,,,,,
html-keyboard-response,394,2053907,0.0-16.0-0.62,616494f1ae4537c01914c758,650c16f0f2faf8d7a0d14c09,651c1cf402e85bb8995fdc12,null,null,"<p style=""font-size: 60px; font-family: BACS"">dOYmldPc</p>",,,,,,,,,,
html-keyboard-response,395,2054915,0.0-16.0-0.63,616494f1ae4537c01914c758,650c16f0f2faf8d7a0d14c09,651c1cf402e85bb8995fdc12,null,null,"<p style=""font-size: 60px; font-family: BACS"">dOYmldPc</p>",,,,,,,,,,
html-keyboard-response,396,2055931,0.0-16.0-0.64,616494f1ae4537c01914c758,650c16f0f2faf8d7a0d14c09,651c1cf402e85bb8995fdc12,null,null,"<p style=""font-size: 60px; font-family: BACS"">dOYmldPc</p>",,,,,,,,,,
html-keyboard-response,397,2056933,0.0-16.0-0.65,616494f1ae4537c01914c758,650c16f0f2faf8d7a0d14c09,651c1cf402e85bb8995fdc12,null,null,"<p style=""font-size: 60px; font-family: BACS"">dOYmldPc</p>",,,,,,,,,,
html-keyboard-response,398,2057941,0.0-16.0-0.66,616494f1ae4537c01914c758,650c16f0f2faf8d7a0d14c09,651c1cf402e85bb8995fdc12,null,null,"<p style=""font-size: 60px; font-family: BACS"">dOYmldPc</p>",,,,,,,,,,
html-keyboard-response,399,2058950,0.0-16.0-0.67,616494f1ae4537c01914c758,650c16f0f2faf8d7a0d14c09,651c1cf402e85bb8995fdc12,null,null,"<p style=""font-size: 60px; font-family: BACS"">dOYmldPc</p>",,,,,,,,,,
html-keyboard-response,400,2059959,0.0-16.0-0.68,616494f1ae4537c01914c758,650c16f0f2faf8d7a0d14c09,651c1cf402e85bb8995fdc12,null,null,"<p style=""font-size: 60px; font-family: BACS"">dOYmldPc</p>",,,,,,,,,,
html-keyboard-response,401,2060974,0.0-16.0-0.69,616494f1ae4537c01914c758,650c16f0f2faf8d7a0d14c09,651c1cf402e85bb8995fdc12,null,null,"<p style=""font-size: 60px; font-family: BACS"">dOYmldPc</p>",,,,,,,,,,
html-keyboard-response,402,2061975,0.0-16.0-0.70,616494f1ae4537c01914c758,650c16f0f2faf8d7a0d14c09,651c1cf402e85bb8995fdc12,null,null,"<p style=""font-size: 60px; font-family: BACS"">dOYmldPc</p>",,,,,,,,,,
html-keyboard-response,403,2062990,0.0-16.0-0.71,616494f1ae4537c01914c758,650c16f0f2faf8d7a0d14c09,651c1cf402e85bb8995fdc12,null,null,"<p style=""font-size: 60px; font-family: BACS"">dOYmldPc</p>",,,,,,,,,,
html-keyboard-response,404,2064000,0.0-16.0-0.72,616494f1ae4537c01914c758,650c16f0f2faf8d7a0d14c09,651c1cf402e85bb8995fdc12,null,null,"<p style=""font-size: 60px; font-family: BACS"">dOYmldPc</p>",,,,,,,,,,
html-keyboard-response,405,2065002,0.0-16.0-0.73,616494f1ae4537c01914c758,650c16f0f2faf8d7a0d14c09,651c1cf402e85bb8995fdc12,null,null,"<p style=""font-size: 60px; font-family: BACS"">dOYmldPc</p>",,,,,,,,,,
html-keyboard-response,406,2066017,0.0-16.0-0.74,616494f1ae4537c01914c758,650c16f0f2faf8d7a0d14c09,651c1cf402e85bb8995fdc12,null,null,"<p style=""font-size: 60px; font-family: BACS"">dOYmldPc</p>",,,,,,,,,,
html-keyboard-response,407,2067022,0.0-16.0-0.75,616494f1ae4537c01914c758,650c16f0f2faf8d7a0d14c09,651c1cf402e85bb8995fdc12,null,null,"<p style=""font-size: 60px; font-family: BACS"">dOYmldPc</p>",,,,,,,,,,
html-keyboard-response,408,2068023,0.0-16.0-0.76,616494f1ae4537c01914c758,650c16f0f2faf8d7a0d14c09,651c1cf402e85bb8995fdc12,null,null,"<p style=""font-size: 60px; font-family: BACS"">dOYmldPc</p>",,,,,,,,,,
html-keyboard-response,409,2069025,0.0-16.0-0.77,616494f1ae4537c01914c758,650c16f0f2faf8d7a0d14c09,651c1cf402e85bb8995fdc12,null,null,"<p style=""font-size: 60px; font-family: BACS"">dOYmldPc</p>",,,,,,,,,,
html-keyboard-response,410,2070026,0.0-16.0-0.78,616494f1ae4537c01914c758,650c16f0f2faf8d7a0d14c09,651c1cf402e85bb8995fdc12,null,null,"<p style=""font-size: 60px; font-family: BACS"">dOYmldPc</p>",,,,,,,,,,
html-keyboard-response,411,2071033,0.0-16.0-0.79,616494f1ae4537c01914c758,650c16f0f2faf8d7a0d14c09,651c1cf402e85bb8995fdc12,null,null,"<p style=""font-size: 60px; font-family: BACS"">dOYmldPc</p>",,,,,,,,,,
html-keyboard-response,412,2104791,0.0-17.0,616494f1ae4537c01914c758,650c16f0f2faf8d7a0d14c09,651c1cf402e85bb8995fdc12,33757, ,"<p>Great, you've seen the fifth block of words. You may now take a short break.</p>
      <p>Press the spacebar when you're ready to continue.</p>",,,,,,,,,,
html-keyboard-response,413,2105793,0.0-18.0-0.0,616494f1ae4537c01914c758,650c16f0f2faf8d7a0d14c09,651c1cf402e85bb8995fdc12,null,null,"<p style=""font-size: 60px; font-family: BACS"">dOYmlBRDh</p>",,,,,,,,,,
html-keyboard-response,414,2106808,0.0-18.0-0.1,616494f1ae4537c01914c758,650c16f0f2faf8d7a0d14c09,651c1cf402e85bb8995fdc12,null,null,"<p style=""font-size: 60px; font-family: BACS"">PMPtkdPc</p>",,,,,,,,,,
html-keyboard-response,415,2107813,0.0-18.0-0.2,616494f1ae4537c01914c758,650c16f0f2faf8d7a0d14c09,651c1cf402e85bb8995fdc12,null,null,"<p style=""font-size: 60px; font-family: BACS"">YKRkbTE</p>",,,,,,,,,,
html-keyboard-response,416,2108829,0.0-18.0-0.3,616494f1ae4537c01914c758,650c16f0f2faf8d7a0d14c09,651c1cf402e85bb8995fdc12,null,null,"<p style=""font-size: 60px; font-family: BACS"">cRElDTbk</p>",,,,,,,,,,
html-keyboard-response,417,2109846,0.0-18.0-0.4,616494f1ae4537c01914c758,650c16f0f2faf8d7a0d14c09,651c1cf402e85bb8995fdc12,null,null,"<p style=""font-size: 60px; font-family: BACS"">laYmrvUdm</p>",,,,,,,,,,
html-keyboard-response,418,2110860,0.0-18.0-0.5,616494f1ae4537c01914c758,650c16f0f2faf8d7a0d14c09,651c1cf402e85bb8995fdc12,null,null,"<p style=""font-size: 60px; font-family: BACS"">AbkaLcO</p>",,,,,,,,,,
html-keyboard-response,419,2111862,0.0-18.0-0.6,616494f1ae4537c01914c758,650c16f0f2faf8d7a0d14c09,651c1cf402e85bb8995fdc12,null,null,"<p style=""font-size: 60px; font-family: BACS"">bYuQvUdm</p>",,,,,,,,,,
html-keyboard-response,420,2112867,0.0-18.0-0.7,616494f1ae4537c01914c758,650c16f0f2faf8d7a0d14c09,651c1cf402e85bb8995fdc12,null,null,"<p style=""font-size: 60px; font-family: BACS"">aYaNcrdY</p>",,,,,,,,,,
html-keyboard-response,421,2113882,0.0-18.0-0.8,616494f1ae4537c01914c758,650c16f0f2faf8d7a0d14c09,651c1cf402e85bb8995fdc12,null,null,"<p style=""font-size: 60px; font-family: BACS"">dYdAOdOP</p>",,,,,,,,,,
html-keyboard-response,422,2114895,0.0-18.0-0.9,616494f1ae4537c01914c758,650c16f0f2faf8d7a0d14c09,651c1cf402e85bb8995fdc12,null,null,"<p style=""font-size: 60px; font-family: BACS"">UdlGQLUOk</p>",,,,,,,,,,
html-keyboard-response,423,2115898,0.0-18.0-0.10,616494f1ae4537c01914c758,650c16f0f2faf8d7a0d14c09,651c1cf402e85bb8995fdc12,null,null,"<p style=""font-size: 60px; font-family: BACS"">dOYmlbTE</p>",,,,,,,,,,
html-keyboard-response,424,2116912,0.0-18.0-0.11,616494f1ae4537c01914c758,650c16f0f2faf8d7a0d14c09,651c1cf402e85bb8995fdc12,null,null,"<p style=""font-size: 60px; font-family: BACS"">TAdhMTbk</p>",,,,,,,,,,
html-keyboard-response,425,2117924,0.0-18.0-0.12,616494f1ae4537c01914c758,650c16f0f2faf8d7a0d14c09,651c1cf402e85bb8995fdc12,null,null,"<p style=""font-size: 60px; font-family: BACS"">PCPDhdPc</p>",,,,,,,,,,
html-keyboard-response,426,2118926,0.0-18.0-0.13,616494f1ae4537c01914c758,650c16f0f2faf8d7a0d14c09,651c1cf402e85bb8995fdc12,null,null,"<p style=""font-size: 60px; font-family: BACS"">YKRkBRDh</p>",,,,,,,,,,
html-keyboard-response,427,2119937,0.0-18.0-0.14,616494f1ae4537c01914c758,650c16f0f2faf8d7a0d14c09,651c1cf402e85bb8995fdc12,null,null,"<p style=""font-size: 60px; font-family: BACS"">dYdAbTE</p>",,,,,,,,,,
html-keyboard-response,428,2120946,0.0-18.0-0.15,616494f1ae4537c01914c758,650c16f0f2faf8d7a0d14c09,651c1cf402e85bb8995fdc12,null,null,"<p style=""font-size: 60px; font-family: BACS"">rvOvULUOk</p>",,,,,,,,,,
html-keyboard-response,429,2121948,0.0-18.0-0.16,616494f1ae4537c01914c758,650c16f0f2faf8d7a0d14c09,651c1cf402e85bb8995fdc12,null,null,"<p style=""font-size: 60px; font-family: BACS"">TAdhMdPc</p>",,,,,,,,,,
html-keyboard-response,430,2122953,0.0-18.0-0.17,616494f1ae4537c01914c758,650c16f0f2faf8d7a0d14c09,651c1cf402e85bb8995fdc12,null,null,"<p style=""font-size: 60px; font-family: BACS"">aYaNvUdm</p>",,,,,,,,,,
html-keyboard-response,431,2123966,0.0-18.0-0.18,616494f1ae4537c01914c758,650c16f0f2faf8d7a0d14c09,651c1cf402e85bb8995fdc12,null,null,"<p style=""font-size: 60px; font-family: BACS"">cRElDdPc</p>",,,,,,,,,,
html-keyboard-response,432,2124980,0.0-18.0-0.19,616494f1ae4537c01914c758,650c16f0f2faf8d7a0d14c09,651c1cf402e85bb8995fdc12,null,null,"<p style=""font-size: 60px; font-family: BACS"">rvOvUvUdm</p>",,,,,,,,,,
html-keyboard-response,433,2125985,0.0-18.0-0.20,616494f1ae4537c01914c758,650c16f0f2faf8d7a0d14c09,651c1cf402e85bb8995fdc12,null,null,"<p style=""font-size: 60px; font-family: BACS"">bvkrcrdY</p>",,,,,,,,,,
html-keyboard-response,434,2126999,0.0-18.0-0.21,616494f1ae4537c01914c758,650c16f0f2faf8d7a0d14c09,651c1cf402e85bb8995fdc12,null,null,"<p style=""font-size: 60px; font-family: BACS"">cRElDbTE</p>",,,,,,,,,,
html-keyboard-response,435,2128009,0.0-18.0-0.22,616494f1ae4537c01914c758,650c16f0f2faf8d7a0d14c09,651c1cf402e85bb8995fdc12,null,null,"<p style=""font-size: 60px; font-family: BACS"">laYmrLcO</p>",,,,,,,,,,
html-keyboard-response,436,2129024,0.0-18.0-0.23,616494f1ae4537c01914c758,650c16f0f2faf8d7a0d14c09,651c1cf402e85bb8995fdc12,null,null,"<p style=""font-size: 60px; font-family: BACS"">GLYrAuda</p>",,,,,,,,,,
html-keyboard-response,437,2130026,0.0-18.0-0.24,616494f1ae4537c01914c758,650c16f0f2faf8d7a0d14c09,651c1cf402e85bb8995fdc12,null,null,"<p style=""font-size: 60px; font-family: BACS"">OcYMBRDh</p>",,,,,,,,,,
html-keyboard-response,438,2131040,0.0-18.0-0.25,616494f1ae4537c01914c758,650c16f0f2faf8d7a0d14c09,651c1cf402e85bb8995fdc12,null,null,"<p style=""font-size: 60px; font-family: BACS"">UdlGQLcO</p>",,,,,,,,,,
html-keyboard-response,439,2132058,0.0-18.0-0.26,616494f1ae4537c01914c758,650c16f0f2faf8d7a0d14c09,651c1cf402e85bb8995fdc12,null,null,"<p style=""font-size: 60px; font-family: BACS"">bvkrLUOk</p>",,,,,,,,,,
html-keyboard-response,440,2133060,0.0-18.0-0.27,616494f1ae4537c01914c758,650c16f0f2faf8d7a0d14c09,651c1cf402e85bb8995fdc12,null,null,"<p style=""font-size: 60px; font-family: BACS"">dOYmldPc</p>",,,,,,,,,,
html-keyboard-response,441,2134073,0.0-18.0-0.28,616494f1ae4537c01914c758,650c16f0f2faf8d7a0d14c09,651c1cf402e85bb8995fdc12,null,null,"<p style=""font-size: 60px; font-family: BACS"">PCPDhOdOP</p>",,,,,,,,,,
html-keyboard-response,442,2135077,0.0-18.0-0.29,616494f1ae4537c01914c758,650c16f0f2faf8d7a0d14c09,651c1cf402e85bb8995fdc12,null,null,"<p style=""font-size: 60px; font-family: BACS"">YKRkdPc</p>",,,,,,,,,,
html-keyboard-response,443,2136079,0.0-18.0-0.30,616494f1ae4537c01914c758,650c16f0f2faf8d7a0d14c09,651c1cf402e85bb8995fdc12,null,null,"<p style=""font-size: 60px; font-family: BACS"">dOYmlTbk</p>",,,,,,,,,,
html-keyboard-response,444,2137081,0.0-18.0-0.31,616494f1ae4537c01914c758,650c16f0f2faf8d7a0d14c09,651c1cf402e85bb8995fdc12,null,null,"<p style=""font-size: 60px; font-family: BACS"">OcYMbTE</p>",,,,,,,,,,
html-keyboard-response,445,2138084,0.0-18.0-0.32,616494f1ae4537c01914c758,650c16f0f2faf8d7a0d14c09,651c1cf402e85bb8995fdc12,null,null,"<p style=""font-size: 60px; font-family: BACS"">UdlGQuda</p>",,,,,,,,,,
html-keyboard-response,446,2139100,0.0-18.0-0.33,616494f1ae4537c01914c758,650c16f0f2faf8d7a0d14c09,651c1cf402e85bb8995fdc12,null,null,"<p style=""font-size: 60px; font-family: BACS"">PMPtkTbk</p>",,,,,,,,,,
html-keyboard-response,447,2140116,0.0-18.0-0.34,616494f1ae4537c01914c758,650c16f0f2faf8d7a0d14c09,651c1cf402e85bb8995fdc12,null,null,"<p style=""font-size: 60px; font-family: BACS"">vmuLlLUOk</p>",,,,,,,,,,
html-keyboard-response,448,2141131,0.0-18.0-0.35,616494f1ae4537c01914c758,650c16f0f2faf8d7a0d14c09,651c1cf402e85bb8995fdc12,null,null,"<p style=""font-size: 60px; font-family: BACS"">aYaNLcO</p>",,,,,,,,,,
html-keyboard-response,449,2142132,0.0-18.0-0.36,616494f1ae4537c01914c758,650c16f0f2faf8d7a0d14c09,651c1cf402e85bb8995fdc12,null,null,"<p style=""font-size: 60px; font-family: BACS"">hAROKTbk</p>",,,,,,,,,,
html-keyboard-response,450,2143137,0.0-18.0-0.37,616494f1ae4537c01914c758,650c16f0f2faf8d7a0d14c09,651c1cf402e85bb8995fdc12,null,null,"<p style=""font-size: 60px; font-family: BACS"">GLYrALcO</p>",,,,,,,,,,
html-keyboard-response,451,2144144,0.0-18.0-0.38,616494f1ae4537c01914c758,650c16f0f2faf8d7a0d14c09,651c1cf402e85bb8995fdc12,null,null,"<p style=""font-size: 60px; font-family: BACS"">hAROKBRDh</p>",,,,,,,,,,
html-keyboard-response,452,2145151,0.0-18.0-0.39,616494f1ae4537c01914c758,650c16f0f2faf8d7a0d14c09,651c1cf402e85bb8995fdc12,null,null,"<p style=""font-size: 60px; font-family: BACS"">laYmruda</p>",,,,,,,,,,
html-keyboard-response,453,2146166,0.0-18.0-0.40,616494f1ae4537c01914c758,650c16f0f2faf8d7a0d14c09,651c1cf402e85bb8995fdc12,null,null,"<p style=""font-size: 60px; font-family: BACS"">AbkacrdY</p>",,,,,,,,,,
html-keyboard-response,454,2147182,0.0-18.0-0.41,616494f1ae4537c01914c758,650c16f0f2faf8d7a0d14c09,651c1cf402e85bb8995fdc12,null,null,"<p style=""font-size: 60px; font-family: BACS"">bYuQLUOk</p>",,,,,,,,,,
html-keyboard-response,455,2148193,0.0-18.0-0.42,616494f1ae4537c01914c758,650c16f0f2faf8d7a0d14c09,651c1cf402e85bb8995fdc12,null,null,"<p style=""font-size: 60px; font-family: BACS"">YKRkTbk</p>",,,,,,,,,,
html-keyboard-response,456,2149195,0.0-18.0-0.43,616494f1ae4537c01914c758,650c16f0f2faf8d7a0d14c09,651c1cf402e85bb8995fdc12,null,null,"<p style=""font-size: 60px; font-family: BACS"">PCPDhBRDh</p>",,,,,,,,,,
html-keyboard-response,457,2150197,0.0-18.0-0.44,616494f1ae4537c01914c758,650c16f0f2faf8d7a0d14c09,651c1cf402e85bb8995fdc12,null,null,"<p style=""font-size: 60px; font-family: BACS"">GLYrALUOk</p>",,,,,,,,,,
html-keyboard-response,458,2151209,0.0-18.0-0.45,616494f1ae4537c01914c758,650c16f0f2faf8d7a0d14c09,651c1cf402e85bb8995fdc12,null,null,"<p style=""font-size: 60px; font-family: BACS"">hAROKOdOP</p>",,,,,,,,,,
html-keyboard-response,459,2152216,0.0-18.0-0.46,616494f1ae4537c01914c758,650c16f0f2faf8d7a0d14c09,651c1cf402e85bb8995fdc12,null,null,"<p style=""font-size: 60px; font-family: BACS"">AbkavUdm</p>",,,,,,,,,,
html-keyboard-response,460,2153217,0.0-18.0-0.47,616494f1ae4537c01914c758,650c16f0f2faf8d7a0d14c09,651c1cf402e85bb8995fdc12,null,null,"<p style=""font-size: 60px; font-family: BACS"">dYdAdPc</p>",,,,,,,,,,
html-keyboard-response,461,2154234,0.0-18.0-0.48,616494f1ae4537c01914c758,650c16f0f2faf8d7a0d14c09,651c1cf402e85bb8995fdc12,null,null,"<p style=""font-size: 60px; font-family: BACS"">rvOvUcrdY</p>",,,,,,,,,,
html-keyboard-response,462,2155248,0.0-18.0-0.49,616494f1ae4537c01914c758,650c16f0f2faf8d7a0d14c09,651c1cf402e85bb8995fdc12,null,null,"<p style=""font-size: 60px; font-family: BACS"">hBmMCdPc</p>",,,,,,,,,,
html-keyboard-response,463,2156254,0.0-18.0-0.50,616494f1ae4537c01914c758,650c16f0f2faf8d7a0d14c09,651c1cf402e85bb8995fdc12,null,null,"<p style=""font-size: 60px; font-family: BACS"">AlNUvUdm</p>",,,,,,,,,,
