"trial_type","trial_index","time_elapsed","internal_node_id","subject_id","study_id","session_id","rt","response","stimulus","success","item","task","correct_response","testing_condition","correct","target","confound","name"
"pavlovia","0","1760","0.0-0.0","5eaae42f19a24d05cbd6ccb4","650c16f0f2faf8d7a0d14c09","651c1dc90abf80d58021ab6a","","","","","","","","","","","",""
"survey-html-form","1","10633","0.0-1.0","5eaae42f19a24d05cbd6ccb4","650c16f0f2faf8d7a0d14c09","651c1dc90abf80d58021ab6a","8869","{""ID"":""5eaae42f19a24d05cbd6ccb4""}","","","","","","","","","",""
"html-keyboard-response","2","27028","0.0-2.0","5eaae42f19a24d05cbd6ccb4","650c16f0f2faf8d7a0d14c09","651c1dc90abf80d58021ab6a","16393"," ","<p style=""font-size: 15px;"">Before beginning, we ask that you read the consent information and confirm your agreement to participate in the experiment.</p>
      <p style=""font-size: 15px;""> We ask that you remember that this is a research project and that your participation is entirely voluntary. You can stop your participation at any time, without needing to provide any explanation. The study we're asking you to participate in aims at examining how readers process written words. You will be engaged in a session of apprximately 20 minutes, followed by a brief questionnaire. You will have the opportunity to take a few breaks during the experiment. You will be paid £4 for your participation, corresponding to a rate of £8/hour. While this experiment looks at cognitive faculties, this experiment doesn't constitute clinical proof of eventual pathologies.</p>
      <p style=""font-size: 15px;"">All of the information collected thanks to yours and others' participation will be held in a secure password-protected server, and will not be shared with anyone not authorised to view it. Your personal information will be kept with an arbitrary participant ID. Thanks to this data anonymity process, any researcher analysing the data won't be able to track the information back to a specific participant. Therefore, this process will make identifying you impossibile, even when results from the study will be published in scientific reviews, presented at congresses, or at any other public forum. More generally, the collected data will be treated in accordance with the laws on privacy and conformity to the Legislative Degree n. 196 ""Code regarding the protection of personal data"" of the 30th of June 2003 and to the European Regulation 2016/670 (General Data Protection Regulation - GDPR). The Data Protection Officer is Avv. Valentina Carollo, who can be contacted at the following email addresses: <a href=""mailto:dpo@sissa.it"">dpo@sissa.it</a> or <a href=""mailto:rpd@sissa.it"">rpd@sissa.it</a> - PEC: <a href=""mailto:protocollo@pec.sissa.it"">protocollo@pec.sissa.it</a>.</p>
      <p style=""font-size: 15px;""> Before expressing your consent to participate, we would like to remind you again that in case you need explanations on any aspect of the experimental procedure, the researcher is at your disposition (<a href=""mailto:aliebelt@sissa.it"">aliebelt@sissa.it</a>, <a href=""mailto:davide.crepaldi@sissa.it"">davide.crepaldi@sissa.it</a>).</p>
      <p style=""font-size: 15px;"">If you would like to download the informed consent form, you can do so here: <a href=""BASL-Informed_Consent.pdf"" download>informed consent form</a>.</p>
      <p style=""font-size: 15px;"">We ask that you press the spacebar to proceed to the consent section.</p>","","","","","","","","",""
"survey-html-form","3","44646","0.0-3.0","5eaae42f19a24d05cbd6ccb4","650c16f0f2faf8d7a0d14c09","651c1dc90abf80d58021ab6a","17609","{""consent1"":""YES"",""consent2"":""YES"",""consent3"":""YES"",""consent4"":""YES"",""consent5"":""YES"",""consent6"":""YES""}","","","","","","","","","",""
"fullscreen","4","51985","0.0-4.0","5eaae42f19a24d05cbd6ccb4","650c16f0f2faf8d7a0d14c09","651c1dc90abf80d58021ab6a","","","","true","","","","","","","",""
"html-keyboard-response","5","59022","0.0-5.0","5eaae42f19a24d05cbd6ccb4","650c16f0f2faf8d7a0d14c09","651c1dc90abf80d58021ab6a","7037"," ","<p>Welcome, and thank you very much for your time!</p>
      <p>In this experiment, you'll be a language expert who's been asked to take a look at words that Earth has received in its first communication with aliens. Your task, in this first part of the experiment, is to pay close attention to the words you'll be shown; later, world leaders will ask you questions on what you saw. The words will be shown to you quite quickly; it seems that the aliens were in a hurry :-)</p>
      <p>Press the spacebar to continue.<p>","","","","","","","","",""
"html-keyboard-response","6","59083","0.0-6.0","5eaae42f19a24d05cbd6ccb4","650c16f0f2faf8d7a0d14c09","651c1dc90abf80d58021ab6a","null","null","<p style=""font-size: 120px; font-family: BACS""> </p>","","","","","","","","",""
"html-keyboard-response","7","63387","0.0-7.0","5eaae42f19a24d05cbd6ccb4","650c16f0f2faf8d7a0d14c09","651c1dc90abf80d58021ab6a","4301"," ","<p>Here is an example of the words you'll see:</p>
      <img src='esempio.png' height='400px'>
      <p>When you're ready to begin, press the spacebar.</p></div>","","","","","","","","",""
"html-keyboard-response","8","64396","0.0-8.0-0.0","5eaae42f19a24d05cbd6ccb4","650c16f0f2faf8d7a0d14c09","651c1dc90abf80d58021ab6a","null","null","<p style=""font-size: 60px; font-family: BACS"">AlNULYGA</p>","","","","","","","","",""
"html-keyboard-response","9","65401","0.0-8.0-0.1","5eaae42f19a24d05cbd6ccb4","650c16f0f2faf8d7a0d14c09","651c1dc90abf80d58021ab6a","null","null","<p style=""font-size: 60px; font-family: BACS"">hChYTRkY</p>","","","","","","","","",""
"html-keyboard-response","10","66414","0.0-8.0-0.2","5eaae42f19a24d05cbd6ccb4","650c16f0f2faf8d7a0d14c09","651c1dc90abf80d58021ab6a","null","null","<p style=""font-size: 60px; font-family: BACS"">BKDRYhRKm</p>","","","","","","","","",""
"html-keyboard-response","11","67430","0.0-8.0-0.3","5eaae42f19a24d05cbd6ccb4","650c16f0f2faf8d7a0d14c09","651c1dc90abf80d58021ab6a","null","null","<p style=""font-size: 60px; font-family: BACS"">aNYmbrkra</p>","","","","","","","","",""
"html-keyboard-response","12","68436","0.0-8.0-0.4","5eaae42f19a24d05cbd6ccb4","650c16f0f2faf8d7a0d14c09","651c1dc90abf80d58021ab6a","null","null","<p style=""font-size: 60px; font-family: BACS"">vclYcUN</p>","","","","","","","","",""
"html-keyboard-response","13","69449","0.0-8.0-0.5","5eaae42f19a24d05cbd6ccb4","650c16f0f2faf8d7a0d14c09","651c1dc90abf80d58021ab6a","null","null","<p style=""font-size: 60px; font-family: BACS"">kMbTRKmE</p>","","","","","","","","",""
"html-keyboard-response","14","70460","0.0-8.0-0.6","5eaae42f19a24d05cbd6ccb4","650c16f0f2faf8d7a0d14c09","651c1dc90abf80d58021ab6a","null","null","<p style=""font-size: 60px; font-family: BACS"">vJabNYZu</p>","","","","","","","","",""
"html-keyboard-response","15","71475","0.0-8.0-0.7","5eaae42f19a24d05cbd6ccb4","650c16f0f2faf8d7a0d14c09","651c1dc90abf80d58021ab6a","null","null","<p style=""font-size: 60px; font-family: BACS"">rbYburavu</p>","","","","","","","","",""
"html-keyboard-response","16","72491","0.0-8.0-0.8","5eaae42f19a24d05cbd6ccb4","650c16f0f2faf8d7a0d14c09","651c1dc90abf80d58021ab6a","null","null","<p style=""font-size: 60px; font-family: BACS"">BEPOlRE</p>","","","","","","","","",""
"html-keyboard-response","17","73505","0.0-8.0-0.9","5eaae42f19a24d05cbd6ccb4","650c16f0f2faf8d7a0d14c09","651c1dc90abf80d58021ab6a","null","null","<p style=""font-size: 60px; font-family: BACS"">rbYbuNYZu</p>","","","","","","","","",""
"html-keyboard-response","18","74506","0.0-8.0-0.10","5eaae42f19a24d05cbd6ccb4","650c16f0f2faf8d7a0d14c09","651c1dc90abf80d58021ab6a","null","null","<p style=""font-size: 60px; font-family: BACS"">vAuNlravu</p>","","","","","","","","",""
"html-keyboard-response","19","75519","0.0-8.0-0.11","5eaae42f19a24d05cbd6ccb4","650c16f0f2faf8d7a0d14c09","651c1dc90abf80d58021ab6a","null","null","<p style=""font-size: 60px; font-family: BACS"">BKDRYDOk</p>","","","","","","","","",""
"html-keyboard-response","20","76531","0.0-8.0-0.12","5eaae42f19a24d05cbd6ccb4","650c16f0f2faf8d7a0d14c09","651c1dc90abf80d58021ab6a","null","null","<p style=""font-size: 60px; font-family: BACS"">vJabrkra</p>","","","","","","","","",""
"html-keyboard-response","21","77540","0.0-8.0-0.13","5eaae42f19a24d05cbd6ccb4","650c16f0f2faf8d7a0d14c09","651c1dc90abf80d58021ab6a","null","null","<p style=""font-size: 60px; font-family: BACS"">AlNUravu</p>","","","","","","","","",""
"html-keyboard-response","22","78550","0.0-8.0-0.14","5eaae42f19a24d05cbd6ccb4","650c16f0f2faf8d7a0d14c09","651c1dc90abf80d58021ab6a","null","null","<p style=""font-size: 60px; font-family: BACS"">BKDRYKmE</p>","","","","","","","","",""
"html-keyboard-response","23","79562","0.0-8.0-0.15","5eaae42f19a24d05cbd6ccb4","650c16f0f2faf8d7a0d14c09","651c1dc90abf80d58021ab6a","null","null","<p style=""font-size: 60px; font-family: BACS"">PEkhAhRKm</p>","","","","","","","","",""
"html-keyboard-response","24","80571","0.0-8.0-0.16","5eaae42f19a24d05cbd6ccb4","650c16f0f2faf8d7a0d14c09","651c1dc90abf80d58021ab6a","null","null","<p style=""font-size: 60px; font-family: BACS"">vAuNlLYGA</p>","","","","","","","","",""
"html-keyboard-response","25","81583","0.0-8.0-0.17","5eaae42f19a24d05cbd6ccb4","650c16f0f2faf8d7a0d14c09","651c1dc90abf80d58021ab6a","null","null","<p style=""font-size: 60px; font-family: BACS"">RlAKcDOk</p>","","","","","","","","",""
"html-keyboard-response","26","82595","0.0-8.0-0.18","5eaae42f19a24d05cbd6ccb4","650c16f0f2faf8d7a0d14c09","651c1dc90abf80d58021ab6a","null","null","<p style=""font-size: 60px; font-family: BACS"">ktBdKmE</p>","","","","","","","","",""
"html-keyboard-response","27","83606","0.0-8.0-0.19","5eaae42f19a24d05cbd6ccb4","650c16f0f2faf8d7a0d14c09","651c1dc90abf80d58021ab6a","null","null","<p style=""font-size: 60px; font-family: BACS"">aLNlkrkra</p>","","","","","","","","",""
"html-keyboard-response","28","84607","0.0-8.0-0.20","5eaae42f19a24d05cbd6ccb4","650c16f0f2faf8d7a0d14c09","651c1dc90abf80d58021ab6a","null","null","<p style=""font-size: 60px; font-family: BACS"">QcladLYGA</p>","","","","","","","","",""
"html-keyboard-response","29","85616","0.0-8.0-0.21","5eaae42f19a24d05cbd6ccb4","650c16f0f2faf8d7a0d14c09","651c1dc90abf80d58021ab6a","null","null","<p style=""font-size: 60px; font-family: BACS"">BEPOTRkY</p>","","","","","","","","",""
"html-keyboard-response","30","86631","0.0-8.0-0.22","5eaae42f19a24d05cbd6ccb4","650c16f0f2faf8d7a0d14c09","651c1dc90abf80d58021ab6a","null","null","<p style=""font-size: 60px; font-family: BACS"">RlAKclRE</p>","","","","","","","","",""
"html-keyboard-response","31","87644","0.0-8.0-0.23","5eaae42f19a24d05cbd6ccb4","650c16f0f2faf8d7a0d14c09","651c1dc90abf80d58021ab6a","null","null","<p style=""font-size: 60px; font-family: BACS"">aLNlkravu</p>","","","","","","","","",""
"html-keyboard-response","32","88659","0.0-8.0-0.24","5eaae42f19a24d05cbd6ccb4","650c16f0f2faf8d7a0d14c09","651c1dc90abf80d58021ab6a","null","null","<p style=""font-size: 60px; font-family: BACS"">hChYhRKm</p>","","","","","","","","",""
"html-keyboard-response","33","89671","0.0-8.0-0.25","5eaae42f19a24d05cbd6ccb4","650c16f0f2faf8d7a0d14c09","651c1dc90abf80d58021ab6a","null","null","<p style=""font-size: 60px; font-family: BACS"">DdckDOk</p>","","","","","","","","",""
"html-keyboard-response","34","90674","0.0-8.0-0.26","5eaae42f19a24d05cbd6ccb4","650c16f0f2faf8d7a0d14c09","651c1dc90abf80d58021ab6a","null","null","<p style=""font-size: 60px; font-family: BACS"">aLNlkLYGA</p>","","","","","","","","",""
"html-keyboard-response","35","91678","0.0-8.0-0.27","5eaae42f19a24d05cbd6ccb4","650c16f0f2faf8d7a0d14c09","651c1dc90abf80d58021ab6a","null","null","<p style=""font-size: 60px; font-family: BACS"">aNYmbcUN</p>","","","","","","","","",""
"html-keyboard-response","36","92681","0.0-8.0-0.28","5eaae42f19a24d05cbd6ccb4","650c16f0f2faf8d7a0d14c09","651c1dc90abf80d58021ab6a","null","null","<p style=""font-size: 60px; font-family: BACS"">ktBdlRE</p>","","","","","","","","",""
"html-keyboard-response","37","93690","0.0-8.0-0.29","5eaae42f19a24d05cbd6ccb4","650c16f0f2faf8d7a0d14c09","651c1dc90abf80d58021ab6a","null","null","<p style=""font-size: 60px; font-family: BACS"">rbYburkra</p>","","","","","","","","",""
"html-keyboard-response","38","94695","0.0-8.0-0.30","5eaae42f19a24d05cbd6ccb4","650c16f0f2faf8d7a0d14c09","651c1dc90abf80d58021ab6a","null","null","<p style=""font-size: 60px; font-family: BACS"">PEkhADOk</p>","","","","","","","","",""
"html-keyboard-response","39","95706","0.0-8.0-0.31","5eaae42f19a24d05cbd6ccb4","650c16f0f2faf8d7a0d14c09","651c1dc90abf80d58021ab6a","null","null","<p style=""font-size: 60px; font-family: BACS"">dvNvALYGA</p>","","","","","","","","",""
"html-keyboard-response","40","96717","0.0-8.0-0.32","5eaae42f19a24d05cbd6ccb4","650c16f0f2faf8d7a0d14c09","651c1dc90abf80d58021ab6a","null","null","<p style=""font-size: 60px; font-family: BACS"">mARMlRE</p>","","","","","","","","",""
"html-keyboard-response","41","97731","0.0-8.0-0.33","5eaae42f19a24d05cbd6ccb4","650c16f0f2faf8d7a0d14c09","651c1dc90abf80d58021ab6a","null","null","<p style=""font-size: 60px; font-family: BACS"">aNYmbLYGA</p>","","","","","","","","",""
"html-keyboard-response","42","98745","0.0-8.0-0.34","5eaae42f19a24d05cbd6ccb4","650c16f0f2faf8d7a0d14c09","651c1dc90abf80d58021ab6a","null","null","<p style=""font-size: 60px; font-family: BACS"">mARMTRkY</p>","","","","","","","","",""
"html-keyboard-response","43","99760","0.0-8.0-0.35","5eaae42f19a24d05cbd6ccb4","650c16f0f2faf8d7a0d14c09","651c1dc90abf80d58021ab6a","null","null","<p style=""font-size: 60px; font-family: BACS"">aLNlkNYZu</p>","","","","","","","","",""
"html-keyboard-response","44","100772","0.0-8.0-0.36","5eaae42f19a24d05cbd6ccb4","650c16f0f2faf8d7a0d14c09","651c1dc90abf80d58021ab6a","null","null","<p style=""font-size: 60px; font-family: BACS"">dvNvArkra</p>","","","","","","","","",""
"html-keyboard-response","45","101785","0.0-8.0-0.37","5eaae42f19a24d05cbd6ccb4","650c16f0f2faf8d7a0d14c09","651c1dc90abf80d58021ab6a","null","null","<p style=""font-size: 60px; font-family: BACS"">aNYmbNYZu</p>","","","","","","","","",""
"html-keyboard-response","46","102800","0.0-8.0-0.38","5eaae42f19a24d05cbd6ccb4","650c16f0f2faf8d7a0d14c09","651c1dc90abf80d58021ab6a","null","null","<p style=""font-size: 60px; font-family: BACS"">kMbTRlRE</p>","","","","","","","","",""
"html-keyboard-response","47","103815","0.0-8.0-0.39","5eaae42f19a24d05cbd6ccb4","650c16f0f2faf8d7a0d14c09","651c1dc90abf80d58021ab6a","null","null","<p style=""font-size: 60px; font-family: BACS"">QcladNYZu</p>","","","","","","","","",""
"html-keyboard-response","48","104816","0.0-8.0-0.40","5eaae42f19a24d05cbd6ccb4","650c16f0f2faf8d7a0d14c09","651c1dc90abf80d58021ab6a","null","null","<p style=""font-size: 60px; font-family: BACS"">kMbTRDOk</p>","","","","","","","","",""
"html-keyboard-response","49","105827","0.0-8.0-0.41","5eaae42f19a24d05cbd6ccb4","650c16f0f2faf8d7a0d14c09","651c1dc90abf80d58021ab6a","null","null","<p style=""font-size: 60px; font-family: BACS"">OdlNmravu</p>","","","","","","","","",""
"html-keyboard-response","50","106838","0.0-8.0-0.42","5eaae42f19a24d05cbd6ccb4","650c16f0f2faf8d7a0d14c09","651c1dc90abf80d58021ab6a","null","null","<p style=""font-size: 60px; font-family: BACS"">ACcOTRkY</p>","","","","","","","","",""
"html-keyboard-response","51","107852","0.0-8.0-0.43","5eaae42f19a24d05cbd6ccb4","650c16f0f2faf8d7a0d14c09","651c1dc90abf80d58021ab6a","null","null","<p style=""font-size: 60px; font-family: BACS"">DdcklRE</p>","","","","","","","","",""
"html-keyboard-response","52","108867","0.0-8.0-0.44","5eaae42f19a24d05cbd6ccb4","650c16f0f2faf8d7a0d14c09","651c1dc90abf80d58021ab6a","null","null","<p style=""font-size: 60px; font-family: BACS"">ktBdhRKm</p>","","","","","","","","",""
"html-keyboard-response","53","109881","0.0-8.0-0.45","5eaae42f19a24d05cbd6ccb4","650c16f0f2faf8d7a0d14c09","651c1dc90abf80d58021ab6a","null","null","<p style=""font-size: 60px; font-family: BACS"">OdlNmNYZu</p>","","","","","","","","",""
"html-keyboard-response","54","110890","0.0-8.0-0.46","5eaae42f19a24d05cbd6ccb4","650c16f0f2faf8d7a0d14c09","651c1dc90abf80d58021ab6a","null","null","<p style=""font-size: 60px; font-family: BACS"">ktBdDOk</p>","","","","","","","","",""
"html-keyboard-response","55","111894","0.0-8.0-0.47","5eaae42f19a24d05cbd6ccb4","650c16f0f2faf8d7a0d14c09","651c1dc90abf80d58021ab6a","null","null","<p style=""font-size: 60px; font-family: BACS"">vAuNlcUN</p>","","","","","","","","",""
"html-keyboard-response","56","112900","0.0-8.0-0.48","5eaae42f19a24d05cbd6ccb4","650c16f0f2faf8d7a0d14c09","651c1dc90abf80d58021ab6a","null","null","<p style=""font-size: 60px; font-family: BACS"">RlAKcKmE</p>","","","","","","","","",""
"html-keyboard-response","57","113915","0.0-8.0-0.49","5eaae42f19a24d05cbd6ccb4","650c16f0f2faf8d7a0d14c09","651c1dc90abf80d58021ab6a","null","null","<p style=""font-size: 60px; font-family: BACS"">dvNvAravu</p>","","","","","","","","",""
"html-keyboard-response","58","114929","0.0-8.0-0.50","5eaae42f19a24d05cbd6ccb4","650c16f0f2faf8d7a0d14c09","651c1dc90abf80d58021ab6a","null","null","<p style=""font-size: 60px; font-family: BACS"">rbYbucUN</p>","","","","","","","","",""
"html-keyboard-response","59","115942","0.0-8.0-0.51","5eaae42f19a24d05cbd6ccb4","650c16f0f2faf8d7a0d14c09","651c1dc90abf80d58021ab6a","null","null","<p style=""font-size: 60px; font-family: BACS"">AlNUNYZu</p>","","","","","","","","",""
"html-keyboard-response","60","116956","0.0-8.0-0.52","5eaae42f19a24d05cbd6ccb4","650c16f0f2faf8d7a0d14c09","651c1dc90abf80d58021ab6a","null","null","<p style=""font-size: 60px; font-family: BACS"">vJabcUN</p>","","","","","","","","",""
"html-keyboard-response","61","117968","0.0-8.0-0.53","5eaae42f19a24d05cbd6ccb4","650c16f0f2faf8d7a0d14c09","651c1dc90abf80d58021ab6a","null","null","<p style=""font-size: 60px; font-family: BACS"">vclYrkra</p>","","","","","","","","",""
"html-keyboard-response","62","118981","0.0-8.0-0.54","5eaae42f19a24d05cbd6ccb4","650c16f0f2faf8d7a0d14c09","651c1dc90abf80d58021ab6a","null","null","<p style=""font-size: 60px; font-family: BACS"">BEPOKmE</p>","","","","","","","","",""
"html-keyboard-response","63","119995","0.0-8.0-0.55","5eaae42f19a24d05cbd6ccb4","650c16f0f2faf8d7a0d14c09","651c1dc90abf80d58021ab6a","null","null","<p style=""font-size: 60px; font-family: BACS"">kMbTRTRkY</p>","","","","","","","","",""
"html-keyboard-response","64","121007","0.0-8.0-0.56","5eaae42f19a24d05cbd6ccb4","650c16f0f2faf8d7a0d14c09","651c1dc90abf80d58021ab6a","null","null","<p style=""font-size: 60px; font-family: BACS"">hChYDOk</p>","","","","","","","","",""
"html-keyboard-response","65","122021","0.0-8.0-0.57","5eaae42f19a24d05cbd6ccb4","650c16f0f2faf8d7a0d14c09","651c1dc90abf80d58021ab6a","null","null","<p style=""font-size: 60px; font-family: BACS"">PEkhAKmE</p>","","","","","","","","",""
"html-keyboard-response","66","123030","0.0-8.0-0.58","5eaae42f19a24d05cbd6ccb4","650c16f0f2faf8d7a0d14c09","651c1dc90abf80d58021ab6a","null","null","<p style=""font-size: 60px; font-family: BACS"">hChYlRE</p>","","","","","","","","",""
"html-keyboard-response","67","124037","0.0-8.0-0.59","5eaae42f19a24d05cbd6ccb4","650c16f0f2faf8d7a0d14c09","651c1dc90abf80d58021ab6a","null","null","<p style=""font-size: 60px; font-family: BACS"">DdckKmE</p>","","","","","","","","",""
"html-keyboard-response","68","125044","0.0-8.0-0.60","5eaae42f19a24d05cbd6ccb4","650c16f0f2faf8d7a0d14c09","651c1dc90abf80d58021ab6a","null","null","<p style=""font-size: 60px; font-family: BACS"">RlAKcTRkY</p>","","","","","","","","",""
"html-keyboard-response","69","126059","0.0-8.0-0.61","5eaae42f19a24d05cbd6ccb4","650c16f0f2faf8d7a0d14c09","651c1dc90abf80d58021ab6a","null","null","<p style=""font-size: 60px; font-family: BACS"">vclYNYZu</p>","","","","","","","","",""
"html-keyboard-response","70","127069","0.0-8.0-0.62","5eaae42f19a24d05cbd6ccb4","650c16f0f2faf8d7a0d14c09","651c1dc90abf80d58021ab6a","null","null","<p style=""font-size: 60px; font-family: BACS"">OdlNmLYGA</p>","","","","","","","","",""
"html-keyboard-response","71","128084","0.0-8.0-0.63","5eaae42f19a24d05cbd6ccb4","650c16f0f2faf8d7a0d14c09","651c1dc90abf80d58021ab6a","null","null","<p style=""font-size: 60px; font-family: BACS"">mARMDOk</p>","","","","","","","","",""
"html-keyboard-response","72","129086","0.0-8.0-0.64","5eaae42f19a24d05cbd6ccb4","650c16f0f2faf8d7a0d14c09","651c1dc90abf80d58021ab6a","null","null","<p style=""font-size: 60px; font-family: BACS"">BKDRYTRkY</p>","","","","","","","","",""
"html-keyboard-response","73","130102","0.0-8.0-0.65","5eaae42f19a24d05cbd6ccb4","650c16f0f2faf8d7a0d14c09","651c1dc90abf80d58021ab6a","null","null","<p style=""font-size: 60px; font-family: BACS"">ACcOlRE</p>","","","","","","","","",""
"html-keyboard-response","74","131116","0.0-8.0-0.66","5eaae42f19a24d05cbd6ccb4","650c16f0f2faf8d7a0d14c09","651c1dc90abf80d58021ab6a","null","null","<p style=""font-size: 60px; font-family: BACS"">mARMhRKm</p>","","","","","","","","",""
"html-keyboard-response","75","132131","0.0-8.0-0.67","5eaae42f19a24d05cbd6ccb4","650c16f0f2faf8d7a0d14c09","651c1dc90abf80d58021ab6a","null","null","<p style=""font-size: 60px; font-family: BACS"">vclYravu</p>","","","","","","","","",""
"html-keyboard-response","76","133145","0.0-8.0-0.68","5eaae42f19a24d05cbd6ccb4","650c16f0f2faf8d7a0d14c09","651c1dc90abf80d58021ab6a","null","null","<p style=""font-size: 60px; font-family: BACS"">AlNUcUN</p>","","","","","","","","",""
"html-keyboard-response","77","134160","0.0-8.0-0.69","5eaae42f19a24d05cbd6ccb4","650c16f0f2faf8d7a0d14c09","651c1dc90abf80d58021ab6a","null","null","<p style=""font-size: 60px; font-family: BACS"">ACcOhRKm</p>","","","","","","","","",""
"html-keyboard-response","78","135174","0.0-8.0-0.70","5eaae42f19a24d05cbd6ccb4","650c16f0f2faf8d7a0d14c09","651c1dc90abf80d58021ab6a","null","null","<p style=""font-size: 60px; font-family: BACS"">vJabLYGA</p>","","","","","","","","",""
"html-keyboard-response","79","136179","0.0-8.0-0.71","5eaae42f19a24d05cbd6ccb4","650c16f0f2faf8d7a0d14c09","651c1dc90abf80d58021ab6a","null","null","<p style=""font-size: 60px; font-family: BACS"">vAuNlrkra</p>","","","","","","","","",""
"html-keyboard-response","80","137193","0.0-8.0-0.72","5eaae42f19a24d05cbd6ccb4","650c16f0f2faf8d7a0d14c09","651c1dc90abf80d58021ab6a","null","null","<p style=""font-size: 60px; font-family: BACS"">DdckhRKm</p>","","","","","","","","",""
"html-keyboard-response","81","138209","0.0-8.0-0.73","5eaae42f19a24d05cbd6ccb4","650c16f0f2faf8d7a0d14c09","651c1dc90abf80d58021ab6a","null","null","<p style=""font-size: 60px; font-family: BACS"">OdlNmcUN</p>","","","","","","","","",""
"html-keyboard-response","82","139224","0.0-8.0-0.74","5eaae42f19a24d05cbd6ccb4","650c16f0f2faf8d7a0d14c09","651c1dc90abf80d58021ab6a","null","null","<p style=""font-size: 60px; font-family: BACS"">Qcladravu</p>","","","","","","","","",""
"html-keyboard-response","83","140236","0.0-8.0-0.75","5eaae42f19a24d05cbd6ccb4","650c16f0f2faf8d7a0d14c09","651c1dc90abf80d58021ab6a","null","null","<p style=""font-size: 60px; font-family: BACS"">BEPOhRKm</p>","","","","","","","","",""
"html-keyboard-response","84","141243","0.0-8.0-0.76","5eaae42f19a24d05cbd6ccb4","650c16f0f2faf8d7a0d14c09","651c1dc90abf80d58021ab6a","null","null","<p style=""font-size: 60px; font-family: BACS"">ACcOKmE</p>","","","","","","","","",""
"html-keyboard-response","85","142251","0.0-8.0-0.77","5eaae42f19a24d05cbd6ccb4","650c16f0f2faf8d7a0d14c09","651c1dc90abf80d58021ab6a","null","null","<p style=""font-size: 60px; font-family: BACS"">Qcladrkra</p>","","","","","","","","",""
"html-keyboard-response","86","143263","0.0-8.0-0.78","5eaae42f19a24d05cbd6ccb4","650c16f0f2faf8d7a0d14c09","651c1dc90abf80d58021ab6a","null","null","<p style=""font-size: 60px; font-family: BACS"">PEkhATRkY</p>","","","","","","","","",""
"html-keyboard-response","87","144278","0.0-8.0-0.79","5eaae42f19a24d05cbd6ccb4","650c16f0f2faf8d7a0d14c09","651c1dc90abf80d58021ab6a","null","null","<p style=""font-size: 60px; font-family: BACS"">dvNvAcUN</p>","","","","","","","","",""
"html-keyboard-response","88","208731","0.0-9.0","5eaae42f19a24d05cbd6ccb4","650c16f0f2faf8d7a0d14c09","651c1dc90abf80d58021ab6a","64453"," ","<p>Great, you've seen the first block of words. You may now take a short break.</p>
      <p>Press the spacebar when you're ready to continue.</p>","","","","","","","","",""
"html-keyboard-response","89","209740","0.0-10.0-0.0","5eaae42f19a24d05cbd6ccb4","650c16f0f2faf8d7a0d14c09","651c1dc90abf80d58021ab6a","null","null","<p style=""font-size: 60px; font-family: BACS"">mARMTRkY</p>","","","","","","","","",""
"html-keyboard-response","90","210755","0.0-10.0-0.1","5eaae42f19a24d05cbd6ccb4","650c16f0f2faf8d7a0d14c09","651c1dc90abf80d58021ab6a","null","null","<p style=""font-size: 60px; font-family: BACS"">rbYburavu</p>","","","","","","","","",""
"html-keyboard-response","91","211768","0.0-10.0-0.2","5eaae42f19a24d05cbd6ccb4","650c16f0f2faf8d7a0d14c09","651c1dc90abf80d58021ab6a","null","null","<p style=""font-size: 60px; font-family: BACS"">BKDRYhRKm</p>","","","","","","","","",""
"html-keyboard-response","92","212781","0.0-10.0-0.3","5eaae42f19a24d05cbd6ccb4","650c16f0f2faf8d7a0d14c09","651c1dc90abf80d58021ab6a","null","null","<p style=""font-size: 60px; font-family: BACS"">OdlNmLYGA</p>","","","","","","","","",""
"html-keyboard-response","93","213784","0.0-10.0-0.4","5eaae42f19a24d05cbd6ccb4","650c16f0f2faf8d7a0d14c09","651c1dc90abf80d58021ab6a","null","null","<p style=""font-size: 60px; font-family: BACS"">PEkhAKmE</p>","","","","","","","","",""
"html-keyboard-response","94","214799","0.0-10.0-0.5","5eaae42f19a24d05cbd6ccb4","650c16f0f2faf8d7a0d14c09","651c1dc90abf80d58021ab6a","null","null","<p style=""font-size: 60px; font-family: BACS"">aNYmbNYZu</p>","","","","","","","","",""
"html-keyboard-response","95","215811","0.0-10.0-0.6","5eaae42f19a24d05cbd6ccb4","650c16f0f2faf8d7a0d14c09","651c1dc90abf80d58021ab6a","null","null","<p style=""font-size: 60px; font-family: BACS"">ACcOKmE</p>","","","","","","","","",""
"html-keyboard-response","96","216827","0.0-10.0-0.7","5eaae42f19a24d05cbd6ccb4","650c16f0f2faf8d7a0d14c09","651c1dc90abf80d58021ab6a","null","null","<p style=""font-size: 60px; font-family: BACS"">vJabrkra</p>","","","","","","","","",""
"html-keyboard-response","97","217839","0.0-10.0-0.8","5eaae42f19a24d05cbd6ccb4","650c16f0f2faf8d7a0d14c09","651c1dc90abf80d58021ab6a","null","null","<p style=""font-size: 60px; font-family: BACS"">dvNvAcUN</p>","","","","","","","","",""
"html-keyboard-response","98","218842","0.0-10.0-0.9","5eaae42f19a24d05cbd6ccb4","650c16f0f2faf8d7a0d14c09","651c1dc90abf80d58021ab6a","null","null","<p style=""font-size: 60px; font-family: BACS"">QcladLYGA</p>","","","","","","","","",""
"html-keyboard-response","99","219849","0.0-10.0-0.10","5eaae42f19a24d05cbd6ccb4","650c16f0f2faf8d7a0d14c09","651c1dc90abf80d58021ab6a","null","null","<p style=""font-size: 60px; font-family: BACS"">aNYmbrkra</p>","","","","","","","","",""
"html-keyboard-response","100","220862","0.0-10.0-0.11","5eaae42f19a24d05cbd6ccb4","650c16f0f2faf8d7a0d14c09","651c1dc90abf80d58021ab6a","null","null","<p style=""font-size: 60px; font-family: BACS"">hChYTRkY</p>","","","","","","","","",""
"html-keyboard-response","101","221862","0.0-10.0-0.12","5eaae42f19a24d05cbd6ccb4","650c16f0f2faf8d7a0d14c09","651c1dc90abf80d58021ab6a","null","null","<p style=""font-size: 60px; font-family: BACS"">dvNvArkra</p>","","","","","","","","",""
"html-keyboard-response","102","222866","0.0-10.0-0.13","5eaae42f19a24d05cbd6ccb4","650c16f0f2faf8d7a0d14c09","651c1dc90abf80d58021ab6a","null","null","<p style=""font-size: 60px; font-family: BACS"">vJabNYZu</p>","","","","","","","","",""
"html-keyboard-response","103","223867","0.0-10.0-0.14","5eaae42f19a24d05cbd6ccb4","650c16f0f2faf8d7a0d14c09","651c1dc90abf80d58021ab6a","null","null","<p style=""font-size: 60px; font-family: BACS"">vAuNlrkra</p>","","","","","","","","",""
"html-keyboard-response","104","224895","0.0-10.0-0.15","5eaae42f19a24d05cbd6ccb4","650c16f0f2faf8d7a0d14c09","651c1dc90abf80d58021ab6a","null","null","<p style=""font-size: 60px; font-family: BACS"">RlAKcTRkY</p>","","","","","","","","",""
"html-keyboard-response","105","225896","0.0-10.0-0.16","5eaae42f19a24d05cbd6ccb4","650c16f0f2faf8d7a0d14c09","651c1dc90abf80d58021ab6a","null","null","<p style=""font-size: 60px; font-family: BACS"">DdckDOk</p>","","","","","","","","",""
"html-keyboard-response","106","226897","0.0-10.0-0.17","5eaae42f19a24d05cbd6ccb4","650c16f0f2faf8d7a0d14c09","651c1dc90abf80d58021ab6a","null","null","<p style=""font-size: 60px; font-family: BACS"">RlAKcKmE</p>","","","","","","","","",""
"html-keyboard-response","107","227912","0.0-10.0-0.18","5eaae42f19a24d05cbd6ccb4","650c16f0f2faf8d7a0d14c09","651c1dc90abf80d58021ab6a","null","null","<p style=""font-size: 60px; font-family: BACS"">aLNlkrkra</p>","","","","","","","","",""
"html-keyboard-response","108","228925","0.0-10.0-0.19","5eaae42f19a24d05cbd6ccb4","650c16f0f2faf8d7a0d14c09","651c1dc90abf80d58021ab6a","null","null","<p style=""font-size: 60px; font-family: BACS"">BEPOKmE</p>","","","","","","","","",""
"html-keyboard-response","109","229934","0.0-10.0-0.20","5eaae42f19a24d05cbd6ccb4","650c16f0f2faf8d7a0d14c09","651c1dc90abf80d58021ab6a","null","null","<p style=""font-size: 60px; font-family: BACS"">hChYhRKm</p>","","","","","","","","",""
"html-keyboard-response","110","230939","0.0-10.0-0.21","5eaae42f19a24d05cbd6ccb4","650c16f0f2faf8d7a0d14c09","651c1dc90abf80d58021ab6a","null","null","<p style=""font-size: 60px; font-family: BACS"">BKDRYKmE</p>","","","","","","","","",""
"html-keyboard-response","111","231945","0.0-10.0-0.22","5eaae42f19a24d05cbd6ccb4","650c16f0f2faf8d7a0d14c09","651c1dc90abf80d58021ab6a","null","null","<p style=""font-size: 60px; font-family: BACS"">kMbTRlRE</p>","","","","","","","","",""
"html-keyboard-response","112","232949","0.0-10.0-0.23","5eaae42f19a24d05cbd6ccb4","650c16f0f2faf8d7a0d14c09","651c1dc90abf80d58021ab6a","null","null","<p style=""font-size: 60px; font-family: BACS"">BKDRYDOk</p>","","","","","","","","",""
"html-keyboard-response","113","233963","0.0-10.0-0.24","5eaae42f19a24d05cbd6ccb4","650c16f0f2faf8d7a0d14c09","651c1dc90abf80d58021ab6a","null","null","<p style=""font-size: 60px; font-family: BACS"">ACcOTRkY</p>","","","","","","","","",""
"html-keyboard-response","114","234964","0.0-10.0-0.25","5eaae42f19a24d05cbd6ccb4","650c16f0f2faf8d7a0d14c09","651c1dc90abf80d58021ab6a","null","null","<p style=""font-size: 60px; font-family: BACS"">OdlNmNYZu</p>","","","","","","","","",""
"html-keyboard-response","115","235978","0.0-10.0-0.26","5eaae42f19a24d05cbd6ccb4","650c16f0f2faf8d7a0d14c09","651c1dc90abf80d58021ab6a","null","null","<p style=""font-size: 60px; font-family: BACS"">kMbTRTRkY</p>","","","","","","","","",""
"html-keyboard-response","116","236993","0.0-10.0-0.27","5eaae42f19a24d05cbd6ccb4","650c16f0f2faf8d7a0d14c09","651c1dc90abf80d58021ab6a","null","null","<p style=""font-size: 60px; font-family: BACS"">AlNUcUN</p>","","","","","","","","",""
"html-keyboard-response","117","238006","0.0-10.0-0.28","5eaae42f19a24d05cbd6ccb4","650c16f0f2faf8d7a0d14c09","651c1dc90abf80d58021ab6a","null","null","<p style=""font-size: 60px; font-family: BACS"">RlAKcDOk</p>","","","","","","","","",""
"html-keyboard-response","118","239020","0.0-10.0-0.29","5eaae42f19a24d05cbd6ccb4","650c16f0f2faf8d7a0d14c09","651c1dc90abf80d58021ab6a","null","null","<p style=""font-size: 60px; font-family: BACS"">ktBdhRKm</p>","","","","","","","","",""
"html-keyboard-response","119","240024","0.0-10.0-0.30","5eaae42f19a24d05cbd6ccb4","650c16f0f2faf8d7a0d14c09","651c1dc90abf80d58021ab6a","null","null","<p style=""font-size: 60px; font-family: BACS"">aLNlkLYGA</p>","","","","","","","","",""
"html-keyboard-response","120","241033","0.0-10.0-0.31","5eaae42f19a24d05cbd6ccb4","650c16f0f2faf8d7a0d14c09","651c1dc90abf80d58021ab6a","null","null","<p style=""font-size: 60px; font-family: BACS"">PEkhATRkY</p>","","","","","","","","",""
"html-keyboard-response","121","242048","0.0-10.0-0.32","5eaae42f19a24d05cbd6ccb4","650c16f0f2faf8d7a0d14c09","651c1dc90abf80d58021ab6a","null","null","<p style=""font-size: 60px; font-family: BACS"">hChYDOk</p>","","","","","","","","",""
"html-keyboard-response","122","243062","0.0-10.0-0.33","5eaae42f19a24d05cbd6ccb4","650c16f0f2faf8d7a0d14c09","651c1dc90abf80d58021ab6a","null","null","<p style=""font-size: 60px; font-family: BACS"">DdckKmE</p>","","","","","","","","",""
"html-keyboard-response","123","244077","0.0-10.0-0.34","5eaae42f19a24d05cbd6ccb4","650c16f0f2faf8d7a0d14c09","651c1dc90abf80d58021ab6a","null","null","<p style=""font-size: 60px; font-family: BACS"">vclYcUN</p>","","","","","","","","",""
"html-keyboard-response","124","245089","0.0-10.0-0.35","5eaae42f19a24d05cbd6ccb4","650c16f0f2faf8d7a0d14c09","651c1dc90abf80d58021ab6a","null","null","<p style=""font-size: 60px; font-family: BACS"">rbYburkra</p>","","","","","","","","",""
"html-keyboard-response","125","246091","0.0-10.0-0.36","5eaae42f19a24d05cbd6ccb4","650c16f0f2faf8d7a0d14c09","651c1dc90abf80d58021ab6a","null","null","<p style=""font-size: 60px; font-family: BACS"">RlAKclRE</p>","","","","","","","","",""
"html-keyboard-response","126","247101","0.0-10.0-0.37","5eaae42f19a24d05cbd6ccb4","650c16f0f2faf8d7a0d14c09","651c1dc90abf80d58021ab6a","null","null","<p style=""font-size: 60px; font-family: BACS"">rbYbuNYZu</p>","","","","","","","","",""
"html-keyboard-response","127","248104","0.0-10.0-0.38","5eaae42f19a24d05cbd6ccb4","650c16f0f2faf8d7a0d14c09","651c1dc90abf80d58021ab6a","null","null","<p style=""font-size: 60px; font-family: BACS"">Qcladrkra</p>","","","","","","","","",""
"html-keyboard-response","128","249116","0.0-10.0-0.39","5eaae42f19a24d05cbd6ccb4","650c16f0f2faf8d7a0d14c09","651c1dc90abf80d58021ab6a","null","null","<p style=""font-size: 60px; font-family: BACS"">AlNULYGA</p>","","","","","","","","",""
"html-keyboard-response","129","250128","0.0-10.0-0.40","5eaae42f19a24d05cbd6ccb4","650c16f0f2faf8d7a0d14c09","651c1dc90abf80d58021ab6a","null","null","<p style=""font-size: 60px; font-family: BACS"">QcladNYZu</p>","","","","","","","","",""
"html-keyboard-response","130","251143","0.0-10.0-0.41","5eaae42f19a24d05cbd6ccb4","650c16f0f2faf8d7a0d14c09","651c1dc90abf80d58021ab6a","null","null","<p style=""font-size: 60px; font-family: BACS"">vclYrkra</p>","","","","","","","","",""
"html-keyboard-response","131","252154","0.0-10.0-0.42","5eaae42f19a24d05cbd6ccb4","650c16f0f2faf8d7a0d14c09","651c1dc90abf80d58021ab6a","null","null","<p style=""font-size: 60px; font-family: BACS"">rbYbucUN</p>","","","","","","","","",""
"html-keyboard-response","132","253160","0.0-10.0-0.43","5eaae42f19a24d05cbd6ccb4","650c16f0f2faf8d7a0d14c09","651c1dc90abf80d58021ab6a","null","null","<p style=""font-size: 60px; font-family: BACS"">OdlNmravu</p>","","","","","","","","",""
"html-keyboard-response","133","254161","0.0-10.0-0.44","5eaae42f19a24d05cbd6ccb4","650c16f0f2faf8d7a0d14c09","651c1dc90abf80d58021ab6a","null","null","<p style=""font-size: 60px; font-family: BACS"">dvNvALYGA</p>","","","","","","","","",""
"html-keyboard-response","134","255173","0.0-10.0-0.45","5eaae42f19a24d05cbd6ccb4","650c16f0f2faf8d7a0d14c09","651c1dc90abf80d58021ab6a","null","null","<p style=""font-size: 60px; font-family: BACS"">AlNUNYZu</p>","","","","","","","","",""
"html-keyboard-response","135","256187","0.0-10.0-0.46","5eaae42f19a24d05cbd6ccb4","650c16f0f2faf8d7a0d14c09","651c1dc90abf80d58021ab6a","null","null","<p style=""font-size: 60px; font-family: BACS"">ACcOhRKm</p>","","","","","","","","",""
"html-keyboard-response","136","257189","0.0-10.0-0.47","5eaae42f19a24d05cbd6ccb4","650c16f0f2faf8d7a0d14c09","651c1dc90abf80d58021ab6a","null","null","<p style=""font-size: 60px; font-family: BACS"">kMbTRDOk</p>","","","","","","","","",""
"html-keyboard-response","137","258202","0.0-10.0-0.48","5eaae42f19a24d05cbd6ccb4","650c16f0f2faf8d7a0d14c09","651c1dc90abf80d58021ab6a","null","null","<p style=""font-size: 60px; font-family: BACS"">BKDRYTRkY</p>","","","","","","","","",""
"html-keyboard-response","138","259215","0.0-10.0-0.49","5eaae42f19a24d05cbd6ccb4","650c16f0f2faf8d7a0d14c09","651c1dc90abf80d58021ab6a","null","null","<p style=""font-size: 60px; font-family: BACS"">DdcklRE</p>","","","","","","","","",""
"html-keyboard-response","139","260218","0.0-10.0-0.50","5eaae42f19a24d05cbd6ccb4","650c16f0f2faf8d7a0d14c09","651c1dc90abf80d58021ab6a","null","null","<p style=""font-size: 60px; font-family: BACS"">vclYravu</p>","","","","","","","","",""
"html-keyboard-response","140","261233","0.0-10.0-0.51","5eaae42f19a24d05cbd6ccb4","650c16f0f2faf8d7a0d14c09","651c1dc90abf80d58021ab6a","null","null","<p style=""font-size: 60px; font-family: BACS"">ktBdDOk</p>","","","","","","","","",""
"html-keyboard-response","141","262247","0.0-10.0-0.52","5eaae42f19a24d05cbd6ccb4","650c16f0f2faf8d7a0d14c09","651c1dc90abf80d58021ab6a","null","null","<p style=""font-size: 60px; font-family: BACS"">dvNvAravu</p>","","","","","","","","",""
"html-keyboard-response","142","263250","0.0-10.0-0.53","5eaae42f19a24d05cbd6ccb4","650c16f0f2faf8d7a0d14c09","651c1dc90abf80d58021ab6a","null","null","<p style=""font-size: 60px; font-family: BACS"">vAuNlLYGA</p>","","","","","","","","",""
"html-keyboard-response","143","264252","0.0-10.0-0.54","5eaae42f19a24d05cbd6ccb4","650c16f0f2faf8d7a0d14c09","651c1dc90abf80d58021ab6a","null","null","<p style=""font-size: 60px; font-family: BACS"">aLNlkNYZu</p>","","","","","","","","",""
"html-keyboard-response","144","265252","0.0-10.0-0.55","5eaae42f19a24d05cbd6ccb4","650c16f0f2faf8d7a0d14c09","651c1dc90abf80d58021ab6a","null","null","<p style=""font-size: 60px; font-family: BACS"">Qcladravu</p>","","","","","","","","",""
"html-keyboard-response","145","266265","0.0-10.0-0.56","5eaae42f19a24d05cbd6ccb4","650c16f0f2faf8d7a0d14c09","651c1dc90abf80d58021ab6a","null","null","<p style=""font-size: 60px; font-family: BACS"">mARMhRKm</p>","","","","","","","","",""
"html-keyboard-response","146","267277","0.0-10.0-0.57","5eaae42f19a24d05cbd6ccb4","650c16f0f2faf8d7a0d14c09","651c1dc90abf80d58021ab6a","null","null","<p style=""font-size: 60px; font-family: BACS"">ktBdlRE</p>","","","","","","","","",""
"html-keyboard-response","147","268292","0.0-10.0-0.58","5eaae42f19a24d05cbd6ccb4","650c16f0f2faf8d7a0d14c09","651c1dc90abf80d58021ab6a","null","null","<p style=""font-size: 60px; font-family: BACS"">vAuNlcUN</p>","","","","","","","","",""
"html-keyboard-response","148","269292","0.0-10.0-0.59","5eaae42f19a24d05cbd6ccb4","650c16f0f2faf8d7a0d14c09","651c1dc90abf80d58021ab6a","null","null","<p style=""font-size: 60px; font-family: BACS"">kMbTRKmE</p>","","","","","","","","",""
"html-keyboard-response","149","270308","0.0-10.0-0.60","5eaae42f19a24d05cbd6ccb4","650c16f0f2faf8d7a0d14c09","651c1dc90abf80d58021ab6a","null","null","<p style=""font-size: 60px; font-family: BACS"">AlNUravu</p>","","","","","","","","",""
"html-keyboard-response","150","271317","0.0-10.0-0.61","5eaae42f19a24d05cbd6ccb4","650c16f0f2faf8d7a0d14c09","651c1dc90abf80d58021ab6a","null","null","<p style=""font-size: 60px; font-family: BACS"">hChYlRE</p>","","","","","","","","",""
"html-keyboard-response","151","272320","0.0-10.0-0.62","5eaae42f19a24d05cbd6ccb4","650c16f0f2faf8d7a0d14c09","651c1dc90abf80d58021ab6a","null","null","<p style=""font-size: 60px; font-family: BACS"">vclYNYZu</p>","","","","","","","","",""
"html-keyboard-response","152","273330","0.0-10.0-0.63","5eaae42f19a24d05cbd6ccb4","650c16f0f2faf8d7a0d14c09","651c1dc90abf80d58021ab6a","null","null","<p style=""font-size: 60px; font-family: BACS"">vJabcUN</p>","","","","","","","","",""
"html-keyboard-response","153","274344","0.0-10.0-0.64","5eaae42f19a24d05cbd6ccb4","650c16f0f2faf8d7a0d14c09","651c1dc90abf80d58021ab6a","null","null","<p style=""font-size: 60px; font-family: BACS"">BEPOlRE</p>","","","","","","","","",""
"html-keyboard-response","154","275358","0.0-10.0-0.65","5eaae42f19a24d05cbd6ccb4","650c16f0f2faf8d7a0d14c09","651c1dc90abf80d58021ab6a","null","null","<p style=""font-size: 60px; font-family: BACS"">vJabLYGA</p>","","","","","","","","",""
"html-keyboard-response","155","276359","0.0-10.0-0.66","5eaae42f19a24d05cbd6ccb4","650c16f0f2faf8d7a0d14c09","651c1dc90abf80d58021ab6a","null","null","<p style=""font-size: 60px; font-family: BACS"">vAuNlravu</p>","","","","","","","","",""
"html-keyboard-response","156","277364","0.0-10.0-0.67","5eaae42f19a24d05cbd6ccb4","650c16f0f2faf8d7a0d14c09","651c1dc90abf80d58021ab6a","null","null","<p style=""font-size: 60px; font-family: BACS"">BEPOTRkY</p>","","","","","","","","",""
"html-keyboard-response","157","278365","0.0-10.0-0.68","5eaae42f19a24d05cbd6ccb4","650c16f0f2faf8d7a0d14c09","651c1dc90abf80d58021ab6a","null","null","<p style=""font-size: 60px; font-family: BACS"">aNYmbLYGA</p>","","","","","","","","",""
"html-keyboard-response","158","279366","0.0-10.0-0.69","5eaae42f19a24d05cbd6ccb4","650c16f0f2faf8d7a0d14c09","651c1dc90abf80d58021ab6a","null","null","<p style=""font-size: 60px; font-family: BACS"">mARMDOk</p>","","","","","","","","",""
"html-keyboard-response","159","280379","0.0-10.0-0.70","5eaae42f19a24d05cbd6ccb4","650c16f0f2faf8d7a0d14c09","651c1dc90abf80d58021ab6a","null","null","<p style=""font-size: 60px; font-family: BACS"">aLNlkravu</p>","","","","","","","","",""
"html-keyboard-response","160","281394","0.0-10.0-0.71","5eaae42f19a24d05cbd6ccb4","650c16f0f2faf8d7a0d14c09","651c1dc90abf80d58021ab6a","null","null","<p style=""font-size: 60px; font-family: BACS"">mARMlRE</p>","","","","","","","","",""
"html-keyboard-response","161","282405","0.0-10.0-0.72","5eaae42f19a24d05cbd6ccb4","650c16f0f2faf8d7a0d14c09","651c1dc90abf80d58021ab6a","null","null","<p style=""font-size: 60px; font-family: BACS"">PEkhAhRKm</p>","","","","","","","","",""
"html-keyboard-response","162","283405","0.0-10.0-0.73","5eaae42f19a24d05cbd6ccb4","650c16f0f2faf8d7a0d14c09","651c1dc90abf80d58021ab6a","null","null","<p style=""font-size: 60px; font-family: BACS"">aNYmbcUN</p>","","","","","","","","",""
"html-keyboard-response","163","284408","0.0-10.0-0.74","5eaae42f19a24d05cbd6ccb4","650c16f0f2faf8d7a0d14c09","651c1dc90abf80d58021ab6a","null","null","<p style=""font-size: 60px; font-family: BACS"">PEkhADOk</p>","","","","","","","","",""
"html-keyboard-response","164","285421","0.0-10.0-0.75","5eaae42f19a24d05cbd6ccb4","650c16f0f2faf8d7a0d14c09","651c1dc90abf80d58021ab6a","null","null","<p style=""font-size: 60px; font-family: BACS"">DdckhRKm</p>","","","","","","","","",""
"html-keyboard-response","165","286422","0.0-10.0-0.76","5eaae42f19a24d05cbd6ccb4","650c16f0f2faf8d7a0d14c09","651c1dc90abf80d58021ab6a","null","null","<p style=""font-size: 60px; font-family: BACS"">ACcOlRE</p>","","","","","","","","",""
"html-keyboard-response","166","287438","0.0-10.0-0.77","5eaae42f19a24d05cbd6ccb4","650c16f0f2faf8d7a0d14c09","651c1dc90abf80d58021ab6a","null","null","<p style=""font-size: 60px; font-family: BACS"">BEPOhRKm</p>","","","","","","","","",""
"html-keyboard-response","167","288451","0.0-10.0-0.78","5eaae42f19a24d05cbd6ccb4","650c16f0f2faf8d7a0d14c09","651c1dc90abf80d58021ab6a","null","null","<p style=""font-size: 60px; font-family: BACS"">OdlNmcUN</p>","","","","","","","","",""
"html-keyboard-response","168","289465","0.0-10.0-0.79","5eaae42f19a24d05cbd6ccb4","650c16f0f2faf8d7a0d14c09","651c1dc90abf80d58021ab6a","null","null","<p style=""font-size: 60px; font-family: BACS"">ktBdKmE</p>","","","","","","","","",""
"html-keyboard-response","169","293305","0.0-11.0","5eaae42f19a24d05cbd6ccb4","650c16f0f2faf8d7a0d14c09","651c1dc90abf80d58021ab6a","3839"," ","<p>Great, you've seen the second block of words. You may now take a short break.</p>
      <p>Press the spacebar when you're ready to continue.</p>","","","","","","","","",""
"html-keyboard-response","170","294315","0.0-12.0-0.0","5eaae42f19a24d05cbd6ccb4","650c16f0f2faf8d7a0d14c09","651c1dc90abf80d58021ab6a","null","null","<p style=""font-size: 60px; font-family: BACS"">mARMhRKm</p>","","","","","","","","",""
"html-keyboard-response","171","295346","0.0-12.0-0.1","5eaae42f19a24d05cbd6ccb4","650c16f0f2faf8d7a0d14c09","651c1dc90abf80d58021ab6a","null","null","<p style=""font-size: 60px; font-family: BACS"">DdcklRE</p>","","","","","","","","",""
"html-keyboard-response","172","296349","0.0-12.0-0.2","5eaae42f19a24d05cbd6ccb4","650c16f0f2faf8d7a0d14c09","651c1dc90abf80d58021ab6a","null","null","<p style=""font-size: 60px; font-family: BACS"">AlNULYGA</p>","","","","","","","","",""
"html-keyboard-response","173","297364","0.0-12.0-0.3","5eaae42f19a24d05cbd6ccb4","650c16f0f2faf8d7a0d14c09","651c1dc90abf80d58021ab6a","null","null","<p style=""font-size: 60px; font-family: BACS"">kMbTRKmE</p>","","","","","","","","",""
"html-keyboard-response","174","298378","0.0-12.0-0.4","5eaae42f19a24d05cbd6ccb4","650c16f0f2faf8d7a0d14c09","651c1dc90abf80d58021ab6a","null","null","<p style=""font-size: 60px; font-family: BACS"">OdlNmcUN</p>","","","","","","","","",""
"html-keyboard-response","175","299392","0.0-12.0-0.5","5eaae42f19a24d05cbd6ccb4","650c16f0f2faf8d7a0d14c09","651c1dc90abf80d58021ab6a","null","null","<p style=""font-size: 60px; font-family: BACS"">ACcOhRKm</p>","","","","","","","","",""
"html-keyboard-response","176","300407","0.0-12.0-0.6","5eaae42f19a24d05cbd6ccb4","650c16f0f2faf8d7a0d14c09","651c1dc90abf80d58021ab6a","null","null","<p style=""font-size: 60px; font-family: BACS"">BKDRYKmE</p>","","","","","","","","",""
"html-keyboard-response","177","301418","0.0-12.0-0.7","5eaae42f19a24d05cbd6ccb4","650c16f0f2faf8d7a0d14c09","651c1dc90abf80d58021ab6a","null","null","<p style=""font-size: 60px; font-family: BACS"">PEkhADOk</p>","","","","","","","","",""
"html-keyboard-response","178","302419","0.0-12.0-0.8","5eaae42f19a24d05cbd6ccb4","650c16f0f2faf8d7a0d14c09","651c1dc90abf80d58021ab6a","null","null","<p style=""font-size: 60px; font-family: BACS"">ACcOTRkY</p>","","","","","","","","",""
"html-keyboard-response","179","303433","0.0-12.0-0.9","5eaae42f19a24d05cbd6ccb4","650c16f0f2faf8d7a0d14c09","651c1dc90abf80d58021ab6a","null","null","<p style=""font-size: 60px; font-family: BACS"">vAuNlLYGA</p>","","","","","","","","",""
"html-keyboard-response","180","304447","0.0-12.0-0.10","5eaae42f19a24d05cbd6ccb4","650c16f0f2faf8d7a0d14c09","651c1dc90abf80d58021ab6a","null","null","<p style=""font-size: 60px; font-family: BACS"">hChYhRKm</p>","","","","","","","","",""
"html-keyboard-response","181","305448","0.0-12.0-0.11","5eaae42f19a24d05cbd6ccb4","650c16f0f2faf8d7a0d14c09","651c1dc90abf80d58021ab6a","null","null","<p style=""font-size: 60px; font-family: BACS"">dvNvAravu</p>","","","","","","","","",""
"html-keyboard-response","182","306463","0.0-12.0-0.12","5eaae42f19a24d05cbd6ccb4","650c16f0f2faf8d7a0d14c09","651c1dc90abf80d58021ab6a","null","null","<p style=""font-size: 60px; font-family: BACS"">OdlNmLYGA</p>","","","","","","","","",""
"html-keyboard-response","183","307464","0.0-12.0-0.13","5eaae42f19a24d05cbd6ccb4","650c16f0f2faf8d7a0d14c09","651c1dc90abf80d58021ab6a","null","null","<p style=""font-size: 60px; font-family: BACS"">AlNUravu</p>","","","","","","","","",""
"html-keyboard-response","184","308465","0.0-12.0-0.14","5eaae42f19a24d05cbd6ccb4","650c16f0f2faf8d7a0d14c09","651c1dc90abf80d58021ab6a","null","null","<p style=""font-size: 60px; font-family: BACS"">vJabcUN</p>","","","","","","","","",""
"html-keyboard-response","185","309480","0.0-12.0-0.15","5eaae42f19a24d05cbd6ccb4","650c16f0f2faf8d7a0d14c09","651c1dc90abf80d58021ab6a","null","null","<p style=""font-size: 60px; font-family: BACS"">vAuNlrkra</p>","","","","","","","","",""
"html-keyboard-response","186","310487","0.0-12.0-0.16","5eaae42f19a24d05cbd6ccb4","650c16f0f2faf8d7a0d14c09","651c1dc90abf80d58021ab6a","null","null","<p style=""font-size: 60px; font-family: BACS"">PEkhAKmE</p>","","","","","","","","",""
"html-keyboard-response","187","311488","0.0-12.0-0.17","5eaae42f19a24d05cbd6ccb4","650c16f0f2faf8d7a0d14c09","651c1dc90abf80d58021ab6a","null","null","<p style=""font-size: 60px; font-family: BACS"">kMbTRlRE</p>","","","","","","","","",""
"html-keyboard-response","188","312499","0.0-12.0-0.18","5eaae42f19a24d05cbd6ccb4","650c16f0f2faf8d7a0d14c09","651c1dc90abf80d58021ab6a","null","null","<p style=""font-size: 60px; font-family: BACS"">rbYbucUN</p>","","","","","","","","",""
"html-keyboard-response","189","313509","0.0-12.0-0.19","5eaae42f19a24d05cbd6ccb4","650c16f0f2faf8d7a0d14c09","651c1dc90abf80d58021ab6a","null","null","<p style=""font-size: 60px; font-family: BACS"">hChYlRE</p>","","","","","","","","",""
"html-keyboard-response","190","314522","0.0-12.0-0.20","5eaae42f19a24d05cbd6ccb4","650c16f0f2faf8d7a0d14c09","651c1dc90abf80d58021ab6a","null","null","<p style=""font-size: 60px; font-family: BACS"">vAuNlravu</p>","","","","","","","","",""
"html-keyboard-response","191","315530","0.0-12.0-0.21","5eaae42f19a24d05cbd6ccb4","650c16f0f2faf8d7a0d14c09","651c1dc90abf80d58021ab6a","null","null","<p style=""font-size: 60px; font-family: BACS"">dvNvArkra</p>","","","","","","","","",""
"html-keyboard-response","192","316534","0.0-12.0-0.22","5eaae42f19a24d05cbd6ccb4","650c16f0f2faf8d7a0d14c09","651c1dc90abf80d58021ab6a","null","null","<p style=""font-size: 60px; font-family: BACS"">hChYTRkY</p>","","","","","","","","",""
"html-keyboard-response","193","317536","0.0-12.0-0.23","5eaae42f19a24d05cbd6ccb4","650c16f0f2faf8d7a0d14c09","651c1dc90abf80d58021ab6a","null","null","<p style=""font-size: 60px; font-family: BACS"">vclYravu</p>","","","","","","","","",""
"html-keyboard-response","194","318551","0.0-12.0-0.24","5eaae42f19a24d05cbd6ccb4","650c16f0f2faf8d7a0d14c09","651c1dc90abf80d58021ab6a","null","null","<p style=""font-size: 60px; font-family: BACS"">BEPOlRE</p>","","","","","","","","",""
"html-keyboard-response","195","319567","0.0-12.0-0.25","5eaae42f19a24d05cbd6ccb4","650c16f0f2faf8d7a0d14c09","651c1dc90abf80d58021ab6a","null","null","<p style=""font-size: 60px; font-family: BACS"">AlNUNYZu</p>","","","","","","","","",""
"html-keyboard-response","196","320582","0.0-12.0-0.26","5eaae42f19a24d05cbd6ccb4","650c16f0f2faf8d7a0d14c09","651c1dc90abf80d58021ab6a","null","null","<p style=""font-size: 60px; font-family: BACS"">aLNlkrkra</p>","","","","","","","","",""
"html-keyboard-response","197","321598","0.0-12.0-0.27","5eaae42f19a24d05cbd6ccb4","650c16f0f2faf8d7a0d14c09","651c1dc90abf80d58021ab6a","null","null","<p style=""font-size: 60px; font-family: BACS"">ktBdlRE</p>","","","","","","","","",""
"html-keyboard-response","198","322612","0.0-12.0-0.28","5eaae42f19a24d05cbd6ccb4","650c16f0f2faf8d7a0d14c09","651c1dc90abf80d58021ab6a","null","null","<p style=""font-size: 60px; font-family: BACS"">PEkhATRkY</p>","","","","","","","","",""
"html-keyboard-response","199","323628","0.0-12.0-0.29","5eaae42f19a24d05cbd6ccb4","650c16f0f2faf8d7a0d14c09","651c1dc90abf80d58021ab6a","null","null","<p style=""font-size: 60px; font-family: BACS"">OdlNmravu</p>","","","","","","","","",""
"html-keyboard-response","200","324629","0.0-12.0-0.30","5eaae42f19a24d05cbd6ccb4","650c16f0f2faf8d7a0d14c09","651c1dc90abf80d58021ab6a","null","null","<p style=""font-size: 60px; font-family: BACS"">PEkhAhRKm</p>","","","","","","","","",""
"html-keyboard-response","201","325644","0.0-12.0-0.31","5eaae42f19a24d05cbd6ccb4","650c16f0f2faf8d7a0d14c09","651c1dc90abf80d58021ab6a","null","null","<p style=""font-size: 60px; font-family: BACS"">ACcOKmE</p>","","","","","","","","",""
"html-keyboard-response","202","326644","0.0-12.0-0.32","5eaae42f19a24d05cbd6ccb4","650c16f0f2faf8d7a0d14c09","651c1dc90abf80d58021ab6a","null","null","<p style=""font-size: 60px; font-family: BACS"">aNYmbrkra</p>","","","","","","","","",""
"html-keyboard-response","203","327658","0.0-12.0-0.33","5eaae42f19a24d05cbd6ccb4","650c16f0f2faf8d7a0d14c09","651c1dc90abf80d58021ab6a","null","null","<p style=""font-size: 60px; font-family: BACS"">vJabNYZu</p>","","","","","","","","",""
"html-keyboard-response","204","328660","0.0-12.0-0.34","5eaae42f19a24d05cbd6ccb4","650c16f0f2faf8d7a0d14c09","651c1dc90abf80d58021ab6a","null","null","<p style=""font-size: 60px; font-family: BACS"">vAuNlcUN</p>","","","","","","","","",""
"html-keyboard-response","205","329667","0.0-12.0-0.35","5eaae42f19a24d05cbd6ccb4","650c16f0f2faf8d7a0d14c09","651c1dc90abf80d58021ab6a","null","null","<p style=""font-size: 60px; font-family: BACS"">rbYburavu</p>","","","","","","","","",""
"html-keyboard-response","206","330675","0.0-12.0-0.36","5eaae42f19a24d05cbd6ccb4","650c16f0f2faf8d7a0d14c09","651c1dc90abf80d58021ab6a","null","null","<p style=""font-size: 60px; font-family: BACS"">aLNlkLYGA</p>","","","","","","","","",""
"html-keyboard-response","207","331683","0.0-12.0-0.37","5eaae42f19a24d05cbd6ccb4","650c16f0f2faf8d7a0d14c09","651c1dc90abf80d58021ab6a","null","null","<p style=""font-size: 60px; font-family: BACS"">RlAKcDOk</p>","","","","","","","","",""
"html-keyboard-response","208","332684","0.0-12.0-0.38","5eaae42f19a24d05cbd6ccb4","650c16f0f2faf8d7a0d14c09","651c1dc90abf80d58021ab6a","null","null","<p style=""font-size: 60px; font-family: BACS"">dvNvALYGA</p>","","","","","","","","",""
"html-keyboard-response","209","333691","0.0-12.0-0.39","5eaae42f19a24d05cbd6ccb4","650c16f0f2faf8d7a0d14c09","651c1dc90abf80d58021ab6a","null","null","<p style=""font-size: 60px; font-family: BACS"">vclYrkra</p>","","","","","","","","",""
"html-keyboard-response","210","334693","0.0-12.0-0.40","5eaae42f19a24d05cbd6ccb4","650c16f0f2faf8d7a0d14c09","651c1dc90abf80d58021ab6a","null","null","<p style=""font-size: 60px; font-family: BACS"">aLNlkravu</p>","","","","","","","","",""
"html-keyboard-response","211","335701","0.0-12.0-0.41","5eaae42f19a24d05cbd6ccb4","650c16f0f2faf8d7a0d14c09","651c1dc90abf80d58021ab6a","null","null","<p style=""font-size: 60px; font-family: BACS"">BKDRYDOk</p>","","","","","","","","",""
"html-keyboard-response","212","336707","0.0-12.0-0.42","5eaae42f19a24d05cbd6ccb4","650c16f0f2faf8d7a0d14c09","651c1dc90abf80d58021ab6a","null","null","<p style=""font-size: 60px; font-family: BACS"">vclYNYZu</p>","","","","","","","","",""
"html-keyboard-response","213","337714","0.0-12.0-0.43","5eaae42f19a24d05cbd6ccb4","650c16f0f2faf8d7a0d14c09","651c1dc90abf80d58021ab6a","null","null","<p style=""font-size: 60px; font-family: BACS"">kMbTRDOk</p>","","","","","","","","",""
"html-keyboard-response","214","338718","0.0-12.0-0.44","5eaae42f19a24d05cbd6ccb4","650c16f0f2faf8d7a0d14c09","651c1dc90abf80d58021ab6a","null","null","<p style=""font-size: 60px; font-family: BACS"">RlAKcTRkY</p>","","","","","","","","",""
"html-keyboard-response","215","339721","0.0-12.0-0.45","5eaae42f19a24d05cbd6ccb4","650c16f0f2faf8d7a0d14c09","651c1dc90abf80d58021ab6a","null","null","<p style=""font-size: 60px; font-family: BACS"">dvNvAcUN</p>","","","","","","","","",""
"html-keyboard-response","216","340725","0.0-12.0-0.46","5eaae42f19a24d05cbd6ccb4","650c16f0f2faf8d7a0d14c09","651c1dc90abf80d58021ab6a","null","null","<p style=""font-size: 60px; font-family: BACS"">Qcladravu</p>","","","","","","","","",""
"html-keyboard-response","217","341730","0.0-12.0-0.47","5eaae42f19a24d05cbd6ccb4","650c16f0f2faf8d7a0d14c09","651c1dc90abf80d58021ab6a","null","null","<p style=""font-size: 60px; font-family: BACS"">BEPOKmE</p>","","","","","","","","",""
"html-keyboard-response","218","342741","0.0-12.0-0.48","5eaae42f19a24d05cbd6ccb4","650c16f0f2faf8d7a0d14c09","651c1dc90abf80d58021ab6a","null","null","<p style=""font-size: 60px; font-family: BACS"">QcladLYGA</p>","","","","","","","","",""
"html-keyboard-response","219","343743","0.0-12.0-0.49","5eaae42f19a24d05cbd6ccb4","650c16f0f2faf8d7a0d14c09","651c1dc90abf80d58021ab6a","null","null","<p style=""font-size: 60px; font-family: BACS"">rbYbuNYZu</p>","","","","","","","","",""
"html-keyboard-response","220","344752","0.0-12.0-0.50","5eaae42f19a24d05cbd6ccb4","650c16f0f2faf8d7a0d14c09","651c1dc90abf80d58021ab6a","null","null","<p style=""font-size: 60px; font-family: BACS"">DdckhRKm</p>","","","","","","","","",""
"html-keyboard-response","221","345758","0.0-12.0-0.51","5eaae42f19a24d05cbd6ccb4","650c16f0f2faf8d7a0d14c09","651c1dc90abf80d58021ab6a","null","null","<p style=""font-size: 60px; font-family: BACS"">ACcOlRE</p>","","","","","","","","",""
"html-keyboard-response","222","346764","0.0-12.0-0.52","5eaae42f19a24d05cbd6ccb4","650c16f0f2faf8d7a0d14c09","651c1dc90abf80d58021ab6a","null","null","<p style=""font-size: 60px; font-family: BACS"">rbYburkra</p>","","","","","","","","",""
"html-keyboard-response","223","347774","0.0-12.0-0.53","5eaae42f19a24d05cbd6ccb4","650c16f0f2faf8d7a0d14c09","651c1dc90abf80d58021ab6a","null","null","<p style=""font-size: 60px; font-family: BACS"">BKDRYhRKm</p>","","","","","","","","",""
"html-keyboard-response","224","348781","0.0-12.0-0.54","5eaae42f19a24d05cbd6ccb4","650c16f0f2faf8d7a0d14c09","651c1dc90abf80d58021ab6a","null","null","<p style=""font-size: 60px; font-family: BACS"">vclYcUN</p>","","","","","","","","",""
"html-keyboard-response","225","349791","0.0-12.0-0.55","5eaae42f19a24d05cbd6ccb4","650c16f0f2faf8d7a0d14c09","651c1dc90abf80d58021ab6a","null","null","<p style=""font-size: 60px; font-family: BACS"">vJabLYGA</p>","","","","","","","","",""
"html-keyboard-response","226","350799","0.0-12.0-0.56","5eaae42f19a24d05cbd6ccb4","650c16f0f2faf8d7a0d14c09","651c1dc90abf80d58021ab6a","null","null","<p style=""font-size: 60px; font-family: BACS"">DdckKmE</p>","","","","","","","","",""
"html-keyboard-response","227","351812","0.0-12.0-0.57","5eaae42f19a24d05cbd6ccb4","650c16f0f2faf8d7a0d14c09","651c1dc90abf80d58021ab6a","null","null","<p style=""font-size: 60px; font-family: BACS"">aNYmbcUN</p>","","","","","","","","",""
"html-keyboard-response","228","352825","0.0-12.0-0.58","5eaae42f19a24d05cbd6ccb4","650c16f0f2faf8d7a0d14c09","651c1dc90abf80d58021ab6a","null","null","<p style=""font-size: 60px; font-family: BACS"">ktBdKmE</p>","","","","","","","","",""
"html-keyboard-response","229","353826","0.0-12.0-0.59","5eaae42f19a24d05cbd6ccb4","650c16f0f2faf8d7a0d14c09","651c1dc90abf80d58021ab6a","null","null","<p style=""font-size: 60px; font-family: BACS"">aNYmbLYGA</p>","","","","","","","","",""
"html-keyboard-response","230","354841","0.0-12.0-0.60","5eaae42f19a24d05cbd6ccb4","650c16f0f2faf8d7a0d14c09","651c1dc90abf80d58021ab6a","null","null","<p style=""font-size: 60px; font-family: BACS"">BEPOhRKm</p>","","","","","","","","",""
"html-keyboard-response","231","355851","0.0-12.0-0.61","5eaae42f19a24d05cbd6ccb4","650c16f0f2faf8d7a0d14c09","651c1dc90abf80d58021ab6a","null","null","<p style=""font-size: 60px; font-family: BACS"">aLNlkNYZu</p>","","","","","","","","",""
"html-keyboard-response","232","356862","0.0-12.0-0.62","5eaae42f19a24d05cbd6ccb4","650c16f0f2faf8d7a0d14c09","651c1dc90abf80d58021ab6a","null","null","<p style=""font-size: 60px; font-family: BACS"">RlAKcKmE</p>","","","","","","","","",""
"html-keyboard-response","233","357877","0.0-12.0-0.63","5eaae42f19a24d05cbd6ccb4","650c16f0f2faf8d7a0d14c09","651c1dc90abf80d58021ab6a","null","null","<p style=""font-size: 60px; font-family: BACS"">BEPOTRkY</p>","","","","","","","","",""
"html-keyboard-response","234","358889","0.0-12.0-0.64","5eaae42f19a24d05cbd6ccb4","650c16f0f2faf8d7a0d14c09","651c1dc90abf80d58021ab6a","null","null","<p style=""font-size: 60px; font-family: BACS"">mARMDOk</p>","","","","","","","","",""
"html-keyboard-response","235","359915","0.0-12.0-0.65","5eaae42f19a24d05cbd6ccb4","650c16f0f2faf8d7a0d14c09","651c1dc90abf80d58021ab6a","null","null","<p style=""font-size: 60px; font-family: BACS"">RlAKclRE</p>","","","","","","","","",""
"html-keyboard-response","236","360926","0.0-12.0-0.66","5eaae42f19a24d05cbd6ccb4","650c16f0f2faf8d7a0d14c09","651c1dc90abf80d58021ab6a","null","null","<p style=""font-size: 60px; font-family: BACS"">hChYDOk</p>","","","","","","","","",""
"html-keyboard-response","237","361940","0.0-12.0-0.67","5eaae42f19a24d05cbd6ccb4","650c16f0f2faf8d7a0d14c09","651c1dc90abf80d58021ab6a","null","null","<p style=""font-size: 60px; font-family: BACS"">Qcladrkra</p>","","","","","","","","",""
"html-keyboard-response","238","362951","0.0-12.0-0.68","5eaae42f19a24d05cbd6ccb4","650c16f0f2faf8d7a0d14c09","651c1dc90abf80d58021ab6a","null","null","<p style=""font-size: 60px; font-family: BACS"">mARMlRE</p>","","","","","","","","",""
"html-keyboard-response","239","363962","0.0-12.0-0.69","5eaae42f19a24d05cbd6ccb4","650c16f0f2faf8d7a0d14c09","651c1dc90abf80d58021ab6a","null","null","<p style=""font-size: 60px; font-family: BACS"">QcladNYZu</p>","","","","","","","","",""
"html-keyboard-response","240","364979","0.0-12.0-0.70","5eaae42f19a24d05cbd6ccb4","650c16f0f2faf8d7a0d14c09","651c1dc90abf80d58021ab6a","null","null","<p style=""font-size: 60px; font-family: BACS"">kMbTRTRkY</p>","","","","","","","","",""
"html-keyboard-response","241","365983","0.0-12.0-0.71","5eaae42f19a24d05cbd6ccb4","650c16f0f2faf8d7a0d14c09","651c1dc90abf80d58021ab6a","null","null","<p style=""font-size: 60px; font-family: BACS"">AlNUcUN</p>","","","","","","","","",""
"html-keyboard-response","242","366984","0.0-12.0-0.72","5eaae42f19a24d05cbd6ccb4","650c16f0f2faf8d7a0d14c09","651c1dc90abf80d58021ab6a","null","null","<p style=""font-size: 60px; font-family: BACS"">DdckDOk</p>","","","","","","","","",""
"html-keyboard-response","243","367985","0.0-12.0-0.73","5eaae42f19a24d05cbd6ccb4","650c16f0f2faf8d7a0d14c09","651c1dc90abf80d58021ab6a","null","null","<p style=""font-size: 60px; font-family: BACS"">aNYmbNYZu</p>","","","","","","","","",""
"html-keyboard-response","244","368993","0.0-12.0-0.74","5eaae42f19a24d05cbd6ccb4","650c16f0f2faf8d7a0d14c09","651c1dc90abf80d58021ab6a","null","null","<p style=""font-size: 60px; font-family: BACS"">BKDRYTRkY</p>","","","","","","","","",""
"html-keyboard-response","245","370003","0.0-12.0-0.75","5eaae42f19a24d05cbd6ccb4","650c16f0f2faf8d7a0d14c09","651c1dc90abf80d58021ab6a","null","null","<p style=""font-size: 60px; font-family: BACS"">OdlNmNYZu</p>","","","","","","","","",""
"html-keyboard-response","246","371009","0.0-12.0-0.76","5eaae42f19a24d05cbd6ccb4","650c16f0f2faf8d7a0d14c09","651c1dc90abf80d58021ab6a","null","null","<p style=""font-size: 60px; font-family: BACS"">mARMTRkY</p>","","","","","","","","",""
"html-keyboard-response","247","372013","0.0-12.0-0.77","5eaae42f19a24d05cbd6ccb4","650c16f0f2faf8d7a0d14c09","651c1dc90abf80d58021ab6a","null","null","<p style=""font-size: 60px; font-family: BACS"">ktBdDOk</p>","","","","","","","","",""
"html-keyboard-response","248","373015","0.0-12.0-0.78","5eaae42f19a24d05cbd6ccb4","650c16f0f2faf8d7a0d14c09","651c1dc90abf80d58021ab6a","null","null","<p style=""font-size: 60px; font-family: BACS"">vJabrkra</p>","","","","","","","","",""
"html-keyboard-response","249","374030","0.0-12.0-0.79","5eaae42f19a24d05cbd6ccb4","650c16f0f2faf8d7a0d14c09","651c1dc90abf80d58021ab6a","null","null","<p style=""font-size: 60px; font-family: BACS"">ktBdhRKm</p>","","","","","","","","",""
"html-keyboard-response","250","376596","0.0-13.0","5eaae42f19a24d05cbd6ccb4","650c16f0f2faf8d7a0d14c09","651c1dc90abf80d58021ab6a","2565"," ","<p>Great, you've seen the third block of words. You may now take a short break.</p>
      <p>Press the spacebar when you're ready to continue.</p>","","","","","","","","",""
"html-keyboard-response","251","377609","0.0-14.0-0.0","5eaae42f19a24d05cbd6ccb4","650c16f0f2faf8d7a0d14c09","651c1dc90abf80d58021ab6a","null","null","<p style=""font-size: 60px; font-family: BACS"">vJabNYZu</p>","","","","","","","","",""
"html-keyboard-response","252","378613","0.0-14.0-0.1","5eaae42f19a24d05cbd6ccb4","650c16f0f2faf8d7a0d14c09","651c1dc90abf80d58021ab6a","null","null","<p style=""font-size: 60px; font-family: BACS"">mARMlRE</p>","","","","","","","","",""
"html-keyboard-response","253","379628","0.0-14.0-0.2","5eaae42f19a24d05cbd6ccb4","650c16f0f2faf8d7a0d14c09","651c1dc90abf80d58021ab6a","null","null","<p style=""font-size: 60px; font-family: BACS"">BKDRYDOk</p>","","","","","","","","",""
"html-keyboard-response","254","380643","0.0-14.0-0.3","5eaae42f19a24d05cbd6ccb4","650c16f0f2faf8d7a0d14c09","651c1dc90abf80d58021ab6a","null","null","<p style=""font-size: 60px; font-family: BACS"">rbYbucUN</p>","","","","","","","","",""
"html-keyboard-response","255","381645","0.0-14.0-0.4","5eaae42f19a24d05cbd6ccb4","650c16f0f2faf8d7a0d14c09","651c1dc90abf80d58021ab6a","null","null","<p style=""font-size: 60px; font-family: BACS"">aNYmbNYZu</p>","","","","","","","","",""
"html-keyboard-response","256","382646","0.0-14.0-0.5","5eaae42f19a24d05cbd6ccb4","650c16f0f2faf8d7a0d14c09","651c1dc90abf80d58021ab6a","null","null","<p style=""font-size: 60px; font-family: BACS"">vclYravu</p>","","","","","","","","",""
"html-keyboard-response","257","383650","0.0-14.0-0.6","5eaae42f19a24d05cbd6ccb4","650c16f0f2faf8d7a0d14c09","651c1dc90abf80d58021ab6a","null","null","<p style=""font-size: 60px; font-family: BACS"">kMbTRTRkY</p>","","","","","","","","",""
"html-keyboard-response","258","384661","0.0-14.0-0.7","5eaae42f19a24d05cbd6ccb4","650c16f0f2faf8d7a0d14c09","651c1dc90abf80d58021ab6a","null","null","<p style=""font-size: 60px; font-family: BACS"">aNYmbrkra</p>","","","","","","","","",""
"html-keyboard-response","259","385663","0.0-14.0-0.8","5eaae42f19a24d05cbd6ccb4","650c16f0f2faf8d7a0d14c09","651c1dc90abf80d58021ab6a","null","null","<p style=""font-size: 60px; font-family: BACS"">DdckhRKm</p>","","","","","","","","",""
"html-keyboard-response","260","386667","0.0-14.0-0.9","5eaae42f19a24d05cbd6ccb4","650c16f0f2faf8d7a0d14c09","651c1dc90abf80d58021ab6a","null","null","<p style=""font-size: 60px; font-family: BACS"">vclYrkra</p>","","","","","","","","",""
"html-keyboard-response","261","387684","0.0-14.0-0.10","5eaae42f19a24d05cbd6ccb4","650c16f0f2faf8d7a0d14c09","651c1dc90abf80d58021ab6a","null","null","<p style=""font-size: 60px; font-family: BACS"">DdcklRE</p>","","","","","","","","",""
"html-keyboard-response","262","388691","0.0-14.0-0.11","5eaae42f19a24d05cbd6ccb4","650c16f0f2faf8d7a0d14c09","651c1dc90abf80d58021ab6a","null","null","<p style=""font-size: 60px; font-family: BACS"">mARMTRkY</p>","","","","","","","","",""
"html-keyboard-response","263","389696","0.0-14.0-0.12","5eaae42f19a24d05cbd6ccb4","650c16f0f2faf8d7a0d14c09","651c1dc90abf80d58021ab6a","null","null","<p style=""font-size: 60px; font-family: BACS"">AlNUravu</p>","","","","","","","","",""
"html-keyboard-response","264","390703","0.0-14.0-0.13","5eaae42f19a24d05cbd6ccb4","650c16f0f2faf8d7a0d14c09","651c1dc90abf80d58021ab6a","null","null","<p style=""font-size: 60px; font-family: BACS"">OdlNmcUN</p>","","","","","","","","",""
"html-keyboard-response","265","391712","0.0-14.0-0.14","5eaae42f19a24d05cbd6ccb4","650c16f0f2faf8d7a0d14c09","651c1dc90abf80d58021ab6a","null","null","<p style=""font-size: 60px; font-family: BACS"">ktBdlRE</p>","","","","","","","","",""
"html-keyboard-response","266","392746","0.0-14.0-0.15","5eaae42f19a24d05cbd6ccb4","650c16f0f2faf8d7a0d14c09","651c1dc90abf80d58021ab6a","null","null","<p style=""font-size: 60px; font-family: BACS"">dvNvAravu</p>","","","","","","","","",""
"html-keyboard-response","267","393748","0.0-14.0-0.16","5eaae42f19a24d05cbd6ccb4","650c16f0f2faf8d7a0d14c09","651c1dc90abf80d58021ab6a","null","null","<p style=""font-size: 60px; font-family: BACS"">ACcOKmE</p>","","","","","","","","",""
"html-keyboard-response","268","394755","0.0-14.0-0.17","5eaae42f19a24d05cbd6ccb4","650c16f0f2faf8d7a0d14c09","651c1dc90abf80d58021ab6a","null","null","<p style=""font-size: 60px; font-family: BACS"">BEPOhRKm</p>","","","","","","","","",""
"html-keyboard-response","269","395771","0.0-14.0-0.18","5eaae42f19a24d05cbd6ccb4","650c16f0f2faf8d7a0d14c09","651c1dc90abf80d58021ab6a","null","null","<p style=""font-size: 60px; font-family: BACS"">aNYmbcUN</p>","","","","","","","","",""
"html-keyboard-response","270","396785","0.0-14.0-0.19","5eaae42f19a24d05cbd6ccb4","650c16f0f2faf8d7a0d14c09","651c1dc90abf80d58021ab6a","null","null","<p style=""font-size: 60px; font-family: BACS"">hChYDOk</p>","","","","","","","","",""
"html-keyboard-response","271","397798","0.0-14.0-0.20","5eaae42f19a24d05cbd6ccb4","650c16f0f2faf8d7a0d14c09","651c1dc90abf80d58021ab6a","null","null","<p style=""font-size: 60px; font-family: BACS"">BEPOlRE</p>","","","","","","","","",""
"html-keyboard-response","272","398799","0.0-14.0-0.21","5eaae42f19a24d05cbd6ccb4","650c16f0f2faf8d7a0d14c09","651c1dc90abf80d58021ab6a","null","null","<p style=""font-size: 60px; font-family: BACS"">rbYburkra</p>","","","","","","","","",""
"html-keyboard-response","273","399813","0.0-14.0-0.22","5eaae42f19a24d05cbd6ccb4","650c16f0f2faf8d7a0d14c09","651c1dc90abf80d58021ab6a","null","null","<p style=""font-size: 60px; font-family: BACS"">ACcOTRkY</p>","","","","","","","","",""
"html-keyboard-response","274","400828","0.0-14.0-0.23","5eaae42f19a24d05cbd6ccb4","650c16f0f2faf8d7a0d14c09","651c1dc90abf80d58021ab6a","null","null","<p style=""font-size: 60px; font-family: BACS"">vJabLYGA</p>","","","","","","","","",""
"html-keyboard-response","275","401828","0.0-14.0-0.24","5eaae42f19a24d05cbd6ccb4","650c16f0f2faf8d7a0d14c09","651c1dc90abf80d58021ab6a","null","null","<p style=""font-size: 60px; font-family: BACS"">QcladNYZu</p>","","","","","","","","",""
"html-keyboard-response","276","402833","0.0-14.0-0.25","5eaae42f19a24d05cbd6ccb4","650c16f0f2faf8d7a0d14c09","651c1dc90abf80d58021ab6a","null","null","<p style=""font-size: 60px; font-family: BACS"">dvNvArkra</p>","","","","","","","","",""
"html-keyboard-response","277","403846","0.0-14.0-0.26","5eaae42f19a24d05cbd6ccb4","650c16f0f2faf8d7a0d14c09","651c1dc90abf80d58021ab6a","null","null","<p style=""font-size: 60px; font-family: BACS"">QcladLYGA</p>","","","","","","","","",""
"html-keyboard-response","278","404860","0.0-14.0-0.27","5eaae42f19a24d05cbd6ccb4","650c16f0f2faf8d7a0d14c09","651c1dc90abf80d58021ab6a","null","null","<p style=""font-size: 60px; font-family: BACS"">OdlNmravu</p>","","","","","","","","",""
"html-keyboard-response","279","405876","0.0-14.0-0.28","5eaae42f19a24d05cbd6ccb4","650c16f0f2faf8d7a0d14c09","651c1dc90abf80d58021ab6a","null","null","<p style=""font-size: 60px; font-family: BACS"">vclYNYZu</p>","","","","","","","","",""
"html-keyboard-response","280","406892","0.0-14.0-0.29","5eaae42f19a24d05cbd6ccb4","650c16f0f2faf8d7a0d14c09","651c1dc90abf80d58021ab6a","null","null","<p style=""font-size: 60px; font-family: BACS"">RlAKcTRkY</p>","","","","","","","","",""
"html-keyboard-response","281","407895","0.0-14.0-0.30","5eaae42f19a24d05cbd6ccb4","650c16f0f2faf8d7a0d14c09","651c1dc90abf80d58021ab6a","null","null","<p style=""font-size: 60px; font-family: BACS"">ACcOlRE</p>","","","","","","","","",""
"html-keyboard-response","282","408902","0.0-14.0-0.31","5eaae42f19a24d05cbd6ccb4","650c16f0f2faf8d7a0d14c09","651c1dc90abf80d58021ab6a","null","null","<p style=""font-size: 60px; font-family: BACS"">BKDRYKmE</p>","","","","","","","","",""
"html-keyboard-response","283","409918","0.0-14.0-0.32","5eaae42f19a24d05cbd6ccb4","650c16f0f2faf8d7a0d14c09","651c1dc90abf80d58021ab6a","null","null","<p style=""font-size: 60px; font-family: BACS"">rbYburavu</p>","","","","","","","","",""
"html-keyboard-response","284","410929","0.0-14.0-0.33","5eaae42f19a24d05cbd6ccb4","650c16f0f2faf8d7a0d14c09","651c1dc90abf80d58021ab6a","null","null","<p style=""font-size: 60px; font-family: BACS"">vJabcUN</p>","","","","","","","","",""
"html-keyboard-response","285","411944","0.0-14.0-0.34","5eaae42f19a24d05cbd6ccb4","650c16f0f2faf8d7a0d14c09","651c1dc90abf80d58021ab6a","null","null","<p style=""font-size: 60px; font-family: BACS"">aLNlkravu</p>","","","","","","","","",""
"html-keyboard-response","286","412947","0.0-14.0-0.35","5eaae42f19a24d05cbd6ccb4","650c16f0f2faf8d7a0d14c09","651c1dc90abf80d58021ab6a","null","null","<p style=""font-size: 60px; font-family: BACS"">DdckDOk</p>","","","","","","","","",""
"html-keyboard-response","287","413979","0.0-14.0-0.36","5eaae42f19a24d05cbd6ccb4","650c16f0f2faf8d7a0d14c09","651c1dc90abf80d58021ab6a","null","null","<p style=""font-size: 60px; font-family: BACS"">kMbTRlRE</p>","","","","","","","","",""
"html-keyboard-response","288","414992","0.0-14.0-0.37","5eaae42f19a24d05cbd6ccb4","650c16f0f2faf8d7a0d14c09","651c1dc90abf80d58021ab6a","null","null","<p style=""font-size: 60px; font-family: BACS"">ktBdKmE</p>","","","","","","","","",""
"html-keyboard-response","289","416001","0.0-14.0-0.38","5eaae42f19a24d05cbd6ccb4","650c16f0f2faf8d7a0d14c09","651c1dc90abf80d58021ab6a","null","null","<p style=""font-size: 60px; font-family: BACS"">vAuNlravu</p>","","","","","","","","",""
"html-keyboard-response","290","417012","0.0-14.0-0.39","5eaae42f19a24d05cbd6ccb4","650c16f0f2faf8d7a0d14c09","651c1dc90abf80d58021ab6a","null","null","<p style=""font-size: 60px; font-family: BACS"">kMbTRDOk</p>","","","","","","","","",""
"html-keyboard-response","291","418013","0.0-14.0-0.40","5eaae42f19a24d05cbd6ccb4","650c16f0f2faf8d7a0d14c09","651c1dc90abf80d58021ab6a","null","null","<p style=""font-size: 60px; font-family: BACS"">dvNvAcUN</p>","","","","","","","","",""
"html-keyboard-response","292","419014","0.0-14.0-0.41","5eaae42f19a24d05cbd6ccb4","650c16f0f2faf8d7a0d14c09","651c1dc90abf80d58021ab6a","null","null","<p style=""font-size: 60px; font-family: BACS"">aNYmbLYGA</p>","","","","","","","","",""
"html-keyboard-response","293","420029","0.0-14.0-0.42","5eaae42f19a24d05cbd6ccb4","650c16f0f2faf8d7a0d14c09","651c1dc90abf80d58021ab6a","null","null","<p style=""font-size: 60px; font-family: BACS"">aLNlkNYZu</p>","","","","","","","","",""
"html-keyboard-response","294","421043","0.0-14.0-0.43","5eaae42f19a24d05cbd6ccb4","650c16f0f2faf8d7a0d14c09","651c1dc90abf80d58021ab6a","null","null","<p style=""font-size: 60px; font-family: BACS"">BKDRYhRKm</p>","","","","","","","","",""
"html-keyboard-response","295","422058","0.0-14.0-0.44","5eaae42f19a24d05cbd6ccb4","650c16f0f2faf8d7a0d14c09","651c1dc90abf80d58021ab6a","null","null","<p style=""font-size: 60px; font-family: BACS"">Qcladravu</p>","","","","","","","","",""
"html-keyboard-response","296","423073","0.0-14.0-0.45","5eaae42f19a24d05cbd6ccb4","650c16f0f2faf8d7a0d14c09","651c1dc90abf80d58021ab6a","null","null","<p style=""font-size: 60px; font-family: BACS"">AlNULYGA</p>","","","","","","","","",""
"html-keyboard-response","297","424074","0.0-14.0-0.46","5eaae42f19a24d05cbd6ccb4","650c16f0f2faf8d7a0d14c09","651c1dc90abf80d58021ab6a","null","null","<p style=""font-size: 60px; font-family: BACS"">hChYhRKm</p>","","","","","","","","",""
"html-keyboard-response","298","425085","0.0-14.0-0.47","5eaae42f19a24d05cbd6ccb4","650c16f0f2faf8d7a0d14c09","651c1dc90abf80d58021ab6a","null","null","<p style=""font-size: 60px; font-family: BACS"">vAuNlLYGA</p>","","","","","","","","",""
"html-keyboard-response","299","426091","0.0-14.0-0.48","5eaae42f19a24d05cbd6ccb4","650c16f0f2faf8d7a0d14c09","651c1dc90abf80d58021ab6a","null","null","<p style=""font-size: 60px; font-family: BACS"">DdckKmE</p>","","","","","","","","",""
"html-keyboard-response","300","427104","0.0-14.0-0.49","5eaae42f19a24d05cbd6ccb4","650c16f0f2faf8d7a0d14c09","651c1dc90abf80d58021ab6a","null","null","<p style=""font-size: 60px; font-family: BACS"">vJabrkra</p>","","","","","","","","",""
"html-keyboard-response","301","428117","0.0-14.0-0.50","5eaae42f19a24d05cbd6ccb4","650c16f0f2faf8d7a0d14c09","651c1dc90abf80d58021ab6a","null","null","<p style=""font-size: 60px; font-family: BACS"">hChYlRE</p>","","","","","","","","",""
"html-keyboard-response","302","429120","0.0-14.0-0.51","5eaae42f19a24d05cbd6ccb4","650c16f0f2faf8d7a0d14c09","651c1dc90abf80d58021ab6a","null","null","<p style=""font-size: 60px; font-family: BACS"">kMbTRKmE</p>","","","","","","","","",""
"html-keyboard-response","303","430127","0.0-14.0-0.52","5eaae42f19a24d05cbd6ccb4","650c16f0f2faf8d7a0d14c09","651c1dc90abf80d58021ab6a","null","null","<p style=""font-size: 60px; font-family: BACS"">hChYTRkY</p>","","","","","","","","",""
"html-keyboard-response","304","431151","0.0-14.0-0.53","5eaae42f19a24d05cbd6ccb4","650c16f0f2faf8d7a0d14c09","651c1dc90abf80d58021ab6a","null","null","<p style=""font-size: 60px; font-family: BACS"">vclYcUN</p>","","","","","","","","",""
"html-keyboard-response","305","432167","0.0-14.0-0.54","5eaae42f19a24d05cbd6ccb4","650c16f0f2faf8d7a0d14c09","651c1dc90abf80d58021ab6a","null","null","<p style=""font-size: 60px; font-family: BACS"">Qcladrkra</p>","","","","","","","","",""
"html-keyboard-response","306","433169","0.0-14.0-0.55","5eaae42f19a24d05cbd6ccb4","650c16f0f2faf8d7a0d14c09","651c1dc90abf80d58021ab6a","null","null","<p style=""font-size: 60px; font-family: BACS"">RlAKcKmE</p>","","","","","","","","",""
"html-keyboard-response","307","434180","0.0-14.0-0.56","5eaae42f19a24d05cbd6ccb4","650c16f0f2faf8d7a0d14c09","651c1dc90abf80d58021ab6a","null","null","<p style=""font-size: 60px; font-family: BACS"">PEkhADOk</p>","","","","","","","","",""
"html-keyboard-response","308","435197","0.0-14.0-0.57","5eaae42f19a24d05cbd6ccb4","650c16f0f2faf8d7a0d14c09","651c1dc90abf80d58021ab6a","null","null","<p style=""font-size: 60px; font-family: BACS"">RlAKclRE</p>","","","","","","","","",""
"html-keyboard-response","309","436208","0.0-14.0-0.58","5eaae42f19a24d05cbd6ccb4","650c16f0f2faf8d7a0d14c09","651c1dc90abf80d58021ab6a","null","null","<p style=""font-size: 60px; font-family: BACS"">mARMhRKm</p>","","","","","","","","",""
"html-keyboard-response","310","437241","0.0-14.0-0.59","5eaae42f19a24d05cbd6ccb4","650c16f0f2faf8d7a0d14c09","651c1dc90abf80d58021ab6a","null","null","<p style=""font-size: 60px; font-family: BACS"">BEPOTRkY</p>","","","","","","","","",""
"html-keyboard-response","311","438245","0.0-14.0-0.60","5eaae42f19a24d05cbd6ccb4","650c16f0f2faf8d7a0d14c09","651c1dc90abf80d58021ab6a","null","null","<p style=""font-size: 60px; font-family: BACS"">AlNUcUN</p>","","","","","","","","",""
"html-keyboard-response","312","439256","0.0-14.0-0.61","5eaae42f19a24d05cbd6ccb4","650c16f0f2faf8d7a0d14c09","651c1dc90abf80d58021ab6a","null","null","<p style=""font-size: 60px; font-family: BACS"">BKDRYTRkY</p>","","","","","","","","",""
"html-keyboard-response","313","440267","0.0-14.0-0.62","5eaae42f19a24d05cbd6ccb4","650c16f0f2faf8d7a0d14c09","651c1dc90abf80d58021ab6a","null","null","<p style=""font-size: 60px; font-family: BACS"">PEkhAhRKm</p>","","","","","","","","",""
"html-keyboard-response","314","441279","0.0-14.0-0.63","5eaae42f19a24d05cbd6ccb4","650c16f0f2faf8d7a0d14c09","651c1dc90abf80d58021ab6a","null","null","<p style=""font-size: 60px; font-family: BACS"">AlNUNYZu</p>","","","","","","","","",""
"html-keyboard-response","315","442285","0.0-14.0-0.64","5eaae42f19a24d05cbd6ccb4","650c16f0f2faf8d7a0d14c09","651c1dc90abf80d58021ab6a","null","null","<p style=""font-size: 60px; font-family: BACS"">vAuNlcUN</p>","","","","","","","","",""
"html-keyboard-response","316","443288","0.0-14.0-0.65","5eaae42f19a24d05cbd6ccb4","650c16f0f2faf8d7a0d14c09","651c1dc90abf80d58021ab6a","null","null","<p style=""font-size: 60px; font-family: BACS"">ACcOhRKm</p>","","","","","","","","",""
"html-keyboard-response","317","444290","0.0-14.0-0.66","5eaae42f19a24d05cbd6ccb4","650c16f0f2faf8d7a0d14c09","651c1dc90abf80d58021ab6a","null","null","<p style=""font-size: 60px; font-family: BACS"">RlAKcDOk</p>","","","","","","","","",""
"html-keyboard-response","318","445293","0.0-14.0-0.67","5eaae42f19a24d05cbd6ccb4","650c16f0f2faf8d7a0d14c09","651c1dc90abf80d58021ab6a","null","null","<p style=""font-size: 60px; font-family: BACS"">dvNvALYGA</p>","","","","","","","","",""
"html-keyboard-response","319","446303","0.0-14.0-0.68","5eaae42f19a24d05cbd6ccb4","650c16f0f2faf8d7a0d14c09","651c1dc90abf80d58021ab6a","null","null","<p style=""font-size: 60px; font-family: BACS"">ktBdDOk</p>","","","","","","","","",""
"html-keyboard-response","320","447308","0.0-14.0-0.69","5eaae42f19a24d05cbd6ccb4","650c16f0f2faf8d7a0d14c09","651c1dc90abf80d58021ab6a","null","null","<p style=""font-size: 60px; font-family: BACS"">OdlNmLYGA</p>","","","","","","","","",""
"html-keyboard-response","321","448309","0.0-14.0-0.70","5eaae42f19a24d05cbd6ccb4","650c16f0f2faf8d7a0d14c09","651c1dc90abf80d58021ab6a","null","null","<p style=""font-size: 60px; font-family: BACS"">PEkhAKmE</p>","","","","","","","","",""
"html-keyboard-response","322","449311","0.0-14.0-0.71","5eaae42f19a24d05cbd6ccb4","650c16f0f2faf8d7a0d14c09","651c1dc90abf80d58021ab6a","null","null","<p style=""font-size: 60px; font-family: BACS"">mARMDOk</p>","","","","","","","","",""
"html-keyboard-response","323","450325","0.0-14.0-0.72","5eaae42f19a24d05cbd6ccb4","650c16f0f2faf8d7a0d14c09","651c1dc90abf80d58021ab6a","null","null","<p style=""font-size: 60px; font-family: BACS"">aLNlkrkra</p>","","","","","","","","",""
"html-keyboard-response","324","451335","0.0-14.0-0.73","5eaae42f19a24d05cbd6ccb4","650c16f0f2faf8d7a0d14c09","651c1dc90abf80d58021ab6a","null","null","<p style=""font-size: 60px; font-family: BACS"">PEkhATRkY</p>","","","","","","","","",""
"html-keyboard-response","325","452335","0.0-14.0-0.74","5eaae42f19a24d05cbd6ccb4","650c16f0f2faf8d7a0d14c09","651c1dc90abf80d58021ab6a","null","null","<p style=""font-size: 60px; font-family: BACS"">vAuNlrkra</p>","","","","","","","","",""
"html-keyboard-response","326","453351","0.0-14.0-0.75","5eaae42f19a24d05cbd6ccb4","650c16f0f2faf8d7a0d14c09","651c1dc90abf80d58021ab6a","null","null","<p style=""font-size: 60px; font-family: BACS"">rbYbuNYZu</p>","","","","","","","","",""
"html-keyboard-response","327","454364","0.0-14.0-0.76","5eaae42f19a24d05cbd6ccb4","650c16f0f2faf8d7a0d14c09","651c1dc90abf80d58021ab6a","null","null","<p style=""font-size: 60px; font-family: BACS"">ktBdhRKm</p>","","","","","","","","",""
"html-keyboard-response","328","455366","0.0-14.0-0.77","5eaae42f19a24d05cbd6ccb4","650c16f0f2faf8d7a0d14c09","651c1dc90abf80d58021ab6a","null","null","<p style=""font-size: 60px; font-family: BACS"">OdlNmNYZu</p>","","","","","","","","",""
"html-keyboard-response","329","456382","0.0-14.0-0.78","5eaae42f19a24d05cbd6ccb4","650c16f0f2faf8d7a0d14c09","651c1dc90abf80d58021ab6a","null","null","<p style=""font-size: 60px; font-family: BACS"">aLNlkLYGA</p>","","","","","","","","",""
"html-keyboard-response","330","457382","0.0-14.0-0.79","5eaae42f19a24d05cbd6ccb4","650c16f0f2faf8d7a0d14c09","651c1dc90abf80d58021ab6a","null","null","<p style=""font-size: 60px; font-family: BACS"">BEPOKmE</p>","","","","","","","","",""
"html-keyboard-response","331","459014","0.0-15.0","5eaae42f19a24d05cbd6ccb4","650c16f0f2faf8d7a0d14c09","651c1dc90abf80d58021ab6a","1632"," ","<p>Great, you've seen the fourth block of words. You may now take a short break.</p>
      <p>Press the spacebar when you're ready to continue.</p>","","","","","","","","",""
"html-keyboard-response","332","460025","0.0-16.0-0.0","5eaae42f19a24d05cbd6ccb4","650c16f0f2faf8d7a0d14c09","651c1dc90abf80d58021ab6a","null","null","<p style=""font-size: 60px; font-family: BACS"">dvNvAcUN</p>","","","","","","","","",""
"html-keyboard-response","333","461040","0.0-16.0-0.1","5eaae42f19a24d05cbd6ccb4","650c16f0f2faf8d7a0d14c09","651c1dc90abf80d58021ab6a","null","null","<p style=""font-size: 60px; font-family: BACS"">dvNvAcUN</p>","","","","","","","","",""
"html-keyboard-response","334","462052","0.0-16.0-0.2","5eaae42f19a24d05cbd6ccb4","650c16f0f2faf8d7a0d14c09","651c1dc90abf80d58021ab6a","null","null","<p style=""font-size: 60px; font-family: BACS"">dvNvAcUN</p>","","","","","","","","",""
"html-keyboard-response","335","463065","0.0-16.0-0.3","5eaae42f19a24d05cbd6ccb4","650c16f0f2faf8d7a0d14c09","651c1dc90abf80d58021ab6a","null","null","<p style=""font-size: 60px; font-family: BACS"">dvNvAcUN</p>","","","","","","","","",""
"html-keyboard-response","336","464099","0.0-16.0-0.4","5eaae42f19a24d05cbd6ccb4","650c16f0f2faf8d7a0d14c09","651c1dc90abf80d58021ab6a","null","null","<p style=""font-size: 60px; font-family: BACS"">dvNvAcUN</p>","","","","","","","","",""
"html-keyboard-response","337","465111","0.0-16.0-0.5","5eaae42f19a24d05cbd6ccb4","650c16f0f2faf8d7a0d14c09","651c1dc90abf80d58021ab6a","null","null","<p style=""font-size: 60px; font-family: BACS"">dvNvAcUN</p>","","","","","","","","",""
"html-keyboard-response","338","466126","0.0-16.0-0.6","5eaae42f19a24d05cbd6ccb4","650c16f0f2faf8d7a0d14c09","651c1dc90abf80d58021ab6a","null","null","<p style=""font-size: 60px; font-family: BACS"">dvNvAcUN</p>","","","","","","","","",""
"html-keyboard-response","339","467140","0.0-16.0-0.7","5eaae42f19a24d05cbd6ccb4","650c16f0f2faf8d7a0d14c09","651c1dc90abf80d58021ab6a","null","null","<p style=""font-size: 60px; font-family: BACS"">dvNvAcUN</p>","","","","","","","","",""
"html-keyboard-response","340","468143","0.0-16.0-0.8","5eaae42f19a24d05cbd6ccb4","650c16f0f2faf8d7a0d14c09","651c1dc90abf80d58021ab6a","null","null","<p style=""font-size: 60px; font-family: BACS"">dvNvAcUN</p>","","","","","","","","",""
"html-keyboard-response","341","469144","0.0-16.0-0.9","5eaae42f19a24d05cbd6ccb4","650c16f0f2faf8d7a0d14c09","651c1dc90abf80d58021ab6a","null","null","<p style=""font-size: 60px; font-family: BACS"">dvNvAcUN</p>","","","","","","","","",""
"html-keyboard-response","342","470159","0.0-16.0-0.10","5eaae42f19a24d05cbd6ccb4","650c16f0f2faf8d7a0d14c09","651c1dc90abf80d58021ab6a","null","null","<p style=""font-size: 60px; font-family: BACS"">dvNvAcUN</p>","","","","","","","","",""
"html-keyboard-response","343","471167","0.0-16.0-0.11","5eaae42f19a24d05cbd6ccb4","650c16f0f2faf8d7a0d14c09","651c1dc90abf80d58021ab6a","null","null","<p style=""font-size: 60px; font-family: BACS"">dvNvAcUN</p>","","","","","","","","",""
"html-keyboard-response","344","472173","0.0-16.0-0.12","5eaae42f19a24d05cbd6ccb4","650c16f0f2faf8d7a0d14c09","651c1dc90abf80d58021ab6a","null","null","<p style=""font-size: 60px; font-family: BACS"">dvNvAcUN</p>","","","","","","","","",""
"html-keyboard-response","345","473180","0.0-16.0-0.13","5eaae42f19a24d05cbd6ccb4","650c16f0f2faf8d7a0d14c09","651c1dc90abf80d58021ab6a","null","null","<p style=""font-size: 60px; font-family: BACS"">dvNvAcUN</p>","","","","","","","","",""
"html-keyboard-response","346","474182","0.0-16.0-0.14","5eaae42f19a24d05cbd6ccb4","650c16f0f2faf8d7a0d14c09","651c1dc90abf80d58021ab6a","null","null","<p style=""font-size: 60px; font-family: BACS"">dvNvAcUN</p>","","","","","","","","",""
"html-keyboard-response","347","475197","0.0-16.0-0.15","5eaae42f19a24d05cbd6ccb4","650c16f0f2faf8d7a0d14c09","651c1dc90abf80d58021ab6a","null","null","<p style=""font-size: 60px; font-family: BACS"">dvNvAcUN</p>","","","","","","","","",""
"html-keyboard-response","348","476209","0.0-16.0-0.16","5eaae42f19a24d05cbd6ccb4","650c16f0f2faf8d7a0d14c09","651c1dc90abf80d58021ab6a","null","null","<p style=""font-size: 60px; font-family: BACS"">dvNvAcUN</p>","","","","","","","","",""
"html-keyboard-response","349","477216","0.0-16.0-0.17","5eaae42f19a24d05cbd6ccb4","650c16f0f2faf8d7a0d14c09","651c1dc90abf80d58021ab6a","null","null","<p style=""font-size: 60px; font-family: BACS"">dvNvAcUN</p>","","","","","","","","",""
"html-keyboard-response","350","478217","0.0-16.0-0.18","5eaae42f19a24d05cbd6ccb4","650c16f0f2faf8d7a0d14c09","651c1dc90abf80d58021ab6a","null","null","<p style=""font-size: 60px; font-family: BACS"">dvNvAcUN</p>","","","","","","","","",""
"html-keyboard-response","351","479217","0.0-16.0-0.19","5eaae42f19a24d05cbd6ccb4","650c16f0f2faf8d7a0d14c09","651c1dc90abf80d58021ab6a","null","null","<p style=""font-size: 60px; font-family: BACS"">dvNvAcUN</p>","","","","","","","","",""
"html-keyboard-response","352","480227","0.0-16.0-0.20","5eaae42f19a24d05cbd6ccb4","650c16f0f2faf8d7a0d14c09","651c1dc90abf80d58021ab6a","null","null","<p style=""font-size: 60px; font-family: BACS"">dvNvAcUN</p>","","","","","","","","",""
"html-keyboard-response","353","481233","0.0-16.0-0.21","5eaae42f19a24d05cbd6ccb4","650c16f0f2faf8d7a0d14c09","651c1dc90abf80d58021ab6a","null","null","<p style=""font-size: 60px; font-family: BACS"">dvNvAcUN</p>","","","","","","","","",""
"html-keyboard-response","354","482243","0.0-16.0-0.22","5eaae42f19a24d05cbd6ccb4","650c16f0f2faf8d7a0d14c09","651c1dc90abf80d58021ab6a","null","null","<p style=""font-size: 60px; font-family: BACS"">dvNvAcUN</p>","","","","","","","","",""
"html-keyboard-response","355","483259","0.0-16.0-0.23","5eaae42f19a24d05cbd6ccb4","650c16f0f2faf8d7a0d14c09","651c1dc90abf80d58021ab6a","null","null","<p style=""font-size: 60px; font-family: BACS"">dvNvAcUN</p>","","","","","","","","",""
"html-keyboard-response","356","484261","0.0-16.0-0.24","5eaae42f19a24d05cbd6ccb4","650c16f0f2faf8d7a0d14c09","651c1dc90abf80d58021ab6a","null","null","<p style=""font-size: 60px; font-family: BACS"">dvNvAcUN</p>","","","","","","","","",""
"html-keyboard-response","357","485276","0.0-16.0-0.25","5eaae42f19a24d05cbd6ccb4","650c16f0f2faf8d7a0d14c09","651c1dc90abf80d58021ab6a","null","null","<p style=""font-size: 60px; font-family: BACS"">dvNvAcUN</p>","","","","","","","","",""
"html-keyboard-response","358","486288","0.0-16.0-0.26","5eaae42f19a24d05cbd6ccb4","650c16f0f2faf8d7a0d14c09","651c1dc90abf80d58021ab6a","null","null","<p style=""font-size: 60px; font-family: BACS"">dvNvAcUN</p>","","","","","","","","",""
"html-keyboard-response","359","487291","0.0-16.0-0.27","5eaae42f19a24d05cbd6ccb4","650c16f0f2faf8d7a0d14c09","651c1dc90abf80d58021ab6a","null","null","<p style=""font-size: 60px; font-family: BACS"">dvNvAcUN</p>","","","","","","","","",""
"html-keyboard-response","360","488292","0.0-16.0-0.28","5eaae42f19a24d05cbd6ccb4","650c16f0f2faf8d7a0d14c09","651c1dc90abf80d58021ab6a","null","null","<p style=""font-size: 60px; font-family: BACS"">dvNvAcUN</p>","","","","","","","","",""
"html-keyboard-response","361","489293","0.0-16.0-0.29","5eaae42f19a24d05cbd6ccb4","650c16f0f2faf8d7a0d14c09","651c1dc90abf80d58021ab6a","null","null","<p style=""font-size: 60px; font-family: BACS"">dvNvAcUN</p>","","","","","","","","",""
"html-keyboard-response","362","490297","0.0-16.0-0.30","5eaae42f19a24d05cbd6ccb4","650c16f0f2faf8d7a0d14c09","651c1dc90abf80d58021ab6a","null","null","<p style=""font-size: 60px; font-family: BACS"">dvNvAcUN</p>","","","","","","","","",""
"html-keyboard-response","363","491311","0.0-16.0-0.31","5eaae42f19a24d05cbd6ccb4","650c16f0f2faf8d7a0d14c09","651c1dc90abf80d58021ab6a","null","null","<p style=""font-size: 60px; font-family: BACS"">dvNvAcUN</p>","","","","","","","","",""
"html-keyboard-response","364","492325","0.0-16.0-0.32","5eaae42f19a24d05cbd6ccb4","650c16f0f2faf8d7a0d14c09","651c1dc90abf80d58021ab6a","null","null","<p style=""font-size: 60px; font-family: BACS"">dvNvAcUN</p>","","","","","","","","",""
"html-keyboard-response","365","493325","0.0-16.0-0.33","5eaae42f19a24d05cbd6ccb4","650c16f0f2faf8d7a0d14c09","651c1dc90abf80d58021ab6a","null","null","<p style=""font-size: 60px; font-family: BACS"">dvNvAcUN</p>","","","","","","","","",""
"html-keyboard-response","366","494325","0.0-16.0-0.34","5eaae42f19a24d05cbd6ccb4","650c16f0f2faf8d7a0d14c09","651c1dc90abf80d58021ab6a","null","null","<p style=""font-size: 60px; font-family: BACS"">dvNvAcUN</p>","","","","","","","","",""
"html-keyboard-response","367","495339","0.0-16.0-0.35","5eaae42f19a24d05cbd6ccb4","650c16f0f2faf8d7a0d14c09","651c1dc90abf80d58021ab6a","null","null","<p style=""font-size: 60px; font-family: BACS"">dvNvAcUN</p>","","","","","","","","",""
"html-keyboard-response","368","496351","0.0-16.0-0.36","5eaae42f19a24d05cbd6ccb4","650c16f0f2faf8d7a0d14c09","651c1dc90abf80d58021ab6a","null","null","<p style=""font-size: 60px; font-family: BACS"">dvNvAcUN</p>","","","","","","","","",""
"html-keyboard-response","369","497356","0.0-16.0-0.37","5eaae42f19a24d05cbd6ccb4","650c16f0f2faf8d7a0d14c09","651c1dc90abf80d58021ab6a","null","null","<p style=""font-size: 60px; font-family: BACS"">dvNvAcUN</p>","","","","","","","","",""
"html-keyboard-response","370","498366","0.0-16.0-0.38","5eaae42f19a24d05cbd6ccb4","650c16f0f2faf8d7a0d14c09","651c1dc90abf80d58021ab6a","null","null","<p style=""font-size: 60px; font-family: BACS"">dvNvAcUN</p>","","","","","","","","",""
"html-keyboard-response","371","499378","0.0-16.0-0.39","5eaae42f19a24d05cbd6ccb4","650c16f0f2faf8d7a0d14c09","651c1dc90abf80d58021ab6a","null","null","<p style=""font-size: 60px; font-family: BACS"">dvNvAcUN</p>","","","","","","","","",""
"html-keyboard-response","372","500380","0.0-16.0-0.40","5eaae42f19a24d05cbd6ccb4","650c16f0f2faf8d7a0d14c09","651c1dc90abf80d58021ab6a","null","null","<p style=""font-size: 60px; font-family: BACS"">dvNvAcUN</p>","","","","","","","","",""
"html-keyboard-response","373","501395","0.0-16.0-0.41","5eaae42f19a24d05cbd6ccb4","650c16f0f2faf8d7a0d14c09","651c1dc90abf80d58021ab6a","null","null","<p style=""font-size: 60px; font-family: BACS"">dvNvAcUN</p>","","","","","","","","",""
"html-keyboard-response","374","502398","0.0-16.0-0.42","5eaae42f19a24d05cbd6ccb4","650c16f0f2faf8d7a0d14c09","651c1dc90abf80d58021ab6a","null","null","<p style=""font-size: 60px; font-family: BACS"">dvNvAcUN</p>","","","","","","","","",""
"html-keyboard-response","375","503401","0.0-16.0-0.43","5eaae42f19a24d05cbd6ccb4","650c16f0f2faf8d7a0d14c09","651c1dc90abf80d58021ab6a","null","null","<p style=""font-size: 60px; font-family: BACS"">dvNvAcUN</p>","","","","","","","","",""
"html-keyboard-response","376","504408","0.0-16.0-0.44","5eaae42f19a24d05cbd6ccb4","650c16f0f2faf8d7a0d14c09","651c1dc90abf80d58021ab6a","null","null","<p style=""font-size: 60px; font-family: BACS"">dvNvAcUN</p>","","","","","","","","",""
"html-keyboard-response","377","505418","0.0-16.0-0.45","5eaae42f19a24d05cbd6ccb4","650c16f0f2faf8d7a0d14c09","651c1dc90abf80d58021ab6a","null","null","<p style=""font-size: 60px; font-family: BACS"">dvNvAcUN</p>","","","","","","","","",""
"html-keyboard-response","378","506432","0.0-16.0-0.46","5eaae42f19a24d05cbd6ccb4","650c16f0f2faf8d7a0d14c09","651c1dc90abf80d58021ab6a","null","null","<p style=""font-size: 60px; font-family: BACS"">dvNvAcUN</p>","","","","","","","","",""
"html-keyboard-response","379","507433","0.0-16.0-0.47","5eaae42f19a24d05cbd6ccb4","650c16f0f2faf8d7a0d14c09","651c1dc90abf80d58021ab6a","null","null","<p style=""font-size: 60px; font-family: BACS"">dvNvAcUN</p>","","","","","","","","",""
"html-keyboard-response","380","508446","0.0-16.0-0.48","5eaae42f19a24d05cbd6ccb4","650c16f0f2faf8d7a0d14c09","651c1dc90abf80d58021ab6a","null","null","<p style=""font-size: 60px; font-family: BACS"">dvNvAcUN</p>","","","","","","","","",""
"html-keyboard-response","381","509462","0.0-16.0-0.49","5eaae42f19a24d05cbd6ccb4","650c16f0f2faf8d7a0d14c09","651c1dc90abf80d58021ab6a","null","null","<p style=""font-size: 60px; font-family: BACS"">dvNvAcUN</p>","","","","","","","","",""
"html-keyboard-response","382","510462","0.0-16.0-0.50","5eaae42f19a24d05cbd6ccb4","650c16f0f2faf8d7a0d14c09","651c1dc90abf80d58021ab6a","null","null","<p style=""font-size: 60px; font-family: BACS"">dvNvAcUN</p>","","","","","","","","",""
"html-keyboard-response","383","511478","0.0-16.0-0.51","5eaae42f19a24d05cbd6ccb4","650c16f0f2faf8d7a0d14c09","651c1dc90abf80d58021ab6a","null","null","<p style=""font-size: 60px; font-family: BACS"">dvNvAcUN</p>","","","","","","","","",""
"html-keyboard-response","384","512479","0.0-16.0-0.52","5eaae42f19a24d05cbd6ccb4","650c16f0f2faf8d7a0d14c09","651c1dc90abf80d58021ab6a","null","null","<p style=""font-size: 60px; font-family: BACS"">dvNvAcUN</p>","","","","","","","","",""
"html-keyboard-response","385","513495","0.0-16.0-0.53","5eaae42f19a24d05cbd6ccb4","650c16f0f2faf8d7a0d14c09","651c1dc90abf80d58021ab6a","null","null","<p style=""font-size: 60px; font-family: BACS"">dvNvAcUN</p>","","","","","","","","",""
"html-keyboard-response","386","514496","0.0-16.0-0.54","5eaae42f19a24d05cbd6ccb4","650c16f0f2faf8d7a0d14c09","651c1dc90abf80d58021ab6a","null","null","<p style=""font-size: 60px; font-family: BACS"">dvNvAcUN</p>","","","","","","","","",""
"html-keyboard-response","387","515497","0.0-16.0-0.55","5eaae42f19a24d05cbd6ccb4","650c16f0f2faf8d7a0d14c09","651c1dc90abf80d58021ab6a","null","null","<p style=""font-size: 60px; font-family: BACS"">dvNvAcUN</p>","","","","","","","","",""
"html-keyboard-response","388","516512","0.0-16.0-0.56","5eaae42f19a24d05cbd6ccb4","650c16f0f2faf8d7a0d14c09","651c1dc90abf80d58021ab6a","null","null","<p style=""font-size: 60px; font-family: BACS"">dvNvAcUN</p>","","","","","","","","",""
"html-keyboard-response","389","517525","0.0-16.0-0.57","5eaae42f19a24d05cbd6ccb4","650c16f0f2faf8d7a0d14c09","651c1dc90abf80d58021ab6a","null","null","<p style=""font-size: 60px; font-family: BACS"">dvNvAcUN</p>","","","","","","","","",""
"html-keyboard-response","390","518541","0.0-16.0-0.58","5eaae42f19a24d05cbd6ccb4","650c16f0f2faf8d7a0d14c09","651c1dc90abf80d58021ab6a","null","null","<p style=""font-size: 60px; font-family: BACS"">dvNvAcUN</p>","","","","","","","","",""
"html-keyboard-response","391","519544","0.0-16.0-0.59","5eaae42f19a24d05cbd6ccb4","650c16f0f2faf8d7a0d14c09","651c1dc90abf80d58021ab6a","null","null","<p style=""font-size: 60px; font-family: BACS"">dvNvAcUN</p>","","","","","","","","",""
"html-keyboard-response","392","520545","0.0-16.0-0.60","5eaae42f19a24d05cbd6ccb4","650c16f0f2faf8d7a0d14c09","651c1dc90abf80d58021ab6a","null","null","<p style=""font-size: 60px; font-family: BACS"">dvNvAcUN</p>","","","","","","","","",""
"html-keyboard-response","393","521559","0.0-16.0-0.61","5eaae42f19a24d05cbd6ccb4","650c16f0f2faf8d7a0d14c09","651c1dc90abf80d58021ab6a","null","null","<p style=""font-size: 60px; font-family: BACS"">dvNvAcUN</p>","","","","","","","","",""
"html-keyboard-response","394","522559","0.0-16.0-0.62","5eaae42f19a24d05cbd6ccb4","650c16f0f2faf8d7a0d14c09","651c1dc90abf80d58021ab6a","null","null","<p style=""font-size: 60px; font-family: BACS"">dvNvAcUN</p>","","","","","","","","",""
"html-keyboard-response","395","523561","0.0-16.0-0.63","5eaae42f19a24d05cbd6ccb4","650c16f0f2faf8d7a0d14c09","651c1dc90abf80d58021ab6a","null","null","<p style=""font-size: 60px; font-family: BACS"">dvNvAcUN</p>","","","","","","","","",""
"html-keyboard-response","396","524565","0.0-16.0-0.64","5eaae42f19a24d05cbd6ccb4","650c16f0f2faf8d7a0d14c09","651c1dc90abf80d58021ab6a","null","null","<p style=""font-size: 60px; font-family: BACS"">dvNvAcUN</p>","","","","","","","","",""
"html-keyboard-response","397","525566","0.0-16.0-0.65","5eaae42f19a24d05cbd6ccb4","650c16f0f2faf8d7a0d14c09","651c1dc90abf80d58021ab6a","null","null","<p style=""font-size: 60px; font-family: BACS"">dvNvAcUN</p>","","","","","","","","",""
"html-keyboard-response","398","526582","0.0-16.0-0.66","5eaae42f19a24d05cbd6ccb4","650c16f0f2faf8d7a0d14c09","651c1dc90abf80d58021ab6a","null","null","<p style=""font-size: 60px; font-family: BACS"">dvNvAcUN</p>","","","","","","","","",""
