trial_type,trial_index,time_elapsed,internal_node_id,subject_id,study_id,session_id,rt,response,stimulus,success,item,task,correct_response,testing_condition,correct,target,confound,name,view_history
pavlovia,0,1905,0.0-0.0,615b1ab789b14c9996251fb4,650c16f0f2faf8d7a0d14c09,651c1bda5fc6eee35b061f03,,,,,,,,,,,,,
survey-html-form,1,11301,0.0-1.0,615b1ab789b14c9996251fb4,650c16f0f2faf8d7a0d14c09,651c1bda5fc6eee35b061f03,9391,"{""ID"":""615b1ab789b14c9996251fb4""}",,,,,,,,,,,
html-keyboard-response,2,143232,0.0-2.0,615b1ab789b14c9996251fb4,650c16f0f2faf8d7a0d14c09,651c1bda5fc6eee35b061f03,131924, ,"<p style=""font-size: 15px;"">Before beginning, we ask that you read the consent information and confirm your agreement to participate in the experiment.</p>
      <p style=""font-size: 15px;""> We ask that you remember that this is a research project and that your participation is entirely voluntary. You can stop your participation at any time, without needing to provide any explanation. The study we're asking you to participate in aims at examining how readers process written words. You will be engaged in a session of apprximately 20 minutes, followed by a brief questionnaire. You will have the opportunity to take a few breaks during the experiment. You will be paid £4 for your participation, corresponding to a rate of £8/hour. While this experiment looks at cognitive faculties, this experiment doesn't constitute clinical proof of eventual pathologies.</p>
      <p style=""font-size: 15px;"">All of the information collected thanks to yours and others' participation will be held in a secure password-protected server, and will not be shared with anyone not authorised to view it. Your personal information will be kept with an arbitrary participant ID. Thanks to this data anonymity process, any researcher analysing the data won't be able to track the information back to a specific participant. Therefore, this process will make identifying you impossibile, even when results from the study will be published in scientific reviews, presented at congresses, or at any other public forum. More generally, the collected data will be treated in accordance with the laws on privacy and conformity to the Legislative Degree n. 196 ""Code regarding the protection of personal data"" of the 30th of June 2003 and to the European Regulation 2016/670 (General Data Protection Regulation - GDPR). The Data Protection Officer is Avv. Valentina Carollo, who can be contacted at the following email addresses: <a href=""mailto:dpo@sissa.it"">dpo@sissa.it</a> or <a href=""mailto:rpd@sissa.it"">rpd@sissa.it</a> - PEC: <a href=""mailto:protocollo@pec.sissa.it"">protocollo@pec.sissa.it</a>.</p>
      <p style=""font-size: 15px;""> Before expressing your consent to participate, we would like to remind you again that in case you need explanations on any aspect of the experimental procedure, the researcher is at your disposition (<a href=""mailto:aliebelt@sissa.it"">aliebelt@sissa.it</a>, <a href=""mailto:davide.crepaldi@sissa.it"">davide.crepaldi@sissa.it</a>).</p>
      <p style=""font-size: 15px;"">If you would like to download the informed consent form, you can do so here: <a href=""BASL-Informed_Consent.pdf"" download>informed consent form</a>.</p>
      <p style=""font-size: 15px;"">We ask that you press the spacebar to proceed to the consent section.</p>",,,,,,,,,,
survey-html-form,3,272387,0.0-3.0,615b1ab789b14c9996251fb4,650c16f0f2faf8d7a0d14c09,651c1bda5fc6eee35b061f03,129149,"{""consent1"":""YES"",""consent2"":""YES"",""consent3"":""YES"",""consent4"":""YES"",""consent5"":""YES"",""consent6"":""YES""}",,,,,,,,,,,
fullscreen,4,280788,0.0-4.0,615b1ab789b14c9996251fb4,650c16f0f2faf8d7a0d14c09,651c1bda5fc6eee35b061f03,,,,TRUE,,,,,,,,,
html-keyboard-response,5,307606,0.0-5.0,615b1ab789b14c9996251fb4,650c16f0f2faf8d7a0d14c09,651c1bda5fc6eee35b061f03,26815, ,"<p>Welcome, and thank you very much for your time!</p>
      <p>In this experiment, you'll be a language expert who's been asked to take a look at words that Earth has received in its first communication with aliens. Your task, in this first part of the experiment, is to pay close attention to the words you'll be shown; later, world leaders will ask you questions on what you saw. The words will be shown to you quite quickly; it seems that the aliens were in a hurry :-)</p>
      <p>Press the spacebar to continue.<p>",,,,,,,,,,
html-keyboard-response,6,307659,0.0-6.0,615b1ab789b14c9996251fb4,650c16f0f2faf8d7a0d14c09,651c1bda5fc6eee35b061f03,null,null,"<p style=""font-size: 120px; font-family: BACS""> </p>",,,,,,,,,,
html-keyboard-response,7,333796,0.0-7.0,615b1ab789b14c9996251fb4,650c16f0f2faf8d7a0d14c09,651c1bda5fc6eee35b061f03,26141, ,"<p>Here is an example of the words you'll see:</p>
      <img src='esempio.png' height='400px'>
      <p>When you're ready to begin, press the spacebar.</p></div>",,,,,,,,,,
html-keyboard-response,8,334818,0.0-8.0-0.0,615b1ab789b14c9996251fb4,650c16f0f2faf8d7a0d14c09,651c1bda5fc6eee35b061f03,null,null,"<p style=""font-size: 60px; font-family: BACS"">UdYUQYLU</p>",,,,,,,,,,
html-keyboard-response,9,335824,0.0-8.0-0.1,615b1ab789b14c9996251fb4,650c16f0f2faf8d7a0d14c09,651c1bda5fc6eee35b061f03,null,null,"<p style=""font-size: 60px; font-family: BACS"">hbkdEPBT</p>",,,,,,,,,,
html-keyboard-response,10,336839,0.0-8.0-0.2,615b1ab789b14c9996251fb4,650c16f0f2faf8d7a0d14c09,651c1bda5fc6eee35b061f03,null,null,"<p style=""font-size: 60px; font-family: BACS"">NaAQdcrdY</p>",,,,,,,,,,
html-keyboard-response,11,337856,0.0-8.0-0.3,615b1ab789b14c9996251fb4,650c16f0f2faf8d7a0d14c09,651c1bda5fc6eee35b061f03,null,null,"<p style=""font-size: 60px; font-family: BACS"">OZkbYLU</p>",,,,,,,,,,
html-keyboard-response,12,338873,0.0-8.0-0.4,615b1ab789b14c9996251fb4,650c16f0f2faf8d7a0d14c09,651c1bda5fc6eee35b061f03,null,null,"<p style=""font-size: 60px; font-family: BACS"">bvuZOcZJ</p>",,,,,,,,,,
html-keyboard-response,13,339886,0.0-8.0-0.5,615b1ab789b14c9996251fb4,650c16f0f2faf8d7a0d14c09,651c1bda5fc6eee35b061f03,null,null,"<p style=""font-size: 60px; font-family: BACS"">DlDdMAB</p>",,,,,,,,,,
html-keyboard-response,14,340919,0.0-8.0-0.6,615b1ab789b14c9996251fb4,650c16f0f2faf8d7a0d14c09,651c1bda5fc6eee35b061f03,null,null,"<p style=""font-size: 60px; font-family: BACS"">hbkdTmc</p>",,,,,,,,,,
html-keyboard-response,15,341923,0.0-8.0-0.7,615b1ab789b14c9996251fb4,650c16f0f2faf8d7a0d14c09,651c1bda5fc6eee35b061f03,null,null,"<p style=""font-size: 60px; font-family: BACS"">AlTdbTE</p>",,,,,,,,,,
html-keyboard-response,16,342940,0.0-8.0-0.8,615b1ab789b14c9996251fb4,650c16f0f2faf8d7a0d14c09,651c1bda5fc6eee35b061f03,null,null,"<p style=""font-size: 60px; font-family: BACS"">kZUbGUa</p>",,,,,,,,,,
html-keyboard-response,17,343956,0.0-8.0-0.9,615b1ab789b14c9996251fb4,650c16f0f2faf8d7a0d14c09,651c1bda5fc6eee35b061f03,null,null,"<p style=""font-size: 60px; font-family: BACS"">kMbTRPMYm</p>",,,,,,,,,,
html-keyboard-response,18,344972,0.0-8.0-0.10,615b1ab789b14c9996251fb4,650c16f0f2faf8d7a0d14c09,651c1bda5fc6eee35b061f03,null,null,"<p style=""font-size: 60px; font-family: BACS"">UdYUQcrdY</p>",,,,,,,,,,
html-keyboard-response,19,345989,0.0-8.0-0.11,615b1ab789b14c9996251fb4,650c16f0f2faf8d7a0d14c09,651c1bda5fc6eee35b061f03,null,null,"<p style=""font-size: 60px; font-family: BACS"">AlTdEPBT</p>",,,,,,,,,,
html-keyboard-response,20,347006,0.0-8.0-0.12,615b1ab789b14c9996251fb4,650c16f0f2faf8d7a0d14c09,651c1bda5fc6eee35b061f03,null,null,"<p style=""font-size: 60px; font-family: BACS"">RdPtDMAB</p>",,,,,,,,,,
html-keyboard-response,21,348021,0.0-8.0-0.13,615b1ab789b14c9996251fb4,650c16f0f2faf8d7a0d14c09,651c1bda5fc6eee35b061f03,null,null,"<p style=""font-size: 60px; font-family: BACS"">ZYcQUYLU</p>",,,,,,,,,,
html-keyboard-response,22,349029,0.0-8.0-0.14,615b1ab789b14c9996251fb4,650c16f0f2faf8d7a0d14c09,651c1bda5fc6eee35b061f03,null,null,"<p style=""font-size: 60px; font-family: BACS"">AlTdPMYm</p>",,,,,,,,,,
html-keyboard-response,23,350039,0.0-8.0-0.15,615b1ab789b14c9996251fb4,650c16f0f2faf8d7a0d14c09,651c1bda5fc6eee35b061f03,null,null,"<p style=""font-size: 60px; font-family: BACS"">kZUbYLU</p>",,,,,,,,,,
html-keyboard-response,24,351054,0.0-8.0-0.16,615b1ab789b14c9996251fb4,650c16f0f2faf8d7a0d14c09,651c1bda5fc6eee35b061f03,null,null,"<p style=""font-size: 60px; font-family: BACS"">kMbTRMAB</p>",,,,,,,,,,
html-keyboard-response,25,352072,0.0-8.0-0.17,615b1ab789b14c9996251fb4,650c16f0f2faf8d7a0d14c09,651c1bda5fc6eee35b061f03,null,null,"<p style=""font-size: 60px; font-family: BACS"">TEBKEPBT</p>",,,,,,,,,,
html-keyboard-response,26,353089,0.0-8.0-0.18,615b1ab789b14c9996251fb4,650c16f0f2faf8d7a0d14c09,651c1bda5fc6eee35b061f03,null,null,"<p style=""font-size: 60px; font-family: BACS"">kZUbJQA</p>",,,,,,,,,,
html-keyboard-response,27,354105,0.0-8.0-0.19,615b1ab789b14c9996251fb4,650c16f0f2faf8d7a0d14c09,651c1bda5fc6eee35b061f03,null,null,"<p style=""font-size: 60px; font-family: BACS"">RdPtDPMYm</p>",,,,,,,,,,
html-keyboard-response,28,355116,0.0-8.0-0.20,615b1ab789b14c9996251fb4,650c16f0f2faf8d7a0d14c09,651c1bda5fc6eee35b061f03,null,null,"<p style=""font-size: 60px; font-family: BACS"">ZYcQUJQA</p>",,,,,,,,,,
html-keyboard-response,29,356125,0.0-8.0-0.21,615b1ab789b14c9996251fb4,650c16f0f2faf8d7a0d14c09,651c1bda5fc6eee35b061f03,null,null,"<p style=""font-size: 60px; font-family: BACS"">DlDdTmc</p>",,,,,,,,,,
html-keyboard-response,30,357139,0.0-8.0-0.22,615b1ab789b14c9996251fb4,650c16f0f2faf8d7a0d14c09,651c1bda5fc6eee35b061f03,null,null,"<p style=""font-size: 60px; font-family: BACS"">GumLlYLU</p>",,,,,,,,,,
html-keyboard-response,31,358155,0.0-8.0-0.23,615b1ab789b14c9996251fb4,650c16f0f2faf8d7a0d14c09,651c1bda5fc6eee35b061f03,null,null,"<p style=""font-size: 60px; font-family: BACS"">GJZmOcZJ</p>",,,,,,,,,,
html-keyboard-response,32,359170,0.0-8.0-0.24,615b1ab789b14c9996251fb4,650c16f0f2faf8d7a0d14c09,651c1bda5fc6eee35b061f03,null,null,"<p style=""font-size: 60px; font-family: BACS"">kMbTRbTE</p>",,,,,,,,,,
html-keyboard-response,33,360188,0.0-8.0-0.25,615b1ab789b14c9996251fb4,650c16f0f2faf8d7a0d14c09,651c1bda5fc6eee35b061f03,null,null,"<p style=""font-size: 60px; font-family: BACS"">OZkbGUa</p>",,,,,,,,,,
html-keyboard-response,34,361204,0.0-8.0-0.26,615b1ab789b14c9996251fb4,650c16f0f2faf8d7a0d14c09,651c1bda5fc6eee35b061f03,null,null,"<p style=""font-size: 60px; font-family: BACS"">GJZmcrdY</p>",,,,,,,,,,
html-keyboard-response,35,362222,0.0-8.0-0.27,615b1ab789b14c9996251fb4,650c16f0f2faf8d7a0d14c09,651c1bda5fc6eee35b061f03,null,null,"<p style=""font-size: 60px; font-family: BACS"">DlDdbTE</p>",,,,,,,,,,
html-keyboard-response,36,363239,0.0-8.0-0.28,615b1ab789b14c9996251fb4,650c16f0f2faf8d7a0d14c09,651c1bda5fc6eee35b061f03,null,null,"<p style=""font-size: 60px; font-family: BACS"">GumLlJQA</p>",,,,,,,,,,
html-keyboard-response,37,364253,0.0-8.0-0.29,615b1ab789b14c9996251fb4,650c16f0f2faf8d7a0d14c09,651c1bda5fc6eee35b061f03,null,null,"<p style=""font-size: 60px; font-family: BACS"">GJZmYLU</p>",,,,,,,,,,
html-keyboard-response,38,365300,0.0-8.0-0.30,615b1ab789b14c9996251fb4,650c16f0f2faf8d7a0d14c09,651c1bda5fc6eee35b061f03,null,null,"<p style=""font-size: 60px; font-family: BACS"">chEDOTmc</p>",,,,,,,,,,
html-keyboard-response,39,366305,0.0-8.0-0.31,615b1ab789b14c9996251fb4,650c16f0f2faf8d7a0d14c09,651c1bda5fc6eee35b061f03,null,null,"<p style=""font-size: 60px; font-family: BACS"">bvuZcrdY</p>",,,,,,,,,,
html-keyboard-response,40,367320,0.0-8.0-0.32,615b1ab789b14c9996251fb4,650c16f0f2faf8d7a0d14c09,651c1bda5fc6eee35b061f03,null,null,"<p style=""font-size: 60px; font-family: BACS"">vuJZuGUa</p>",,,,,,,,,,
html-keyboard-response,41,368340,0.0-8.0-0.33,615b1ab789b14c9996251fb4,650c16f0f2faf8d7a0d14c09,651c1bda5fc6eee35b061f03,null,null,"<p style=""font-size: 60px; font-family: BACS"">TEBKTmc</p>",,,,,,,,,,
html-keyboard-response,42,369354,0.0-8.0-0.34,615b1ab789b14c9996251fb4,650c16f0f2faf8d7a0d14c09,651c1bda5fc6eee35b061f03,null,null,"<p style=""font-size: 60px; font-family: BACS"">hbkdPMYm</p>",,,,,,,,,,
html-keyboard-response,43,370370,0.0-8.0-0.35,615b1ab789b14c9996251fb4,650c16f0f2faf8d7a0d14c09,651c1bda5fc6eee35b061f03,null,null,"<p style=""font-size: 60px; font-family: BACS"">OZkbOcZJ</p>",,,,,,,,,,
html-keyboard-response,44,371389,0.0-8.0-0.36,615b1ab789b14c9996251fb4,650c16f0f2faf8d7a0d14c09,651c1bda5fc6eee35b061f03,null,null,"<p style=""font-size: 60px; font-family: BACS"">NaAQdGUa</p>",,,,,,,,,,
html-keyboard-response,45,372403,0.0-8.0-0.37,615b1ab789b14c9996251fb4,650c16f0f2faf8d7a0d14c09,651c1bda5fc6eee35b061f03,null,null,"<p style=""font-size: 60px; font-family: BACS"">UdYUQOcZJ</p>",,,,,,,,,,
html-keyboard-response,46,373422,0.0-8.0-0.38,615b1ab789b14c9996251fb4,650c16f0f2faf8d7a0d14c09,651c1bda5fc6eee35b061f03,null,null,"<p style=""font-size: 60px; font-family: BACS"">JNkacrdY</p>",,,,,,,,,,
html-keyboard-response,47,374437,0.0-8.0-0.39,615b1ab789b14c9996251fb4,650c16f0f2faf8d7a0d14c09,651c1bda5fc6eee35b061f03,null,null,"<p style=""font-size: 60px; font-family: BACS"">GumLlOcZJ</p>",,,,,,,,,,
html-keyboard-response,48,375454,0.0-8.0-0.40,615b1ab789b14c9996251fb4,650c16f0f2faf8d7a0d14c09,651c1bda5fc6eee35b061f03,null,null,"<p style=""font-size: 60px; font-family: BACS"">UdYUQGUa</p>",,,,,,,,,,
html-keyboard-response,49,376471,0.0-8.0-0.41,615b1ab789b14c9996251fb4,650c16f0f2faf8d7a0d14c09,651c1bda5fc6eee35b061f03,null,null,"<p style=""font-size: 60px; font-family: BACS"">TCbDCbTE</p>",,,,,,,,,,
html-keyboard-response,50,377498,0.0-8.0-0.42,615b1ab789b14c9996251fb4,650c16f0f2faf8d7a0d14c09,651c1bda5fc6eee35b061f03,null,null,"<p style=""font-size: 60px; font-family: BACS"">ZYcQUOcZJ</p>",,,,,,,,,,
html-keyboard-response,51,378507,0.0-8.0-0.43,615b1ab789b14c9996251fb4,650c16f0f2faf8d7a0d14c09,651c1bda5fc6eee35b061f03,null,null,"<p style=""font-size: 60px; font-family: BACS"">RdPtDTmc</p>",,,,,,,,,,
html-keyboard-response,52,379521,0.0-8.0-0.44,615b1ab789b14c9996251fb4,650c16f0f2faf8d7a0d14c09,651c1bda5fc6eee35b061f03,null,null,"<p style=""font-size: 60px; font-family: BACS"">bvuZJQA</p>",,,,,,,,,,
html-keyboard-response,53,380538,0.0-8.0-0.45,615b1ab789b14c9996251fb4,650c16f0f2faf8d7a0d14c09,651c1bda5fc6eee35b061f03,null,null,"<p style=""font-size: 60px; font-family: BACS"">kMbTRTmc</p>",,,,,,,,,,
html-keyboard-response,54,381556,0.0-8.0-0.46,615b1ab789b14c9996251fb4,650c16f0f2faf8d7a0d14c09,651c1bda5fc6eee35b061f03,null,null,"<p style=""font-size: 60px; font-family: BACS"">TEBKbTE</p>",,,,,,,,,,
html-keyboard-response,55,382569,0.0-8.0-0.47,615b1ab789b14c9996251fb4,650c16f0f2faf8d7a0d14c09,651c1bda5fc6eee35b061f03,null,null,"<p style=""font-size: 60px; font-family: BACS"">GumLlcrdY</p>",,,,,,,,,,
html-keyboard-response,56,383589,0.0-8.0-0.48,615b1ab789b14c9996251fb4,650c16f0f2faf8d7a0d14c09,651c1bda5fc6eee35b061f03,null,null,"<p style=""font-size: 60px; font-family: BACS"">McMDEPBT</p>",,,,,,,,,,
html-keyboard-response,57,384602,0.0-8.0-0.49,615b1ab789b14c9996251fb4,650c16f0f2faf8d7a0d14c09,651c1bda5fc6eee35b061f03,null,null,"<p style=""font-size: 60px; font-family: BACS"">NaAQdJQA</p>",,,,,,,,,,
html-keyboard-response,58,385616,0.0-8.0-0.50,615b1ab789b14c9996251fb4,650c16f0f2faf8d7a0d14c09,651c1bda5fc6eee35b061f03,null,null,"<p style=""font-size: 60px; font-family: BACS"">DlDdEPBT</p>",,,,,,,,,,
html-keyboard-response,59,386635,0.0-8.0-0.51,615b1ab789b14c9996251fb4,650c16f0f2faf8d7a0d14c09,651c1bda5fc6eee35b061f03,null,null,"<p style=""font-size: 60px; font-family: BACS"">chEDOPMYm</p>",,,,,,,,,,
html-keyboard-response,60,387640,0.0-8.0-0.52,615b1ab789b14c9996251fb4,650c16f0f2faf8d7a0d14c09,651c1bda5fc6eee35b061f03,null,null,"<p style=""font-size: 60px; font-family: BACS"">kcOYEPBT</p>",,,,,,,,,,
html-keyboard-response,61,388652,0.0-8.0-0.53,615b1ab789b14c9996251fb4,650c16f0f2faf8d7a0d14c09,651c1bda5fc6eee35b061f03,null,null,"<p style=""font-size: 60px; font-family: BACS"">TEBKPMYm</p>",,,,,,,,,,
html-keyboard-response,62,389671,0.0-8.0-0.54,615b1ab789b14c9996251fb4,650c16f0f2faf8d7a0d14c09,651c1bda5fc6eee35b061f03,null,null,"<p style=""font-size: 60px; font-family: BACS"">vuJZuOcZJ</p>",,,,,,,,,,
html-keyboard-response,63,390686,0.0-8.0-0.55,615b1ab789b14c9996251fb4,650c16f0f2faf8d7a0d14c09,651c1bda5fc6eee35b061f03,null,null,"<p style=""font-size: 60px; font-family: BACS"">kcOYMAB</p>",,,,,,,,,,
html-keyboard-response,64,391703,0.0-8.0-0.56,615b1ab789b14c9996251fb4,650c16f0f2faf8d7a0d14c09,651c1bda5fc6eee35b061f03,null,null,"<p style=""font-size: 60px; font-family: BACS"">bvuZYLU</p>",,,,,,,,,,
html-keyboard-response,65,392729,0.0-8.0-0.57,615b1ab789b14c9996251fb4,650c16f0f2faf8d7a0d14c09,651c1bda5fc6eee35b061f03,null,null,"<p style=""font-size: 60px; font-family: BACS"">JNkaGUa</p>",,,,,,,,,,
html-keyboard-response,66,393747,0.0-8.0-0.58,615b1ab789b14c9996251fb4,650c16f0f2faf8d7a0d14c09,651c1bda5fc6eee35b061f03,null,null,"<p style=""font-size: 60px; font-family: BACS"">kcOYPMYm</p>",,,,,,,,,,
html-keyboard-response,67,394759,0.0-8.0-0.59,615b1ab789b14c9996251fb4,650c16f0f2faf8d7a0d14c09,651c1bda5fc6eee35b061f03,null,null,"<p style=""font-size: 60px; font-family: BACS"">McMDMAB</p>",,,,,,,,,,
html-keyboard-response,68,395767,0.0-8.0-0.60,615b1ab789b14c9996251fb4,650c16f0f2faf8d7a0d14c09,651c1bda5fc6eee35b061f03,null,null,"<p style=""font-size: 60px; font-family: BACS"">TCbDCTmc</p>",,,,,,,,,,
html-keyboard-response,69,396774,0.0-8.0-0.61,615b1ab789b14c9996251fb4,650c16f0f2faf8d7a0d14c09,651c1bda5fc6eee35b061f03,null,null,"<p style=""font-size: 60px; font-family: BACS"">hbkdMAB</p>",,,,,,,,,,
html-keyboard-response,70,397789,0.0-8.0-0.62,615b1ab789b14c9996251fb4,650c16f0f2faf8d7a0d14c09,651c1bda5fc6eee35b061f03,null,null,"<p style=""font-size: 60px; font-family: BACS"">chEDObTE</p>",,,,,,,,,,
html-keyboard-response,71,398806,0.0-8.0-0.63,615b1ab789b14c9996251fb4,650c16f0f2faf8d7a0d14c09,651c1bda5fc6eee35b061f03,null,null,"<p style=""font-size: 60px; font-family: BACS"">TCbDCEPBT</p>",,,,,,,,,,
html-keyboard-response,72,399814,0.0-8.0-0.64,615b1ab789b14c9996251fb4,650c16f0f2faf8d7a0d14c09,651c1bda5fc6eee35b061f03,null,null,"<p style=""font-size: 60px; font-family: BACS"">vuJZucrdY</p>",,,,,,,,,,
html-keyboard-response,73,400823,0.0-8.0-0.65,615b1ab789b14c9996251fb4,650c16f0f2faf8d7a0d14c09,651c1bda5fc6eee35b061f03,null,null,"<p style=""font-size: 60px; font-family: BACS"">AlTdMAB</p>",,,,,,,,,,
html-keyboard-response,74,401838,0.0-8.0-0.66,615b1ab789b14c9996251fb4,650c16f0f2faf8d7a0d14c09,651c1bda5fc6eee35b061f03,null,null,"<p style=""font-size: 60px; font-family: BACS"">ZYcQUGUa</p>",,,,,,,,,,
html-keyboard-response,75,402841,0.0-8.0-0.67,615b1ab789b14c9996251fb4,650c16f0f2faf8d7a0d14c09,651c1bda5fc6eee35b061f03,null,null,"<p style=""font-size: 60px; font-family: BACS"">OZkbJQA</p>",,,,,,,,,,
html-keyboard-response,76,403853,0.0-8.0-0.68,615b1ab789b14c9996251fb4,650c16f0f2faf8d7a0d14c09,651c1bda5fc6eee35b061f03,null,null,"<p style=""font-size: 60px; font-family: BACS"">JNkaOcZJ</p>",,,,,,,,,,
html-keyboard-response,77,404857,0.0-8.0-0.69,615b1ab789b14c9996251fb4,650c16f0f2faf8d7a0d14c09,651c1bda5fc6eee35b061f03,null,null,"<p style=""font-size: 60px; font-family: BACS"">kZUbcrdY</p>",,,,,,,,,,
html-keyboard-response,78,405861,0.0-8.0-0.70,615b1ab789b14c9996251fb4,650c16f0f2faf8d7a0d14c09,651c1bda5fc6eee35b061f03,null,null,"<p style=""font-size: 60px; font-family: BACS"">chEDOEPBT</p>",,,,,,,,,,
html-keyboard-response,79,406873,0.0-8.0-0.71,615b1ab789b14c9996251fb4,650c16f0f2faf8d7a0d14c09,651c1bda5fc6eee35b061f03,null,null,"<p style=""font-size: 60px; font-family: BACS"">TCbDCMAB</p>",,,,,,,,,,
html-keyboard-response,80,407885,0.0-8.0-0.72,615b1ab789b14c9996251fb4,650c16f0f2faf8d7a0d14c09,651c1bda5fc6eee35b061f03,null,null,"<p style=""font-size: 60px; font-family: BACS"">kcOYTmc</p>",,,,,,,,,,
html-keyboard-response,81,408890,0.0-8.0-0.73,615b1ab789b14c9996251fb4,650c16f0f2faf8d7a0d14c09,651c1bda5fc6eee35b061f03,null,null,"<p style=""font-size: 60px; font-family: BACS"">McMDPMYm</p>",,,,,,,,,,
html-keyboard-response,82,409905,0.0-8.0-0.74,615b1ab789b14c9996251fb4,650c16f0f2faf8d7a0d14c09,651c1bda5fc6eee35b061f03,null,null,"<p style=""font-size: 60px; font-family: BACS"">vuJZuJQA</p>",,,,,,,,,,
html-keyboard-response,83,410921,0.0-8.0-0.75,615b1ab789b14c9996251fb4,650c16f0f2faf8d7a0d14c09,651c1bda5fc6eee35b061f03,null,null,"<p style=""font-size: 60px; font-family: BACS"">NaAQdYLU</p>",,,,,,,,,,
html-keyboard-response,84,411928,0.0-8.0-0.76,615b1ab789b14c9996251fb4,650c16f0f2faf8d7a0d14c09,651c1bda5fc6eee35b061f03,null,null,"<p style=""font-size: 60px; font-family: BACS"">GJZmGUa</p>",,,,,,,,,,
html-keyboard-response,85,412938,0.0-8.0-0.77,615b1ab789b14c9996251fb4,650c16f0f2faf8d7a0d14c09,651c1bda5fc6eee35b061f03,null,null,"<p style=""font-size: 60px; font-family: BACS"">McMDbTE</p>",,,,,,,,,,
html-keyboard-response,86,413970,0.0-8.0-0.78,615b1ab789b14c9996251fb4,650c16f0f2faf8d7a0d14c09,651c1bda5fc6eee35b061f03,null,null,"<p style=""font-size: 60px; font-family: BACS"">JNkaJQA</p>",,,,,,,,,,
html-keyboard-response,87,414984,0.0-8.0-0.79,615b1ab789b14c9996251fb4,650c16f0f2faf8d7a0d14c09,651c1bda5fc6eee35b061f03,null,null,"<p style=""font-size: 60px; font-family: BACS"">RdPtDbTE</p>",,,,,,,,,,
html-keyboard-response,88,434581,0.0-9.0,615b1ab789b14c9996251fb4,650c16f0f2faf8d7a0d14c09,651c1bda5fc6eee35b061f03,19596, ,"<p>Great, you've seen the first block of words. You may now take a short break.</p>
      <p>Press the spacebar when you're ready to continue.</p>",,,,,,,,,,
html-keyboard-response,89,435591,0.0-10.0-0.0,615b1ab789b14c9996251fb4,650c16f0f2faf8d7a0d14c09,651c1bda5fc6eee35b061f03,null,null,"<p style=""font-size: 60px; font-family: BACS"">kcOYMAB</p>",,,,,,,,,,
html-keyboard-response,90,436595,0.0-10.0-0.1,615b1ab789b14c9996251fb4,650c16f0f2faf8d7a0d14c09,651c1bda5fc6eee35b061f03,null,null,"<p style=""font-size: 60px; font-family: BACS"">hbkdPMYm</p>",,,,,,,,,,
html-keyboard-response,91,437614,0.0-10.0-0.2,615b1ab789b14c9996251fb4,650c16f0f2faf8d7a0d14c09,651c1bda5fc6eee35b061f03,null,null,"<p style=""font-size: 60px; font-family: BACS"">JNkaGUa</p>",,,,,,,,,,
html-keyboard-response,92,438623,0.0-10.0-0.3,615b1ab789b14c9996251fb4,650c16f0f2faf8d7a0d14c09,651c1bda5fc6eee35b061f03,null,null,"<p style=""font-size: 60px; font-family: BACS"">TEBKTmc</p>",,,,,,,,,,
html-keyboard-response,93,439639,0.0-10.0-0.4,615b1ab789b14c9996251fb4,650c16f0f2faf8d7a0d14c09,651c1bda5fc6eee35b061f03,null,null,"<p style=""font-size: 60px; font-family: BACS"">bvuZYLU</p>",,,,,,,,,,
html-keyboard-response,94,440654,0.0-10.0-0.5,615b1ab789b14c9996251fb4,650c16f0f2faf8d7a0d14c09,651c1bda5fc6eee35b061f03,null,null,"<p style=""font-size: 60px; font-family: BACS"">GumLlJQA</p>",,,,,,,,,,
html-keyboard-response,95,441671,0.0-10.0-0.6,615b1ab789b14c9996251fb4,650c16f0f2faf8d7a0d14c09,651c1bda5fc6eee35b061f03,null,null,"<p style=""font-size: 60px; font-family: BACS"">TCbDCEPBT</p>",,,,,,,,,,
html-keyboard-response,96,442688,0.0-10.0-0.7,615b1ab789b14c9996251fb4,650c16f0f2faf8d7a0d14c09,651c1bda5fc6eee35b061f03,null,null,"<p style=""font-size: 60px; font-family: BACS"">vuJZuGUa</p>",,,,,,,,,,
html-keyboard-response,97,443705,0.0-10.0-0.8,615b1ab789b14c9996251fb4,650c16f0f2faf8d7a0d14c09,651c1bda5fc6eee35b061f03,null,null,"<p style=""font-size: 60px; font-family: BACS"">McMDPMYm</p>",,,,,,,,,,
html-keyboard-response,98,444722,0.0-10.0-0.9,615b1ab789b14c9996251fb4,650c16f0f2faf8d7a0d14c09,651c1bda5fc6eee35b061f03,null,null,"<p style=""font-size: 60px; font-family: BACS"">bvuZJQA</p>",,,,,,,,,,
html-keyboard-response,99,445739,0.0-10.0-0.10,615b1ab789b14c9996251fb4,650c16f0f2faf8d7a0d14c09,651c1bda5fc6eee35b061f03,null,null,"<p style=""font-size: 60px; font-family: BACS"">OZkbOcZJ</p>",,,,,,,,,,
html-keyboard-response,100,446754,0.0-10.0-0.11,615b1ab789b14c9996251fb4,650c16f0f2faf8d7a0d14c09,651c1bda5fc6eee35b061f03,null,null,"<p style=""font-size: 60px; font-family: BACS"">kMbTRbTE</p>",,,,,,,,,,
html-keyboard-response,101,447762,0.0-10.0-0.12,615b1ab789b14c9996251fb4,650c16f0f2faf8d7a0d14c09,651c1bda5fc6eee35b061f03,null,null,"<p style=""font-size: 60px; font-family: BACS"">RdPtDTmc</p>",,,,,,,,,,
html-keyboard-response,102,448772,0.0-10.0-0.13,615b1ab789b14c9996251fb4,650c16f0f2faf8d7a0d14c09,651c1bda5fc6eee35b061f03,null,null,"<p style=""font-size: 60px; font-family: BACS"">hbkdEPBT</p>",,,,,,,,,,
html-keyboard-response,103,449788,0.0-10.0-0.14,615b1ab789b14c9996251fb4,650c16f0f2faf8d7a0d14c09,651c1bda5fc6eee35b061f03,null,null,"<p style=""font-size: 60px; font-family: BACS"">bvuZcrdY</p>",,,,,,,,,,
html-keyboard-response,104,450803,0.0-10.0-0.15,615b1ab789b14c9996251fb4,650c16f0f2faf8d7a0d14c09,651c1bda5fc6eee35b061f03,null,null,"<p style=""font-size: 60px; font-family: BACS"">kMbTRTmc</p>",,,,,,,,,,
html-keyboard-response,105,451818,0.0-10.0-0.16,615b1ab789b14c9996251fb4,650c16f0f2faf8d7a0d14c09,651c1bda5fc6eee35b061f03,null,null,"<p style=""font-size: 60px; font-family: BACS"">GJZmcrdY</p>",,,,,,,,,,
html-keyboard-response,106,452822,0.0-10.0-0.17,615b1ab789b14c9996251fb4,650c16f0f2faf8d7a0d14c09,651c1bda5fc6eee35b061f03,null,null,"<p style=""font-size: 60px; font-family: BACS"">DlDdbTE</p>",,,,,,,,,,
html-keyboard-response,107,453838,0.0-10.0-0.18,615b1ab789b14c9996251fb4,650c16f0f2faf8d7a0d14c09,651c1bda5fc6eee35b061f03,null,null,"<p style=""font-size: 60px; font-family: BACS"">chEDOTmc</p>",,,,,,,,,,
html-keyboard-response,108,454852,0.0-10.0-0.19,615b1ab789b14c9996251fb4,650c16f0f2faf8d7a0d14c09,651c1bda5fc6eee35b061f03,null,null,"<p style=""font-size: 60px; font-family: BACS"">UdYUQGUa</p>",,,,,,,,,,
html-keyboard-response,109,455863,0.0-10.0-0.20,615b1ab789b14c9996251fb4,650c16f0f2faf8d7a0d14c09,651c1bda5fc6eee35b061f03,null,null,"<p style=""font-size: 60px; font-family: BACS"">bvuZOcZJ</p>",,,,,,,,,,
html-keyboard-response,110,456869,0.0-10.0-0.21,615b1ab789b14c9996251fb4,650c16f0f2faf8d7a0d14c09,651c1bda5fc6eee35b061f03,null,null,"<p style=""font-size: 60px; font-family: BACS"">AlTdMAB</p>",,,,,,,,,,
html-keyboard-response,111,457888,0.0-10.0-0.22,615b1ab789b14c9996251fb4,650c16f0f2faf8d7a0d14c09,651c1bda5fc6eee35b061f03,null,null,"<p style=""font-size: 60px; font-family: BACS"">OZkbYLU</p>",,,,,,,,,,
html-keyboard-response,112,458909,0.0-10.0-0.23,615b1ab789b14c9996251fb4,650c16f0f2faf8d7a0d14c09,651c1bda5fc6eee35b061f03,null,null,"<p style=""font-size: 60px; font-family: BACS"">chEDOEPBT</p>",,,,,,,,,,
html-keyboard-response,113,459921,0.0-10.0-0.24,615b1ab789b14c9996251fb4,650c16f0f2faf8d7a0d14c09,651c1bda5fc6eee35b061f03,null,null,"<p style=""font-size: 60px; font-family: BACS"">JNkaOcZJ</p>",,,,,,,,,,
html-keyboard-response,114,460935,0.0-10.0-0.25,615b1ab789b14c9996251fb4,650c16f0f2faf8d7a0d14c09,651c1bda5fc6eee35b061f03,null,null,"<p style=""font-size: 60px; font-family: BACS"">hbkdTmc</p>",,,,,,,,,,
html-keyboard-response,115,461938,0.0-10.0-0.26,615b1ab789b14c9996251fb4,650c16f0f2faf8d7a0d14c09,651c1bda5fc6eee35b061f03,null,null,"<p style=""font-size: 60px; font-family: BACS"">GumLlcrdY</p>",,,,,,,,,,
html-keyboard-response,116,462952,0.0-10.0-0.27,615b1ab789b14c9996251fb4,650c16f0f2faf8d7a0d14c09,651c1bda5fc6eee35b061f03,null,null,"<p style=""font-size: 60px; font-family: BACS"">GJZmOcZJ</p>",,,,,,,,,,
html-keyboard-response,117,463971,0.0-10.0-0.28,615b1ab789b14c9996251fb4,650c16f0f2faf8d7a0d14c09,651c1bda5fc6eee35b061f03,null,null,"<p style=""font-size: 60px; font-family: BACS"">RdPtDPMYm</p>",,,,,,,,,,
html-keyboard-response,118,464987,0.0-10.0-0.29,615b1ab789b14c9996251fb4,650c16f0f2faf8d7a0d14c09,651c1bda5fc6eee35b061f03,null,null,"<p style=""font-size: 60px; font-family: BACS"">AlTdbTE</p>",,,,,,,,,,
html-keyboard-response,119,466002,0.0-10.0-0.30,615b1ab789b14c9996251fb4,650c16f0f2faf8d7a0d14c09,651c1bda5fc6eee35b061f03,null,null,"<p style=""font-size: 60px; font-family: BACS"">OZkbGUa</p>",,,,,,,,,,
html-keyboard-response,120,467020,0.0-10.0-0.31,615b1ab789b14c9996251fb4,650c16f0f2faf8d7a0d14c09,651c1bda5fc6eee35b061f03,null,null,"<p style=""font-size: 60px; font-family: BACS"">TCbDCMAB</p>",,,,,,,,,,
html-keyboard-response,121,468036,0.0-10.0-0.32,615b1ab789b14c9996251fb4,650c16f0f2faf8d7a0d14c09,651c1bda5fc6eee35b061f03,null,null,"<p style=""font-size: 60px; font-family: BACS"">GumLlYLU</p>",,,,,,,,,,
html-keyboard-response,122,469038,0.0-10.0-0.33,615b1ab789b14c9996251fb4,650c16f0f2faf8d7a0d14c09,651c1bda5fc6eee35b061f03,null,null,"<p style=""font-size: 60px; font-family: BACS"">vuJZucrdY</p>",,,,,,,,,,
html-keyboard-response,123,470052,0.0-10.0-0.34,615b1ab789b14c9996251fb4,650c16f0f2faf8d7a0d14c09,651c1bda5fc6eee35b061f03,null,null,"<p style=""font-size: 60px; font-family: BACS"">TEBKPMYm</p>",,,,,,,,,,
html-keyboard-response,124,471070,0.0-10.0-0.35,615b1ab789b14c9996251fb4,650c16f0f2faf8d7a0d14c09,651c1bda5fc6eee35b061f03,null,null,"<p style=""font-size: 60px; font-family: BACS"">DlDdEPBT</p>",,,,,,,,,,
html-keyboard-response,125,472088,0.0-10.0-0.36,615b1ab789b14c9996251fb4,650c16f0f2faf8d7a0d14c09,651c1bda5fc6eee35b061f03,null,null,"<p style=""font-size: 60px; font-family: BACS"">kMbTRMAB</p>",,,,,,,,,,
html-keyboard-response,126,473103,0.0-10.0-0.37,615b1ab789b14c9996251fb4,650c16f0f2faf8d7a0d14c09,651c1bda5fc6eee35b061f03,null,null,"<p style=""font-size: 60px; font-family: BACS"">vuJZuJQA</p>",,,,,,,,,,
html-keyboard-response,127,474128,0.0-10.0-0.38,615b1ab789b14c9996251fb4,650c16f0f2faf8d7a0d14c09,651c1bda5fc6eee35b061f03,null,null,"<p style=""font-size: 60px; font-family: BACS"">GJZmYLU</p>",,,,,,,,,,
html-keyboard-response,128,475138,0.0-10.0-0.39,615b1ab789b14c9996251fb4,650c16f0f2faf8d7a0d14c09,651c1bda5fc6eee35b061f03,null,null,"<p style=""font-size: 60px; font-family: BACS"">JNkaJQA</p>",,,,,,,,,,
html-keyboard-response,129,476143,0.0-10.0-0.40,615b1ab789b14c9996251fb4,650c16f0f2faf8d7a0d14c09,651c1bda5fc6eee35b061f03,null,null,"<p style=""font-size: 60px; font-family: BACS"">McMDbTE</p>",,,,,,,,,,
html-keyboard-response,130,477154,0.0-10.0-0.41,615b1ab789b14c9996251fb4,650c16f0f2faf8d7a0d14c09,651c1bda5fc6eee35b061f03,null,null,"<p style=""font-size: 60px; font-family: BACS"">kZUbGUa</p>",,,,,,,,,,
html-keyboard-response,131,478169,0.0-10.0-0.42,615b1ab789b14c9996251fb4,650c16f0f2faf8d7a0d14c09,651c1bda5fc6eee35b061f03,null,null,"<p style=""font-size: 60px; font-family: BACS"">McMDMAB</p>",,,,,,,,,,
html-keyboard-response,132,479185,0.0-10.0-0.43,615b1ab789b14c9996251fb4,650c16f0f2faf8d7a0d14c09,651c1bda5fc6eee35b061f03,null,null,"<p style=""font-size: 60px; font-family: BACS"">NaAQdcrdY</p>",,,,,,,,,,
html-keyboard-response,133,480206,0.0-10.0-0.44,615b1ab789b14c9996251fb4,650c16f0f2faf8d7a0d14c09,651c1bda5fc6eee35b061f03,null,null,"<p style=""font-size: 60px; font-family: BACS"">hbkdMAB</p>",,,,,,,,,,
html-keyboard-response,134,481219,0.0-10.0-0.45,615b1ab789b14c9996251fb4,650c16f0f2faf8d7a0d14c09,651c1bda5fc6eee35b061f03,null,null,"<p style=""font-size: 60px; font-family: BACS"">TEBKbTE</p>",,,,,,,,,,
html-keyboard-response,135,482235,0.0-10.0-0.46,615b1ab789b14c9996251fb4,650c16f0f2faf8d7a0d14c09,651c1bda5fc6eee35b061f03,null,null,"<p style=""font-size: 60px; font-family: BACS"">UdYUQOcZJ</p>",,,,,,,,,,
html-keyboard-response,136,483255,0.0-10.0-0.47,615b1ab789b14c9996251fb4,650c16f0f2faf8d7a0d14c09,651c1bda5fc6eee35b061f03,null,null,"<p style=""font-size: 60px; font-family: BACS"">DlDdTmc</p>",,,,,,,,,,
html-keyboard-response,137,484269,0.0-10.0-0.48,615b1ab789b14c9996251fb4,650c16f0f2faf8d7a0d14c09,651c1bda5fc6eee35b061f03,null,null,"<p style=""font-size: 60px; font-family: BACS"">GumLlOcZJ</p>",,,,,,,,,,
html-keyboard-response,138,485284,0.0-10.0-0.49,615b1ab789b14c9996251fb4,650c16f0f2faf8d7a0d14c09,651c1bda5fc6eee35b061f03,null,null,"<p style=""font-size: 60px; font-family: BACS"">TEBKEPBT</p>",,,,,,,,,,
html-keyboard-response,139,486299,0.0-10.0-0.50,615b1ab789b14c9996251fb4,650c16f0f2faf8d7a0d14c09,651c1bda5fc6eee35b061f03,null,null,"<p style=""font-size: 60px; font-family: BACS"">kZUbJQA</p>",,,,,,,,,,
html-keyboard-response,140,487303,0.0-10.0-0.51,615b1ab789b14c9996251fb4,650c16f0f2faf8d7a0d14c09,651c1bda5fc6eee35b061f03,null,null,"<p style=""font-size: 60px; font-family: BACS"">RdPtDbTE</p>",,,,,,,,,,
html-keyboard-response,141,488320,0.0-10.0-0.52,615b1ab789b14c9996251fb4,650c16f0f2faf8d7a0d14c09,651c1bda5fc6eee35b061f03,null,null,"<p style=""font-size: 60px; font-family: BACS"">DlDdMAB</p>",,,,,,,,,,
html-keyboard-response,142,489335,0.0-10.0-0.53,615b1ab789b14c9996251fb4,650c16f0f2faf8d7a0d14c09,651c1bda5fc6eee35b061f03,null,null,"<p style=""font-size: 60px; font-family: BACS"">GJZmGUa</p>",,,,,,,,,,
html-keyboard-response,143,490353,0.0-10.0-0.54,615b1ab789b14c9996251fb4,650c16f0f2faf8d7a0d14c09,651c1bda5fc6eee35b061f03,null,null,"<p style=""font-size: 60px; font-family: BACS"">TCbDCbTE</p>",,,,,,,,,,
html-keyboard-response,144,491368,0.0-10.0-0.55,615b1ab789b14c9996251fb4,650c16f0f2faf8d7a0d14c09,651c1bda5fc6eee35b061f03,null,null,"<p style=""font-size: 60px; font-family: BACS"">ZYcQUOcZJ</p>",,,,,,,,,,
html-keyboard-response,145,492384,0.0-10.0-0.56,615b1ab789b14c9996251fb4,650c16f0f2faf8d7a0d14c09,651c1bda5fc6eee35b061f03,null,null,"<p style=""font-size: 60px; font-family: BACS"">JNkacrdY</p>",,,,,,,,,,
html-keyboard-response,146,493402,0.0-10.0-0.57,615b1ab789b14c9996251fb4,650c16f0f2faf8d7a0d14c09,651c1bda5fc6eee35b061f03,null,null,"<p style=""font-size: 60px; font-family: BACS"">ZYcQUGUa</p>",,,,,,,,,,
html-keyboard-response,147,494428,0.0-10.0-0.58,615b1ab789b14c9996251fb4,650c16f0f2faf8d7a0d14c09,651c1bda5fc6eee35b061f03,null,null,"<p style=""font-size: 60px; font-family: BACS"">kcOYEPBT</p>",,,,,,,,,,
html-keyboard-response,148,495435,0.0-10.0-0.59,615b1ab789b14c9996251fb4,650c16f0f2faf8d7a0d14c09,651c1bda5fc6eee35b061f03,null,null,"<p style=""font-size: 60px; font-family: BACS"">NaAQdGUa</p>",,,,,,,,,,
html-keyboard-response,149,496445,0.0-10.0-0.60,615b1ab789b14c9996251fb4,650c16f0f2faf8d7a0d14c09,651c1bda5fc6eee35b061f03,null,null,"<p style=""font-size: 60px; font-family: BACS"">RdPtDMAB</p>",,,,,,,,,,
html-keyboard-response,150,497452,0.0-10.0-0.61,615b1ab789b14c9996251fb4,650c16f0f2faf8d7a0d14c09,651c1bda5fc6eee35b061f03,null,null,"<p style=""font-size: 60px; font-family: BACS"">TCbDCTmc</p>",,,,,,,,,,
html-keyboard-response,151,498469,0.0-10.0-0.62,615b1ab789b14c9996251fb4,650c16f0f2faf8d7a0d14c09,651c1bda5fc6eee35b061f03,null,null,"<p style=""font-size: 60px; font-family: BACS"">OZkbJQA</p>",,,,,,,,,,
html-keyboard-response,152,499485,0.0-10.0-0.63,615b1ab789b14c9996251fb4,650c16f0f2faf8d7a0d14c09,651c1bda5fc6eee35b061f03,null,null,"<p style=""font-size: 60px; font-family: BACS"">chEDOPMYm</p>",,,,,,,,,,
html-keyboard-response,153,500500,0.0-10.0-0.64,615b1ab789b14c9996251fb4,650c16f0f2faf8d7a0d14c09,651c1bda5fc6eee35b061f03,null,null,"<p style=""font-size: 60px; font-family: BACS"">kZUbYLU</p>",,,,,,,,,,
html-keyboard-response,154,501519,0.0-10.0-0.65,615b1ab789b14c9996251fb4,650c16f0f2faf8d7a0d14c09,651c1bda5fc6eee35b061f03,null,null,"<p style=""font-size: 60px; font-family: BACS"">kcOYTmc</p>",,,,,,,,,,
html-keyboard-response,155,502534,0.0-10.0-0.66,615b1ab789b14c9996251fb4,650c16f0f2faf8d7a0d14c09,651c1bda5fc6eee35b061f03,null,null,"<p style=""font-size: 60px; font-family: BACS"">ZYcQUYLU</p>",,,,,,,,,,
html-keyboard-response,156,503553,0.0-10.0-0.67,615b1ab789b14c9996251fb4,650c16f0f2faf8d7a0d14c09,651c1bda5fc6eee35b061f03,null,null,"<p style=""font-size: 60px; font-family: BACS"">vuJZuOcZJ</p>",,,,,,,,,,
html-keyboard-response,157,504567,0.0-10.0-0.68,615b1ab789b14c9996251fb4,650c16f0f2faf8d7a0d14c09,651c1bda5fc6eee35b061f03,null,null,"<p style=""font-size: 60px; font-family: BACS"">AlTdPMYm</p>",,,,,,,,,,
html-keyboard-response,158,505594,0.0-10.0-0.69,615b1ab789b14c9996251fb4,650c16f0f2faf8d7a0d14c09,651c1bda5fc6eee35b061f03,null,null,"<p style=""font-size: 60px; font-family: BACS"">UdYUQYLU</p>",,,,,,,,,,
html-keyboard-response,159,506602,0.0-10.0-0.70,615b1ab789b14c9996251fb4,650c16f0f2faf8d7a0d14c09,651c1bda5fc6eee35b061f03,null,null,"<p style=""font-size: 60px; font-family: BACS"">AlTdEPBT</p>",,,,,,,,,,
html-keyboard-response,160,507619,0.0-10.0-0.71,615b1ab789b14c9996251fb4,650c16f0f2faf8d7a0d14c09,651c1bda5fc6eee35b061f03,null,null,"<p style=""font-size: 60px; font-family: BACS"">NaAQdYLU</p>",,,,,,,,,,
html-keyboard-response,161,508635,0.0-10.0-0.72,615b1ab789b14c9996251fb4,650c16f0f2faf8d7a0d14c09,651c1bda5fc6eee35b061f03,null,null,"<p style=""font-size: 60px; font-family: BACS"">chEDObTE</p>",,,,,,,,,,
html-keyboard-response,162,509652,0.0-10.0-0.73,615b1ab789b14c9996251fb4,650c16f0f2faf8d7a0d14c09,651c1bda5fc6eee35b061f03,null,null,"<p style=""font-size: 60px; font-family: BACS"">kMbTRPMYm</p>",,,,,,,,,,
html-keyboard-response,163,510668,0.0-10.0-0.74,615b1ab789b14c9996251fb4,650c16f0f2faf8d7a0d14c09,651c1bda5fc6eee35b061f03,null,null,"<p style=""font-size: 60px; font-family: BACS"">NaAQdJQA</p>",,,,,,,,,,
html-keyboard-response,164,511686,0.0-10.0-0.75,615b1ab789b14c9996251fb4,650c16f0f2faf8d7a0d14c09,651c1bda5fc6eee35b061f03,null,null,"<p style=""font-size: 60px; font-family: BACS"">kcOYPMYm</p>",,,,,,,,,,
html-keyboard-response,165,512702,0.0-10.0-0.76,615b1ab789b14c9996251fb4,650c16f0f2faf8d7a0d14c09,651c1bda5fc6eee35b061f03,null,null,"<p style=""font-size: 60px; font-family: BACS"">ZYcQUJQA</p>",,,,,,,,,,
html-keyboard-response,166,513718,0.0-10.0-0.77,615b1ab789b14c9996251fb4,650c16f0f2faf8d7a0d14c09,651c1bda5fc6eee35b061f03,null,null,"<p style=""font-size: 60px; font-family: BACS"">UdYUQcrdY</p>",,,,,,,,,,
html-keyboard-response,167,514733,0.0-10.0-0.78,615b1ab789b14c9996251fb4,650c16f0f2faf8d7a0d14c09,651c1bda5fc6eee35b061f03,null,null,"<p style=""font-size: 60px; font-family: BACS"">McMDEPBT</p>",,,,,,,,,,
html-keyboard-response,168,515763,0.0-10.0-0.79,615b1ab789b14c9996251fb4,650c16f0f2faf8d7a0d14c09,651c1bda5fc6eee35b061f03,null,null,"<p style=""font-size: 60px; font-family: BACS"">kZUbcrdY</p>",,,,,,,,,,
html-keyboard-response,169,563814,0.0-11.0,615b1ab789b14c9996251fb4,650c16f0f2faf8d7a0d14c09,651c1bda5fc6eee35b061f03,48050, ,"<p>Great, you've seen the second block of words. You may now take a short break.</p>
      <p>Press the spacebar when you're ready to continue.</p>",,,,,,,,,,
html-keyboard-response,170,564827,0.0-12.0-0.0,615b1ab789b14c9996251fb4,650c16f0f2faf8d7a0d14c09,651c1bda5fc6eee35b061f03,null,null,"<p style=""font-size: 60px; font-family: BACS"">hbkdEPBT</p>",,,,,,,,,,
html-keyboard-response,171,565844,0.0-12.0-0.1,615b1ab789b14c9996251fb4,650c16f0f2faf8d7a0d14c09,651c1bda5fc6eee35b061f03,null,null,"<p style=""font-size: 60px; font-family: BACS"">NaAQdJQA</p>",,,,,,,,,,
html-keyboard-response,172,566847,0.0-12.0-0.2,615b1ab789b14c9996251fb4,650c16f0f2faf8d7a0d14c09,651c1bda5fc6eee35b061f03,null,null,"<p style=""font-size: 60px; font-family: BACS"">AlTdPMYm</p>",,,,,,,,,,
html-keyboard-response,173,567861,0.0-12.0-0.3,615b1ab789b14c9996251fb4,650c16f0f2faf8d7a0d14c09,651c1bda5fc6eee35b061f03,null,null,"<p style=""font-size: 60px; font-family: BACS"">kZUbGUa</p>",,,,,,,,,,
html-keyboard-response,174,568866,0.0-12.0-0.4,615b1ab789b14c9996251fb4,650c16f0f2faf8d7a0d14c09,651c1bda5fc6eee35b061f03,null,null,"<p style=""font-size: 60px; font-family: BACS"">DlDdbTE</p>",,,,,,,,,,
html-keyboard-response,175,569875,0.0-12.0-0.5,615b1ab789b14c9996251fb4,650c16f0f2faf8d7a0d14c09,651c1bda5fc6eee35b061f03,null,null,"<p style=""font-size: 60px; font-family: BACS"">UdYUQcrdY</p>",,,,,,,,,,
html-keyboard-response,176,570880,0.0-12.0-0.6,615b1ab789b14c9996251fb4,650c16f0f2faf8d7a0d14c09,651c1bda5fc6eee35b061f03,null,null,"<p style=""font-size: 60px; font-family: BACS"">kMbTRbTE</p>",,,,,,,,,,
html-keyboard-response,177,571897,0.0-12.0-0.7,615b1ab789b14c9996251fb4,650c16f0f2faf8d7a0d14c09,651c1bda5fc6eee35b061f03,null,null,"<p style=""font-size: 60px; font-family: BACS"">AlTdMAB</p>",,,,,,,,,,
html-keyboard-response,178,572914,0.0-12.0-0.8,615b1ab789b14c9996251fb4,650c16f0f2faf8d7a0d14c09,651c1bda5fc6eee35b061f03,null,null,"<p style=""font-size: 60px; font-family: BACS"">GJZmYLU</p>",,,,,,,,,,
html-keyboard-response,179,573932,0.0-12.0-0.9,615b1ab789b14c9996251fb4,650c16f0f2faf8d7a0d14c09,651c1bda5fc6eee35b061f03,null,null,"<p style=""font-size: 60px; font-family: BACS"">OZkbGUa</p>",,,,,,,,,,
html-keyboard-response,180,574947,0.0-12.0-0.10,615b1ab789b14c9996251fb4,650c16f0f2faf8d7a0d14c09,651c1bda5fc6eee35b061f03,null,null,"<p style=""font-size: 60px; font-family: BACS"">ZYcQUJQA</p>",,,,,,,,,,
html-keyboard-response,181,575964,0.0-12.0-0.11,615b1ab789b14c9996251fb4,650c16f0f2faf8d7a0d14c09,651c1bda5fc6eee35b061f03,null,null,"<p style=""font-size: 60px; font-family: BACS"">NaAQdcrdY</p>",,,,,,,,,,
html-keyboard-response,182,576980,0.0-12.0-0.12,615b1ab789b14c9996251fb4,650c16f0f2faf8d7a0d14c09,651c1bda5fc6eee35b061f03,null,null,"<p style=""font-size: 60px; font-family: BACS"">kcOYEPBT</p>",,,,,,,,,,
html-keyboard-response,183,577997,0.0-12.0-0.13,615b1ab789b14c9996251fb4,650c16f0f2faf8d7a0d14c09,651c1bda5fc6eee35b061f03,null,null,"<p style=""font-size: 60px; font-family: BACS"">vuJZuJQA</p>",,,,,,,,,,
html-keyboard-response,184,579020,0.0-12.0-0.14,615b1ab789b14c9996251fb4,650c16f0f2faf8d7a0d14c09,651c1bda5fc6eee35b061f03,null,null,"<p style=""font-size: 60px; font-family: BACS"">TCbDCTmc</p>",,,,,,,,,,
html-keyboard-response,185,580031,0.0-12.0-0.15,615b1ab789b14c9996251fb4,650c16f0f2faf8d7a0d14c09,651c1bda5fc6eee35b061f03,null,null,"<p style=""font-size: 60px; font-family: BACS"">GumLlOcZJ</p>",,,,,,,,,,
html-keyboard-response,186,581037,0.0-12.0-0.16,615b1ab789b14c9996251fb4,650c16f0f2faf8d7a0d14c09,651c1bda5fc6eee35b061f03,null,null,"<p style=""font-size: 60px; font-family: BACS"">NaAQdGUa</p>",,,,,,,,,,
html-keyboard-response,187,582047,0.0-12.0-0.17,615b1ab789b14c9996251fb4,650c16f0f2faf8d7a0d14c09,651c1bda5fc6eee35b061f03,null,null,"<p style=""font-size: 60px; font-family: BACS"">ZYcQUYLU</p>",,,,,,,,,,
html-keyboard-response,188,583061,0.0-12.0-0.18,615b1ab789b14c9996251fb4,650c16f0f2faf8d7a0d14c09,651c1bda5fc6eee35b061f03,null,null,"<p style=""font-size: 60px; font-family: BACS"">kMbTRPMYm</p>",,,,,,,,,,
html-keyboard-response,189,584067,0.0-12.0-0.19,615b1ab789b14c9996251fb4,650c16f0f2faf8d7a0d14c09,651c1bda5fc6eee35b061f03,null,null,"<p style=""font-size: 60px; font-family: BACS"">kcOYTmc</p>",,,,,,,,,,
html-keyboard-response,190,585081,0.0-12.0-0.20,615b1ab789b14c9996251fb4,650c16f0f2faf8d7a0d14c09,651c1bda5fc6eee35b061f03,null,null,"<p style=""font-size: 60px; font-family: BACS"">TEBKEPBT</p>",,,,,,,,,,
html-keyboard-response,191,586097,0.0-12.0-0.21,615b1ab789b14c9996251fb4,650c16f0f2faf8d7a0d14c09,651c1bda5fc6eee35b061f03,null,null,"<p style=""font-size: 60px; font-family: BACS"">DlDdMAB</p>",,,,,,,,,,
html-keyboard-response,192,587113,0.0-12.0-0.22,615b1ab789b14c9996251fb4,650c16f0f2faf8d7a0d14c09,651c1bda5fc6eee35b061f03,null,null,"<p style=""font-size: 60px; font-family: BACS"">JNkaJQA</p>",,,,,,,,,,
html-keyboard-response,193,588130,0.0-12.0-0.23,615b1ab789b14c9996251fb4,650c16f0f2faf8d7a0d14c09,651c1bda5fc6eee35b061f03,null,null,"<p style=""font-size: 60px; font-family: BACS"">McMDbTE</p>",,,,,,,,,,
html-keyboard-response,194,589133,0.0-12.0-0.24,615b1ab789b14c9996251fb4,650c16f0f2faf8d7a0d14c09,651c1bda5fc6eee35b061f03,null,null,"<p style=""font-size: 60px; font-family: BACS"">ZYcQUOcZJ</p>",,,,,,,,,,
html-keyboard-response,195,590147,0.0-12.0-0.25,615b1ab789b14c9996251fb4,650c16f0f2faf8d7a0d14c09,651c1bda5fc6eee35b061f03,null,null,"<p style=""font-size: 60px; font-family: BACS"">RdPtDPMYm</p>",,,,,,,,,,
html-keyboard-response,196,591161,0.0-12.0-0.26,615b1ab789b14c9996251fb4,650c16f0f2faf8d7a0d14c09,651c1bda5fc6eee35b061f03,null,null,"<p style=""font-size: 60px; font-family: BACS"">GJZmOcZJ</p>",,,,,,,,,,
html-keyboard-response,197,592179,0.0-12.0-0.27,615b1ab789b14c9996251fb4,650c16f0f2faf8d7a0d14c09,651c1bda5fc6eee35b061f03,null,null,"<p style=""font-size: 60px; font-family: BACS"">AlTdEPBT</p>",,,,,,,,,,
html-keyboard-response,198,593197,0.0-12.0-0.28,615b1ab789b14c9996251fb4,650c16f0f2faf8d7a0d14c09,651c1bda5fc6eee35b061f03,null,null,"<p style=""font-size: 60px; font-family: BACS"">OZkbJQA</p>",,,,,,,,,,
html-keyboard-response,199,594199,0.0-12.0-0.29,615b1ab789b14c9996251fb4,650c16f0f2faf8d7a0d14c09,651c1bda5fc6eee35b061f03,null,null,"<p style=""font-size: 60px; font-family: BACS"">vuJZuOcZJ</p>",,,,,,,,,,
html-keyboard-response,200,595213,0.0-12.0-0.30,615b1ab789b14c9996251fb4,650c16f0f2faf8d7a0d14c09,651c1bda5fc6eee35b061f03,null,null,"<p style=""font-size: 60px; font-family: BACS"">OZkbYLU</p>",,,,,,,,,,
html-keyboard-response,201,596225,0.0-12.0-0.31,615b1ab789b14c9996251fb4,650c16f0f2faf8d7a0d14c09,651c1bda5fc6eee35b061f03,null,null,"<p style=""font-size: 60px; font-family: BACS"">chEDOTmc</p>",,,,,,,,,,
html-keyboard-response,202,597230,0.0-12.0-0.32,615b1ab789b14c9996251fb4,650c16f0f2faf8d7a0d14c09,651c1bda5fc6eee35b061f03,null,null,"<p style=""font-size: 60px; font-family: BACS"">UdYUQOcZJ</p>",,,,,,,,,,
html-keyboard-response,203,598247,0.0-12.0-0.33,615b1ab789b14c9996251fb4,650c16f0f2faf8d7a0d14c09,651c1bda5fc6eee35b061f03,null,null,"<p style=""font-size: 60px; font-family: BACS"">kZUbcrdY</p>",,,,,,,,,,
html-keyboard-response,204,599262,0.0-12.0-0.34,615b1ab789b14c9996251fb4,650c16f0f2faf8d7a0d14c09,651c1bda5fc6eee35b061f03,null,null,"<p style=""font-size: 60px; font-family: BACS"">ZYcQUGUa</p>",,,,,,,,,,
html-keyboard-response,205,600279,0.0-12.0-0.35,615b1ab789b14c9996251fb4,650c16f0f2faf8d7a0d14c09,651c1bda5fc6eee35b061f03,null,null,"<p style=""font-size: 60px; font-family: BACS"">RdPtDTmc</p>",,,,,,,,,,
html-keyboard-response,206,601296,0.0-12.0-0.36,615b1ab789b14c9996251fb4,650c16f0f2faf8d7a0d14c09,651c1bda5fc6eee35b061f03,null,null,"<p style=""font-size: 60px; font-family: BACS"">GJZmcrdY</p>",,,,,,,,,,
html-keyboard-response,207,602312,0.0-12.0-0.37,615b1ab789b14c9996251fb4,650c16f0f2faf8d7a0d14c09,651c1bda5fc6eee35b061f03,null,null,"<p style=""font-size: 60px; font-family: BACS"">bvuZJQA</p>",,,,,,,,,,
html-keyboard-response,208,603330,0.0-12.0-0.38,615b1ab789b14c9996251fb4,650c16f0f2faf8d7a0d14c09,651c1bda5fc6eee35b061f03,null,null,"<p style=""font-size: 60px; font-family: BACS"">DlDdEPBT</p>",,,,,,,,,,
html-keyboard-response,209,604346,0.0-12.0-0.39,615b1ab789b14c9996251fb4,650c16f0f2faf8d7a0d14c09,651c1bda5fc6eee35b061f03,null,null,"<p style=""font-size: 60px; font-family: BACS"">GJZmGUa</p>",,,,,,,,,,
html-keyboard-response,210,605362,0.0-12.0-0.40,615b1ab789b14c9996251fb4,650c16f0f2faf8d7a0d14c09,651c1bda5fc6eee35b061f03,null,null,"<p style=""font-size: 60px; font-family: BACS"">UdYUQYLU</p>",,,,,,,,,,
html-keyboard-response,211,606377,0.0-12.0-0.41,615b1ab789b14c9996251fb4,650c16f0f2faf8d7a0d14c09,651c1bda5fc6eee35b061f03,null,null,"<p style=""font-size: 60px; font-family: BACS"">RdPtDMAB</p>",,,,,,,,,,
html-keyboard-response,212,607380,0.0-12.0-0.42,615b1ab789b14c9996251fb4,650c16f0f2faf8d7a0d14c09,651c1bda5fc6eee35b061f03,null,null,"<p style=""font-size: 60px; font-family: BACS"">kZUbYLU</p>",,,,,,,,,,
html-keyboard-response,213,608395,0.0-12.0-0.43,615b1ab789b14c9996251fb4,650c16f0f2faf8d7a0d14c09,651c1bda5fc6eee35b061f03,null,null,"<p style=""font-size: 60px; font-family: BACS"">JNkaOcZJ</p>",,,,,,,,,,
html-keyboard-response,214,609410,0.0-12.0-0.44,615b1ab789b14c9996251fb4,650c16f0f2faf8d7a0d14c09,651c1bda5fc6eee35b061f03,null,null,"<p style=""font-size: 60px; font-family: BACS"">GumLlcrdY</p>",,,,,,,,,,
html-keyboard-response,215,610427,0.0-12.0-0.45,615b1ab789b14c9996251fb4,650c16f0f2faf8d7a0d14c09,651c1bda5fc6eee35b061f03,null,null,"<p style=""font-size: 60px; font-family: BACS"">TEBKTmc</p>",,,,,,,,,,
html-keyboard-response,216,611442,0.0-12.0-0.46,615b1ab789b14c9996251fb4,650c16f0f2faf8d7a0d14c09,651c1bda5fc6eee35b061f03,null,null,"<p style=""font-size: 60px; font-family: BACS"">bvuZcrdY</p>",,,,,,,,,,
html-keyboard-response,217,612446,0.0-12.0-0.47,615b1ab789b14c9996251fb4,650c16f0f2faf8d7a0d14c09,651c1bda5fc6eee35b061f03,null,null,"<p style=""font-size: 60px; font-family: BACS"">TCbDCbTE</p>",,,,,,,,,,
html-keyboard-response,218,613461,0.0-12.0-0.48,615b1ab789b14c9996251fb4,650c16f0f2faf8d7a0d14c09,651c1bda5fc6eee35b061f03,null,null,"<p style=""font-size: 60px; font-family: BACS"">kcOYPMYm</p>",,,,,,,,,,
html-keyboard-response,219,614478,0.0-12.0-0.49,615b1ab789b14c9996251fb4,650c16f0f2faf8d7a0d14c09,651c1bda5fc6eee35b061f03,null,null,"<p style=""font-size: 60px; font-family: BACS"">TCbDCMAB</p>",,,,,,,,,,
html-keyboard-response,220,615495,0.0-12.0-0.50,615b1ab789b14c9996251fb4,650c16f0f2faf8d7a0d14c09,651c1bda5fc6eee35b061f03,null,null,"<p style=""font-size: 60px; font-family: BACS"">GumLlYLU</p>",,,,,,,,,,
html-keyboard-response,221,616512,0.0-12.0-0.51,615b1ab789b14c9996251fb4,650c16f0f2faf8d7a0d14c09,651c1bda5fc6eee35b061f03,null,null,"<p style=""font-size: 60px; font-family: BACS"">bvuZOcZJ</p>",,,,,,,,,,
html-keyboard-response,222,617527,0.0-12.0-0.52,615b1ab789b14c9996251fb4,650c16f0f2faf8d7a0d14c09,651c1bda5fc6eee35b061f03,null,null,"<p style=""font-size: 60px; font-family: BACS"">McMDPMYm</p>",,,,,,,,,,
html-keyboard-response,223,618546,0.0-12.0-0.53,615b1ab789b14c9996251fb4,650c16f0f2faf8d7a0d14c09,651c1bda5fc6eee35b061f03,null,null,"<p style=""font-size: 60px; font-family: BACS"">kMbTRMAB</p>",,,,,,,,,,
html-keyboard-response,224,619562,0.0-12.0-0.54,615b1ab789b14c9996251fb4,650c16f0f2faf8d7a0d14c09,651c1bda5fc6eee35b061f03,null,null,"<p style=""font-size: 60px; font-family: BACS"">OZkbOcZJ</p>",,,,,,,,,,
html-keyboard-response,225,620579,0.0-12.0-0.55,615b1ab789b14c9996251fb4,650c16f0f2faf8d7a0d14c09,651c1bda5fc6eee35b061f03,null,null,"<p style=""font-size: 60px; font-family: BACS"">chEDOPMYm</p>",,,,,,,,,,
html-keyboard-response,226,621597,0.0-12.0-0.56,615b1ab789b14c9996251fb4,650c16f0f2faf8d7a0d14c09,651c1bda5fc6eee35b061f03,null,null,"<p style=""font-size: 60px; font-family: BACS"">hbkdMAB</p>",,,,,,,,,,
html-keyboard-response,227,622602,0.0-12.0-0.57,615b1ab789b14c9996251fb4,650c16f0f2faf8d7a0d14c09,651c1bda5fc6eee35b061f03,null,null,"<p style=""font-size: 60px; font-family: BACS"">kZUbJQA</p>",,,,,,,,,,
html-keyboard-response,228,623616,0.0-12.0-0.58,615b1ab789b14c9996251fb4,650c16f0f2faf8d7a0d14c09,651c1bda5fc6eee35b061f03,null,null,"<p style=""font-size: 60px; font-family: BACS"">vuJZucrdY</p>",,,,,,,,,,
html-keyboard-response,229,624630,0.0-12.0-0.59,615b1ab789b14c9996251fb4,650c16f0f2faf8d7a0d14c09,651c1bda5fc6eee35b061f03,null,null,"<p style=""font-size: 60px; font-family: BACS"">GumLlJQA</p>",,,,,,,,,,
html-keyboard-response,230,625647,0.0-12.0-0.60,615b1ab789b14c9996251fb4,650c16f0f2faf8d7a0d14c09,651c1bda5fc6eee35b061f03,null,null,"<p style=""font-size: 60px; font-family: BACS"">RdPtDbTE</p>",,,,,,,,,,
html-keyboard-response,231,626655,0.0-12.0-0.61,615b1ab789b14c9996251fb4,650c16f0f2faf8d7a0d14c09,651c1bda5fc6eee35b061f03,null,null,"<p style=""font-size: 60px; font-family: BACS"">DlDdTmc</p>",,,,,,,,,,
html-keyboard-response,232,627662,0.0-12.0-0.62,615b1ab789b14c9996251fb4,650c16f0f2faf8d7a0d14c09,651c1bda5fc6eee35b061f03,null,null,"<p style=""font-size: 60px; font-family: BACS"">NaAQdYLU</p>",,,,,,,,,,
html-keyboard-response,233,628677,0.0-12.0-0.63,615b1ab789b14c9996251fb4,650c16f0f2faf8d7a0d14c09,651c1bda5fc6eee35b061f03,null,null,"<p style=""font-size: 60px; font-family: BACS"">chEDObTE</p>",,,,,,,,,,
html-keyboard-response,234,629683,0.0-12.0-0.64,615b1ab789b14c9996251fb4,650c16f0f2faf8d7a0d14c09,651c1bda5fc6eee35b061f03,null,null,"<p style=""font-size: 60px; font-family: BACS"">JNkaGUa</p>",,,,,,,,,,
html-keyboard-response,235,630695,0.0-12.0-0.65,615b1ab789b14c9996251fb4,650c16f0f2faf8d7a0d14c09,651c1bda5fc6eee35b061f03,null,null,"<p style=""font-size: 60px; font-family: BACS"">TEBKPMYm</p>",,,,,,,,,,
html-keyboard-response,236,631711,0.0-12.0-0.66,615b1ab789b14c9996251fb4,650c16f0f2faf8d7a0d14c09,651c1bda5fc6eee35b061f03,null,null,"<p style=""font-size: 60px; font-family: BACS"">hbkdTmc</p>",,,,,,,,,,
html-keyboard-response,237,632727,0.0-12.0-0.67,615b1ab789b14c9996251fb4,650c16f0f2faf8d7a0d14c09,651c1bda5fc6eee35b061f03,null,null,"<p style=""font-size: 60px; font-family: BACS"">TCbDCEPBT</p>",,,,,,,,,,
html-keyboard-response,238,633758,0.0-12.0-0.68,615b1ab789b14c9996251fb4,650c16f0f2faf8d7a0d14c09,651c1bda5fc6eee35b061f03,null,null,"<p style=""font-size: 60px; font-family: BACS"">kMbTRTmc</p>",,,,,,,,,,
html-keyboard-response,239,634777,0.0-12.0-0.69,615b1ab789b14c9996251fb4,650c16f0f2faf8d7a0d14c09,651c1bda5fc6eee35b061f03,null,null,"<p style=""font-size: 60px; font-family: BACS"">bvuZYLU</p>",,,,,,,,,,
html-keyboard-response,240,635783,0.0-12.0-0.70,615b1ab789b14c9996251fb4,650c16f0f2faf8d7a0d14c09,651c1bda5fc6eee35b061f03,null,null,"<p style=""font-size: 60px; font-family: BACS"">JNkacrdY</p>",,,,,,,,,,
html-keyboard-response,241,636794,0.0-12.0-0.71,615b1ab789b14c9996251fb4,650c16f0f2faf8d7a0d14c09,651c1bda5fc6eee35b061f03,null,null,"<p style=""font-size: 60px; font-family: BACS"">TEBKbTE</p>",,,,,,,,,,
html-keyboard-response,242,637807,0.0-12.0-0.72,615b1ab789b14c9996251fb4,650c16f0f2faf8d7a0d14c09,651c1bda5fc6eee35b061f03,null,null,"<p style=""font-size: 60px; font-family: BACS"">kcOYMAB</p>",,,,,,,,,,
html-keyboard-response,243,638811,0.0-12.0-0.73,615b1ab789b14c9996251fb4,650c16f0f2faf8d7a0d14c09,651c1bda5fc6eee35b061f03,null,null,"<p style=""font-size: 60px; font-family: BACS"">chEDOEPBT</p>",,,,,,,,,,
html-keyboard-response,244,639819,0.0-12.0-0.74,615b1ab789b14c9996251fb4,650c16f0f2faf8d7a0d14c09,651c1bda5fc6eee35b061f03,null,null,"<p style=""font-size: 60px; font-family: BACS"">hbkdPMYm</p>",,,,,,,,,,
html-keyboard-response,245,640827,0.0-12.0-0.75,615b1ab789b14c9996251fb4,650c16f0f2faf8d7a0d14c09,651c1bda5fc6eee35b061f03,null,null,"<p style=""font-size: 60px; font-family: BACS"">UdYUQGUa</p>",,,,,,,,,,
html-keyboard-response,246,641836,0.0-12.0-0.76,615b1ab789b14c9996251fb4,650c16f0f2faf8d7a0d14c09,651c1bda5fc6eee35b061f03,null,null,"<p style=""font-size: 60px; font-family: BACS"">AlTdbTE</p>",,,,,,,,,,
html-keyboard-response,247,642846,0.0-12.0-0.77,615b1ab789b14c9996251fb4,650c16f0f2faf8d7a0d14c09,651c1bda5fc6eee35b061f03,null,null,"<p style=""font-size: 60px; font-family: BACS"">McMDEPBT</p>",,,,,,,,,,
html-keyboard-response,248,643849,0.0-12.0-0.78,615b1ab789b14c9996251fb4,650c16f0f2faf8d7a0d14c09,651c1bda5fc6eee35b061f03,null,null,"<p style=""font-size: 60px; font-family: BACS"">vuJZuGUa</p>",,,,,,,,,,
html-keyboard-response,249,644865,0.0-12.0-0.79,615b1ab789b14c9996251fb4,650c16f0f2faf8d7a0d14c09,651c1bda5fc6eee35b061f03,null,null,"<p style=""font-size: 60px; font-family: BACS"">McMDMAB</p>",,,,,,,,,,
html-keyboard-response,250,671645,0.0-13.0,615b1ab789b14c9996251fb4,650c16f0f2faf8d7a0d14c09,651c1bda5fc6eee35b061f03,26779, ,"<p>Great, you've seen the third block of words. You may now take a short break.</p>
      <p>Press the spacebar when you're ready to continue.</p>",,,,,,,,,,
html-keyboard-response,251,672660,0.0-14.0-0.0,615b1ab789b14c9996251fb4,650c16f0f2faf8d7a0d14c09,651c1bda5fc6eee35b061f03,null,null,"<p style=""font-size: 60px; font-family: BACS"">GJZmcrdY</p>",,,,,,,,,,
html-keyboard-response,252,673678,0.0-14.0-0.1,615b1ab789b14c9996251fb4,650c16f0f2faf8d7a0d14c09,651c1bda5fc6eee35b061f03,null,null,"<p style=""font-size: 60px; font-family: BACS"">RdPtDPMYm</p>",,,,,,,,,,
html-keyboard-response,253,674692,0.0-14.0-0.2,615b1ab789b14c9996251fb4,650c16f0f2faf8d7a0d14c09,651c1bda5fc6eee35b061f03,null,null,"<p style=""font-size: 60px; font-family: BACS"">OZkbOcZJ</p>",,,,,,,,,,
html-keyboard-response,254,675711,0.0-14.0-0.3,615b1ab789b14c9996251fb4,650c16f0f2faf8d7a0d14c09,651c1bda5fc6eee35b061f03,null,null,"<p style=""font-size: 60px; font-family: BACS"">DlDdbTE</p>",,,,,,,,,,
html-keyboard-response,255,676725,0.0-14.0-0.4,615b1ab789b14c9996251fb4,650c16f0f2faf8d7a0d14c09,651c1bda5fc6eee35b061f03,null,null,"<p style=""font-size: 60px; font-family: BACS"">ZYcQUYLU</p>",,,,,,,,,,
html-keyboard-response,256,677735,0.0-14.0-0.5,615b1ab789b14c9996251fb4,650c16f0f2faf8d7a0d14c09,651c1bda5fc6eee35b061f03,null,null,"<p style=""font-size: 60px; font-family: BACS"">NaAQdcrdY</p>",,,,,,,,,,
html-keyboard-response,257,678742,0.0-14.0-0.6,615b1ab789b14c9996251fb4,650c16f0f2faf8d7a0d14c09,651c1bda5fc6eee35b061f03,null,null,"<p style=""font-size: 60px; font-family: BACS"">DlDdEPBT</p>",,,,,,,,,,
html-keyboard-response,258,679757,0.0-14.0-0.7,615b1ab789b14c9996251fb4,650c16f0f2faf8d7a0d14c09,651c1bda5fc6eee35b061f03,null,null,"<p style=""font-size: 60px; font-family: BACS"">TEBKTmc</p>",,,,,,,,,,
html-keyboard-response,259,680774,0.0-14.0-0.8,615b1ab789b14c9996251fb4,650c16f0f2faf8d7a0d14c09,651c1bda5fc6eee35b061f03,null,null,"<p style=""font-size: 60px; font-family: BACS"">GJZmYLU</p>",,,,,,,,,,
html-keyboard-response,260,681782,0.0-14.0-0.9,615b1ab789b14c9996251fb4,650c16f0f2faf8d7a0d14c09,651c1bda5fc6eee35b061f03,null,null,"<p style=""font-size: 60px; font-family: BACS"">UdYUQOcZJ</p>",,,,,,,,,,
html-keyboard-response,261,682817,0.0-14.0-0.10,615b1ab789b14c9996251fb4,650c16f0f2faf8d7a0d14c09,651c1bda5fc6eee35b061f03,null,null,"<p style=""font-size: 60px; font-family: BACS"">vuJZucrdY</p>",,,,,,,,,,
html-keyboard-response,262,683819,0.0-14.0-0.11,615b1ab789b14c9996251fb4,650c16f0f2faf8d7a0d14c09,651c1bda5fc6eee35b061f03,null,null,"<p style=""font-size: 60px; font-family: BACS"">AlTdEPBT</p>",,,,,,,,,,
html-keyboard-response,263,684824,0.0-14.0-0.12,615b1ab789b14c9996251fb4,650c16f0f2faf8d7a0d14c09,651c1bda5fc6eee35b061f03,null,null,"<p style=""font-size: 60px; font-family: BACS"">bvuZYLU</p>",,,,,,,,,,
html-keyboard-response,264,685840,0.0-14.0-0.13,615b1ab789b14c9996251fb4,650c16f0f2faf8d7a0d14c09,651c1bda5fc6eee35b061f03,null,null,"<p style=""font-size: 60px; font-family: BACS"">chEDOEPBT</p>",,,,,,,,,,
html-keyboard-response,265,686842,0.0-14.0-0.14,615b1ab789b14c9996251fb4,650c16f0f2faf8d7a0d14c09,651c1bda5fc6eee35b061f03,null,null,"<p style=""font-size: 60px; font-family: BACS"">UdYUQGUa</p>",,,,,,,,,,
html-keyboard-response,266,687857,0.0-14.0-0.15,615b1ab789b14c9996251fb4,650c16f0f2faf8d7a0d14c09,651c1bda5fc6eee35b061f03,null,null,"<p style=""font-size: 60px; font-family: BACS"">hbkdPMYm</p>",,,,,,,,,,
html-keyboard-response,267,688875,0.0-14.0-0.16,615b1ab789b14c9996251fb4,650c16f0f2faf8d7a0d14c09,651c1bda5fc6eee35b061f03,null,null,"<p style=""font-size: 60px; font-family: BACS"">TEBKbTE</p>",,,,,,,,,,
html-keyboard-response,268,689890,0.0-14.0-0.17,615b1ab789b14c9996251fb4,650c16f0f2faf8d7a0d14c09,651c1bda5fc6eee35b061f03,null,null,"<p style=""font-size: 60px; font-family: BACS"">bvuZcrdY</p>",,,,,,,,,,
html-keyboard-response,269,690907,0.0-14.0-0.18,615b1ab789b14c9996251fb4,650c16f0f2faf8d7a0d14c09,651c1bda5fc6eee35b061f03,null,null,"<p style=""font-size: 60px; font-family: BACS"">McMDMAB</p>",,,,,,,,,,
html-keyboard-response,270,691924,0.0-14.0-0.19,615b1ab789b14c9996251fb4,650c16f0f2faf8d7a0d14c09,651c1bda5fc6eee35b061f03,null,null,"<p style=""font-size: 60px; font-family: BACS"">GJZmGUa</p>",,,,,,,,,,
html-keyboard-response,271,692939,0.0-14.0-0.20,615b1ab789b14c9996251fb4,650c16f0f2faf8d7a0d14c09,651c1bda5fc6eee35b061f03,null,null,"<p style=""font-size: 60px; font-family: BACS"">TEBKEPBT</p>",,,,,,,,,,
html-keyboard-response,272,693956,0.0-14.0-0.21,615b1ab789b14c9996251fb4,650c16f0f2faf8d7a0d14c09,651c1bda5fc6eee35b061f03,null,null,"<p style=""font-size: 60px; font-family: BACS"">JNkaGUa</p>",,,,,,,,,,
html-keyboard-response,273,694973,0.0-14.0-0.22,615b1ab789b14c9996251fb4,650c16f0f2faf8d7a0d14c09,651c1bda5fc6eee35b061f03,null,null,"<p style=""font-size: 60px; font-family: BACS"">TCbDCbTE</p>",,,,,,,,,,
html-keyboard-response,274,695991,0.0-14.0-0.23,615b1ab789b14c9996251fb4,650c16f0f2faf8d7a0d14c09,651c1bda5fc6eee35b061f03,null,null,"<p style=""font-size: 60px; font-family: BACS"">kcOYMAB</p>",,,,,,,,,,
html-keyboard-response,275,697007,0.0-14.0-0.24,615b1ab789b14c9996251fb4,650c16f0f2faf8d7a0d14c09,651c1bda5fc6eee35b061f03,null,null,"<p style=""font-size: 60px; font-family: BACS"">bvuZJQA</p>",,,,,,,,,,
html-keyboard-response,276,698026,0.0-14.0-0.25,615b1ab789b14c9996251fb4,650c16f0f2faf8d7a0d14c09,651c1bda5fc6eee35b061f03,null,null,"<p style=""font-size: 60px; font-family: BACS"">hbkdTmc</p>",,,,,,,,,,
html-keyboard-response,277,699029,0.0-14.0-0.26,615b1ab789b14c9996251fb4,650c16f0f2faf8d7a0d14c09,651c1bda5fc6eee35b061f03,null,null,"<p style=""font-size: 60px; font-family: BACS"">NaAQdGUa</p>",,,,,,,,,,
html-keyboard-response,278,700040,0.0-14.0-0.27,615b1ab789b14c9996251fb4,650c16f0f2faf8d7a0d14c09,651c1bda5fc6eee35b061f03,null,null,"<p style=""font-size: 60px; font-family: BACS"">kcOYTmc</p>",,,,,,,,,,
html-keyboard-response,279,701057,0.0-14.0-0.28,615b1ab789b14c9996251fb4,650c16f0f2faf8d7a0d14c09,651c1bda5fc6eee35b061f03,null,null,"<p style=""font-size: 60px; font-family: BACS"">chEDOPMYm</p>",,,,,,,,,,
html-keyboard-response,280,702059,0.0-14.0-0.29,615b1ab789b14c9996251fb4,650c16f0f2faf8d7a0d14c09,651c1bda5fc6eee35b061f03,null,null,"<p style=""font-size: 60px; font-family: BACS"">RdPtDTmc</p>",,,,,,,,,,
html-keyboard-response,281,703082,0.0-14.0-0.30,615b1ab789b14c9996251fb4,650c16f0f2faf8d7a0d14c09,651c1bda5fc6eee35b061f03,null,null,"<p style=""font-size: 60px; font-family: BACS"">NaAQdJQA</p>",,,,,,,,,,
html-keyboard-response,282,704089,0.0-14.0-0.31,615b1ab789b14c9996251fb4,650c16f0f2faf8d7a0d14c09,651c1bda5fc6eee35b061f03,null,null,"<p style=""font-size: 60px; font-family: BACS"">RdPtDbTE</p>",,,,,,,,,,
html-keyboard-response,283,705109,0.0-14.0-0.32,615b1ab789b14c9996251fb4,650c16f0f2faf8d7a0d14c09,651c1bda5fc6eee35b061f03,null,null,"<p style=""font-size: 60px; font-family: BACS"">kZUbYLU</p>",,,,,,,,,,
html-keyboard-response,284,706123,0.0-14.0-0.33,615b1ab789b14c9996251fb4,650c16f0f2faf8d7a0d14c09,651c1bda5fc6eee35b061f03,null,null,"<p style=""font-size: 60px; font-family: BACS"">RdPtDMAB</p>",,,,,,,,,,
html-keyboard-response,285,707140,0.0-14.0-0.34,615b1ab789b14c9996251fb4,650c16f0f2faf8d7a0d14c09,651c1bda5fc6eee35b061f03,null,null,"<p style=""font-size: 60px; font-family: BACS"">kMbTRbTE</p>",,,,,,,,,,
html-keyboard-response,286,708157,0.0-14.0-0.35,615b1ab789b14c9996251fb4,650c16f0f2faf8d7a0d14c09,651c1bda5fc6eee35b061f03,null,null,"<p style=""font-size: 60px; font-family: BACS"">TCbDCEPBT</p>",,,,,,,,,,
html-keyboard-response,287,709173,0.0-14.0-0.36,615b1ab789b14c9996251fb4,650c16f0f2faf8d7a0d14c09,651c1bda5fc6eee35b061f03,null,null,"<p style=""font-size: 60px; font-family: BACS"">GJZmOcZJ</p>",,,,,,,,,,
html-keyboard-response,288,710189,0.0-14.0-0.37,615b1ab789b14c9996251fb4,650c16f0f2faf8d7a0d14c09,651c1bda5fc6eee35b061f03,null,null,"<p style=""font-size: 60px; font-family: BACS"">JNkaJQA</p>",,,,,,,,,,
html-keyboard-response,289,711206,0.0-14.0-0.38,615b1ab789b14c9996251fb4,650c16f0f2faf8d7a0d14c09,651c1bda5fc6eee35b061f03,null,null,"<p style=""font-size: 60px; font-family: BACS"">hbkdMAB</p>",,,,,,,,,,
html-keyboard-response,290,712222,0.0-14.0-0.39,615b1ab789b14c9996251fb4,650c16f0f2faf8d7a0d14c09,651c1bda5fc6eee35b061f03,null,null,"<p style=""font-size: 60px; font-family: BACS"">TEBKPMYm</p>",,,,,,,,,,
html-keyboard-response,291,713240,0.0-14.0-0.40,615b1ab789b14c9996251fb4,650c16f0f2faf8d7a0d14c09,651c1bda5fc6eee35b061f03,null,null,"<p style=""font-size: 60px; font-family: BACS"">kZUbcrdY</p>",,,,,,,,,,
html-keyboard-response,292,714256,0.0-14.0-0.41,615b1ab789b14c9996251fb4,650c16f0f2faf8d7a0d14c09,651c1bda5fc6eee35b061f03,null,null,"<p style=""font-size: 60px; font-family: BACS"">bvuZOcZJ</p>",,,,,,,,,,
html-keyboard-response,293,715269,0.0-14.0-0.42,615b1ab789b14c9996251fb4,650c16f0f2faf8d7a0d14c09,651c1bda5fc6eee35b061f03,null,null,"<p style=""font-size: 60px; font-family: BACS"">DlDdTmc</p>",,,,,,,,,,
html-keyboard-response,294,716274,0.0-14.0-0.43,615b1ab789b14c9996251fb4,650c16f0f2faf8d7a0d14c09,651c1bda5fc6eee35b061f03,null,null,"<p style=""font-size: 60px; font-family: BACS"">GumLlOcZJ</p>",,,,,,,,,,
html-keyboard-response,295,717289,0.0-14.0-0.44,615b1ab789b14c9996251fb4,650c16f0f2faf8d7a0d14c09,651c1bda5fc6eee35b061f03,null,null,"<p style=""font-size: 60px; font-family: BACS"">McMDEPBT</p>",,,,,,,,,,
html-keyboard-response,296,718305,0.0-14.0-0.45,615b1ab789b14c9996251fb4,650c16f0f2faf8d7a0d14c09,651c1bda5fc6eee35b061f03,null,null,"<p style=""font-size: 60px; font-family: BACS"">kMbTRMAB</p>",,,,,,,,,,
html-keyboard-response,297,719322,0.0-14.0-0.46,615b1ab789b14c9996251fb4,650c16f0f2faf8d7a0d14c09,651c1bda5fc6eee35b061f03,null,null,"<p style=""font-size: 60px; font-family: BACS"">ZYcQUJQA</p>",,,,,,,,,,
html-keyboard-response,298,720339,0.0-14.0-0.47,615b1ab789b14c9996251fb4,650c16f0f2faf8d7a0d14c09,651c1bda5fc6eee35b061f03,null,null,"<p style=""font-size: 60px; font-family: BACS"">hbkdEPBT</p>",,,,,,,,,,
html-keyboard-response,299,721355,0.0-14.0-0.48,615b1ab789b14c9996251fb4,650c16f0f2faf8d7a0d14c09,651c1bda5fc6eee35b061f03,null,null,"<p style=""font-size: 60px; font-family: BACS"">DlDdMAB</p>",,,,,,,,,,
html-keyboard-response,300,722372,0.0-14.0-0.49,615b1ab789b14c9996251fb4,650c16f0f2faf8d7a0d14c09,651c1bda5fc6eee35b061f03,null,null,"<p style=""font-size: 60px; font-family: BACS"">GumLlYLU</p>",,,,,,,,,,
html-keyboard-response,301,723388,0.0-14.0-0.50,615b1ab789b14c9996251fb4,650c16f0f2faf8d7a0d14c09,651c1bda5fc6eee35b061f03,null,null,"<p style=""font-size: 60px; font-family: BACS"">JNkacrdY</p>",,,,,,,,,,
html-keyboard-response,302,724407,0.0-14.0-0.51,615b1ab789b14c9996251fb4,650c16f0f2faf8d7a0d14c09,651c1bda5fc6eee35b061f03,null,null,"<p style=""font-size: 60px; font-family: BACS"">kcOYPMYm</p>",,,,,,,,,,
html-keyboard-response,303,725424,0.0-14.0-0.52,615b1ab789b14c9996251fb4,650c16f0f2faf8d7a0d14c09,651c1bda5fc6eee35b061f03,null,null,"<p style=""font-size: 60px; font-family: BACS"">TCbDCTmc</p>",,,,,,,,,,
html-keyboard-response,304,726439,0.0-14.0-0.53,615b1ab789b14c9996251fb4,650c16f0f2faf8d7a0d14c09,651c1bda5fc6eee35b061f03,null,null,"<p style=""font-size: 60px; font-family: BACS"">kZUbJQA</p>",,,,,,,,,,
html-keyboard-response,305,727454,0.0-14.0-0.54,615b1ab789b14c9996251fb4,650c16f0f2faf8d7a0d14c09,651c1bda5fc6eee35b061f03,null,null,"<p style=""font-size: 60px; font-family: BACS"">kMbTRTmc</p>",,,,,,,,,,
html-keyboard-response,306,728472,0.0-14.0-0.55,615b1ab789b14c9996251fb4,650c16f0f2faf8d7a0d14c09,651c1bda5fc6eee35b061f03,null,null,"<p style=""font-size: 60px; font-family: BACS"">kZUbGUa</p>",,,,,,,,,,
html-keyboard-response,307,729488,0.0-14.0-0.56,615b1ab789b14c9996251fb4,650c16f0f2faf8d7a0d14c09,651c1bda5fc6eee35b061f03,null,null,"<p style=""font-size: 60px; font-family: BACS"">UdYUQYLU</p>",,,,,,,,,,
html-keyboard-response,308,730505,0.0-14.0-0.57,615b1ab789b14c9996251fb4,650c16f0f2faf8d7a0d14c09,651c1bda5fc6eee35b061f03,null,null,"<p style=""font-size: 60px; font-family: BACS"">chEDObTE</p>",,,,,,,,,,
html-keyboard-response,309,731522,0.0-14.0-0.58,615b1ab789b14c9996251fb4,650c16f0f2faf8d7a0d14c09,651c1bda5fc6eee35b061f03,null,null,"<p style=""font-size: 60px; font-family: BACS"">TCbDCMAB</p>",,,,,,,,,,
html-keyboard-response,310,732538,0.0-14.0-0.59,615b1ab789b14c9996251fb4,650c16f0f2faf8d7a0d14c09,651c1bda5fc6eee35b061f03,null,null,"<p style=""font-size: 60px; font-family: BACS"">vuJZuGUa</p>",,,,,,,,,,
html-keyboard-response,311,733558,0.0-14.0-0.60,615b1ab789b14c9996251fb4,650c16f0f2faf8d7a0d14c09,651c1bda5fc6eee35b061f03,null,null,"<p style=""font-size: 60px; font-family: BACS"">NaAQdYLU</p>",,,,,,,,,,
html-keyboard-response,312,734572,0.0-14.0-0.61,615b1ab789b14c9996251fb4,650c16f0f2faf8d7a0d14c09,651c1bda5fc6eee35b061f03,null,null,"<p style=""font-size: 60px; font-family: BACS"">GumLlcrdY</p>",,,,,,,,,,
html-keyboard-response,313,735589,0.0-14.0-0.62,615b1ab789b14c9996251fb4,650c16f0f2faf8d7a0d14c09,651c1bda5fc6eee35b061f03,null,null,"<p style=""font-size: 60px; font-family: BACS"">AlTdPMYm</p>",,,,,,,,,,
html-keyboard-response,314,736594,0.0-14.0-0.63,615b1ab789b14c9996251fb4,650c16f0f2faf8d7a0d14c09,651c1bda5fc6eee35b061f03,null,null,"<p style=""font-size: 60px; font-family: BACS"">vuJZuJQA</p>",,,,,,,,,,
html-keyboard-response,315,737607,0.0-14.0-0.64,615b1ab789b14c9996251fb4,650c16f0f2faf8d7a0d14c09,651c1bda5fc6eee35b061f03,null,null,"<p style=""font-size: 60px; font-family: BACS"">ZYcQUOcZJ</p>",,,,,,,,,,
html-keyboard-response,316,738622,0.0-14.0-0.65,615b1ab789b14c9996251fb4,650c16f0f2faf8d7a0d14c09,651c1bda5fc6eee35b061f03,null,null,"<p style=""font-size: 60px; font-family: BACS"">McMDPMYm</p>",,,,,,,,,,
html-keyboard-response,317,739631,0.0-14.0-0.66,615b1ab789b14c9996251fb4,650c16f0f2faf8d7a0d14c09,651c1bda5fc6eee35b061f03,null,null,"<p style=""font-size: 60px; font-family: BACS"">ZYcQUGUa</p>",,,,,,,,,,
html-keyboard-response,318,740640,0.0-14.0-0.67,615b1ab789b14c9996251fb4,650c16f0f2faf8d7a0d14c09,651c1bda5fc6eee35b061f03,null,null,"<p style=""font-size: 60px; font-family: BACS"">AlTdMAB</p>",,,,,,,,,,
html-keyboard-response,319,741657,0.0-14.0-0.68,615b1ab789b14c9996251fb4,650c16f0f2faf8d7a0d14c09,651c1bda5fc6eee35b061f03,null,null,"<p style=""font-size: 60px; font-family: BACS"">OZkbYLU</p>",,,,,,,,,,
html-keyboard-response,320,742671,0.0-14.0-0.69,615b1ab789b14c9996251fb4,650c16f0f2faf8d7a0d14c09,651c1bda5fc6eee35b061f03,null,null,"<p style=""font-size: 60px; font-family: BACS"">chEDOTmc</p>",,,,,,,,,,
html-keyboard-response,321,743689,0.0-14.0-0.70,615b1ab789b14c9996251fb4,650c16f0f2faf8d7a0d14c09,651c1bda5fc6eee35b061f03,null,null,"<p style=""font-size: 60px; font-family: BACS"">kcOYEPBT</p>",,,,,,,,,,
html-keyboard-response,322,744694,0.0-14.0-0.71,615b1ab789b14c9996251fb4,650c16f0f2faf8d7a0d14c09,651c1bda5fc6eee35b061f03,null,null,"<p style=""font-size: 60px; font-family: BACS"">kMbTRPMYm</p>",,,,,,,,,,
html-keyboard-response,323,745719,0.0-14.0-0.72,615b1ab789b14c9996251fb4,650c16f0f2faf8d7a0d14c09,651c1bda5fc6eee35b061f03,null,null,"<p style=""font-size: 60px; font-family: BACS"">UdYUQcrdY</p>",,,,,,,,,,
html-keyboard-response,324,746739,0.0-14.0-0.73,615b1ab789b14c9996251fb4,650c16f0f2faf8d7a0d14c09,651c1bda5fc6eee35b061f03,null,null,"<p style=""font-size: 60px; font-family: BACS"">GumLlJQA</p>",,,,,,,,,,
html-keyboard-response,325,747743,0.0-14.0-0.74,615b1ab789b14c9996251fb4,650c16f0f2faf8d7a0d14c09,651c1bda5fc6eee35b061f03,null,null,"<p style=""font-size: 60px; font-family: BACS"">JNkaOcZJ</p>",,,,,,,,,,
html-keyboard-response,326,748754,0.0-14.0-0.75,615b1ab789b14c9996251fb4,650c16f0f2faf8d7a0d14c09,651c1bda5fc6eee35b061f03,null,null,"<p style=""font-size: 60px; font-family: BACS"">OZkbJQA</p>",,,,,,,,,,
html-keyboard-response,327,749772,0.0-14.0-0.76,615b1ab789b14c9996251fb4,650c16f0f2faf8d7a0d14c09,651c1bda5fc6eee35b061f03,null,null,"<p style=""font-size: 60px; font-family: BACS"">McMDbTE</p>",,,,,,,,,,
html-keyboard-response,328,750788,0.0-14.0-0.77,615b1ab789b14c9996251fb4,650c16f0f2faf8d7a0d14c09,651c1bda5fc6eee35b061f03,null,null,"<p style=""font-size: 60px; font-family: BACS"">OZkbGUa</p>",,,,,,,,,,
html-keyboard-response,329,751793,0.0-14.0-0.78,615b1ab789b14c9996251fb4,650c16f0f2faf8d7a0d14c09,651c1bda5fc6eee35b061f03,null,null,"<p style=""font-size: 60px; font-family: BACS"">AlTdbTE</p>",,,,,,,,,,
html-keyboard-response,330,752804,0.0-14.0-0.79,615b1ab789b14c9996251fb4,650c16f0f2faf8d7a0d14c09,651c1bda5fc6eee35b061f03,null,null,"<p style=""font-size: 60px; font-family: BACS"">vuJZuOcZJ</p>",,,,,,,,,,
html-keyboard-response,331,785831,0.0-15.0,615b1ab789b14c9996251fb4,650c16f0f2faf8d7a0d14c09,651c1bda5fc6eee35b061f03,33031, ,"<p>Great, you've seen the fourth block of words. You may now take a short break.</p>
      <p>Press the spacebar when you're ready to continue.</p>",,,,,,,,,,
html-keyboard-response,332,786848,0.0-16.0-0.0,615b1ab789b14c9996251fb4,650c16f0f2faf8d7a0d14c09,651c1bda5fc6eee35b061f03,null,null,"<p style=""font-size: 60px; font-family: BACS"">RdPtDbTE</p>",,,,,,,,,,
html-keyboard-response,333,787863,0.0-16.0-0.1,615b1ab789b14c9996251fb4,650c16f0f2faf8d7a0d14c09,651c1bda5fc6eee35b061f03,null,null,"<p style=""font-size: 60px; font-family: BACS"">RdPtDbTE</p>",,,,,,,,,,
html-keyboard-response,334,788865,0.0-16.0-0.2,615b1ab789b14c9996251fb4,650c16f0f2faf8d7a0d14c09,651c1bda5fc6eee35b061f03,null,null,"<p style=""font-size: 60px; font-family: BACS"">RdPtDbTE</p>",,,,,,,,,,
html-keyboard-response,335,789895,0.0-16.0-0.3,615b1ab789b14c9996251fb4,650c16f0f2faf8d7a0d14c09,651c1bda5fc6eee35b061f03,null,null,"<p style=""font-size: 60px; font-family: BACS"">RdPtDbTE</p>",,,,,,,,,,
html-keyboard-response,336,790899,0.0-16.0-0.4,615b1ab789b14c9996251fb4,650c16f0f2faf8d7a0d14c09,651c1bda5fc6eee35b061f03,null,null,"<p style=""font-size: 60px; font-family: BACS"">RdPtDbTE</p>",,,,,,,,,,
html-keyboard-response,337,791915,0.0-16.0-0.5,615b1ab789b14c9996251fb4,650c16f0f2faf8d7a0d14c09,651c1bda5fc6eee35b061f03,null,null,"<p style=""font-size: 60px; font-family: BACS"">RdPtDbTE</p>",,,,,,,,,,
html-keyboard-response,338,792931,0.0-16.0-0.6,615b1ab789b14c9996251fb4,650c16f0f2faf8d7a0d14c09,651c1bda5fc6eee35b061f03,null,null,"<p style=""font-size: 60px; font-family: BACS"">RdPtDbTE</p>",,,,,,,,,,
html-keyboard-response,339,793947,0.0-16.0-0.7,615b1ab789b14c9996251fb4,650c16f0f2faf8d7a0d14c09,651c1bda5fc6eee35b061f03,null,null,"<p style=""font-size: 60px; font-family: BACS"">RdPtDbTE</p>",,,,,,,,,,
html-keyboard-response,340,794963,0.0-16.0-0.8,615b1ab789b14c9996251fb4,650c16f0f2faf8d7a0d14c09,651c1bda5fc6eee35b061f03,null,null,"<p style=""font-size: 60px; font-family: BACS"">RdPtDbTE</p>",,,,,,,,,,
html-keyboard-response,341,795979,0.0-16.0-0.9,615b1ab789b14c9996251fb4,650c16f0f2faf8d7a0d14c09,651c1bda5fc6eee35b061f03,null,null,"<p style=""font-size: 60px; font-family: BACS"">RdPtDbTE</p>",,,,,,,,,,
html-keyboard-response,342,796996,0.0-16.0-0.10,615b1ab789b14c9996251fb4,650c16f0f2faf8d7a0d14c09,651c1bda5fc6eee35b061f03,null,null,"<p style=""font-size: 60px; font-family: BACS"">RdPtDbTE</p>",,,,,,,,,,
html-keyboard-response,343,798013,0.0-16.0-0.11,615b1ab789b14c9996251fb4,650c16f0f2faf8d7a0d14c09,651c1bda5fc6eee35b061f03,null,null,"<p style=""font-size: 60px; font-family: BACS"">RdPtDbTE</p>",,,,,,,,,,
html-keyboard-response,344,799017,0.0-16.0-0.12,615b1ab789b14c9996251fb4,650c16f0f2faf8d7a0d14c09,651c1bda5fc6eee35b061f03,null,null,"<p style=""font-size: 60px; font-family: BACS"">RdPtDbTE</p>",,,,,,,,,,
html-keyboard-response,345,800030,0.0-16.0-0.13,615b1ab789b14c9996251fb4,650c16f0f2faf8d7a0d14c09,651c1bda5fc6eee35b061f03,null,null,"<p style=""font-size: 60px; font-family: BACS"">RdPtDbTE</p>",,,,,,,,,,
html-keyboard-response,346,801045,0.0-16.0-0.14,615b1ab789b14c9996251fb4,650c16f0f2faf8d7a0d14c09,651c1bda5fc6eee35b061f03,null,null,"<p style=""font-size: 60px; font-family: BACS"">RdPtDbTE</p>",,,,,,,,,,
html-keyboard-response,347,802064,0.0-16.0-0.15,615b1ab789b14c9996251fb4,650c16f0f2faf8d7a0d14c09,651c1bda5fc6eee35b061f03,null,null,"<p style=""font-size: 60px; font-family: BACS"">RdPtDbTE</p>",,,,,,,,,,
html-keyboard-response,348,803079,0.0-16.0-0.16,615b1ab789b14c9996251fb4,650c16f0f2faf8d7a0d14c09,651c1bda5fc6eee35b061f03,null,null,"<p style=""font-size: 60px; font-family: BACS"">RdPtDbTE</p>",,,,,,,,,,
html-keyboard-response,349,804095,0.0-16.0-0.17,615b1ab789b14c9996251fb4,650c16f0f2faf8d7a0d14c09,651c1bda5fc6eee35b061f03,null,null,"<p style=""font-size: 60px; font-family: BACS"">RdPtDbTE</p>",,,,,,,,,,
html-keyboard-response,350,805108,0.0-16.0-0.18,615b1ab789b14c9996251fb4,650c16f0f2faf8d7a0d14c09,651c1bda5fc6eee35b061f03,null,null,"<p style=""font-size: 60px; font-family: BACS"">RdPtDbTE</p>",,,,,,,,,,
html-keyboard-response,351,806113,0.0-16.0-0.19,615b1ab789b14c9996251fb4,650c16f0f2faf8d7a0d14c09,651c1bda5fc6eee35b061f03,null,null,"<p style=""font-size: 60px; font-family: BACS"">RdPtDbTE</p>",,,,,,,,,,
html-keyboard-response,352,807145,0.0-16.0-0.20,615b1ab789b14c9996251fb4,650c16f0f2faf8d7a0d14c09,651c1bda5fc6eee35b061f03,null,null,"<p style=""font-size: 60px; font-family: BACS"">RdPtDbTE</p>",,,,,,,,,,
html-keyboard-response,353,808161,0.0-16.0-0.21,615b1ab789b14c9996251fb4,650c16f0f2faf8d7a0d14c09,651c1bda5fc6eee35b061f03,null,null,"<p style=""font-size: 60px; font-family: BACS"">RdPtDbTE</p>",,,,,,,,,,
html-keyboard-response,354,809177,0.0-16.0-0.22,615b1ab789b14c9996251fb4,650c16f0f2faf8d7a0d14c09,651c1bda5fc6eee35b061f03,null,null,"<p style=""font-size: 60px; font-family: BACS"">RdPtDbTE</p>",,,,,,,,,,
html-keyboard-response,355,810180,0.0-16.0-0.23,615b1ab789b14c9996251fb4,650c16f0f2faf8d7a0d14c09,651c1bda5fc6eee35b061f03,null,null,"<p style=""font-size: 60px; font-family: BACS"">RdPtDbTE</p>",,,,,,,,,,
html-keyboard-response,356,811195,0.0-16.0-0.24,615b1ab789b14c9996251fb4,650c16f0f2faf8d7a0d14c09,651c1bda5fc6eee35b061f03,null,null,"<p style=""font-size: 60px; font-family: BACS"">RdPtDbTE</p>",,,,,,,,,,
html-keyboard-response,357,812212,0.0-16.0-0.25,615b1ab789b14c9996251fb4,650c16f0f2faf8d7a0d14c09,651c1bda5fc6eee35b061f03,null,null,"<p style=""font-size: 60px; font-family: BACS"">RdPtDbTE</p>",,,,,,,,,,
html-keyboard-response,358,813229,0.0-16.0-0.26,615b1ab789b14c9996251fb4,650c16f0f2faf8d7a0d14c09,651c1bda5fc6eee35b061f03,null,null,"<p style=""font-size: 60px; font-family: BACS"">RdPtDbTE</p>",,,,,,,,,,
html-keyboard-response,359,814244,0.0-16.0-0.27,615b1ab789b14c9996251fb4,650c16f0f2faf8d7a0d14c09,651c1bda5fc6eee35b061f03,null,null,"<p style=""font-size: 60px; font-family: BACS"">RdPtDbTE</p>",,,,,,,,,,
html-keyboard-response,360,815261,0.0-16.0-0.28,615b1ab789b14c9996251fb4,650c16f0f2faf8d7a0d14c09,651c1bda5fc6eee35b061f03,null,null,"<p style=""font-size: 60px; font-family: BACS"">RdPtDbTE</p>",,,,,,,,,,
html-keyboard-response,361,816278,0.0-16.0-0.29,615b1ab789b14c9996251fb4,650c16f0f2faf8d7a0d14c09,651c1bda5fc6eee35b061f03,null,null,"<p style=""font-size: 60px; font-family: BACS"">RdPtDbTE</p>",,,,,,,,,,
html-keyboard-response,362,817296,0.0-16.0-0.30,615b1ab789b14c9996251fb4,650c16f0f2faf8d7a0d14c09,651c1bda5fc6eee35b061f03,null,null,"<p style=""font-size: 60px; font-family: BACS"">RdPtDbTE</p>",,,,,,,,,,
html-keyboard-response,363,818304,0.0-16.0-0.31,615b1ab789b14c9996251fb4,650c16f0f2faf8d7a0d14c09,651c1bda5fc6eee35b061f03,null,null,"<p style=""font-size: 60px; font-family: BACS"">RdPtDbTE</p>",,,,,,,,,,
html-keyboard-response,364,819315,0.0-16.0-0.32,615b1ab789b14c9996251fb4,650c16f0f2faf8d7a0d14c09,651c1bda5fc6eee35b061f03,null,null,"<p style=""font-size: 60px; font-family: BACS"">RdPtDbTE</p>",,,,,,,,,,
html-keyboard-response,365,820330,0.0-16.0-0.33,615b1ab789b14c9996251fb4,650c16f0f2faf8d7a0d14c09,651c1bda5fc6eee35b061f03,null,null,"<p style=""font-size: 60px; font-family: BACS"">RdPtDbTE</p>",,,,,,,,,,
html-keyboard-response,366,821338,0.0-16.0-0.34,615b1ab789b14c9996251fb4,650c16f0f2faf8d7a0d14c09,651c1bda5fc6eee35b061f03,null,null,"<p style=""font-size: 60px; font-family: BACS"">RdPtDbTE</p>",,,,,,,,,,
html-keyboard-response,367,822345,0.0-16.0-0.35,615b1ab789b14c9996251fb4,650c16f0f2faf8d7a0d14c09,651c1bda5fc6eee35b061f03,null,null,"<p style=""font-size: 60px; font-family: BACS"">RdPtDbTE</p>",,,,,,,,,,
html-keyboard-response,368,823361,0.0-16.0-0.36,615b1ab789b14c9996251fb4,650c16f0f2faf8d7a0d14c09,651c1bda5fc6eee35b061f03,null,null,"<p style=""font-size: 60px; font-family: BACS"">RdPtDbTE</p>",,,,,,,,,,
html-keyboard-response,369,824379,0.0-16.0-0.37,615b1ab789b14c9996251fb4,650c16f0f2faf8d7a0d14c09,651c1bda5fc6eee35b061f03,null,null,"<p style=""font-size: 60px; font-family: BACS"">RdPtDbTE</p>",,,,,,,,,,
html-keyboard-response,370,825395,0.0-16.0-0.38,615b1ab789b14c9996251fb4,650c16f0f2faf8d7a0d14c09,651c1bda5fc6eee35b061f03,null,null,"<p style=""font-size: 60px; font-family: BACS"">RdPtDbTE</p>",,,,,,,,,,
html-keyboard-response,371,826412,0.0-16.0-0.39,615b1ab789b14c9996251fb4,650c16f0f2faf8d7a0d14c09,651c1bda5fc6eee35b061f03,null,null,"<p style=""font-size: 60px; font-family: BACS"">RdPtDbTE</p>",,,,,,,,,,
html-keyboard-response,372,827428,0.0-16.0-0.40,615b1ab789b14c9996251fb4,650c16f0f2faf8d7a0d14c09,651c1bda5fc6eee35b061f03,null,null,"<p style=""font-size: 60px; font-family: BACS"">RdPtDbTE</p>",,,,,,,,,,
html-keyboard-response,373,828445,0.0-16.0-0.41,615b1ab789b14c9996251fb4,650c16f0f2faf8d7a0d14c09,651c1bda5fc6eee35b061f03,null,null,"<p style=""font-size: 60px; font-family: BACS"">RdPtDbTE</p>",,,,,,,,,,
html-keyboard-response,374,829462,0.0-16.0-0.42,615b1ab789b14c9996251fb4,650c16f0f2faf8d7a0d14c09,651c1bda5fc6eee35b061f03,null,null,"<p style=""font-size: 60px; font-family: BACS"">RdPtDbTE</p>",,,,,,,,,,
html-keyboard-response,375,830477,0.0-16.0-0.43,615b1ab789b14c9996251fb4,650c16f0f2faf8d7a0d14c09,651c1bda5fc6eee35b061f03,null,null,"<p style=""font-size: 60px; font-family: BACS"">RdPtDbTE</p>",,,,,,,,,,
html-keyboard-response,376,831496,0.0-16.0-0.44,615b1ab789b14c9996251fb4,650c16f0f2faf8d7a0d14c09,651c1bda5fc6eee35b061f03,null,null,"<p style=""font-size: 60px; font-family: BACS"">RdPtDbTE</p>",,,,,,,,,,
html-keyboard-response,377,832511,0.0-16.0-0.45,615b1ab789b14c9996251fb4,650c16f0f2faf8d7a0d14c09,651c1bda5fc6eee35b061f03,null,null,"<p style=""font-size: 60px; font-family: BACS"">RdPtDbTE</p>",,,,,,,,,,
html-keyboard-response,378,833528,0.0-16.0-0.46,615b1ab789b14c9996251fb4,650c16f0f2faf8d7a0d14c09,651c1bda5fc6eee35b061f03,null,null,"<p style=""font-size: 60px; font-family: BACS"">RdPtDbTE</p>",,,,,,,,,,
html-keyboard-response,379,834544,0.0-16.0-0.47,615b1ab789b14c9996251fb4,650c16f0f2faf8d7a0d14c09,651c1bda5fc6eee35b061f03,null,null,"<p style=""font-size: 60px; font-family: BACS"">RdPtDbTE</p>",,,,,,,,,,
html-keyboard-response,380,835559,0.0-16.0-0.48,615b1ab789b14c9996251fb4,650c16f0f2faf8d7a0d14c09,651c1bda5fc6eee35b061f03,null,null,"<p style=""font-size: 60px; font-family: BACS"">RdPtDbTE</p>",,,,,,,,,,
html-keyboard-response,381,836575,0.0-16.0-0.49,615b1ab789b14c9996251fb4,650c16f0f2faf8d7a0d14c09,651c1bda5fc6eee35b061f03,null,null,"<p style=""font-size: 60px; font-family: BACS"">RdPtDbTE</p>",,,,,,,,,,
html-keyboard-response,382,837580,0.0-16.0-0.50,615b1ab789b14c9996251fb4,650c16f0f2faf8d7a0d14c09,651c1bda5fc6eee35b061f03,null,null,"<p style=""font-size: 60px; font-family: BACS"">RdPtDbTE</p>",,,,,,,,,,
html-keyboard-response,383,838594,0.0-16.0-0.51,615b1ab789b14c9996251fb4,650c16f0f2faf8d7a0d14c09,651c1bda5fc6eee35b061f03,null,null,"<p style=""font-size: 60px; font-family: BACS"">RdPtDbTE</p>",,,,,,,,,,
html-keyboard-response,384,839612,0.0-16.0-0.52,615b1ab789b14c9996251fb4,650c16f0f2faf8d7a0d14c09,651c1bda5fc6eee35b061f03,null,null,"<p style=""font-size: 60px; font-family: BACS"">RdPtDbTE</p>",,,,,,,,,,
html-keyboard-response,385,840628,0.0-16.0-0.53,615b1ab789b14c9996251fb4,650c16f0f2faf8d7a0d14c09,651c1bda5fc6eee35b061f03,null,null,"<p style=""font-size: 60px; font-family: BACS"">RdPtDbTE</p>",,,,,,,,,,
html-keyboard-response,386,841645,0.0-16.0-0.54,615b1ab789b14c9996251fb4,650c16f0f2faf8d7a0d14c09,651c1bda5fc6eee35b061f03,null,null,"<p style=""font-size: 60px; font-family: BACS"">RdPtDbTE</p>",,,,,,,,,,
html-keyboard-response,387,842660,0.0-16.0-0.55,615b1ab789b14c9996251fb4,650c16f0f2faf8d7a0d14c09,651c1bda5fc6eee35b061f03,null,null,"<p style=""font-size: 60px; font-family: BACS"">RdPtDbTE</p>",,,,,,,,,,
html-keyboard-response,388,843677,0.0-16.0-0.56,615b1ab789b14c9996251fb4,650c16f0f2faf8d7a0d14c09,651c1bda5fc6eee35b061f03,null,null,"<p style=""font-size: 60px; font-family: BACS"">RdPtDbTE</p>",,,,,,,,,,
html-keyboard-response,389,844694,0.0-16.0-0.57,615b1ab789b14c9996251fb4,650c16f0f2faf8d7a0d14c09,651c1bda5fc6eee35b061f03,null,null,"<p style=""font-size: 60px; font-family: BACS"">RdPtDbTE</p>",,,,,,,,,,
html-keyboard-response,390,845709,0.0-16.0-0.58,615b1ab789b14c9996251fb4,650c16f0f2faf8d7a0d14c09,651c1bda5fc6eee35b061f03,null,null,"<p style=""font-size: 60px; font-family: BACS"">RdPtDbTE</p>",,,,,,,,,,
html-keyboard-response,391,846733,0.0-16.0-0.59,615b1ab789b14c9996251fb4,650c16f0f2faf8d7a0d14c09,651c1bda5fc6eee35b061f03,null,null,"<p style=""font-size: 60px; font-family: BACS"">RdPtDbTE</p>",,,,,,,,,,
html-keyboard-response,392,847747,0.0-16.0-0.60,615b1ab789b14c9996251fb4,650c16f0f2faf8d7a0d14c09,651c1bda5fc6eee35b061f03,null,null,"<p style=""font-size: 60px; font-family: BACS"">RdPtDbTE</p>",,,,,,,,,,
html-keyboard-response,393,848751,0.0-16.0-0.61,615b1ab789b14c9996251fb4,650c16f0f2faf8d7a0d14c09,651c1bda5fc6eee35b061f03,null,null,"<p style=""font-size: 60px; font-family: BACS"">RdPtDbTE</p>",,,,,,,,,,
html-keyboard-response,394,849763,0.0-16.0-0.62,615b1ab789b14c9996251fb4,650c16f0f2faf8d7a0d14c09,651c1bda5fc6eee35b061f03,null,null,"<p style=""font-size: 60px; font-family: BACS"">RdPtDbTE</p>",,,,,,,,,,
html-keyboard-response,395,850765,0.0-16.0-0.63,615b1ab789b14c9996251fb4,650c16f0f2faf8d7a0d14c09,651c1bda5fc6eee35b061f03,null,null,"<p style=""font-size: 60px; font-family: BACS"">RdPtDbTE</p>",,,,,,,,,,
html-keyboard-response,396,851778,0.0-16.0-0.64,615b1ab789b14c9996251fb4,650c16f0f2faf8d7a0d14c09,651c1bda5fc6eee35b061f03,null,null,"<p style=""font-size: 60px; font-family: BACS"">RdPtDbTE</p>",,,,,,,,,,
html-keyboard-response,397,852782,0.0-16.0-0.65,615b1ab789b14c9996251fb4,650c16f0f2faf8d7a0d14c09,651c1bda5fc6eee35b061f03,null,null,"<p style=""font-size: 60px; font-family: BACS"">RdPtDbTE</p>",,,,,,,,,,
html-keyboard-response,398,853796,0.0-16.0-0.66,615b1ab789b14c9996251fb4,650c16f0f2faf8d7a0d14c09,651c1bda5fc6eee35b061f03,null,null,"<p style=""font-size: 60px; font-family: BACS"">RdPtDbTE</p>",,,,,,,,,,
html-keyboard-response,399,854800,0.0-16.0-0.67,615b1ab789b14c9996251fb4,650c16f0f2faf8d7a0d14c09,651c1bda5fc6eee35b061f03,null,null,"<p style=""font-size: 60px; font-family: BACS"">RdPtDbTE</p>",,,,,,,,,,
html-keyboard-response,400,855816,0.0-16.0-0.68,615b1ab789b14c9996251fb4,650c16f0f2faf8d7a0d14c09,651c1bda5fc6eee35b061f03,null,null,"<p style=""font-size: 60px; font-family: BACS"">RdPtDbTE</p>",,,,,,,,,,
html-keyboard-response,401,856830,0.0-16.0-0.69,615b1ab789b14c9996251fb4,650c16f0f2faf8d7a0d14c09,651c1bda5fc6eee35b061f03,null,null,"<p style=""font-size: 60px; font-family: BACS"">RdPtDbTE</p>",,,,,,,,,,
html-keyboard-response,402,857844,0.0-16.0-0.70,615b1ab789b14c9996251fb4,650c16f0f2faf8d7a0d14c09,651c1bda5fc6eee35b061f03,null,null,"<p style=""font-size: 60px; font-family: BACS"">RdPtDbTE</p>",,,,,,,,,,
html-keyboard-response,403,858853,0.0-16.0-0.71,615b1ab789b14c9996251fb4,650c16f0f2faf8d7a0d14c09,651c1bda5fc6eee35b061f03,null,null,"<p style=""font-size: 60px; font-family: BACS"">RdPtDbTE</p>",,,,,,,,,,
html-keyboard-response,404,859855,0.0-16.0-0.72,615b1ab789b14c9996251fb4,650c16f0f2faf8d7a0d14c09,651c1bda5fc6eee35b061f03,null,null,"<p style=""font-size: 60px; font-family: BACS"">RdPtDbTE</p>",,,,,,,,,,
html-keyboard-response,405,860866,0.0-16.0-0.73,615b1ab789b14c9996251fb4,650c16f0f2faf8d7a0d14c09,651c1bda5fc6eee35b061f03,null,null,"<p style=""font-size: 60px; font-family: BACS"">RdPtDbTE</p>",,,,,,,,,,
html-keyboard-response,406,861872,0.0-16.0-0.74,615b1ab789b14c9996251fb4,650c16f0f2faf8d7a0d14c09,651c1bda5fc6eee35b061f03,null,null,"<p style=""font-size: 60px; font-family: BACS"">RdPtDbTE</p>",,,,,,,,,,
html-keyboard-response,407,862880,0.0-16.0-0.75,615b1ab789b14c9996251fb4,650c16f0f2faf8d7a0d14c09,651c1bda5fc6eee35b061f03,null,null,"<p style=""font-size: 60px; font-family: BACS"">RdPtDbTE</p>",,,,,,,,,,
html-keyboard-response,408,863897,0.0-16.0-0.76,615b1ab789b14c9996251fb4,650c16f0f2faf8d7a0d14c09,651c1bda5fc6eee35b061f03,null,null,"<p style=""font-size: 60px; font-family: BACS"">RdPtDbTE</p>",,,,,,,,,,
html-keyboard-response,409,864906,0.0-16.0-0.77,615b1ab789b14c9996251fb4,650c16f0f2faf8d7a0d14c09,651c1bda5fc6eee35b061f03,null,null,"<p style=""font-size: 60px; font-family: BACS"">RdPtDbTE</p>",,,,,,,,,,
html-keyboard-response,410,865914,0.0-16.0-0.78,615b1ab789b14c9996251fb4,650c16f0f2faf8d7a0d14c09,651c1bda5fc6eee35b061f03,null,null,"<p style=""font-size: 60px; font-family: BACS"">RdPtDbTE</p>",,,,,,,,,,
html-keyboard-response,411,866931,0.0-16.0-0.79,615b1ab789b14c9996251fb4,650c16f0f2faf8d7a0d14c09,651c1bda5fc6eee35b061f03,null,null,"<p style=""font-size: 60px; font-family: BACS"">RdPtDbTE</p>",,,,,,,,,,
html-keyboard-response,412,886905,0.0-17.0,615b1ab789b14c9996251fb4,650c16f0f2faf8d7a0d14c09,651c1bda5fc6eee35b061f03,19973, ,"<p>Great, you've seen the fifth block of words. You may now take a short break.</p>
      <p>Press the spacebar when you're ready to continue.</p>",,,,,,,,,,
html-keyboard-response,413,887938,0.0-18.0-0.0,615b1ab789b14c9996251fb4,650c16f0f2faf8d7a0d14c09,651c1bda5fc6eee35b061f03,null,null,"<p style=""font-size: 60px; font-family: BACS"">kMbTRMAB</p>",,,,,,,,,,
html-keyboard-response,414,888947,0.0-18.0-0.1,615b1ab789b14c9996251fb4,650c16f0f2faf8d7a0d14c09,651c1bda5fc6eee35b061f03,null,null,"<p style=""font-size: 60px; font-family: BACS"">ZYcQUOcZJ</p>",,,,,,,,,,
html-keyboard-response,415,889964,0.0-18.0-0.2,615b1ab789b14c9996251fb4,650c16f0f2faf8d7a0d14c09,651c1bda5fc6eee35b061f03,null,null,"<p style=""font-size: 60px; font-family: BACS"">JNkaGUa</p>",,,,,,,,,,
html-keyboard-response,416,890979,0.0-18.0-0.3,615b1ab789b14c9996251fb4,650c16f0f2faf8d7a0d14c09,651c1bda5fc6eee35b061f03,null,null,"<p style=""font-size: 60px; font-family: BACS"">UdYUQcrdY</p>",,,,,,,,,,
html-keyboard-response,417,891996,0.0-18.0-0.4,615b1ab789b14c9996251fb4,650c16f0f2faf8d7a0d14c09,651c1bda5fc6eee35b061f03,null,null,"<p style=""font-size: 60px; font-family: BACS"">chEDOEPBT</p>",,,,,,,,,,
html-keyboard-response,418,893012,0.0-18.0-0.5,615b1ab789b14c9996251fb4,650c16f0f2faf8d7a0d14c09,651c1bda5fc6eee35b061f03,null,null,"<p style=""font-size: 60px; font-family: BACS"">bvuZYLU</p>",,,,,,,,,,
html-keyboard-response,419,894030,0.0-18.0-0.6,615b1ab789b14c9996251fb4,650c16f0f2faf8d7a0d14c09,651c1bda5fc6eee35b061f03,null,null,"<p style=""font-size: 60px; font-family: BACS"">kZUbJQA</p>",,,,,,,,,,
html-keyboard-response,420,895055,0.0-18.0-0.7,615b1ab789b14c9996251fb4,650c16f0f2faf8d7a0d14c09,651c1bda5fc6eee35b061f03,null,null,"<p style=""font-size: 60px; font-family: BACS"">TCbDCbTE</p>",,,,,,,,,,
html-keyboard-response,421,896062,0.0-18.0-0.8,615b1ab789b14c9996251fb4,650c16f0f2faf8d7a0d14c09,651c1bda5fc6eee35b061f03,null,null,"<p style=""font-size: 60px; font-family: BACS"">GJZmcrdY</p>",,,,,,,,,,
html-keyboard-response,422,897080,0.0-18.0-0.9,615b1ab789b14c9996251fb4,650c16f0f2faf8d7a0d14c09,651c1bda5fc6eee35b061f03,null,null,"<p style=""font-size: 60px; font-family: BACS"">TCbDCEPBT</p>",,,,,,,,,,
html-keyboard-response,423,898096,0.0-18.0-0.10,615b1ab789b14c9996251fb4,650c16f0f2faf8d7a0d14c09,651c1bda5fc6eee35b061f03,null,null,"<p style=""font-size: 60px; font-family: BACS"">TEBKPMYm</p>",,,,,,,,,,
html-keyboard-response,424,899101,0.0-18.0-0.11,615b1ab789b14c9996251fb4,650c16f0f2faf8d7a0d14c09,651c1bda5fc6eee35b061f03,null,null,"<p style=""font-size: 60px; font-family: BACS"">vuJZuGUa</p>",,,,,,,,,,
html-keyboard-response,425,900107,0.0-18.0-0.12,615b1ab789b14c9996251fb4,650c16f0f2faf8d7a0d14c09,651c1bda5fc6eee35b061f03,null,null,"<p style=""font-size: 60px; font-family: BACS"">kMbTRbTE</p>",,,,,,,,,,
html-keyboard-response,426,901113,0.0-18.0-0.13,615b1ab789b14c9996251fb4,650c16f0f2faf8d7a0d14c09,651c1bda5fc6eee35b061f03,null,null,"<p style=""font-size: 60px; font-family: BACS"">kcOYTmc</p>",,,,,,,,,,
html-keyboard-response,427,902128,0.0-18.0-0.14,615b1ab789b14c9996251fb4,650c16f0f2faf8d7a0d14c09,651c1bda5fc6eee35b061f03,null,null,"<p style=""font-size: 60px; font-family: BACS"">NaAQdcrdY</p>",,,,,,,,,,
html-keyboard-response,428,903132,0.0-18.0-0.15,615b1ab789b14c9996251fb4,650c16f0f2faf8d7a0d14c09,651c1bda5fc6eee35b061f03,null,null,"<p style=""font-size: 60px; font-family: BACS"">kZUbGUa</p>",,,,,,,,,,
html-keyboard-response,429,904145,0.0-18.0-0.16,615b1ab789b14c9996251fb4,650c16f0f2faf8d7a0d14c09,651c1bda5fc6eee35b061f03,null,null,"<p style=""font-size: 60px; font-family: BACS"">ZYcQUYLU</p>",,,,,,,,,,
html-keyboard-response,430,905163,0.0-18.0-0.17,615b1ab789b14c9996251fb4,650c16f0f2faf8d7a0d14c09,651c1bda5fc6eee35b061f03,null,null,"<p style=""font-size: 60px; font-family: BACS"">GJZmOcZJ</p>",,,,,,,,,,
html-keyboard-response,431,906178,0.0-18.0-0.18,615b1ab789b14c9996251fb4,650c16f0f2faf8d7a0d14c09,651c1bda5fc6eee35b061f03,null,null,"<p style=""font-size: 60px; font-family: BACS"">hbkdPMYm</p>",,,,,,,,,,
html-keyboard-response,432,907194,0.0-18.0-0.19,615b1ab789b14c9996251fb4,650c16f0f2faf8d7a0d14c09,651c1bda5fc6eee35b061f03,null,null,"<p style=""font-size: 60px; font-family: BACS"">TCbDCMAB</p>",,,,,,,,,,
html-keyboard-response,433,908198,0.0-18.0-0.20,615b1ab789b14c9996251fb4,650c16f0f2faf8d7a0d14c09,651c1bda5fc6eee35b061f03,null,null,"<p style=""font-size: 60px; font-family: BACS"">UdYUQOcZJ</p>",,,,,,,,,,
html-keyboard-response,434,909213,0.0-18.0-0.21,615b1ab789b14c9996251fb4,650c16f0f2faf8d7a0d14c09,651c1bda5fc6eee35b061f03,null,null,"<p style=""font-size: 60px; font-family: BACS"">DlDdTmc</p>",,,,,,,,,,
html-keyboard-response,435,910228,0.0-18.0-0.22,615b1ab789b14c9996251fb4,650c16f0f2faf8d7a0d14c09,651c1bda5fc6eee35b061f03,null,null,"<p style=""font-size: 60px; font-family: BACS"">OZkbJQA</p>",,,,,,,,,,
html-keyboard-response,436,911245,0.0-18.0-0.23,615b1ab789b14c9996251fb4,650c16f0f2faf8d7a0d14c09,651c1bda5fc6eee35b061f03,null,null,"<p style=""font-size: 60px; font-family: BACS"">NaAQdYLU</p>",,,,,,,,,,
html-keyboard-response,437,912262,0.0-18.0-0.24,615b1ab789b14c9996251fb4,650c16f0f2faf8d7a0d14c09,651c1bda5fc6eee35b061f03,null,null,"<p style=""font-size: 60px; font-family: BACS"">hbkdTmc</p>",,,,,,,,,,
html-keyboard-response,438,913279,0.0-18.0-0.25,615b1ab789b14c9996251fb4,650c16f0f2faf8d7a0d14c09,651c1bda5fc6eee35b061f03,null,null,"<p style=""font-size: 60px; font-family: BACS"">NaAQdJQA</p>",,,,,,,,,,
html-keyboard-response,439,914296,0.0-18.0-0.26,615b1ab789b14c9996251fb4,650c16f0f2faf8d7a0d14c09,651c1bda5fc6eee35b061f03,null,null,"<p style=""font-size: 60px; font-family: BACS"">GJZmYLU</p>",,,,,,,,,,
html-keyboard-response,440,915312,0.0-18.0-0.27,615b1ab789b14c9996251fb4,650c16f0f2faf8d7a0d14c09,651c1bda5fc6eee35b061f03,null,null,"<p style=""font-size: 60px; font-family: BACS"">UdYUQGUa</p>",,,,,,,,,,
html-keyboard-response,441,916330,0.0-18.0-0.28,615b1ab789b14c9996251fb4,650c16f0f2faf8d7a0d14c09,651c1bda5fc6eee35b061f03,null,null,"<p style=""font-size: 60px; font-family: BACS"">AlTdMAB</p>",,,,,,,,,,
html-keyboard-response,442,917346,0.0-18.0-0.29,615b1ab789b14c9996251fb4,650c16f0f2faf8d7a0d14c09,651c1bda5fc6eee35b061f03,null,null,"<p style=""font-size: 60px; font-family: BACS"">OZkbOcZJ</p>",,,,,,,,,,
html-keyboard-response,443,918361,0.0-18.0-0.30,615b1ab789b14c9996251fb4,650c16f0f2faf8d7a0d14c09,651c1bda5fc6eee35b061f03,null,null,"<p style=""font-size: 60px; font-family: BACS"">NaAQdGUa</p>",,,,,,,,,,
html-keyboard-response,444,919377,0.0-18.0-0.31,615b1ab789b14c9996251fb4,650c16f0f2faf8d7a0d14c09,651c1bda5fc6eee35b061f03,null,null,"<p style=""font-size: 60px; font-family: BACS"">kcOYEPBT</p>",,,,,,,,,,
html-keyboard-response,445,920395,0.0-18.0-0.32,615b1ab789b14c9996251fb4,650c16f0f2faf8d7a0d14c09,651c1bda5fc6eee35b061f03,null,null,"<p style=""font-size: 60px; font-family: BACS"">RdPtDPMYm</p>",,,,,,,,,,
html-keyboard-response,446,921411,0.0-18.0-0.33,615b1ab789b14c9996251fb4,650c16f0f2faf8d7a0d14c09,651c1bda5fc6eee35b061f03,null,null,"<p style=""font-size: 60px; font-family: BACS"">TEBKTmc</p>",,,,,,,,,,
html-keyboard-response,447,922427,0.0-18.0-0.34,615b1ab789b14c9996251fb4,650c16f0f2faf8d7a0d14c09,651c1bda5fc6eee35b061f03,null,null,"<p style=""font-size: 60px; font-family: BACS"">GumLlOcZJ</p>",,,,,,,,,,
html-keyboard-response,448,923444,0.0-18.0-0.35,615b1ab789b14c9996251fb4,650c16f0f2faf8d7a0d14c09,651c1bda5fc6eee35b061f03,null,null,"<p style=""font-size: 60px; font-family: BACS"">RdPtDMAB</p>",,,,,,,,,,
html-keyboard-response,449,924462,0.0-18.0-0.36,615b1ab789b14c9996251fb4,650c16f0f2faf8d7a0d14c09,651c1bda5fc6eee35b061f03,null,null,"<p style=""font-size: 60px; font-family: BACS"">GumLlcrdY</p>",,,,,,,,,,
html-keyboard-response,450,925467,0.0-18.0-0.37,615b1ab789b14c9996251fb4,650c16f0f2faf8d7a0d14c09,651c1bda5fc6eee35b061f03,null,null,"<p style=""font-size: 60px; font-family: BACS"">RdPtDTmc</p>",,,,,,,,,,
html-keyboard-response,451,926478,0.0-18.0-0.38,615b1ab789b14c9996251fb4,650c16f0f2faf8d7a0d14c09,651c1bda5fc6eee35b061f03,null,null,"<p style=""font-size: 60px; font-family: BACS"">AlTdEPBT</p>",,,,,,,,,,
html-keyboard-response,452,927494,0.0-18.0-0.39,615b1ab789b14c9996251fb4,650c16f0f2faf8d7a0d14c09,651c1bda5fc6eee35b061f03,null,null,"<p style=""font-size: 60px; font-family: BACS"">vuJZucrdY</p>",,,,,,,,,,
html-keyboard-response,453,928512,0.0-18.0-0.40,615b1ab789b14c9996251fb4,650c16f0f2faf8d7a0d14c09,651c1bda5fc6eee35b061f03,null,null,"<p style=""font-size: 60px; font-family: BACS"">bvuZJQA</p>",,,,,,,,,,
html-keyboard-response,454,929527,0.0-18.0-0.41,615b1ab789b14c9996251fb4,650c16f0f2faf8d7a0d14c09,651c1bda5fc6eee35b061f03,null,null,"<p style=""font-size: 60px; font-family: BACS"">OZkbGUa</p>",,,,,,,,,,
html-keyboard-response,455,930529,0.0-18.0-0.42,615b1ab789b14c9996251fb4,650c16f0f2faf8d7a0d14c09,651c1bda5fc6eee35b061f03,null,null,"<p style=""font-size: 60px; font-family: BACS"">vuJZuJQA</p>",,,,,,,,,,
html-keyboard-response,456,931554,0.0-18.0-0.43,615b1ab789b14c9996251fb4,650c16f0f2faf8d7a0d14c09,651c1bda5fc6eee35b061f03,null,null,"<p style=""font-size: 60px; font-family: BACS"">McMDbTE</p>",,,,,,,,,,
html-keyboard-response,457,932561,0.0-18.0-0.44,615b1ab789b14c9996251fb4,650c16f0f2faf8d7a0d14c09,651c1bda5fc6eee35b061f03,null,null,"<p style=""font-size: 60px; font-family: BACS"">kZUbcrdY</p>",,,,,,,,,,
html-keyboard-response,458,933565,0.0-18.0-0.45,615b1ab789b14c9996251fb4,650c16f0f2faf8d7a0d14c09,651c1bda5fc6eee35b061f03,null,null,"<p style=""font-size: 60px; font-family: BACS"">GumLlYLU</p>",,,,,,,,,,
html-keyboard-response,459,934577,0.0-18.0-0.46,615b1ab789b14c9996251fb4,650c16f0f2faf8d7a0d14c09,651c1bda5fc6eee35b061f03,null,null,"<p style=""font-size: 60px; font-family: BACS"">DlDdMAB</p>",,,,,,,,,,
html-keyboard-response,460,935581,0.0-18.0-0.47,615b1ab789b14c9996251fb4,650c16f0f2faf8d7a0d14c09,651c1bda5fc6eee35b061f03,null,null,"<p style=""font-size: 60px; font-family: BACS"">OZkbYLU</p>",,,,,,,,,,
html-keyboard-response,461,936594,0.0-18.0-0.48,615b1ab789b14c9996251fb4,650c16f0f2faf8d7a0d14c09,651c1bda5fc6eee35b061f03,null,null,"<p style=""font-size: 60px; font-family: BACS"">DlDdEPBT</p>",,,,,,,,,,
html-keyboard-response,462,937599,0.0-18.0-0.49,615b1ab789b14c9996251fb4,650c16f0f2faf8d7a0d14c09,651c1bda5fc6eee35b061f03,null,null,"<p style=""font-size: 60px; font-family: BACS"">bvuZcrdY</p>",,,,,,,,,,
html-keyboard-response,463,938611,0.0-18.0-0.50,615b1ab789b14c9996251fb4,650c16f0f2faf8d7a0d14c09,651c1bda5fc6eee35b061f03,null,null,"<p style=""font-size: 60px; font-family: BACS"">TCbDCTmc</p>",,,,,,,,,,
html-keyboard-response,464,939629,0.0-18.0-0.51,615b1ab789b14c9996251fb4,650c16f0f2faf8d7a0d14c09,651c1bda5fc6eee35b061f03,null,null,"<p style=""font-size: 60px; font-family: BACS"">JNkacrdY</p>",,,,,,,,,,
html-keyboard-response,465,940643,0.0-18.0-0.52,615b1ab789b14c9996251fb4,650c16f0f2faf8d7a0d14c09,651c1bda5fc6eee35b061f03,null,null,"<p style=""font-size: 60px; font-family: BACS"">RdPtDbTE</p>",,,,,,,,,,
