trial_type,trial_index,time_elapsed,internal_node_id,subject_id,study_id,session_id,rt,response,stimulus,success,item,task,correct_response,testing_condition,correct,target,confound,name,view_history
pavlovia,0,627,0.0-0.0,5f33c58329beab1f63c0dfaa,650c16f0f2faf8d7a0d14c09,651c1ce9bca7d9252c87b257,,,,,,,,,,,,,
survey-html-form,1,5765,0.0-1.0,5f33c58329beab1f63c0dfaa,650c16f0f2faf8d7a0d14c09,651c1ce9bca7d9252c87b257,5137,"{""ID"":""5f33c58329beab1f63c0dfaa""}",,,,,,,,,,,
html-keyboard-response,2,14706,0.0-2.0,5f33c58329beab1f63c0dfaa,650c16f0f2faf8d7a0d14c09,651c1ce9bca7d9252c87b257,8940, ,"<p style=""font-size: 15px;"">Before beginning, we ask that you read the consent information and confirm your agreement to participate in the experiment.</p>
      <p style=""font-size: 15px;""> We ask that you remember that this is a research project and that your participation is entirely voluntary. You can stop your participation at any time, without needing to provide any explanation. The study we're asking you to participate in aims at examining how readers process written words. You will be engaged in a session of apprximately 20 minutes, followed by a brief questionnaire. You will have the opportunity to take a few breaks during the experiment. You will be paid £4 for your participation, corresponding to a rate of £8/hour. While this experiment looks at cognitive faculties, this experiment doesn't constitute clinical proof of eventual pathologies.</p>
      <p style=""font-size: 15px;"">All of the information collected thanks to yours and others' participation will be held in a secure password-protected server, and will not be shared with anyone not authorised to view it. Your personal information will be kept with an arbitrary participant ID. Thanks to this data anonymity process, any researcher analysing the data won't be able to track the information back to a specific participant. Therefore, this process will make identifying you impossibile, even when results from the study will be published in scientific reviews, presented at congresses, or at any other public forum. More generally, the collected data will be treated in accordance with the laws on privacy and conformity to the Legislative Degree n. 196 ""Code regarding the protection of personal data"" of the 30th of June 2003 and to the European Regulation 2016/670 (General Data Protection Regulation - GDPR). The Data Protection Officer is Avv. Valentina Carollo, who can be contacted at the following email addresses: <a href=""mailto:dpo@sissa.it"">dpo@sissa.it</a> or <a href=""mailto:rpd@sissa.it"">rpd@sissa.it</a> - PEC: <a href=""mailto:protocollo@pec.sissa.it"">protocollo@pec.sissa.it</a>.</p>
      <p style=""font-size: 15px;""> Before expressing your consent to participate, we would like to remind you again that in case you need explanations on any aspect of the experimental procedure, the researcher is at your disposition (<a href=""mailto:aliebelt@sissa.it"">aliebelt@sissa.it</a>, <a href=""mailto:davide.crepaldi@sissa.it"">davide.crepaldi@sissa.it</a>).</p>
      <p style=""font-size: 15px;"">If you would like to download the informed consent form, you can do so here: <a href=""BASL-Informed_Consent.pdf"" download>informed consent form</a>.</p>
      <p style=""font-size: 15px;"">We ask that you press the spacebar to proceed to the consent section.</p>",,,,,,,,,,
survey-html-form,3,34521,0.0-3.0,5f33c58329beab1f63c0dfaa,650c16f0f2faf8d7a0d14c09,651c1ce9bca7d9252c87b257,19814,"{""consent1"":""YES"",""consent2"":""YES"",""consent3"":""YES"",""consent4"":""YES"",""consent5"":""YES"",""consent6"":""YES""}",,,,,,,,,,,
fullscreen,4,40207,0.0-4.0,5f33c58329beab1f63c0dfaa,650c16f0f2faf8d7a0d14c09,651c1ce9bca7d9252c87b257,,,,TRUE,,,,,,,,,
html-keyboard-response,5,56470,0.0-5.0,5f33c58329beab1f63c0dfaa,650c16f0f2faf8d7a0d14c09,651c1ce9bca7d9252c87b257,16263, ,"<p>Welcome, and thank you very much for your time!</p>
      <p>In this experiment, you'll be a language expert who's been asked to take a look at words that Earth has received in its first communication with aliens. Your task, in this first part of the experiment, is to pay close attention to the words you'll be shown; later, world leaders will ask you questions on what you saw. The words will be shown to you quite quickly; it seems that the aliens were in a hurry :-)</p>
      <p>Press the spacebar to continue.<p>",,,,,,,,,,
html-keyboard-response,6,56528,0.0-6.0,5f33c58329beab1f63c0dfaa,650c16f0f2faf8d7a0d14c09,651c1ce9bca7d9252c87b257,null,null,"<p style=""font-size: 120px; font-family: BACS""> </p>",,,,,,,,,,
html-keyboard-response,7,70556,0.0-7.0,5f33c58329beab1f63c0dfaa,650c16f0f2faf8d7a0d14c09,651c1ce9bca7d9252c87b257,14027, ,"<p>Here is an example of the words you'll see:</p>
      <img src='esempio.png' height='400px'>
      <p>When you're ready to begin, press the spacebar.</p></div>",,,,,,,,,,
html-keyboard-response,8,71571,0.0-8.0-0.0,5f33c58329beab1f63c0dfaa,650c16f0f2faf8d7a0d14c09,651c1ce9bca7d9252c87b257,null,null,"<p style=""font-size: 60px; font-family: BACS"">mhtcOPE</p>",,,,,,,,,,
html-keyboard-response,9,72587,0.0-8.0-0.1,5f33c58329beab1f63c0dfaa,650c16f0f2faf8d7a0d14c09,651c1ce9bca7d9252c87b257,null,null,"<p style=""font-size: 60px; font-family: BACS"">YJLcAlvk</p>",,,,,,,,,,
html-keyboard-response,10,73589,0.0-8.0-0.2,5f33c58329beab1f63c0dfaa,650c16f0f2faf8d7a0d14c09,651c1ce9bca7d9252c87b257,null,null,"<p style=""font-size: 60px; font-family: BACS"">tKDmhKOYC</p>",,,,,,,,,,
html-keyboard-response,11,74591,0.0-8.0-0.3,5f33c58329beab1f63c0dfaa,650c16f0f2faf8d7a0d14c09,651c1ce9bca7d9252c87b257,null,null,"<p style=""font-size: 60px; font-family: BACS"">dvNvAcrdY</p>",,,,,,,,,,
html-keyboard-response,12,75605,0.0-8.0-0.4,5f33c58329beab1f63c0dfaa,650c16f0f2faf8d7a0d14c09,651c1ce9bca7d9252c87b257,null,null,"<p style=""font-size: 60px; font-family: BACS"">YJLcAJZr</p>",,,,,,,,,,
html-keyboard-response,13,76619,0.0-8.0-0.5,5f33c58329beab1f63c0dfaa,650c16f0f2faf8d7a0d14c09,651c1ce9bca7d9252c87b257,null,null,"<p style=""font-size: 60px; font-family: BACS"">bROCBYhT</p>",,,,,,,,,,
html-keyboard-response,14,77635,0.0-8.0-0.6,5f33c58329beab1f63c0dfaa,650c16f0f2faf8d7a0d14c09,651c1ce9bca7d9252c87b257,null,null,"<p style=""font-size: 60px; font-family: BACS"">NAacQGrbk</p>",,,,,,,,,,
html-keyboard-response,15,78649,0.0-8.0-0.7,5f33c58329beab1f63c0dfaa,650c16f0f2faf8d7a0d14c09,651c1ce9bca7d9252c87b257,null,null,"<p style=""font-size: 60px; font-family: BACS"">aYQmlvk</p>",,,,,,,,,,
html-keyboard-response,16,79663,0.0-8.0-0.8,5f33c58329beab1f63c0dfaa,650c16f0f2faf8d7a0d14c09,651c1ce9bca7d9252c87b257,null,null,"<p style=""font-size: 60px; font-family: BACS"">NAacQUZu</p>",,,,,,,,,,
html-keyboard-response,17,80665,0.0-8.0-0.9,5f33c58329beab1f63c0dfaa,650c16f0f2faf8d7a0d14c09,651c1ce9bca7d9252c87b257,null,null,"<p style=""font-size: 60px; font-family: BACS"">OAmGrcrdY</p>",,,,,,,,,,
html-keyboard-response,18,81679,0.0-8.0-0.10,5f33c58329beab1f63c0dfaa,650c16f0f2faf8d7a0d14c09,651c1ce9bca7d9252c87b257,null,null,"<p style=""font-size: 60px; font-family: BACS"">rLaZGrbk</p>",,,,,,,,,,
html-keyboard-response,19,82694,0.0-8.0-0.11,5f33c58329beab1f63c0dfaa,650c16f0f2faf8d7a0d14c09,651c1ce9bca7d9252c87b257,null,null,"<p style=""font-size: 60px; font-family: BACS"">DBPhcPMYm</p>",,,,,,,,,,
html-keyboard-response,20,83707,0.0-8.0-0.12,5f33c58329beab1f63c0dfaa,650c16f0f2faf8d7a0d14c09,651c1ce9bca7d9252c87b257,null,null,"<p style=""font-size: 60px; font-family: BACS"">GLluAcrdY</p>",,,,,,,,,,
html-keyboard-response,21,84718,0.0-8.0-0.13,5f33c58329beab1f63c0dfaa,650c16f0f2faf8d7a0d14c09,651c1ce9bca7d9252c87b257,null,null,"<p style=""font-size: 60px; font-family: BACS"">OJGQUZu</p>",,,,,,,,,,
html-keyboard-response,22,85720,0.0-8.0-0.14,5f33c58329beab1f63c0dfaa,650c16f0f2faf8d7a0d14c09,651c1ce9bca7d9252c87b257,null,null,"<p style=""font-size: 60px; font-family: BACS"">DBPhcKOYC</p>",,,,,,,,,,
html-keyboard-response,23,86721,0.0-8.0-0.15,5f33c58329beab1f63c0dfaa,650c16f0f2faf8d7a0d14c09,651c1ce9bca7d9252c87b257,null,null,"<p style=""font-size: 60px; font-family: BACS"">GLluAUZu</p>",,,,,,,,,,
html-keyboard-response,24,87732,0.0-8.0-0.16,5f33c58329beab1f63c0dfaa,650c16f0f2faf8d7a0d14c09,651c1ce9bca7d9252c87b257,null,null,"<p style=""font-size: 60px; font-family: BACS"">PctRCOYK</p>",,,,,,,,,,
html-keyboard-response,25,88740,0.0-8.0-0.17,5f33c58329beab1f63c0dfaa,650c16f0f2faf8d7a0d14c09,651c1ce9bca7d9252c87b257,null,null,"<p style=""font-size: 60px; font-family: BACS"">bROCOPE</p>",,,,,,,,,,
html-keyboard-response,26,89745,0.0-8.0-0.18,5f33c58329beab1f63c0dfaa,650c16f0f2faf8d7a0d14c09,651c1ce9bca7d9252c87b257,null,null,"<p style=""font-size: 60px; font-family: BACS"">tKDmhBYhT</p>",,,,,,,,,,
html-keyboard-response,27,90748,0.0-8.0-0.19,5f33c58329beab1f63c0dfaa,650c16f0f2faf8d7a0d14c09,651c1ce9bca7d9252c87b257,null,null,"<p style=""font-size: 60px; font-family: BACS"">OJGQJZr</p>",,,,,,,,,,
html-keyboard-response,28,91762,0.0-8.0-0.20,5f33c58329beab1f63c0dfaa,650c16f0f2faf8d7a0d14c09,651c1ce9bca7d9252c87b257,null,null,"<p style=""font-size: 60px; font-family: BACS"">CDEmYOYK</p>",,,,,,,,,,
html-keyboard-response,29,92775,0.0-8.0-0.21,5f33c58329beab1f63c0dfaa,650c16f0f2faf8d7a0d14c09,651c1ce9bca7d9252c87b257,null,null,"<p style=""font-size: 60px; font-family: BACS"">ZNLOvlvk</p>",,,,,,,,,,
html-keyboard-response,30,93790,0.0-8.0-0.22,5f33c58329beab1f63c0dfaa,650c16f0f2faf8d7a0d14c09,651c1ce9bca7d9252c87b257,null,null,"<p style=""font-size: 60px; font-family: BACS"">DOBhYBYhT</p>",,,,,,,,,,
html-keyboard-response,31,94802,0.0-8.0-0.23,5f33c58329beab1f63c0dfaa,650c16f0f2faf8d7a0d14c09,651c1ce9bca7d9252c87b257,null,null,"<p style=""font-size: 60px; font-family: BACS"">DBPhcOYK</p>",,,,,,,,,,
html-keyboard-response,32,95804,0.0-8.0-0.24,5f33c58329beab1f63c0dfaa,650c16f0f2faf8d7a0d14c09,651c1ce9bca7d9252c87b257,null,null,"<p style=""font-size: 60px; font-family: BACS"">ZNLOvGrbk</p>",,,,,,,,,,
html-keyboard-response,33,96818,0.0-8.0-0.25,5f33c58329beab1f63c0dfaa,650c16f0f2faf8d7a0d14c09,651c1ce9bca7d9252c87b257,null,null,"<p style=""font-size: 60px; font-family: BACS"">bROCOYK</p>",,,,,,,,,,
html-keyboard-response,34,97832,0.0-8.0-0.26,5f33c58329beab1f63c0dfaa,650c16f0f2faf8d7a0d14c09,651c1ce9bca7d9252c87b257,null,null,"<p style=""font-size: 60px; font-family: BACS"">dvNvAUZu</p>",,,,,,,,,,
html-keyboard-response,35,98843,0.0-8.0-0.27,5f33c58329beab1f63c0dfaa,650c16f0f2faf8d7a0d14c09,651c1ce9bca7d9252c87b257,null,null,"<p style=""font-size: 60px; font-family: BACS"">tKDmhOPE</p>",,,,,,,,,,
html-keyboard-response,36,99854,0.0-8.0-0.28,5f33c58329beab1f63c0dfaa,650c16f0f2faf8d7a0d14c09,651c1ce9bca7d9252c87b257,null,null,"<p style=""font-size: 60px; font-family: BACS"">adkrJZr</p>",,,,,,,,,,
html-keyboard-response,37,100857,0.0-8.0-0.29,5f33c58329beab1f63c0dfaa,650c16f0f2faf8d7a0d14c09,651c1ce9bca7d9252c87b257,null,null,"<p style=""font-size: 60px; font-family: BACS"">bROCPMYm</p>",,,,,,,,,,
html-keyboard-response,38,101862,0.0-8.0-0.30,5f33c58329beab1f63c0dfaa,650c16f0f2faf8d7a0d14c09,651c1ce9bca7d9252c87b257,null,null,"<p style=""font-size: 60px; font-family: BACS"">rLaZlvk</p>",,,,,,,,,,
html-keyboard-response,39,102865,0.0-8.0-0.31,5f33c58329beab1f63c0dfaa,650c16f0f2faf8d7a0d14c09,651c1ce9bca7d9252c87b257,null,null,"<p style=""font-size: 60px; font-family: BACS"">ZNLOvUZu</p>",,,,,,,,,,
html-keyboard-response,40,103879,0.0-8.0-0.32,5f33c58329beab1f63c0dfaa,650c16f0f2faf8d7a0d14c09,651c1ce9bca7d9252c87b257,null,null,"<p style=""font-size: 60px; font-family: BACS"">tRdMPMYm</p>",,,,,,,,,,
html-keyboard-response,41,104886,0.0-8.0-0.33,5f33c58329beab1f63c0dfaa,650c16f0f2faf8d7a0d14c09,651c1ce9bca7d9252c87b257,null,null,"<p style=""font-size: 60px; font-family: BACS"">OAmGrUZu</p>",,,,,,,,,,
html-keyboard-response,42,105903,0.0-8.0-0.34,5f33c58329beab1f63c0dfaa,650c16f0f2faf8d7a0d14c09,651c1ce9bca7d9252c87b257,null,null,"<p style=""font-size: 60px; font-family: BACS"">dvNvAJZr</p>",,,,,,,,,,
html-keyboard-response,43,106919,0.0-8.0-0.35,5f33c58329beab1f63c0dfaa,650c16f0f2faf8d7a0d14c09,651c1ce9bca7d9252c87b257,null,null,"<p style=""font-size: 60px; font-family: BACS"">DOBhYPMYm</p>",,,,,,,,,,
html-keyboard-response,44,107921,0.0-8.0-0.36,5f33c58329beab1f63c0dfaa,650c16f0f2faf8d7a0d14c09,651c1ce9bca7d9252c87b257,null,null,"<p style=""font-size: 60px; font-family: BACS"">mhtcOYK</p>",,,,,,,,,,
html-keyboard-response,45,108925,0.0-8.0-0.37,5f33c58329beab1f63c0dfaa,650c16f0f2faf8d7a0d14c09,651c1ce9bca7d9252c87b257,null,null,"<p style=""font-size: 60px; font-family: BACS"">NAacQlvk</p>",,,,,,,,,,
html-keyboard-response,46,109936,0.0-8.0-0.38,5f33c58329beab1f63c0dfaa,650c16f0f2faf8d7a0d14c09,651c1ce9bca7d9252c87b257,null,null,"<p style=""font-size: 60px; font-family: BACS"">DBPhcBYhT</p>",,,,,,,,,,
html-keyboard-response,47,110951,0.0-8.0-0.39,5f33c58329beab1f63c0dfaa,650c16f0f2faf8d7a0d14c09,651c1ce9bca7d9252c87b257,null,null,"<p style=""font-size: 60px; font-family: BACS"">mhtcPMYm</p>",,,,,,,,,,
html-keyboard-response,48,111954,0.0-8.0-0.40,5f33c58329beab1f63c0dfaa,650c16f0f2faf8d7a0d14c09,651c1ce9bca7d9252c87b257,null,null,"<p style=""font-size: 60px; font-family: BACS"">DOBhYOPE</p>",,,,,,,,,,
html-keyboard-response,49,112968,0.0-8.0-0.41,5f33c58329beab1f63c0dfaa,650c16f0f2faf8d7a0d14c09,651c1ce9bca7d9252c87b257,null,null,"<p style=""font-size: 60px; font-family: BACS"">TbKMEPMYm</p>",,,,,,,,,,
html-keyboard-response,50,113981,0.0-8.0-0.42,5f33c58329beab1f63c0dfaa,650c16f0f2faf8d7a0d14c09,651c1ce9bca7d9252c87b257,null,null,"<p style=""font-size: 60px; font-family: BACS"">NAacQJZr</p>",,,,,,,,,,
html-keyboard-response,51,114992,0.0-8.0-0.43,5f33c58329beab1f63c0dfaa,650c16f0f2faf8d7a0d14c09,651c1ce9bca7d9252c87b257,null,null,"<p style=""font-size: 60px; font-family: BACS"">tKDmhPMYm</p>",,,,,,,,,,
html-keyboard-response,52,115995,0.0-8.0-0.44,5f33c58329beab1f63c0dfaa,650c16f0f2faf8d7a0d14c09,651c1ce9bca7d9252c87b257,null,null,"<p style=""font-size: 60px; font-family: BACS"">tRdMKOYC</p>",,,,,,,,,,
html-keyboard-response,53,117006,0.0-8.0-0.45,5f33c58329beab1f63c0dfaa,650c16f0f2faf8d7a0d14c09,651c1ce9bca7d9252c87b257,null,null,"<p style=""font-size: 60px; font-family: BACS"">aYQmUZu</p>",,,,,,,,,,
html-keyboard-response,54,118007,0.0-8.0-0.46,5f33c58329beab1f63c0dfaa,650c16f0f2faf8d7a0d14c09,651c1ce9bca7d9252c87b257,null,null,"<p style=""font-size: 60px; font-family: BACS"">OJGQGrbk</p>",,,,,,,,,,
html-keyboard-response,55,119012,0.0-8.0-0.47,5f33c58329beab1f63c0dfaa,650c16f0f2faf8d7a0d14c09,651c1ce9bca7d9252c87b257,null,null,"<p style=""font-size: 60px; font-family: BACS"">RhPmOYK</p>",,,,,,,,,,
html-keyboard-response,56,120026,0.0-8.0-0.48,5f33c58329beab1f63c0dfaa,650c16f0f2faf8d7a0d14c09,651c1ce9bca7d9252c87b257,null,null,"<p style=""font-size: 60px; font-family: BACS"">aYQmGrbk</p>",,,,,,,,,,
html-keyboard-response,57,121042,0.0-8.0-0.49,5f33c58329beab1f63c0dfaa,650c16f0f2faf8d7a0d14c09,651c1ce9bca7d9252c87b257,null,null,"<p style=""font-size: 60px; font-family: BACS"">PctRCOPE</p>",,,,,,,,,,
html-keyboard-response,58,122044,0.0-8.0-0.50,5f33c58329beab1f63c0dfaa,650c16f0f2faf8d7a0d14c09,651c1ce9bca7d9252c87b257,null,null,"<p style=""font-size: 60px; font-family: BACS"">RhPmBYhT</p>",,,,,,,,,,
html-keyboard-response,59,123050,0.0-8.0-0.51,5f33c58329beab1f63c0dfaa,650c16f0f2faf8d7a0d14c09,651c1ce9bca7d9252c87b257,null,null,"<p style=""font-size: 60px; font-family: BACS"">adkrGrbk</p>",,,,,,,,,,
html-keyboard-response,60,124064,0.0-8.0-0.52,5f33c58329beab1f63c0dfaa,650c16f0f2faf8d7a0d14c09,651c1ce9bca7d9252c87b257,null,null,"<p style=""font-size: 60px; font-family: BACS"">GLluAJZr</p>",,,,,,,,,,
html-keyboard-response,61,125080,0.0-8.0-0.53,5f33c58329beab1f63c0dfaa,650c16f0f2faf8d7a0d14c09,651c1ce9bca7d9252c87b257,null,null,"<p style=""font-size: 60px; font-family: BACS"">TbKMEKOYC</p>",,,,,,,,,,
html-keyboard-response,62,126082,0.0-8.0-0.54,5f33c58329beab1f63c0dfaa,650c16f0f2faf8d7a0d14c09,651c1ce9bca7d9252c87b257,null,null,"<p style=""font-size: 60px; font-family: BACS"">OAmGrJZr</p>",,,,,,,,,,
html-keyboard-response,63,127098,0.0-8.0-0.55,5f33c58329beab1f63c0dfaa,650c16f0f2faf8d7a0d14c09,651c1ce9bca7d9252c87b257,null,null,"<p style=""font-size: 60px; font-family: BACS"">DOBhYOYK</p>",,,,,,,,,,
html-keyboard-response,64,128107,0.0-8.0-0.56,5f33c58329beab1f63c0dfaa,650c16f0f2faf8d7a0d14c09,651c1ce9bca7d9252c87b257,null,null,"<p style=""font-size: 60px; font-family: BACS"">OAmGrlvk</p>",,,,,,,,,,
html-keyboard-response,65,129122,0.0-8.0-0.57,5f33c58329beab1f63c0dfaa,650c16f0f2faf8d7a0d14c09,651c1ce9bca7d9252c87b257,null,null,"<p style=""font-size: 60px; font-family: BACS"">PctRCBYhT</p>",,,,,,,,,,
html-keyboard-response,66,130132,0.0-8.0-0.58,5f33c58329beab1f63c0dfaa,650c16f0f2faf8d7a0d14c09,651c1ce9bca7d9252c87b257,null,null,"<p style=""font-size: 60px; font-family: BACS"">OJGQcrdY</p>",,,,,,,,,,
html-keyboard-response,67,131135,0.0-8.0-0.59,5f33c58329beab1f63c0dfaa,650c16f0f2faf8d7a0d14c09,651c1ce9bca7d9252c87b257,null,null,"<p style=""font-size: 60px; font-family: BACS"">CDEmYOPE</p>",,,,,,,,,,
html-keyboard-response,68,132137,0.0-8.0-0.60,5f33c58329beab1f63c0dfaa,650c16f0f2faf8d7a0d14c09,651c1ce9bca7d9252c87b257,null,null,"<p style=""font-size: 60px; font-family: BACS"">RhPmKOYC</p>",,,,,,,,,,
html-keyboard-response,69,133140,0.0-8.0-0.61,5f33c58329beab1f63c0dfaa,650c16f0f2faf8d7a0d14c09,651c1ce9bca7d9252c87b257,null,null,"<p style=""font-size: 60px; font-family: BACS"">CDEmYPMYm</p>",,,,,,,,,,
html-keyboard-response,70,134155,0.0-8.0-0.62,5f33c58329beab1f63c0dfaa,650c16f0f2faf8d7a0d14c09,651c1ce9bca7d9252c87b257,null,null,"<p style=""font-size: 60px; font-family: BACS"">YJLcAcrdY</p>",,,,,,,,,,
html-keyboard-response,71,135158,0.0-8.0-0.63,5f33c58329beab1f63c0dfaa,650c16f0f2faf8d7a0d14c09,651c1ce9bca7d9252c87b257,null,null,"<p style=""font-size: 60px; font-family: BACS"">RhPmOPE</p>",,,,,,,,,,
html-keyboard-response,72,136165,0.0-8.0-0.64,5f33c58329beab1f63c0dfaa,650c16f0f2faf8d7a0d14c09,651c1ce9bca7d9252c87b257,null,null,"<p style=""font-size: 60px; font-family: BACS"">GLluAlvk</p>",,,,,,,,,,
html-keyboard-response,73,137179,0.0-8.0-0.65,5f33c58329beab1f63c0dfaa,650c16f0f2faf8d7a0d14c09,651c1ce9bca7d9252c87b257,null,null,"<p style=""font-size: 60px; font-family: BACS"">rLaZUZu</p>",,,,,,,,,,
html-keyboard-response,74,138192,0.0-8.0-0.66,5f33c58329beab1f63c0dfaa,650c16f0f2faf8d7a0d14c09,651c1ce9bca7d9252c87b257,null,null,"<p style=""font-size: 60px; font-family: BACS"">adkrcrdY</p>",,,,,,,,,,
html-keyboard-response,75,139205,0.0-8.0-0.67,5f33c58329beab1f63c0dfaa,650c16f0f2faf8d7a0d14c09,651c1ce9bca7d9252c87b257,null,null,"<p style=""font-size: 60px; font-family: BACS"">rLaZJZr</p>",,,,,,,,,,
html-keyboard-response,76,140216,0.0-8.0-0.68,5f33c58329beab1f63c0dfaa,650c16f0f2faf8d7a0d14c09,651c1ce9bca7d9252c87b257,null,null,"<p style=""font-size: 60px; font-family: BACS"">TbKMEBYhT</p>",,,,,,,,,,
html-keyboard-response,77,141217,0.0-8.0-0.69,5f33c58329beab1f63c0dfaa,650c16f0f2faf8d7a0d14c09,651c1ce9bca7d9252c87b257,null,null,"<p style=""font-size: 60px; font-family: BACS"">adkrlvk</p>",,,,,,,,,,
html-keyboard-response,78,142227,0.0-8.0-0.70,5f33c58329beab1f63c0dfaa,650c16f0f2faf8d7a0d14c09,651c1ce9bca7d9252c87b257,null,null,"<p style=""font-size: 60px; font-family: BACS"">PctRCKOYC</p>",,,,,,,,,,
html-keyboard-response,79,143228,0.0-8.0-0.71,5f33c58329beab1f63c0dfaa,650c16f0f2faf8d7a0d14c09,651c1ce9bca7d9252c87b257,null,null,"<p style=""font-size: 60px; font-family: BACS"">aYQmcrdY</p>",,,,,,,,,,
html-keyboard-response,80,144229,0.0-8.0-0.72,5f33c58329beab1f63c0dfaa,650c16f0f2faf8d7a0d14c09,651c1ce9bca7d9252c87b257,null,null,"<p style=""font-size: 60px; font-family: BACS"">CDEmYKOYC</p>",,,,,,,,,,
html-keyboard-response,81,145230,0.0-8.0-0.73,5f33c58329beab1f63c0dfaa,650c16f0f2faf8d7a0d14c09,651c1ce9bca7d9252c87b257,null,null,"<p style=""font-size: 60px; font-family: BACS"">tRdMBYhT</p>",,,,,,,,,,
html-keyboard-response,82,146242,0.0-8.0-0.74,5f33c58329beab1f63c0dfaa,650c16f0f2faf8d7a0d14c09,651c1ce9bca7d9252c87b257,null,null,"<p style=""font-size: 60px; font-family: BACS"">ZNLOvcrdY</p>",,,,,,,,,,
html-keyboard-response,83,147251,0.0-8.0-0.75,5f33c58329beab1f63c0dfaa,650c16f0f2faf8d7a0d14c09,651c1ce9bca7d9252c87b257,null,null,"<p style=""font-size: 60px; font-family: BACS"">TbKMEOPE</p>",,,,,,,,,,
html-keyboard-response,84,148265,0.0-8.0-0.76,5f33c58329beab1f63c0dfaa,650c16f0f2faf8d7a0d14c09,651c1ce9bca7d9252c87b257,null,null,"<p style=""font-size: 60px; font-family: BACS"">mhtcKOYC</p>",,,,,,,,,,
html-keyboard-response,85,149267,0.0-8.0-0.77,5f33c58329beab1f63c0dfaa,650c16f0f2faf8d7a0d14c09,651c1ce9bca7d9252c87b257,null,null,"<p style=""font-size: 60px; font-family: BACS"">dvNvAGrbk</p>",,,,,,,,,,
html-keyboard-response,86,150282,0.0-8.0-0.78,5f33c58329beab1f63c0dfaa,650c16f0f2faf8d7a0d14c09,651c1ce9bca7d9252c87b257,null,null,"<p style=""font-size: 60px; font-family: BACS"">tRdMOYK</p>",,,,,,,,,,
html-keyboard-response,87,151288,0.0-8.0-0.79,5f33c58329beab1f63c0dfaa,650c16f0f2faf8d7a0d14c09,651c1ce9bca7d9252c87b257,null,null,"<p style=""font-size: 60px; font-family: BACS"">YJLcAGrbk</p>",,,,,,,,,,
html-keyboard-response,88,156034,0.0-9.0,5f33c58329beab1f63c0dfaa,650c16f0f2faf8d7a0d14c09,651c1ce9bca7d9252c87b257,4746, ,"<p>Great, you've seen the first block of words. You may now take a short break.</p>
      <p>Press the spacebar when you're ready to continue.</p>",,,,,,,,,,
html-keyboard-response,89,157046,0.0-10.0-0.0,5f33c58329beab1f63c0dfaa,650c16f0f2faf8d7a0d14c09,651c1ce9bca7d9252c87b257,null,null,"<p style=""font-size: 60px; font-family: BACS"">rLaZGrbk</p>",,,,,,,,,,
html-keyboard-response,90,158061,0.0-10.0-0.1,5f33c58329beab1f63c0dfaa,650c16f0f2faf8d7a0d14c09,651c1ce9bca7d9252c87b257,null,null,"<p style=""font-size: 60px; font-family: BACS"">tRdMPMYm</p>",,,,,,,,,,
html-keyboard-response,91,159071,0.0-10.0-0.2,5f33c58329beab1f63c0dfaa,650c16f0f2faf8d7a0d14c09,651c1ce9bca7d9252c87b257,null,null,"<p style=""font-size: 60px; font-family: BACS"">PctRCOYK</p>",,,,,,,,,,
html-keyboard-response,92,160074,0.0-10.0-0.3,5f33c58329beab1f63c0dfaa,650c16f0f2faf8d7a0d14c09,651c1ce9bca7d9252c87b257,null,null,"<p style=""font-size: 60px; font-family: BACS"">GLluAJZr</p>",,,,,,,,,,
html-keyboard-response,93,161087,0.0-10.0-0.4,5f33c58329beab1f63c0dfaa,650c16f0f2faf8d7a0d14c09,651c1ce9bca7d9252c87b257,null,null,"<p style=""font-size: 60px; font-family: BACS"">ZNLOvcrdY</p>",,,,,,,,,,
html-keyboard-response,94,162098,0.0-10.0-0.5,5f33c58329beab1f63c0dfaa,650c16f0f2faf8d7a0d14c09,651c1ce9bca7d9252c87b257,null,null,"<p style=""font-size: 60px; font-family: BACS"">bROCOPE</p>",,,,,,,,,,
html-keyboard-response,95,163112,0.0-10.0-0.6,5f33c58329beab1f63c0dfaa,650c16f0f2faf8d7a0d14c09,651c1ce9bca7d9252c87b257,null,null,"<p style=""font-size: 60px; font-family: BACS"">tKDmhBYhT</p>",,,,,,,,,,
html-keyboard-response,96,164128,0.0-10.0-0.7,5f33c58329beab1f63c0dfaa,650c16f0f2faf8d7a0d14c09,651c1ce9bca7d9252c87b257,null,null,"<p style=""font-size: 60px; font-family: BACS"">OJGQJZr</p>",,,,,,,,,,
html-keyboard-response,97,165131,0.0-10.0-0.8,5f33c58329beab1f63c0dfaa,650c16f0f2faf8d7a0d14c09,651c1ce9bca7d9252c87b257,null,null,"<p style=""font-size: 60px; font-family: BACS"">bROCOYK</p>",,,,,,,,,,
html-keyboard-response,98,166136,0.0-10.0-0.9,5f33c58329beab1f63c0dfaa,650c16f0f2faf8d7a0d14c09,651c1ce9bca7d9252c87b257,null,null,"<p style=""font-size: 60px; font-family: BACS"">OAmGrcrdY</p>",,,,,,,,,,
html-keyboard-response,99,167137,0.0-10.0-0.10,5f33c58329beab1f63c0dfaa,650c16f0f2faf8d7a0d14c09,651c1ce9bca7d9252c87b257,null,null,"<p style=""font-size: 60px; font-family: BACS"">NAacQUZu</p>",,,,,,,,,,
html-keyboard-response,100,168139,0.0-10.0-0.11,5f33c58329beab1f63c0dfaa,650c16f0f2faf8d7a0d14c09,651c1ce9bca7d9252c87b257,null,null,"<p style=""font-size: 60px; font-family: BACS"">YJLcAGrbk</p>",,,,,,,,,,
html-keyboard-response,101,169153,0.0-10.0-0.12,5f33c58329beab1f63c0dfaa,650c16f0f2faf8d7a0d14c09,651c1ce9bca7d9252c87b257,null,null,"<p style=""font-size: 60px; font-family: BACS"">mhtcKOYC</p>",,,,,,,,,,
html-keyboard-response,102,170156,0.0-10.0-0.13,5f33c58329beab1f63c0dfaa,650c16f0f2faf8d7a0d14c09,651c1ce9bca7d9252c87b257,null,null,"<p style=""font-size: 60px; font-family: BACS"">OJGQGrbk</p>",,,,,,,,,,
html-keyboard-response,103,171170,0.0-10.0-0.14,5f33c58329beab1f63c0dfaa,650c16f0f2faf8d7a0d14c09,651c1ce9bca7d9252c87b257,null,null,"<p style=""font-size: 60px; font-family: BACS"">RhPmOYK</p>",,,,,,,,,,
html-keyboard-response,104,172175,0.0-10.0-0.15,5f33c58329beab1f63c0dfaa,650c16f0f2faf8d7a0d14c09,651c1ce9bca7d9252c87b257,null,null,"<p style=""font-size: 60px; font-family: BACS"">CDEmYOPE</p>",,,,,,,,,,
html-keyboard-response,105,173186,0.0-10.0-0.16,5f33c58329beab1f63c0dfaa,650c16f0f2faf8d7a0d14c09,651c1ce9bca7d9252c87b257,null,null,"<p style=""font-size: 60px; font-family: BACS"">dvNvAcrdY</p>",,,,,,,,,,
html-keyboard-response,106,174187,0.0-10.0-0.17,5f33c58329beab1f63c0dfaa,650c16f0f2faf8d7a0d14c09,651c1ce9bca7d9252c87b257,null,null,"<p style=""font-size: 60px; font-family: BACS"">CDEmYOYK</p>",,,,,,,,,,
html-keyboard-response,107,175203,0.0-10.0-0.18,5f33c58329beab1f63c0dfaa,650c16f0f2faf8d7a0d14c09,651c1ce9bca7d9252c87b257,null,null,"<p style=""font-size: 60px; font-family: BACS"">mhtcPMYm</p>",,,,,,,,,,
html-keyboard-response,108,176216,0.0-10.0-0.19,5f33c58329beab1f63c0dfaa,650c16f0f2faf8d7a0d14c09,651c1ce9bca7d9252c87b257,null,null,"<p style=""font-size: 60px; font-family: BACS"">dvNvAJZr</p>",,,,,,,,,,
html-keyboard-response,109,177231,0.0-10.0-0.20,5f33c58329beab1f63c0dfaa,650c16f0f2faf8d7a0d14c09,651c1ce9bca7d9252c87b257,null,null,"<p style=""font-size: 60px; font-family: BACS"">ZNLOvlvk</p>",,,,,,,,,,
html-keyboard-response,110,178247,0.0-10.0-0.21,5f33c58329beab1f63c0dfaa,650c16f0f2faf8d7a0d14c09,651c1ce9bca7d9252c87b257,null,null,"<p style=""font-size: 60px; font-family: BACS"">adkrGrbk</p>",,,,,,,,,,
html-keyboard-response,111,179248,0.0-10.0-0.22,5f33c58329beab1f63c0dfaa,650c16f0f2faf8d7a0d14c09,651c1ce9bca7d9252c87b257,null,null,"<p style=""font-size: 60px; font-family: BACS"">tRdMOYK</p>",,,,,,,,,,
html-keyboard-response,112,180249,0.0-10.0-0.23,5f33c58329beab1f63c0dfaa,650c16f0f2faf8d7a0d14c09,651c1ce9bca7d9252c87b257,null,null,"<p style=""font-size: 60px; font-family: BACS"">PctRCKOYC</p>",,,,,,,,,,
html-keyboard-response,113,181255,0.0-10.0-0.24,5f33c58329beab1f63c0dfaa,650c16f0f2faf8d7a0d14c09,651c1ce9bca7d9252c87b257,null,null,"<p style=""font-size: 60px; font-family: BACS"">GLluAcrdY</p>",,,,,,,,,,
html-keyboard-response,114,182267,0.0-10.0-0.25,5f33c58329beab1f63c0dfaa,650c16f0f2faf8d7a0d14c09,651c1ce9bca7d9252c87b257,null,null,"<p style=""font-size: 60px; font-family: BACS"">DOBhYOYK</p>",,,,,,,,,,
html-keyboard-response,115,183279,0.0-10.0-0.26,5f33c58329beab1f63c0dfaa,650c16f0f2faf8d7a0d14c09,651c1ce9bca7d9252c87b257,null,null,"<p style=""font-size: 60px; font-family: BACS"">OJGQUZu</p>",,,,,,,,,,
html-keyboard-response,116,184294,0.0-10.0-0.27,5f33c58329beab1f63c0dfaa,650c16f0f2faf8d7a0d14c09,651c1ce9bca7d9252c87b257,null,null,"<p style=""font-size: 60px; font-family: BACS"">DOBhYPMYm</p>",,,,,,,,,,
html-keyboard-response,117,185299,0.0-10.0-0.28,5f33c58329beab1f63c0dfaa,650c16f0f2faf8d7a0d14c09,651c1ce9bca7d9252c87b257,null,null,"<p style=""font-size: 60px; font-family: BACS"">tRdMKOYC</p>",,,,,,,,,,
html-keyboard-response,118,186303,0.0-10.0-0.29,5f33c58329beab1f63c0dfaa,650c16f0f2faf8d7a0d14c09,651c1ce9bca7d9252c87b257,null,null,"<p style=""font-size: 60px; font-family: BACS"">TbKMEOPE</p>",,,,,,,,,,
html-keyboard-response,119,187314,0.0-10.0-0.30,5f33c58329beab1f63c0dfaa,650c16f0f2faf8d7a0d14c09,651c1ce9bca7d9252c87b257,null,null,"<p style=""font-size: 60px; font-family: BACS"">CDEmYPMYm</p>",,,,,,,,,,
html-keyboard-response,120,188327,0.0-10.0-0.31,5f33c58329beab1f63c0dfaa,650c16f0f2faf8d7a0d14c09,651c1ce9bca7d9252c87b257,null,null,"<p style=""font-size: 60px; font-family: BACS"">RhPmBYhT</p>",,,,,,,,,,
html-keyboard-response,121,189341,0.0-10.0-0.32,5f33c58329beab1f63c0dfaa,650c16f0f2faf8d7a0d14c09,651c1ce9bca7d9252c87b257,null,null,"<p style=""font-size: 60px; font-family: BACS"">tKDmhKOYC</p>",,,,,,,,,,
html-keyboard-response,122,190353,0.0-10.0-0.33,5f33c58329beab1f63c0dfaa,650c16f0f2faf8d7a0d14c09,651c1ce9bca7d9252c87b257,null,null,"<p style=""font-size: 60px; font-family: BACS"">aYQmGrbk</p>",,,,,,,,,,
html-keyboard-response,123,191367,0.0-10.0-0.34,5f33c58329beab1f63c0dfaa,650c16f0f2faf8d7a0d14c09,651c1ce9bca7d9252c87b257,null,null,"<p style=""font-size: 60px; font-family: BACS"">RhPmKOYC</p>",,,,,,,,,,
html-keyboard-response,124,192380,0.0-10.0-0.35,5f33c58329beab1f63c0dfaa,650c16f0f2faf8d7a0d14c09,651c1ce9bca7d9252c87b257,null,null,"<p style=""font-size: 60px; font-family: BACS"">aYQmUZu</p>",,,,,,,,,,
html-keyboard-response,125,193384,0.0-10.0-0.36,5f33c58329beab1f63c0dfaa,650c16f0f2faf8d7a0d14c09,651c1ce9bca7d9252c87b257,null,null,"<p style=""font-size: 60px; font-family: BACS"">OAmGrlvk</p>",,,,,,,,,,
html-keyboard-response,126,194389,0.0-10.0-0.37,5f33c58329beab1f63c0dfaa,650c16f0f2faf8d7a0d14c09,651c1ce9bca7d9252c87b257,null,null,"<p style=""font-size: 60px; font-family: BACS"">adkrcrdY</p>",,,,,,,,,,
html-keyboard-response,127,195392,0.0-10.0-0.38,5f33c58329beab1f63c0dfaa,650c16f0f2faf8d7a0d14c09,651c1ce9bca7d9252c87b257,null,null,"<p style=""font-size: 60px; font-family: BACS"">tRdMBYhT</p>",,,,,,,,,,
html-keyboard-response,128,196396,0.0-10.0-0.39,5f33c58329beab1f63c0dfaa,650c16f0f2faf8d7a0d14c09,651c1ce9bca7d9252c87b257,null,null,"<p style=""font-size: 60px; font-family: BACS"">ZNLOvUZu</p>",,,,,,,,,,
html-keyboard-response,129,197398,0.0-10.0-0.40,5f33c58329beab1f63c0dfaa,650c16f0f2faf8d7a0d14c09,651c1ce9bca7d9252c87b257,null,null,"<p style=""font-size: 60px; font-family: BACS"">DOBhYOPE</p>",,,,,,,,,,
html-keyboard-response,130,198400,0.0-10.0-0.41,5f33c58329beab1f63c0dfaa,650c16f0f2faf8d7a0d14c09,651c1ce9bca7d9252c87b257,null,null,"<p style=""font-size: 60px; font-family: BACS"">NAacQJZr</p>",,,,,,,,,,
html-keyboard-response,131,199407,0.0-10.0-0.42,5f33c58329beab1f63c0dfaa,650c16f0f2faf8d7a0d14c09,651c1ce9bca7d9252c87b257,null,null,"<p style=""font-size: 60px; font-family: BACS"">ZNLOvGrbk</p>",,,,,,,,,,
html-keyboard-response,132,200410,0.0-10.0-0.43,5f33c58329beab1f63c0dfaa,650c16f0f2faf8d7a0d14c09,651c1ce9bca7d9252c87b257,null,null,"<p style=""font-size: 60px; font-family: BACS"">dvNvAUZu</p>",,,,,,,,,,
html-keyboard-response,133,201426,0.0-10.0-0.44,5f33c58329beab1f63c0dfaa,650c16f0f2faf8d7a0d14c09,651c1ce9bca7d9252c87b257,null,null,"<p style=""font-size: 60px; font-family: BACS"">NAacQGrbk</p>",,,,,,,,,,
html-keyboard-response,134,202441,0.0-10.0-0.45,5f33c58329beab1f63c0dfaa,650c16f0f2faf8d7a0d14c09,651c1ce9bca7d9252c87b257,null,null,"<p style=""font-size: 60px; font-family: BACS"">DBPhcPMYm</p>",,,,,,,,,,
html-keyboard-response,135,203456,0.0-10.0-0.46,5f33c58329beab1f63c0dfaa,650c16f0f2faf8d7a0d14c09,651c1ce9bca7d9252c87b257,null,null,"<p style=""font-size: 60px; font-family: BACS"">bROCBYhT</p>",,,,,,,,,,
html-keyboard-response,136,204459,0.0-10.0-0.47,5f33c58329beab1f63c0dfaa,650c16f0f2faf8d7a0d14c09,651c1ce9bca7d9252c87b257,null,null,"<p style=""font-size: 60px; font-family: BACS"">adkrJZr</p>",,,,,,,,,,
html-keyboard-response,137,205460,0.0-10.0-0.48,5f33c58329beab1f63c0dfaa,650c16f0f2faf8d7a0d14c09,651c1ce9bca7d9252c87b257,null,null,"<p style=""font-size: 60px; font-family: BACS"">NAacQlvk</p>",,,,,,,,,,
html-keyboard-response,138,206473,0.0-10.0-0.49,5f33c58329beab1f63c0dfaa,650c16f0f2faf8d7a0d14c09,651c1ce9bca7d9252c87b257,null,null,"<p style=""font-size: 60px; font-family: BACS"">DBPhcKOYC</p>",,,,,,,,,,
html-keyboard-response,139,207477,0.0-10.0-0.50,5f33c58329beab1f63c0dfaa,650c16f0f2faf8d7a0d14c09,651c1ce9bca7d9252c87b257,null,null,"<p style=""font-size: 60px; font-family: BACS"">aYQmlvk</p>",,,,,,,,,,
html-keyboard-response,140,208482,0.0-10.0-0.51,5f33c58329beab1f63c0dfaa,650c16f0f2faf8d7a0d14c09,651c1ce9bca7d9252c87b257,null,null,"<p style=""font-size: 60px; font-family: BACS"">DOBhYBYhT</p>",,,,,,,,,,
html-keyboard-response,141,209497,0.0-10.0-0.52,5f33c58329beab1f63c0dfaa,650c16f0f2faf8d7a0d14c09,651c1ce9bca7d9252c87b257,null,null,"<p style=""font-size: 60px; font-family: BACS"">rLaZJZr</p>",,,,,,,,,,
html-keyboard-response,142,210499,0.0-10.0-0.53,5f33c58329beab1f63c0dfaa,650c16f0f2faf8d7a0d14c09,651c1ce9bca7d9252c87b257,null,null,"<p style=""font-size: 60px; font-family: BACS"">RhPmOPE</p>",,,,,,,,,,
html-keyboard-response,143,211504,0.0-10.0-0.54,5f33c58329beab1f63c0dfaa,650c16f0f2faf8d7a0d14c09,651c1ce9bca7d9252c87b257,null,null,"<p style=""font-size: 60px; font-family: BACS"">CDEmYKOYC</p>",,,,,,,,,,
html-keyboard-response,144,212509,0.0-10.0-0.55,5f33c58329beab1f63c0dfaa,650c16f0f2faf8d7a0d14c09,651c1ce9bca7d9252c87b257,null,null,"<p style=""font-size: 60px; font-family: BACS"">rLaZUZu</p>",,,,,,,,,,
html-keyboard-response,145,213511,0.0-10.0-0.56,5f33c58329beab1f63c0dfaa,650c16f0f2faf8d7a0d14c09,651c1ce9bca7d9252c87b257,null,null,"<p style=""font-size: 60px; font-family: BACS"">TbKMEKOYC</p>",,,,,,,,,,
html-keyboard-response,146,214525,0.0-10.0-0.57,5f33c58329beab1f63c0dfaa,650c16f0f2faf8d7a0d14c09,651c1ce9bca7d9252c87b257,null,null,"<p style=""font-size: 60px; font-family: BACS"">DBPhcOYK</p>",,,,,,,,,,
html-keyboard-response,147,215540,0.0-10.0-0.58,5f33c58329beab1f63c0dfaa,650c16f0f2faf8d7a0d14c09,651c1ce9bca7d9252c87b257,null,null,"<p style=""font-size: 60px; font-family: BACS"">GLluAlvk</p>",,,,,,,,,,
html-keyboard-response,148,216548,0.0-10.0-0.59,5f33c58329beab1f63c0dfaa,650c16f0f2faf8d7a0d14c09,651c1ce9bca7d9252c87b257,null,null,"<p style=""font-size: 60px; font-family: BACS"">TbKMEBYhT</p>",,,,,,,,,,
html-keyboard-response,149,217552,0.0-10.0-0.60,5f33c58329beab1f63c0dfaa,650c16f0f2faf8d7a0d14c09,651c1ce9bca7d9252c87b257,null,null,"<p style=""font-size: 60px; font-family: BACS"">aYQmcrdY</p>",,,,,,,,,,
html-keyboard-response,150,218558,0.0-10.0-0.61,5f33c58329beab1f63c0dfaa,650c16f0f2faf8d7a0d14c09,651c1ce9bca7d9252c87b257,null,null,"<p style=""font-size: 60px; font-family: BACS"">mhtcOYK</p>",,,,,,,,,,
html-keyboard-response,151,219566,0.0-10.0-0.62,5f33c58329beab1f63c0dfaa,650c16f0f2faf8d7a0d14c09,651c1ce9bca7d9252c87b257,null,null,"<p style=""font-size: 60px; font-family: BACS"">OJGQcrdY</p>",,,,,,,,,,
html-keyboard-response,152,220577,0.0-10.0-0.63,5f33c58329beab1f63c0dfaa,650c16f0f2faf8d7a0d14c09,651c1ce9bca7d9252c87b257,null,null,"<p style=""font-size: 60px; font-family: BACS"">GLluAUZu</p>",,,,,,,,,,
html-keyboard-response,153,221585,0.0-10.0-0.64,5f33c58329beab1f63c0dfaa,650c16f0f2faf8d7a0d14c09,651c1ce9bca7d9252c87b257,null,null,"<p style=""font-size: 60px; font-family: BACS"">YJLcAJZr</p>",,,,,,,,,,
html-keyboard-response,154,222587,0.0-10.0-0.65,5f33c58329beab1f63c0dfaa,650c16f0f2faf8d7a0d14c09,651c1ce9bca7d9252c87b257,null,null,"<p style=""font-size: 60px; font-family: BACS"">bROCPMYm</p>",,,,,,,,,,
html-keyboard-response,155,223600,0.0-10.0-0.66,5f33c58329beab1f63c0dfaa,650c16f0f2faf8d7a0d14c09,651c1ce9bca7d9252c87b257,null,null,"<p style=""font-size: 60px; font-family: BACS"">rLaZlvk</p>",,,,,,,,,,
html-keyboard-response,156,224605,0.0-10.0-0.67,5f33c58329beab1f63c0dfaa,650c16f0f2faf8d7a0d14c09,651c1ce9bca7d9252c87b257,null,null,"<p style=""font-size: 60px; font-family: BACS"">YJLcAcrdY</p>",,,,,,,,,,
html-keyboard-response,157,225621,0.0-10.0-0.68,5f33c58329beab1f63c0dfaa,650c16f0f2faf8d7a0d14c09,651c1ce9bca7d9252c87b257,null,null,"<p style=""font-size: 60px; font-family: BACS"">tKDmhPMYm</p>",,,,,,,,,,
html-keyboard-response,158,226633,0.0-10.0-0.69,5f33c58329beab1f63c0dfaa,650c16f0f2faf8d7a0d14c09,651c1ce9bca7d9252c87b257,null,null,"<p style=""font-size: 60px; font-family: BACS"">dvNvAGrbk</p>",,,,,,,,,,
html-keyboard-response,159,227639,0.0-10.0-0.70,5f33c58329beab1f63c0dfaa,650c16f0f2faf8d7a0d14c09,651c1ce9bca7d9252c87b257,null,null,"<p style=""font-size: 60px; font-family: BACS"">PctRCOPE</p>",,,,,,,,,,
html-keyboard-response,160,228655,0.0-10.0-0.71,5f33c58329beab1f63c0dfaa,650c16f0f2faf8d7a0d14c09,651c1ce9bca7d9252c87b257,null,null,"<p style=""font-size: 60px; font-family: BACS"">OAmGrUZu</p>",,,,,,,,,,
html-keyboard-response,161,229656,0.0-10.0-0.72,5f33c58329beab1f63c0dfaa,650c16f0f2faf8d7a0d14c09,651c1ce9bca7d9252c87b257,null,null,"<p style=""font-size: 60px; font-family: BACS"">adkrlvk</p>",,,,,,,,,,
html-keyboard-response,162,230658,0.0-10.0-0.73,5f33c58329beab1f63c0dfaa,650c16f0f2faf8d7a0d14c09,651c1ce9bca7d9252c87b257,null,null,"<p style=""font-size: 60px; font-family: BACS"">DBPhcBYhT</p>",,,,,,,,,,
html-keyboard-response,163,231673,0.0-10.0-0.74,5f33c58329beab1f63c0dfaa,650c16f0f2faf8d7a0d14c09,651c1ce9bca7d9252c87b257,null,null,"<p style=""font-size: 60px; font-family: BACS"">TbKMEPMYm</p>",,,,,,,,,,
html-keyboard-response,164,232676,0.0-10.0-0.75,5f33c58329beab1f63c0dfaa,650c16f0f2faf8d7a0d14c09,651c1ce9bca7d9252c87b257,null,null,"<p style=""font-size: 60px; font-family: BACS"">tKDmhOPE</p>",,,,,,,,,,
html-keyboard-response,165,233683,0.0-10.0-0.76,5f33c58329beab1f63c0dfaa,650c16f0f2faf8d7a0d14c09,651c1ce9bca7d9252c87b257,null,null,"<p style=""font-size: 60px; font-family: BACS"">OAmGrJZr</p>",,,,,,,,,,
html-keyboard-response,166,234691,0.0-10.0-0.77,5f33c58329beab1f63c0dfaa,650c16f0f2faf8d7a0d14c09,651c1ce9bca7d9252c87b257,null,null,"<p style=""font-size: 60px; font-family: BACS"">mhtcOPE</p>",,,,,,,,,,
html-keyboard-response,167,235696,0.0-10.0-0.78,5f33c58329beab1f63c0dfaa,650c16f0f2faf8d7a0d14c09,651c1ce9bca7d9252c87b257,null,null,"<p style=""font-size: 60px; font-family: BACS"">YJLcAlvk</p>",,,,,,,,,,
html-keyboard-response,168,236698,0.0-10.0-0.79,5f33c58329beab1f63c0dfaa,650c16f0f2faf8d7a0d14c09,651c1ce9bca7d9252c87b257,null,null,"<p style=""font-size: 60px; font-family: BACS"">PctRCBYhT</p>",,,,,,,,,,
html-keyboard-response,169,241129,0.0-11.0,5f33c58329beab1f63c0dfaa,650c16f0f2faf8d7a0d14c09,651c1ce9bca7d9252c87b257,4431, ,"<p>Great, you've seen the second block of words. You may now take a short break.</p>
      <p>Press the spacebar when you're ready to continue.</p>",,,,,,,,,,
html-keyboard-response,170,242141,0.0-12.0-0.0,5f33c58329beab1f63c0dfaa,650c16f0f2faf8d7a0d14c09,651c1ce9bca7d9252c87b257,null,null,"<p style=""font-size: 60px; font-family: BACS"">mhtcPMYm</p>",,,,,,,,,,
html-keyboard-response,171,243157,0.0-12.0-0.1,5f33c58329beab1f63c0dfaa,650c16f0f2faf8d7a0d14c09,651c1ce9bca7d9252c87b257,null,null,"<p style=""font-size: 60px; font-family: BACS"">NAacQUZu</p>",,,,,,,,,,
html-keyboard-response,172,244168,0.0-12.0-0.2,5f33c58329beab1f63c0dfaa,650c16f0f2faf8d7a0d14c09,651c1ce9bca7d9252c87b257,null,null,"<p style=""font-size: 60px; font-family: BACS"">OJGQcrdY</p>",,,,,,,,,,
html-keyboard-response,173,245172,0.0-12.0-0.3,5f33c58329beab1f63c0dfaa,650c16f0f2faf8d7a0d14c09,651c1ce9bca7d9252c87b257,null,null,"<p style=""font-size: 60px; font-family: BACS"">ZNLOvGrbk</p>",,,,,,,,,,
html-keyboard-response,174,246184,0.0-12.0-0.4,5f33c58329beab1f63c0dfaa,650c16f0f2faf8d7a0d14c09,651c1ce9bca7d9252c87b257,null,null,"<p style=""font-size: 60px; font-family: BACS"">YJLcAJZr</p>",,,,,,,,,,
html-keyboard-response,175,247187,0.0-12.0-0.5,5f33c58329beab1f63c0dfaa,650c16f0f2faf8d7a0d14c09,651c1ce9bca7d9252c87b257,null,null,"<p style=""font-size: 60px; font-family: BACS"">TbKMEBYhT</p>",,,,,,,,,,
html-keyboard-response,176,248201,0.0-12.0-0.6,5f33c58329beab1f63c0dfaa,650c16f0f2faf8d7a0d14c09,651c1ce9bca7d9252c87b257,null,null,"<p style=""font-size: 60px; font-family: BACS"">OAmGrUZu</p>",,,,,,,,,,
html-keyboard-response,177,249204,0.0-12.0-0.7,5f33c58329beab1f63c0dfaa,650c16f0f2faf8d7a0d14c09,651c1ce9bca7d9252c87b257,null,null,"<p style=""font-size: 60px; font-family: BACS"">tRdMOYK</p>",,,,,,,,,,
html-keyboard-response,178,250207,0.0-12.0-0.8,5f33c58329beab1f63c0dfaa,650c16f0f2faf8d7a0d14c09,651c1ce9bca7d9252c87b257,null,null,"<p style=""font-size: 60px; font-family: BACS"">aYQmUZu</p>",,,,,,,,,,
html-keyboard-response,179,251223,0.0-12.0-0.9,5f33c58329beab1f63c0dfaa,650c16f0f2faf8d7a0d14c09,651c1ce9bca7d9252c87b257,null,null,"<p style=""font-size: 60px; font-family: BACS"">tRdMPMYm</p>",,,,,,,,,,
html-keyboard-response,180,252238,0.0-12.0-0.10,5f33c58329beab1f63c0dfaa,650c16f0f2faf8d7a0d14c09,651c1ce9bca7d9252c87b257,null,null,"<p style=""font-size: 60px; font-family: BACS"">OJGQUZu</p>",,,,,,,,,,
html-keyboard-response,181,253246,0.0-12.0-0.11,5f33c58329beab1f63c0dfaa,650c16f0f2faf8d7a0d14c09,651c1ce9bca7d9252c87b257,null,null,"<p style=""font-size: 60px; font-family: BACS"">aYQmlvk</p>",,,,,,,,,,
html-keyboard-response,182,254251,0.0-12.0-0.12,5f33c58329beab1f63c0dfaa,650c16f0f2faf8d7a0d14c09,651c1ce9bca7d9252c87b257,null,null,"<p style=""font-size: 60px; font-family: BACS"">dvNvAUZu</p>",,,,,,,,,,
html-keyboard-response,183,255259,0.0-12.0-0.13,5f33c58329beab1f63c0dfaa,650c16f0f2faf8d7a0d14c09,651c1ce9bca7d9252c87b257,null,null,"<p style=""font-size: 60px; font-family: BACS"">TbKMEOPE</p>",,,,,,,,,,
html-keyboard-response,184,256262,0.0-12.0-0.14,5f33c58329beab1f63c0dfaa,650c16f0f2faf8d7a0d14c09,651c1ce9bca7d9252c87b257,null,null,"<p style=""font-size: 60px; font-family: BACS"">dvNvAJZr</p>",,,,,,,,,,
html-keyboard-response,185,257275,0.0-12.0-0.15,5f33c58329beab1f63c0dfaa,650c16f0f2faf8d7a0d14c09,651c1ce9bca7d9252c87b257,null,null,"<p style=""font-size: 60px; font-family: BACS"">YJLcAGrbk</p>",,,,,,,,,,
html-keyboard-response,186,258282,0.0-12.0-0.16,5f33c58329beab1f63c0dfaa,650c16f0f2faf8d7a0d14c09,651c1ce9bca7d9252c87b257,null,null,"<p style=""font-size: 60px; font-family: BACS"">GLluAlvk</p>",,,,,,,,,,
html-keyboard-response,187,259295,0.0-12.0-0.17,5f33c58329beab1f63c0dfaa,650c16f0f2faf8d7a0d14c09,651c1ce9bca7d9252c87b257,null,null,"<p style=""font-size: 60px; font-family: BACS"">ZNLOvUZu</p>",,,,,,,,,,
html-keyboard-response,188,260297,0.0-12.0-0.18,5f33c58329beab1f63c0dfaa,650c16f0f2faf8d7a0d14c09,651c1ce9bca7d9252c87b257,null,null,"<p style=""font-size: 60px; font-family: BACS"">RhPmBYhT</p>",,,,,,,,,,
html-keyboard-response,189,261298,0.0-12.0-0.19,5f33c58329beab1f63c0dfaa,650c16f0f2faf8d7a0d14c09,651c1ce9bca7d9252c87b257,null,null,"<p style=""font-size: 60px; font-family: BACS"">NAacQJZr</p>",,,,,,,,,,
html-keyboard-response,190,262311,0.0-12.0-0.20,5f33c58329beab1f63c0dfaa,650c16f0f2faf8d7a0d14c09,651c1ce9bca7d9252c87b257,null,null,"<p style=""font-size: 60px; font-family: BACS"">RhPmOYK</p>",,,,,,,,,,
html-keyboard-response,191,263314,0.0-12.0-0.21,5f33c58329beab1f63c0dfaa,650c16f0f2faf8d7a0d14c09,651c1ce9bca7d9252c87b257,null,null,"<p style=""font-size: 60px; font-family: BACS"">tKDmhOPE</p>",,,,,,,,,,
html-keyboard-response,192,264314,0.0-12.0-0.22,5f33c58329beab1f63c0dfaa,650c16f0f2faf8d7a0d14c09,651c1ce9bca7d9252c87b257,null,null,"<p style=""font-size: 60px; font-family: BACS"">aYQmGrbk</p>",,,,,,,,,,
html-keyboard-response,193,265323,0.0-12.0-0.23,5f33c58329beab1f63c0dfaa,650c16f0f2faf8d7a0d14c09,651c1ce9bca7d9252c87b257,null,null,"<p style=""font-size: 60px; font-family: BACS"">tKDmhKOYC</p>",,,,,,,,,,
html-keyboard-response,194,266336,0.0-12.0-0.24,5f33c58329beab1f63c0dfaa,650c16f0f2faf8d7a0d14c09,651c1ce9bca7d9252c87b257,null,null,"<p style=""font-size: 60px; font-family: BACS"">CDEmYOPE</p>",,,,,,,,,,
html-keyboard-response,195,267351,0.0-12.0-0.25,5f33c58329beab1f63c0dfaa,650c16f0f2faf8d7a0d14c09,651c1ce9bca7d9252c87b257,null,null,"<p style=""font-size: 60px; font-family: BACS"">TbKMEKOYC</p>",,,,,,,,,,
html-keyboard-response,196,268354,0.0-12.0-0.26,5f33c58329beab1f63c0dfaa,650c16f0f2faf8d7a0d14c09,651c1ce9bca7d9252c87b257,null,null,"<p style=""font-size: 60px; font-family: BACS"">OAmGrJZr</p>",,,,,,,,,,
html-keyboard-response,197,269357,0.0-12.0-0.27,5f33c58329beab1f63c0dfaa,650c16f0f2faf8d7a0d14c09,651c1ce9bca7d9252c87b257,null,null,"<p style=""font-size: 60px; font-family: BACS"">tRdMBYhT</p>",,,,,,,,,,
html-keyboard-response,198,270367,0.0-12.0-0.28,5f33c58329beab1f63c0dfaa,650c16f0f2faf8d7a0d14c09,651c1ce9bca7d9252c87b257,null,null,"<p style=""font-size: 60px; font-family: BACS"">mhtcOPE</p>",,,,,,,,,,
html-keyboard-response,199,271382,0.0-12.0-0.29,5f33c58329beab1f63c0dfaa,650c16f0f2faf8d7a0d14c09,651c1ce9bca7d9252c87b257,null,null,"<p style=""font-size: 60px; font-family: BACS"">PctRCBYhT</p>",,,,,,,,,,
html-keyboard-response,200,272384,0.0-12.0-0.30,5f33c58329beab1f63c0dfaa,650c16f0f2faf8d7a0d14c09,651c1ce9bca7d9252c87b257,null,null,"<p style=""font-size: 60px; font-family: BACS"">adkrlvk</p>",,,,,,,,,,
html-keyboard-response,201,273399,0.0-12.0-0.31,5f33c58329beab1f63c0dfaa,650c16f0f2faf8d7a0d14c09,651c1ce9bca7d9252c87b257,null,null,"<p style=""font-size: 60px; font-family: BACS"">GLluAJZr</p>",,,,,,,,,,
html-keyboard-response,202,274404,0.0-12.0-0.32,5f33c58329beab1f63c0dfaa,650c16f0f2faf8d7a0d14c09,651c1ce9bca7d9252c87b257,null,null,"<p style=""font-size: 60px; font-family: BACS"">adkrGrbk</p>",,,,,,,,,,
html-keyboard-response,203,275409,0.0-12.0-0.33,5f33c58329beab1f63c0dfaa,650c16f0f2faf8d7a0d14c09,651c1ce9bca7d9252c87b257,null,null,"<p style=""font-size: 60px; font-family: BACS"">CDEmYKOYC</p>",,,,,,,,,,
html-keyboard-response,204,276424,0.0-12.0-0.34,5f33c58329beab1f63c0dfaa,650c16f0f2faf8d7a0d14c09,651c1ce9bca7d9252c87b257,null,null,"<p style=""font-size: 60px; font-family: BACS"">mhtcOYK</p>",,,,,,,,,,
html-keyboard-response,205,277427,0.0-12.0-0.35,5f33c58329beab1f63c0dfaa,650c16f0f2faf8d7a0d14c09,651c1ce9bca7d9252c87b257,null,null,"<p style=""font-size: 60px; font-family: BACS"">ZNLOvcrdY</p>",,,,,,,,,,
html-keyboard-response,206,278443,0.0-12.0-0.36,5f33c58329beab1f63c0dfaa,650c16f0f2faf8d7a0d14c09,651c1ce9bca7d9252c87b257,null,null,"<p style=""font-size: 60px; font-family: BACS"">NAacQlvk</p>",,,,,,,,,,
html-keyboard-response,207,279450,0.0-12.0-0.37,5f33c58329beab1f63c0dfaa,650c16f0f2faf8d7a0d14c09,651c1ce9bca7d9252c87b257,null,null,"<p style=""font-size: 60px; font-family: BACS"">OAmGrcrdY</p>",,,,,,,,,,
html-keyboard-response,208,280452,0.0-12.0-0.38,5f33c58329beab1f63c0dfaa,650c16f0f2faf8d7a0d14c09,651c1ce9bca7d9252c87b257,null,null,"<p style=""font-size: 60px; font-family: BACS"">rLaZJZr</p>",,,,,,,,,,
html-keyboard-response,209,281457,0.0-12.0-0.39,5f33c58329beab1f63c0dfaa,650c16f0f2faf8d7a0d14c09,651c1ce9bca7d9252c87b257,null,null,"<p style=""font-size: 60px; font-family: BACS"">bROCOPE</p>",,,,,,,,,,
html-keyboard-response,210,282463,0.0-12.0-0.40,5f33c58329beab1f63c0dfaa,650c16f0f2faf8d7a0d14c09,651c1ce9bca7d9252c87b257,null,null,"<p style=""font-size: 60px; font-family: BACS"">ZNLOvlvk</p>",,,,,,,,,,
html-keyboard-response,211,283465,0.0-12.0-0.41,5f33c58329beab1f63c0dfaa,650c16f0f2faf8d7a0d14c09,651c1ce9bca7d9252c87b257,null,null,"<p style=""font-size: 60px; font-family: BACS"">GLluAUZu</p>",,,,,,,,,,
html-keyboard-response,212,284470,0.0-12.0-0.42,5f33c58329beab1f63c0dfaa,650c16f0f2faf8d7a0d14c09,651c1ce9bca7d9252c87b257,null,null,"<p style=""font-size: 60px; font-family: BACS"">DOBhYPMYm</p>",,,,,,,,,,
html-keyboard-response,213,285471,0.0-12.0-0.43,5f33c58329beab1f63c0dfaa,650c16f0f2faf8d7a0d14c09,651c1ce9bca7d9252c87b257,null,null,"<p style=""font-size: 60px; font-family: BACS"">adkrJZr</p>",,,,,,,,,,
html-keyboard-response,214,286473,0.0-12.0-0.44,5f33c58329beab1f63c0dfaa,650c16f0f2faf8d7a0d14c09,651c1ce9bca7d9252c87b257,null,null,"<p style=""font-size: 60px; font-family: BACS"">rLaZlvk</p>",,,,,,,,,,
html-keyboard-response,215,287476,0.0-12.0-0.45,5f33c58329beab1f63c0dfaa,650c16f0f2faf8d7a0d14c09,651c1ce9bca7d9252c87b257,null,null,"<p style=""font-size: 60px; font-family: BACS"">bROCPMYm</p>",,,,,,,,,,
html-keyboard-response,216,288479,0.0-12.0-0.46,5f33c58329beab1f63c0dfaa,650c16f0f2faf8d7a0d14c09,651c1ce9bca7d9252c87b257,null,null,"<p style=""font-size: 60px; font-family: BACS"">RhPmKOYC</p>",,,,,,,,,,
html-keyboard-response,217,289484,0.0-12.0-0.47,5f33c58329beab1f63c0dfaa,650c16f0f2faf8d7a0d14c09,651c1ce9bca7d9252c87b257,null,null,"<p style=""font-size: 60px; font-family: BACS"">tKDmhBYhT</p>",,,,,,,,,,
html-keyboard-response,218,290489,0.0-12.0-0.48,5f33c58329beab1f63c0dfaa,650c16f0f2faf8d7a0d14c09,651c1ce9bca7d9252c87b257,null,null,"<p style=""font-size: 60px; font-family: BACS"">YJLcAlvk</p>",,,,,,,,,,
html-keyboard-response,219,291505,0.0-12.0-0.49,5f33c58329beab1f63c0dfaa,650c16f0f2faf8d7a0d14c09,651c1ce9bca7d9252c87b257,null,null,"<p style=""font-size: 60px; font-family: BACS"">adkrcrdY</p>",,,,,,,,,,
html-keyboard-response,220,292519,0.0-12.0-0.50,5f33c58329beab1f63c0dfaa,650c16f0f2faf8d7a0d14c09,651c1ce9bca7d9252c87b257,null,null,"<p style=""font-size: 60px; font-family: BACS"">DOBhYOYK</p>",,,,,,,,,,
html-keyboard-response,221,293531,0.0-12.0-0.51,5f33c58329beab1f63c0dfaa,650c16f0f2faf8d7a0d14c09,651c1ce9bca7d9252c87b257,null,null,"<p style=""font-size: 60px; font-family: BACS"">rLaZUZu</p>",,,,,,,,,,
html-keyboard-response,222,294533,0.0-12.0-0.52,5f33c58329beab1f63c0dfaa,650c16f0f2faf8d7a0d14c09,651c1ce9bca7d9252c87b257,null,null,"<p style=""font-size: 60px; font-family: BACS"">bROCOYK</p>",,,,,,,,,,
html-keyboard-response,223,295537,0.0-12.0-0.53,5f33c58329beab1f63c0dfaa,650c16f0f2faf8d7a0d14c09,651c1ce9bca7d9252c87b257,null,null,"<p style=""font-size: 60px; font-family: BACS"">PctRCKOYC</p>",,,,,,,,,,
html-keyboard-response,224,296548,0.0-12.0-0.54,5f33c58329beab1f63c0dfaa,650c16f0f2faf8d7a0d14c09,651c1ce9bca7d9252c87b257,null,null,"<p style=""font-size: 60px; font-family: BACS"">CDEmYPMYm</p>",,,,,,,,,,
html-keyboard-response,225,297563,0.0-12.0-0.55,5f33c58329beab1f63c0dfaa,650c16f0f2faf8d7a0d14c09,651c1ce9bca7d9252c87b257,null,null,"<p style=""font-size: 60px; font-family: BACS"">bROCBYhT</p>",,,,,,,,,,
html-keyboard-response,226,298578,0.0-12.0-0.56,5f33c58329beab1f63c0dfaa,650c16f0f2faf8d7a0d14c09,651c1ce9bca7d9252c87b257,null,null,"<p style=""font-size: 60px; font-family: BACS"">dvNvAGrbk</p>",,,,,,,,,,
html-keyboard-response,227,299594,0.0-12.0-0.57,5f33c58329beab1f63c0dfaa,650c16f0f2faf8d7a0d14c09,651c1ce9bca7d9252c87b257,null,null,"<p style=""font-size: 60px; font-family: BACS"">DBPhcKOYC</p>",,,,,,,,,,
html-keyboard-response,228,300607,0.0-12.0-0.58,5f33c58329beab1f63c0dfaa,650c16f0f2faf8d7a0d14c09,651c1ce9bca7d9252c87b257,null,null,"<p style=""font-size: 60px; font-family: BACS"">dvNvAcrdY</p>",,,,,,,,,,
html-keyboard-response,229,301615,0.0-12.0-0.59,5f33c58329beab1f63c0dfaa,650c16f0f2faf8d7a0d14c09,651c1ce9bca7d9252c87b257,null,null,"<p style=""font-size: 60px; font-family: BACS"">DOBhYBYhT</p>",,,,,,,,,,
html-keyboard-response,230,302616,0.0-12.0-0.60,5f33c58329beab1f63c0dfaa,650c16f0f2faf8d7a0d14c09,651c1ce9bca7d9252c87b257,null,null,"<p style=""font-size: 60px; font-family: BACS"">tKDmhPMYm</p>",,,,,,,,,,
html-keyboard-response,231,303620,0.0-12.0-0.61,5f33c58329beab1f63c0dfaa,650c16f0f2faf8d7a0d14c09,651c1ce9bca7d9252c87b257,null,null,"<p style=""font-size: 60px; font-family: BACS"">OAmGrlvk</p>",,,,,,,,,,
html-keyboard-response,232,304620,0.0-12.0-0.62,5f33c58329beab1f63c0dfaa,650c16f0f2faf8d7a0d14c09,651c1ce9bca7d9252c87b257,null,null,"<p style=""font-size: 60px; font-family: BACS"">CDEmYOYK</p>",,,,,,,,,,
html-keyboard-response,233,305636,0.0-12.0-0.63,5f33c58329beab1f63c0dfaa,650c16f0f2faf8d7a0d14c09,651c1ce9bca7d9252c87b257,null,null,"<p style=""font-size: 60px; font-family: BACS"">tRdMKOYC</p>",,,,,,,,,,
html-keyboard-response,234,306645,0.0-12.0-0.64,5f33c58329beab1f63c0dfaa,650c16f0f2faf8d7a0d14c09,651c1ce9bca7d9252c87b257,null,null,"<p style=""font-size: 60px; font-family: BACS"">NAacQGrbk</p>",,,,,,,,,,
html-keyboard-response,235,307659,0.0-12.0-0.65,5f33c58329beab1f63c0dfaa,650c16f0f2faf8d7a0d14c09,651c1ce9bca7d9252c87b257,null,null,"<p style=""font-size: 60px; font-family: BACS"">GLluAcrdY</p>",,,,,,,,,,
html-keyboard-response,236,308672,0.0-12.0-0.66,5f33c58329beab1f63c0dfaa,650c16f0f2faf8d7a0d14c09,651c1ce9bca7d9252c87b257,null,null,"<p style=""font-size: 60px; font-family: BACS"">TbKMEPMYm</p>",,,,,,,,,,
html-keyboard-response,237,309684,0.0-12.0-0.67,5f33c58329beab1f63c0dfaa,650c16f0f2faf8d7a0d14c09,651c1ce9bca7d9252c87b257,null,null,"<p style=""font-size: 60px; font-family: BACS"">rLaZGrbk</p>",,,,,,,,,,
html-keyboard-response,238,310696,0.0-12.0-0.68,5f33c58329beab1f63c0dfaa,650c16f0f2faf8d7a0d14c09,651c1ce9bca7d9252c87b257,null,null,"<p style=""font-size: 60px; font-family: BACS"">mhtcKOYC</p>",,,,,,,,,,
html-keyboard-response,239,311711,0.0-12.0-0.69,5f33c58329beab1f63c0dfaa,650c16f0f2faf8d7a0d14c09,651c1ce9bca7d9252c87b257,null,null,"<p style=""font-size: 60px; font-family: BACS"">OJGQGrbk</p>",,,,,,,,,,
html-keyboard-response,240,312717,0.0-12.0-0.70,5f33c58329beab1f63c0dfaa,650c16f0f2faf8d7a0d14c09,651c1ce9bca7d9252c87b257,null,null,"<p style=""font-size: 60px; font-family: BACS"">DBPhcBYhT</p>",,,,,,,,,,
html-keyboard-response,241,313728,0.0-12.0-0.71,5f33c58329beab1f63c0dfaa,650c16f0f2faf8d7a0d14c09,651c1ce9bca7d9252c87b257,null,null,"<p style=""font-size: 60px; font-family: BACS"">RhPmOPE</p>",,,,,,,,,,
html-keyboard-response,242,314742,0.0-12.0-0.72,5f33c58329beab1f63c0dfaa,650c16f0f2faf8d7a0d14c09,651c1ce9bca7d9252c87b257,null,null,"<p style=""font-size: 60px; font-family: BACS"">DBPhcOYK</p>",,,,,,,,,,
html-keyboard-response,243,315756,0.0-12.0-0.73,5f33c58329beab1f63c0dfaa,650c16f0f2faf8d7a0d14c09,651c1ce9bca7d9252c87b257,null,null,"<p style=""font-size: 60px; font-family: BACS"">DOBhYOPE</p>",,,,,,,,,,
html-keyboard-response,244,316760,0.0-12.0-0.74,5f33c58329beab1f63c0dfaa,650c16f0f2faf8d7a0d14c09,651c1ce9bca7d9252c87b257,null,null,"<p style=""font-size: 60px; font-family: BACS"">OJGQJZr</p>",,,,,,,,,,
html-keyboard-response,245,317762,0.0-12.0-0.75,5f33c58329beab1f63c0dfaa,650c16f0f2faf8d7a0d14c09,651c1ce9bca7d9252c87b257,null,null,"<p style=""font-size: 60px; font-family: BACS"">DBPhcPMYm</p>",,,,,,,,,,
html-keyboard-response,246,318776,0.0-12.0-0.76,5f33c58329beab1f63c0dfaa,650c16f0f2faf8d7a0d14c09,651c1ce9bca7d9252c87b257,null,null,"<p style=""font-size: 60px; font-family: BACS"">YJLcAcrdY</p>",,,,,,,,,,
html-keyboard-response,247,319778,0.0-12.0-0.77,5f33c58329beab1f63c0dfaa,650c16f0f2faf8d7a0d14c09,651c1ce9bca7d9252c87b257,null,null,"<p style=""font-size: 60px; font-family: BACS"">PctRCOPE</p>",,,,,,,,,,
html-keyboard-response,248,320784,0.0-12.0-0.78,5f33c58329beab1f63c0dfaa,650c16f0f2faf8d7a0d14c09,651c1ce9bca7d9252c87b257,null,null,"<p style=""font-size: 60px; font-family: BACS"">aYQmcrdY</p>",,,,,,,,,,
html-keyboard-response,249,321786,0.0-12.0-0.79,5f33c58329beab1f63c0dfaa,650c16f0f2faf8d7a0d14c09,651c1ce9bca7d9252c87b257,null,null,"<p style=""font-size: 60px; font-family: BACS"">PctRCOYK</p>",,,,,,,,,,
html-keyboard-response,250,324715,0.0-13.0,5f33c58329beab1f63c0dfaa,650c16f0f2faf8d7a0d14c09,651c1ce9bca7d9252c87b257,2929, ,"<p>Great, you've seen the third block of words. You may now take a short break.</p>
      <p>Press the spacebar when you're ready to continue.</p>",,,,,,,,,,
html-keyboard-response,251,325725,0.0-14.0-0.0,5f33c58329beab1f63c0dfaa,650c16f0f2faf8d7a0d14c09,651c1ce9bca7d9252c87b257,null,null,"<p style=""font-size: 60px; font-family: BACS"">GLluAlvk</p>",,,,,,,,,,
html-keyboard-response,252,326734,0.0-14.0-0.1,5f33c58329beab1f63c0dfaa,650c16f0f2faf8d7a0d14c09,651c1ce9bca7d9252c87b257,null,null,"<p style=""font-size: 60px; font-family: BACS"">tKDmhBYhT</p>",,,,,,,,,,
html-keyboard-response,253,327735,0.0-14.0-0.2,5f33c58329beab1f63c0dfaa,650c16f0f2faf8d7a0d14c09,651c1ce9bca7d9252c87b257,null,null,"<p style=""font-size: 60px; font-family: BACS"">aYQmUZu</p>",,,,,,,,,,
html-keyboard-response,254,328739,0.0-14.0-0.3,5f33c58329beab1f63c0dfaa,650c16f0f2faf8d7a0d14c09,651c1ce9bca7d9252c87b257,null,null,"<p style=""font-size: 60px; font-family: BACS"">dvNvAcrdY</p>",,,,,,,,,,
html-keyboard-response,255,329742,0.0-14.0-0.4,5f33c58329beab1f63c0dfaa,650c16f0f2faf8d7a0d14c09,651c1ce9bca7d9252c87b257,null,null,"<p style=""font-size: 60px; font-family: BACS"">DBPhcPMYm</p>",,,,,,,,,,
html-keyboard-response,256,330743,0.0-14.0-0.5,5f33c58329beab1f63c0dfaa,650c16f0f2faf8d7a0d14c09,651c1ce9bca7d9252c87b257,null,null,"<p style=""font-size: 60px; font-family: BACS"">RhPmOYK</p>",,,,,,,,,,
html-keyboard-response,257,331758,0.0-14.0-0.6,5f33c58329beab1f63c0dfaa,650c16f0f2faf8d7a0d14c09,651c1ce9bca7d9252c87b257,null,null,"<p style=""font-size: 60px; font-family: BACS"">PctRCBYhT</p>",,,,,,,,,,
html-keyboard-response,258,332761,0.0-14.0-0.7,5f33c58329beab1f63c0dfaa,650c16f0f2faf8d7a0d14c09,651c1ce9bca7d9252c87b257,null,null,"<p style=""font-size: 60px; font-family: BACS"">ZNLOvcrdY</p>",,,,,,,,,,
html-keyboard-response,259,333778,0.0-14.0-0.8,5f33c58329beab1f63c0dfaa,650c16f0f2faf8d7a0d14c09,651c1ce9bca7d9252c87b257,null,null,"<p style=""font-size: 60px; font-family: BACS"">GLluAJZr</p>",,,,,,,,,,
html-keyboard-response,260,334791,0.0-14.0-0.9,5f33c58329beab1f63c0dfaa,650c16f0f2faf8d7a0d14c09,651c1ce9bca7d9252c87b257,null,null,"<p style=""font-size: 60px; font-family: BACS"">NAacQGrbk</p>",,,,,,,,,,
html-keyboard-response,261,335793,0.0-14.0-0.10,5f33c58329beab1f63c0dfaa,650c16f0f2faf8d7a0d14c09,651c1ce9bca7d9252c87b257,null,null,"<p style=""font-size: 60px; font-family: BACS"">OAmGrJZr</p>",,,,,,,,,,
html-keyboard-response,262,336807,0.0-14.0-0.11,5f33c58329beab1f63c0dfaa,650c16f0f2faf8d7a0d14c09,651c1ce9bca7d9252c87b257,null,null,"<p style=""font-size: 60px; font-family: BACS"">PctRCOPE</p>",,,,,,,,,,
html-keyboard-response,263,337814,0.0-14.0-0.12,5f33c58329beab1f63c0dfaa,650c16f0f2faf8d7a0d14c09,651c1ce9bca7d9252c87b257,null,null,"<p style=""font-size: 60px; font-family: BACS"">OJGQUZu</p>",,,,,,,,,,
html-keyboard-response,264,338830,0.0-14.0-0.13,5f33c58329beab1f63c0dfaa,650c16f0f2faf8d7a0d14c09,651c1ce9bca7d9252c87b257,null,null,"<p style=""font-size: 60px; font-family: BACS"">TbKMEKOYC</p>",,,,,,,,,,
html-keyboard-response,265,339837,0.0-14.0-0.14,5f33c58329beab1f63c0dfaa,650c16f0f2faf8d7a0d14c09,651c1ce9bca7d9252c87b257,null,null,"<p style=""font-size: 60px; font-family: BACS"">OAmGrUZu</p>",,,,,,,,,,
html-keyboard-response,266,340841,0.0-14.0-0.15,5f33c58329beab1f63c0dfaa,650c16f0f2faf8d7a0d14c09,651c1ce9bca7d9252c87b257,null,null,"<p style=""font-size: 60px; font-family: BACS"">tRdMKOYC</p>",,,,,,,,,,
html-keyboard-response,267,341844,0.0-14.0-0.16,5f33c58329beab1f63c0dfaa,650c16f0f2faf8d7a0d14c09,651c1ce9bca7d9252c87b257,null,null,"<p style=""font-size: 60px; font-family: BACS"">ZNLOvlvk</p>",,,,,,,,,,
html-keyboard-response,268,342858,0.0-14.0-0.17,5f33c58329beab1f63c0dfaa,650c16f0f2faf8d7a0d14c09,651c1ce9bca7d9252c87b257,null,null,"<p style=""font-size: 60px; font-family: BACS"">OJGQGrbk</p>",,,,,,,,,,
html-keyboard-response,269,343863,0.0-14.0-0.18,5f33c58329beab1f63c0dfaa,650c16f0f2faf8d7a0d14c09,651c1ce9bca7d9252c87b257,null,null,"<p style=""font-size: 60px; font-family: BACS"">tKDmhOPE</p>",,,,,,,,,,
html-keyboard-response,270,344864,0.0-14.0-0.19,5f33c58329beab1f63c0dfaa,650c16f0f2faf8d7a0d14c09,651c1ce9bca7d9252c87b257,null,null,"<p style=""font-size: 60px; font-family: BACS"">dvNvAGrbk</p>",,,,,,,,,,
html-keyboard-response,271,345866,0.0-14.0-0.20,5f33c58329beab1f63c0dfaa,650c16f0f2faf8d7a0d14c09,651c1ce9bca7d9252c87b257,null,null,"<p style=""font-size: 60px; font-family: BACS"">TbKMEBYhT</p>",,,,,,,,,,
html-keyboard-response,272,346882,0.0-14.0-0.21,5f33c58329beab1f63c0dfaa,650c16f0f2faf8d7a0d14c09,651c1ce9bca7d9252c87b257,null,null,"<p style=""font-size: 60px; font-family: BACS"">adkrJZr</p>",,,,,,,,,,
html-keyboard-response,273,347889,0.0-14.0-0.22,5f33c58329beab1f63c0dfaa,650c16f0f2faf8d7a0d14c09,651c1ce9bca7d9252c87b257,null,null,"<p style=""font-size: 60px; font-family: BACS"">aYQmGrbk</p>",,,,,,,,,,
html-keyboard-response,274,348895,0.0-14.0-0.23,5f33c58329beab1f63c0dfaa,650c16f0f2faf8d7a0d14c09,651c1ce9bca7d9252c87b257,null,null,"<p style=""font-size: 60px; font-family: BACS"">rLaZlvk</p>",,,,,,,,,,
html-keyboard-response,275,349902,0.0-14.0-0.24,5f33c58329beab1f63c0dfaa,650c16f0f2faf8d7a0d14c09,651c1ce9bca7d9252c87b257,null,null,"<p style=""font-size: 60px; font-family: BACS"">RhPmKOYC</p>",,,,,,,,,,
html-keyboard-response,276,350916,0.0-14.0-0.25,5f33c58329beab1f63c0dfaa,650c16f0f2faf8d7a0d14c09,651c1ce9bca7d9252c87b257,null,null,"<p style=""font-size: 60px; font-family: BACS"">OJGQcrdY</p>",,,,,,,,,,
html-keyboard-response,277,351916,0.0-14.0-0.26,5f33c58329beab1f63c0dfaa,650c16f0f2faf8d7a0d14c09,651c1ce9bca7d9252c87b257,null,null,"<p style=""font-size: 60px; font-family: BACS"">rLaZJZr</p>",,,,,,,,,,
html-keyboard-response,278,352925,0.0-14.0-0.27,5f33c58329beab1f63c0dfaa,650c16f0f2faf8d7a0d14c09,651c1ce9bca7d9252c87b257,null,null,"<p style=""font-size: 60px; font-family: BACS"">CDEmYOPE</p>",,,,,,,,,,
html-keyboard-response,279,353937,0.0-14.0-0.28,5f33c58329beab1f63c0dfaa,650c16f0f2faf8d7a0d14c09,651c1ce9bca7d9252c87b257,null,null,"<p style=""font-size: 60px; font-family: BACS"">RhPmBYhT</p>",,,,,,,,,,
html-keyboard-response,280,354938,0.0-14.0-0.29,5f33c58329beab1f63c0dfaa,650c16f0f2faf8d7a0d14c09,651c1ce9bca7d9252c87b257,null,null,"<p style=""font-size: 60px; font-family: BACS"">DOBhYPMYm</p>",,,,,,,,,,
html-keyboard-response,281,355939,0.0-14.0-0.30,5f33c58329beab1f63c0dfaa,650c16f0f2faf8d7a0d14c09,651c1ce9bca7d9252c87b257,null,null,"<p style=""font-size: 60px; font-family: BACS"">NAacQJZr</p>",,,,,,,,,,
html-keyboard-response,282,356955,0.0-14.0-0.31,5f33c58329beab1f63c0dfaa,650c16f0f2faf8d7a0d14c09,651c1ce9bca7d9252c87b257,null,null,"<p style=""font-size: 60px; font-family: BACS"">rLaZUZu</p>",,,,,,,,,,
html-keyboard-response,283,357956,0.0-14.0-0.32,5f33c58329beab1f63c0dfaa,650c16f0f2faf8d7a0d14c09,651c1ce9bca7d9252c87b257,null,null,"<p style=""font-size: 60px; font-family: BACS"">OAmGrlvk</p>",,,,,,,,,,
html-keyboard-response,284,358968,0.0-14.0-0.33,5f33c58329beab1f63c0dfaa,650c16f0f2faf8d7a0d14c09,651c1ce9bca7d9252c87b257,null,null,"<p style=""font-size: 60px; font-family: BACS"">YJLcAJZr</p>",,,,,,,,,,
html-keyboard-response,285,359983,0.0-14.0-0.34,5f33c58329beab1f63c0dfaa,650c16f0f2faf8d7a0d14c09,651c1ce9bca7d9252c87b257,null,null,"<p style=""font-size: 60px; font-family: BACS"">RhPmOPE</p>",,,,,,,,,,
html-keyboard-response,286,360985,0.0-14.0-0.35,5f33c58329beab1f63c0dfaa,650c16f0f2faf8d7a0d14c09,651c1ce9bca7d9252c87b257,null,null,"<p style=""font-size: 60px; font-family: BACS"">DBPhcBYhT</p>",,,,,,,,,,
html-keyboard-response,287,362000,0.0-14.0-0.36,5f33c58329beab1f63c0dfaa,650c16f0f2faf8d7a0d14c09,651c1ce9bca7d9252c87b257,null,null,"<p style=""font-size: 60px; font-family: BACS"">tKDmhKOYC</p>",,,,,,,,,,
html-keyboard-response,288,363005,0.0-14.0-0.37,5f33c58329beab1f63c0dfaa,650c16f0f2faf8d7a0d14c09,651c1ce9bca7d9252c87b257,null,null,"<p style=""font-size: 60px; font-family: BACS"">OAmGrcrdY</p>",,,,,,,,,,
html-keyboard-response,289,364007,0.0-14.0-0.38,5f33c58329beab1f63c0dfaa,650c16f0f2faf8d7a0d14c09,651c1ce9bca7d9252c87b257,null,null,"<p style=""font-size: 60px; font-family: BACS"">bROCPMYm</p>",,,,,,,,,,
html-keyboard-response,290,365010,0.0-14.0-0.39,5f33c58329beab1f63c0dfaa,650c16f0f2faf8d7a0d14c09,651c1ce9bca7d9252c87b257,null,null,"<p style=""font-size: 60px; font-family: BACS"">adkrGrbk</p>",,,,,,,,,,
html-keyboard-response,291,366021,0.0-14.0-0.40,5f33c58329beab1f63c0dfaa,650c16f0f2faf8d7a0d14c09,651c1ce9bca7d9252c87b257,null,null,"<p style=""font-size: 60px; font-family: BACS"">PctRCKOYC</p>",,,,,,,,,,
html-keyboard-response,292,367033,0.0-14.0-0.41,5f33c58329beab1f63c0dfaa,650c16f0f2faf8d7a0d14c09,651c1ce9bca7d9252c87b257,null,null,"<p style=""font-size: 60px; font-family: BACS"">YJLcAcrdY</p>",,,,,,,,,,
html-keyboard-response,293,368045,0.0-14.0-0.42,5f33c58329beab1f63c0dfaa,650c16f0f2faf8d7a0d14c09,651c1ce9bca7d9252c87b257,null,null,"<p style=""font-size: 60px; font-family: BACS"">CDEmYPMYm</p>",,,,,,,,,,
html-keyboard-response,294,369051,0.0-14.0-0.43,5f33c58329beab1f63c0dfaa,650c16f0f2faf8d7a0d14c09,651c1ce9bca7d9252c87b257,null,null,"<p style=""font-size: 60px; font-family: BACS"">mhtcOPE</p>",,,,,,,,,,
html-keyboard-response,295,370055,0.0-14.0-0.44,5f33c58329beab1f63c0dfaa,650c16f0f2faf8d7a0d14c09,651c1ce9bca7d9252c87b257,null,null,"<p style=""font-size: 60px; font-family: BACS"">DBPhcKOYC</p>",,,,,,,,,,
html-keyboard-response,296,371064,0.0-14.0-0.45,5f33c58329beab1f63c0dfaa,650c16f0f2faf8d7a0d14c09,651c1ce9bca7d9252c87b257,null,null,"<p style=""font-size: 60px; font-family: BACS"">mhtcPMYm</p>",,,,,,,,,,
html-keyboard-response,297,372066,0.0-14.0-0.46,5f33c58329beab1f63c0dfaa,650c16f0f2faf8d7a0d14c09,651c1ce9bca7d9252c87b257,null,null,"<p style=""font-size: 60px; font-family: BACS"">adkrcrdY</p>",,,,,,,,,,
html-keyboard-response,298,373081,0.0-14.0-0.47,5f33c58329beab1f63c0dfaa,650c16f0f2faf8d7a0d14c09,651c1ce9bca7d9252c87b257,null,null,"<p style=""font-size: 60px; font-family: BACS"">DBPhcOYK</p>",,,,,,,,,,
html-keyboard-response,299,374084,0.0-14.0-0.48,5f33c58329beab1f63c0dfaa,650c16f0f2faf8d7a0d14c09,651c1ce9bca7d9252c87b257,null,null,"<p style=""font-size: 60px; font-family: BACS"">rLaZGrbk</p>",,,,,,,,,,
html-keyboard-response,300,375090,0.0-14.0-0.49,5f33c58329beab1f63c0dfaa,650c16f0f2faf8d7a0d14c09,651c1ce9bca7d9252c87b257,null,null,"<p style=""font-size: 60px; font-family: BACS"">bROCOPE</p>",,,,,,,,,,
html-keyboard-response,301,376100,0.0-14.0-0.50,5f33c58329beab1f63c0dfaa,650c16f0f2faf8d7a0d14c09,651c1ce9bca7d9252c87b257,null,null,"<p style=""font-size: 60px; font-family: BACS"">dvNvAUZu</p>",,,,,,,,,,
html-keyboard-response,302,377113,0.0-14.0-0.51,5f33c58329beab1f63c0dfaa,650c16f0f2faf8d7a0d14c09,651c1ce9bca7d9252c87b257,null,null,"<p style=""font-size: 60px; font-family: BACS"">ZNLOvGrbk</p>",,,,,,,,,,
html-keyboard-response,303,378115,0.0-14.0-0.52,5f33c58329beab1f63c0dfaa,650c16f0f2faf8d7a0d14c09,651c1ce9bca7d9252c87b257,null,null,"<p style=""font-size: 60px; font-family: BACS"">aYQmlvk</p>",,,,,,,,,,
html-keyboard-response,304,379127,0.0-14.0-0.53,5f33c58329beab1f63c0dfaa,650c16f0f2faf8d7a0d14c09,651c1ce9bca7d9252c87b257,null,null,"<p style=""font-size: 60px; font-family: BACS"">tKDmhPMYm</p>",,,,,,,,,,
html-keyboard-response,305,380144,0.0-14.0-0.54,5f33c58329beab1f63c0dfaa,650c16f0f2faf8d7a0d14c09,651c1ce9bca7d9252c87b257,null,null,"<p style=""font-size: 60px; font-family: BACS"">mhtcOYK</p>",,,,,,,,,,
html-keyboard-response,306,381150,0.0-14.0-0.55,5f33c58329beab1f63c0dfaa,650c16f0f2faf8d7a0d14c09,651c1ce9bca7d9252c87b257,null,null,"<p style=""font-size: 60px; font-family: BACS"">NAacQlvk</p>",,,,,,,,,,
html-keyboard-response,307,382163,0.0-14.0-0.56,5f33c58329beab1f63c0dfaa,650c16f0f2faf8d7a0d14c09,651c1ce9bca7d9252c87b257,null,null,"<p style=""font-size: 60px; font-family: BACS"">CDEmYOYK</p>",,,,,,,,,,
html-keyboard-response,308,383174,0.0-14.0-0.57,5f33c58329beab1f63c0dfaa,650c16f0f2faf8d7a0d14c09,651c1ce9bca7d9252c87b257,null,null,"<p style=""font-size: 60px; font-family: BACS"">aYQmcrdY</p>",,,,,,,,,,
html-keyboard-response,309,384186,0.0-14.0-0.58,5f33c58329beab1f63c0dfaa,650c16f0f2faf8d7a0d14c09,651c1ce9bca7d9252c87b257,null,null,"<p style=""font-size: 60px; font-family: BACS"">YJLcAlvk</p>",,,,,,,,,,
html-keyboard-response,310,385192,0.0-14.0-0.59,5f33c58329beab1f63c0dfaa,650c16f0f2faf8d7a0d14c09,651c1ce9bca7d9252c87b257,null,null,"<p style=""font-size: 60px; font-family: BACS"">DOBhYOYK</p>",,,,,,,,,,
html-keyboard-response,311,386203,0.0-14.0-0.60,5f33c58329beab1f63c0dfaa,650c16f0f2faf8d7a0d14c09,651c1ce9bca7d9252c87b257,null,null,"<p style=""font-size: 60px; font-family: BACS"">dvNvAJZr</p>",,,,,,,,,,
html-keyboard-response,312,387219,0.0-14.0-0.61,5f33c58329beab1f63c0dfaa,650c16f0f2faf8d7a0d14c09,651c1ce9bca7d9252c87b257,null,null,"<p style=""font-size: 60px; font-family: BACS"">mhtcKOYC</p>",,,,,,,,,,
html-keyboard-response,313,388230,0.0-14.0-0.62,5f33c58329beab1f63c0dfaa,650c16f0f2faf8d7a0d14c09,651c1ce9bca7d9252c87b257,null,null,"<p style=""font-size: 60px; font-family: BACS"">bROCOYK</p>",,,,,,,,,,
html-keyboard-response,314,389241,0.0-14.0-0.63,5f33c58329beab1f63c0dfaa,650c16f0f2faf8d7a0d14c09,651c1ce9bca7d9252c87b257,null,null,"<p style=""font-size: 60px; font-family: BACS"">DOBhYOPE</p>",,,,,,,,,,
html-keyboard-response,315,390243,0.0-14.0-0.64,5f33c58329beab1f63c0dfaa,650c16f0f2faf8d7a0d14c09,651c1ce9bca7d9252c87b257,null,null,"<p style=""font-size: 60px; font-family: BACS"">ZNLOvUZu</p>",,,,,,,,,,
html-keyboard-response,316,391255,0.0-14.0-0.65,5f33c58329beab1f63c0dfaa,650c16f0f2faf8d7a0d14c09,651c1ce9bca7d9252c87b257,null,null,"<p style=""font-size: 60px; font-family: BACS"">PctRCOYK</p>",,,,,,,,,,
html-keyboard-response,317,392268,0.0-14.0-0.66,5f33c58329beab1f63c0dfaa,650c16f0f2faf8d7a0d14c09,651c1ce9bca7d9252c87b257,null,null,"<p style=""font-size: 60px; font-family: BACS"">tRdMPMYm</p>",,,,,,,,,,
html-keyboard-response,318,393282,0.0-14.0-0.67,5f33c58329beab1f63c0dfaa,650c16f0f2faf8d7a0d14c09,651c1ce9bca7d9252c87b257,null,null,"<p style=""font-size: 60px; font-family: BACS"">DOBhYBYhT</p>",,,,,,,,,,
html-keyboard-response,319,394284,0.0-14.0-0.68,5f33c58329beab1f63c0dfaa,650c16f0f2faf8d7a0d14c09,651c1ce9bca7d9252c87b257,null,null,"<p style=""font-size: 60px; font-family: BACS"">adkrlvk</p>",,,,,,,,,,
html-keyboard-response,320,395286,0.0-14.0-0.69,5f33c58329beab1f63c0dfaa,650c16f0f2faf8d7a0d14c09,651c1ce9bca7d9252c87b257,null,null,"<p style=""font-size: 60px; font-family: BACS"">bROCBYhT</p>",,,,,,,,,,
html-keyboard-response,321,396290,0.0-14.0-0.70,5f33c58329beab1f63c0dfaa,650c16f0f2faf8d7a0d14c09,651c1ce9bca7d9252c87b257,null,null,"<p style=""font-size: 60px; font-family: BACS"">OJGQJZr</p>",,,,,,,,,,
html-keyboard-response,322,397305,0.0-14.0-0.71,5f33c58329beab1f63c0dfaa,650c16f0f2faf8d7a0d14c09,651c1ce9bca7d9252c87b257,null,null,"<p style=""font-size: 60px; font-family: BACS"">GLluAUZu</p>",,,,,,,,,,
html-keyboard-response,323,398308,0.0-14.0-0.72,5f33c58329beab1f63c0dfaa,650c16f0f2faf8d7a0d14c09,651c1ce9bca7d9252c87b257,null,null,"<p style=""font-size: 60px; font-family: BACS"">TbKMEOPE</p>",,,,,,,,,,
html-keyboard-response,324,399323,0.0-14.0-0.73,5f33c58329beab1f63c0dfaa,650c16f0f2faf8d7a0d14c09,651c1ce9bca7d9252c87b257,null,null,"<p style=""font-size: 60px; font-family: BACS"">YJLcAGrbk</p>",,,,,,,,,,
html-keyboard-response,325,400336,0.0-14.0-0.74,5f33c58329beab1f63c0dfaa,650c16f0f2faf8d7a0d14c09,651c1ce9bca7d9252c87b257,null,null,"<p style=""font-size: 60px; font-family: BACS"">tRdMBYhT</p>",,,,,,,,,,
html-keyboard-response,326,401339,0.0-14.0-0.75,5f33c58329beab1f63c0dfaa,650c16f0f2faf8d7a0d14c09,651c1ce9bca7d9252c87b257,null,null,"<p style=""font-size: 60px; font-family: BACS"">NAacQUZu</p>",,,,,,,,,,
html-keyboard-response,327,402355,0.0-14.0-0.76,5f33c58329beab1f63c0dfaa,650c16f0f2faf8d7a0d14c09,651c1ce9bca7d9252c87b257,null,null,"<p style=""font-size: 60px; font-family: BACS"">TbKMEPMYm</p>",,,,,,,,,,
html-keyboard-response,328,403369,0.0-14.0-0.77,5f33c58329beab1f63c0dfaa,650c16f0f2faf8d7a0d14c09,651c1ce9bca7d9252c87b257,null,null,"<p style=""font-size: 60px; font-family: BACS"">GLluAcrdY</p>",,,,,,,,,,
html-keyboard-response,329,404381,0.0-14.0-0.78,5f33c58329beab1f63c0dfaa,650c16f0f2faf8d7a0d14c09,651c1ce9bca7d9252c87b257,null,null,"<p style=""font-size: 60px; font-family: BACS"">tRdMOYK</p>",,,,,,,,,,
html-keyboard-response,330,405388,0.0-14.0-0.79,5f33c58329beab1f63c0dfaa,650c16f0f2faf8d7a0d14c09,651c1ce9bca7d9252c87b257,null,null,"<p style=""font-size: 60px; font-family: BACS"">CDEmYKOYC</p>",,,,,,,,,,
html-keyboard-response,331,409376,0.0-15.0,5f33c58329beab1f63c0dfaa,650c16f0f2faf8d7a0d14c09,651c1ce9bca7d9252c87b257,3988, ,"<p>Great, you've seen the fourth block of words. You may now take a short break.</p>
      <p>Press the spacebar when you're ready to continue.</p>",,,,,,,,,,
html-keyboard-response,332,410385,0.0-16.0-0.0,5f33c58329beab1f63c0dfaa,650c16f0f2faf8d7a0d14c09,651c1ce9bca7d9252c87b257,null,null,"<p style=""font-size: 60px; font-family: BACS"">YJLcAGrbk</p>",,,,,,,,,,
html-keyboard-response,333,411385,0.0-16.0-0.1,5f33c58329beab1f63c0dfaa,650c16f0f2faf8d7a0d14c09,651c1ce9bca7d9252c87b257,null,null,"<p style=""font-size: 60px; font-family: BACS"">YJLcAGrbk</p>",,,,,,,,,,
html-keyboard-response,334,412388,0.0-16.0-0.2,5f33c58329beab1f63c0dfaa,650c16f0f2faf8d7a0d14c09,651c1ce9bca7d9252c87b257,null,null,"<p style=""font-size: 60px; font-family: BACS"">YJLcAGrbk</p>",,,,,,,,,,
html-keyboard-response,335,413392,0.0-16.0-0.3,5f33c58329beab1f63c0dfaa,650c16f0f2faf8d7a0d14c09,651c1ce9bca7d9252c87b257,null,null,"<p style=""font-size: 60px; font-family: BACS"">YJLcAGrbk</p>",,,,,,,,,,
html-keyboard-response,336,414404,0.0-16.0-0.4,5f33c58329beab1f63c0dfaa,650c16f0f2faf8d7a0d14c09,651c1ce9bca7d9252c87b257,null,null,"<p style=""font-size: 60px; font-family: BACS"">YJLcAGrbk</p>",,,,,,,,,,
html-keyboard-response,337,415412,0.0-16.0-0.5,5f33c58329beab1f63c0dfaa,650c16f0f2faf8d7a0d14c09,651c1ce9bca7d9252c87b257,null,null,"<p style=""font-size: 60px; font-family: BACS"">YJLcAGrbk</p>",,,,,,,,,,
html-keyboard-response,338,416415,0.0-16.0-0.6,5f33c58329beab1f63c0dfaa,650c16f0f2faf8d7a0d14c09,651c1ce9bca7d9252c87b257,null,null,"<p style=""font-size: 60px; font-family: BACS"">YJLcAGrbk</p>",,,,,,,,,,
html-keyboard-response,339,417419,0.0-16.0-0.7,5f33c58329beab1f63c0dfaa,650c16f0f2faf8d7a0d14c09,651c1ce9bca7d9252c87b257,null,null,"<p style=""font-size: 60px; font-family: BACS"">YJLcAGrbk</p>",,,,,,,,,,
html-keyboard-response,340,418431,0.0-16.0-0.8,5f33c58329beab1f63c0dfaa,650c16f0f2faf8d7a0d14c09,651c1ce9bca7d9252c87b257,null,null,"<p style=""font-size: 60px; font-family: BACS"">YJLcAGrbk</p>",,,,,,,,,,
html-keyboard-response,341,419433,0.0-16.0-0.9,5f33c58329beab1f63c0dfaa,650c16f0f2faf8d7a0d14c09,651c1ce9bca7d9252c87b257,null,null,"<p style=""font-size: 60px; font-family: BACS"">YJLcAGrbk</p>",,,,,,,,,,
html-keyboard-response,342,420439,0.0-16.0-0.10,5f33c58329beab1f63c0dfaa,650c16f0f2faf8d7a0d14c09,651c1ce9bca7d9252c87b257,null,null,"<p style=""font-size: 60px; font-family: BACS"">YJLcAGrbk</p>",,,,,,,,,,
html-keyboard-response,343,421454,0.0-16.0-0.11,5f33c58329beab1f63c0dfaa,650c16f0f2faf8d7a0d14c09,651c1ce9bca7d9252c87b257,null,null,"<p style=""font-size: 60px; font-family: BACS"">YJLcAGrbk</p>",,,,,,,,,,
html-keyboard-response,344,422467,0.0-16.0-0.12,5f33c58329beab1f63c0dfaa,650c16f0f2faf8d7a0d14c09,651c1ce9bca7d9252c87b257,null,null,"<p style=""font-size: 60px; font-family: BACS"">YJLcAGrbk</p>",,,,,,,,,,
html-keyboard-response,345,423483,0.0-16.0-0.13,5f33c58329beab1f63c0dfaa,650c16f0f2faf8d7a0d14c09,651c1ce9bca7d9252c87b257,null,null,"<p style=""font-size: 60px; font-family: BACS"">YJLcAGrbk</p>",,,,,,,,,,
html-keyboard-response,346,424485,0.0-16.0-0.14,5f33c58329beab1f63c0dfaa,650c16f0f2faf8d7a0d14c09,651c1ce9bca7d9252c87b257,null,null,"<p style=""font-size: 60px; font-family: BACS"">YJLcAGrbk</p>",,,,,,,,,,
html-keyboard-response,347,425488,0.0-16.0-0.15,5f33c58329beab1f63c0dfaa,650c16f0f2faf8d7a0d14c09,651c1ce9bca7d9252c87b257,null,null,"<p style=""font-size: 60px; font-family: BACS"">YJLcAGrbk</p>",,,,,,,,,,
html-keyboard-response,348,426501,0.0-16.0-0.16,5f33c58329beab1f63c0dfaa,650c16f0f2faf8d7a0d14c09,651c1ce9bca7d9252c87b257,null,null,"<p style=""font-size: 60px; font-family: BACS"">YJLcAGrbk</p>",,,,,,,,,,
html-keyboard-response,349,427504,0.0-16.0-0.17,5f33c58329beab1f63c0dfaa,650c16f0f2faf8d7a0d14c09,651c1ce9bca7d9252c87b257,null,null,"<p style=""font-size: 60px; font-family: BACS"">YJLcAGrbk</p>",,,,,,,,,,
html-keyboard-response,350,428506,0.0-16.0-0.18,5f33c58329beab1f63c0dfaa,650c16f0f2faf8d7a0d14c09,651c1ce9bca7d9252c87b257,null,null,"<p style=""font-size: 60px; font-family: BACS"">YJLcAGrbk</p>",,,,,,,,,,
html-keyboard-response,351,429517,0.0-16.0-0.19,5f33c58329beab1f63c0dfaa,650c16f0f2faf8d7a0d14c09,651c1ce9bca7d9252c87b257,null,null,"<p style=""font-size: 60px; font-family: BACS"">YJLcAGrbk</p>",,,,,,,,,,
html-keyboard-response,352,430524,0.0-16.0-0.20,5f33c58329beab1f63c0dfaa,650c16f0f2faf8d7a0d14c09,651c1ce9bca7d9252c87b257,null,null,"<p style=""font-size: 60px; font-family: BACS"">YJLcAGrbk</p>",,,,,,,,,,
html-keyboard-response,353,431533,0.0-16.0-0.21,5f33c58329beab1f63c0dfaa,650c16f0f2faf8d7a0d14c09,651c1ce9bca7d9252c87b257,null,null,"<p style=""font-size: 60px; font-family: BACS"">YJLcAGrbk</p>",,,,,,,,,,
html-keyboard-response,354,432545,0.0-16.0-0.22,5f33c58329beab1f63c0dfaa,650c16f0f2faf8d7a0d14c09,651c1ce9bca7d9252c87b257,null,null,"<p style=""font-size: 60px; font-family: BACS"">YJLcAGrbk</p>",,,,,,,,,,
html-keyboard-response,355,433560,0.0-16.0-0.23,5f33c58329beab1f63c0dfaa,650c16f0f2faf8d7a0d14c09,651c1ce9bca7d9252c87b257,null,null,"<p style=""font-size: 60px; font-family: BACS"">YJLcAGrbk</p>",,,,,,,,,,
html-keyboard-response,356,434576,0.0-16.0-0.24,5f33c58329beab1f63c0dfaa,650c16f0f2faf8d7a0d14c09,651c1ce9bca7d9252c87b257,null,null,"<p style=""font-size: 60px; font-family: BACS"">YJLcAGrbk</p>",,,,,,,,,,
html-keyboard-response,357,435585,0.0-16.0-0.25,5f33c58329beab1f63c0dfaa,650c16f0f2faf8d7a0d14c09,651c1ce9bca7d9252c87b257,null,null,"<p style=""font-size: 60px; font-family: BACS"">YJLcAGrbk</p>",,,,,,,,,,
html-keyboard-response,358,436588,0.0-16.0-0.26,5f33c58329beab1f63c0dfaa,650c16f0f2faf8d7a0d14c09,651c1ce9bca7d9252c87b257,null,null,"<p style=""font-size: 60px; font-family: BACS"">YJLcAGrbk</p>",,,,,,,,,,
html-keyboard-response,359,437590,0.0-16.0-0.27,5f33c58329beab1f63c0dfaa,650c16f0f2faf8d7a0d14c09,651c1ce9bca7d9252c87b257,null,null,"<p style=""font-size: 60px; font-family: BACS"">YJLcAGrbk</p>",,,,,,,,,,
html-keyboard-response,360,438602,0.0-16.0-0.28,5f33c58329beab1f63c0dfaa,650c16f0f2faf8d7a0d14c09,651c1ce9bca7d9252c87b257,null,null,"<p style=""font-size: 60px; font-family: BACS"">YJLcAGrbk</p>",,,,,,,,,,
html-keyboard-response,361,439618,0.0-16.0-0.29,5f33c58329beab1f63c0dfaa,650c16f0f2faf8d7a0d14c09,651c1ce9bca7d9252c87b257,null,null,"<p style=""font-size: 60px; font-family: BACS"">YJLcAGrbk</p>",,,,,,,,,,
html-keyboard-response,362,440634,0.0-16.0-0.30,5f33c58329beab1f63c0dfaa,650c16f0f2faf8d7a0d14c09,651c1ce9bca7d9252c87b257,null,null,"<p style=""font-size: 60px; font-family: BACS"">YJLcAGrbk</p>",,,,,,,,,,
html-keyboard-response,363,441648,0.0-16.0-0.31,5f33c58329beab1f63c0dfaa,650c16f0f2faf8d7a0d14c09,651c1ce9bca7d9252c87b257,null,null,"<p style=""font-size: 60px; font-family: BACS"">YJLcAGrbk</p>",,,,,,,,,,
html-keyboard-response,364,442656,0.0-16.0-0.32,5f33c58329beab1f63c0dfaa,650c16f0f2faf8d7a0d14c09,651c1ce9bca7d9252c87b257,null,null,"<p style=""font-size: 60px; font-family: BACS"">YJLcAGrbk</p>",,,,,,,,,,
html-keyboard-response,365,443671,0.0-16.0-0.33,5f33c58329beab1f63c0dfaa,650c16f0f2faf8d7a0d14c09,651c1ce9bca7d9252c87b257,null,null,"<p style=""font-size: 60px; font-family: BACS"">YJLcAGrbk</p>",,,,,,,,,,
html-keyboard-response,366,444674,0.0-16.0-0.34,5f33c58329beab1f63c0dfaa,650c16f0f2faf8d7a0d14c09,651c1ce9bca7d9252c87b257,null,null,"<p style=""font-size: 60px; font-family: BACS"">YJLcAGrbk</p>",,,,,,,,,,
html-keyboard-response,367,445679,0.0-16.0-0.35,5f33c58329beab1f63c0dfaa,650c16f0f2faf8d7a0d14c09,651c1ce9bca7d9252c87b257,null,null,"<p style=""font-size: 60px; font-family: BACS"">YJLcAGrbk</p>",,,,,,,,,,
html-keyboard-response,368,446681,0.0-16.0-0.36,5f33c58329beab1f63c0dfaa,650c16f0f2faf8d7a0d14c09,651c1ce9bca7d9252c87b257,null,null,"<p style=""font-size: 60px; font-family: BACS"">YJLcAGrbk</p>",,,,,,,,,,
html-keyboard-response,369,447696,0.0-16.0-0.37,5f33c58329beab1f63c0dfaa,650c16f0f2faf8d7a0d14c09,651c1ce9bca7d9252c87b257,null,null,"<p style=""font-size: 60px; font-family: BACS"">YJLcAGrbk</p>",,,,,,,,,,
html-keyboard-response,370,448709,0.0-16.0-0.38,5f33c58329beab1f63c0dfaa,650c16f0f2faf8d7a0d14c09,651c1ce9bca7d9252c87b257,null,null,"<p style=""font-size: 60px; font-family: BACS"">YJLcAGrbk</p>",,,,,,,,,,
html-keyboard-response,371,449724,0.0-16.0-0.39,5f33c58329beab1f63c0dfaa,650c16f0f2faf8d7a0d14c09,651c1ce9bca7d9252c87b257,null,null,"<p style=""font-size: 60px; font-family: BACS"">YJLcAGrbk</p>",,,,,,,,,,
html-keyboard-response,372,450725,0.0-16.0-0.40,5f33c58329beab1f63c0dfaa,650c16f0f2faf8d7a0d14c09,651c1ce9bca7d9252c87b257,null,null,"<p style=""font-size: 60px; font-family: BACS"">YJLcAGrbk</p>",,,,,,,,,,
html-keyboard-response,373,451731,0.0-16.0-0.41,5f33c58329beab1f63c0dfaa,650c16f0f2faf8d7a0d14c09,651c1ce9bca7d9252c87b257,null,null,"<p style=""font-size: 60px; font-family: BACS"">YJLcAGrbk</p>",,,,,,,,,,
html-keyboard-response,374,452744,0.0-16.0-0.42,5f33c58329beab1f63c0dfaa,650c16f0f2faf8d7a0d14c09,651c1ce9bca7d9252c87b257,null,null,"<p style=""font-size: 60px; font-family: BACS"">YJLcAGrbk</p>",,,,,,,,,,
html-keyboard-response,375,453746,0.0-16.0-0.43,5f33c58329beab1f63c0dfaa,650c16f0f2faf8d7a0d14c09,651c1ce9bca7d9252c87b257,null,null,"<p style=""font-size: 60px; font-family: BACS"">YJLcAGrbk</p>",,,,,,,,,,
html-keyboard-response,376,454750,0.0-16.0-0.44,5f33c58329beab1f63c0dfaa,650c16f0f2faf8d7a0d14c09,651c1ce9bca7d9252c87b257,null,null,"<p style=""font-size: 60px; font-family: BACS"">YJLcAGrbk</p>",,,,,,,,,,
html-keyboard-response,377,455754,0.0-16.0-0.45,5f33c58329beab1f63c0dfaa,650c16f0f2faf8d7a0d14c09,651c1ce9bca7d9252c87b257,null,null,"<p style=""font-size: 60px; font-family: BACS"">YJLcAGrbk</p>",,,,,,,,,,
html-keyboard-response,378,456758,0.0-16.0-0.46,5f33c58329beab1f63c0dfaa,650c16f0f2faf8d7a0d14c09,651c1ce9bca7d9252c87b257,null,null,"<p style=""font-size: 60px; font-family: BACS"">YJLcAGrbk</p>",,,,,,,,,,
html-keyboard-response,379,457768,0.0-16.0-0.47,5f33c58329beab1f63c0dfaa,650c16f0f2faf8d7a0d14c09,651c1ce9bca7d9252c87b257,null,null,"<p style=""font-size: 60px; font-family: BACS"">YJLcAGrbk</p>",,,,,,,,,,
html-keyboard-response,380,458774,0.0-16.0-0.48,5f33c58329beab1f63c0dfaa,650c16f0f2faf8d7a0d14c09,651c1ce9bca7d9252c87b257,null,null,"<p style=""font-size: 60px; font-family: BACS"">YJLcAGrbk</p>",,,,,,,,,,
html-keyboard-response,381,459776,0.0-16.0-0.49,5f33c58329beab1f63c0dfaa,650c16f0f2faf8d7a0d14c09,651c1ce9bca7d9252c87b257,null,null,"<p style=""font-size: 60px; font-family: BACS"">YJLcAGrbk</p>",,,,,,,,,,
html-keyboard-response,382,460779,0.0-16.0-0.50,5f33c58329beab1f63c0dfaa,650c16f0f2faf8d7a0d14c09,651c1ce9bca7d9252c87b257,null,null,"<p style=""font-size: 60px; font-family: BACS"">YJLcAGrbk</p>",,,,,,,,,,
html-keyboard-response,383,461794,0.0-16.0-0.51,5f33c58329beab1f63c0dfaa,650c16f0f2faf8d7a0d14c09,651c1ce9bca7d9252c87b257,null,null,"<p style=""font-size: 60px; font-family: BACS"">YJLcAGrbk</p>",,,,,,,,,,
html-keyboard-response,384,462810,0.0-16.0-0.52,5f33c58329beab1f63c0dfaa,650c16f0f2faf8d7a0d14c09,651c1ce9bca7d9252c87b257,null,null,"<p style=""font-size: 60px; font-family: BACS"">YJLcAGrbk</p>",,,,,,,,,,
html-keyboard-response,385,463826,0.0-16.0-0.53,5f33c58329beab1f63c0dfaa,650c16f0f2faf8d7a0d14c09,651c1ce9bca7d9252c87b257,null,null,"<p style=""font-size: 60px; font-family: BACS"">YJLcAGrbk</p>",,,,,,,,,,
html-keyboard-response,386,464838,0.0-16.0-0.54,5f33c58329beab1f63c0dfaa,650c16f0f2faf8d7a0d14c09,651c1ce9bca7d9252c87b257,null,null,"<p style=""font-size: 60px; font-family: BACS"">YJLcAGrbk</p>",,,,,,,,,,
html-keyboard-response,387,465852,0.0-16.0-0.55,5f33c58329beab1f63c0dfaa,650c16f0f2faf8d7a0d14c09,651c1ce9bca7d9252c87b257,null,null,"<p style=""font-size: 60px; font-family: BACS"">YJLcAGrbk</p>",,,,,,,,,,
html-keyboard-response,388,466865,0.0-16.0-0.56,5f33c58329beab1f63c0dfaa,650c16f0f2faf8d7a0d14c09,651c1ce9bca7d9252c87b257,null,null,"<p style=""font-size: 60px; font-family: BACS"">YJLcAGrbk</p>",,,,,,,,,,
html-keyboard-response,389,467867,0.0-16.0-0.57,5f33c58329beab1f63c0dfaa,650c16f0f2faf8d7a0d14c09,651c1ce9bca7d9252c87b257,null,null,"<p style=""font-size: 60px; font-family: BACS"">YJLcAGrbk</p>",,,,,,,,,,
html-keyboard-response,390,468869,0.0-16.0-0.58,5f33c58329beab1f63c0dfaa,650c16f0f2faf8d7a0d14c09,651c1ce9bca7d9252c87b257,null,null,"<p style=""font-size: 60px; font-family: BACS"">YJLcAGrbk</p>",,,,,,,,,,
html-keyboard-response,391,469884,0.0-16.0-0.59,5f33c58329beab1f63c0dfaa,650c16f0f2faf8d7a0d14c09,651c1ce9bca7d9252c87b257,null,null,"<p style=""font-size: 60px; font-family: BACS"">YJLcAGrbk</p>",,,,,,,,,,
html-keyboard-response,392,470897,0.0-16.0-0.60,5f33c58329beab1f63c0dfaa,650c16f0f2faf8d7a0d14c09,651c1ce9bca7d9252c87b257,null,null,"<p style=""font-size: 60px; font-family: BACS"">YJLcAGrbk</p>",,,,,,,,,,
html-keyboard-response,393,471911,0.0-16.0-0.61,5f33c58329beab1f63c0dfaa,650c16f0f2faf8d7a0d14c09,651c1ce9bca7d9252c87b257,null,null,"<p style=""font-size: 60px; font-family: BACS"">YJLcAGrbk</p>",,,,,,,,,,
html-keyboard-response,394,472914,0.0-16.0-0.62,5f33c58329beab1f63c0dfaa,650c16f0f2faf8d7a0d14c09,651c1ce9bca7d9252c87b257,null,null,"<p style=""font-size: 60px; font-family: BACS"">YJLcAGrbk</p>",,,,,,,,,,
html-keyboard-response,395,473925,0.0-16.0-0.63,5f33c58329beab1f63c0dfaa,650c16f0f2faf8d7a0d14c09,651c1ce9bca7d9252c87b257,null,null,"<p style=""font-size: 60px; font-family: BACS"">YJLcAGrbk</p>",,,,,,,,,,
html-keyboard-response,396,474928,0.0-16.0-0.64,5f33c58329beab1f63c0dfaa,650c16f0f2faf8d7a0d14c09,651c1ce9bca7d9252c87b257,null,null,"<p style=""font-size: 60px; font-family: BACS"">YJLcAGrbk</p>",,,,,,,,,,
html-keyboard-response,397,475934,0.0-16.0-0.65,5f33c58329beab1f63c0dfaa,650c16f0f2faf8d7a0d14c09,651c1ce9bca7d9252c87b257,null,null,"<p style=""font-size: 60px; font-family: BACS"">YJLcAGrbk</p>",,,,,,,,,,
html-keyboard-response,398,476935,0.0-16.0-0.66,5f33c58329beab1f63c0dfaa,650c16f0f2faf8d7a0d14c09,651c1ce9bca7d9252c87b257,null,null,"<p style=""font-size: 60px; font-family: BACS"">YJLcAGrbk</p>",,,,,,,,,,
html-keyboard-response,399,477950,0.0-16.0-0.67,5f33c58329beab1f63c0dfaa,650c16f0f2faf8d7a0d14c09,651c1ce9bca7d9252c87b257,null,null,"<p style=""font-size: 60px; font-family: BACS"">YJLcAGrbk</p>",,,,,,,,,,
html-keyboard-response,400,478953,0.0-16.0-0.68,5f33c58329beab1f63c0dfaa,650c16f0f2faf8d7a0d14c09,651c1ce9bca7d9252c87b257,null,null,"<p style=""font-size: 60px; font-family: BACS"">YJLcAGrbk</p>",,,,,,,,,,
html-keyboard-response,401,479954,0.0-16.0-0.69,5f33c58329beab1f63c0dfaa,650c16f0f2faf8d7a0d14c09,651c1ce9bca7d9252c87b257,null,null,"<p style=""font-size: 60px; font-family: BACS"">YJLcAGrbk</p>",,,,,,,,,,
html-keyboard-response,402,480962,0.0-16.0-0.70,5f33c58329beab1f63c0dfaa,650c16f0f2faf8d7a0d14c09,651c1ce9bca7d9252c87b257,null,null,"<p style=""font-size: 60px; font-family: BACS"">YJLcAGrbk</p>",,,,,,,,,,
html-keyboard-response,403,481969,0.0-16.0-0.71,5f33c58329beab1f63c0dfaa,650c16f0f2faf8d7a0d14c09,651c1ce9bca7d9252c87b257,null,null,"<p style=""font-size: 60px; font-family: BACS"">YJLcAGrbk</p>",,,,,,,,,,
html-keyboard-response,404,482972,0.0-16.0-0.72,5f33c58329beab1f63c0dfaa,650c16f0f2faf8d7a0d14c09,651c1ce9bca7d9252c87b257,null,null,"<p style=""font-size: 60px; font-family: BACS"">YJLcAGrbk</p>",,,,,,,,,,
html-keyboard-response,405,483985,0.0-16.0-0.73,5f33c58329beab1f63c0dfaa,650c16f0f2faf8d7a0d14c09,651c1ce9bca7d9252c87b257,null,null,"<p style=""font-size: 60px; font-family: BACS"">YJLcAGrbk</p>",,,,,,,,,,
html-keyboard-response,406,484992,0.0-16.0-0.74,5f33c58329beab1f63c0dfaa,650c16f0f2faf8d7a0d14c09,651c1ce9bca7d9252c87b257,null,null,"<p style=""font-size: 60px; font-family: BACS"">YJLcAGrbk</p>",,,,,,,,,,
html-keyboard-response,407,485998,0.0-16.0-0.75,5f33c58329beab1f63c0dfaa,650c16f0f2faf8d7a0d14c09,651c1ce9bca7d9252c87b257,null,null,"<p style=""font-size: 60px; font-family: BACS"">YJLcAGrbk</p>",,,,,,,,,,
html-keyboard-response,408,487004,0.0-16.0-0.76,5f33c58329beab1f63c0dfaa,650c16f0f2faf8d7a0d14c09,651c1ce9bca7d9252c87b257,null,null,"<p style=""font-size: 60px; font-family: BACS"">YJLcAGrbk</p>",,,,,,,,,,
html-keyboard-response,409,488006,0.0-16.0-0.77,5f33c58329beab1f63c0dfaa,650c16f0f2faf8d7a0d14c09,651c1ce9bca7d9252c87b257,null,null,"<p style=""font-size: 60px; font-family: BACS"">YJLcAGrbk</p>",,,,,,,,,,
html-keyboard-response,410,489016,0.0-16.0-0.78,5f33c58329beab1f63c0dfaa,650c16f0f2faf8d7a0d14c09,651c1ce9bca7d9252c87b257,null,null,"<p style=""font-size: 60px; font-family: BACS"">YJLcAGrbk</p>",,,,,,,,,,
html-keyboard-response,411,490022,0.0-16.0-0.79,5f33c58329beab1f63c0dfaa,650c16f0f2faf8d7a0d14c09,651c1ce9bca7d9252c87b257,null,null,"<p style=""font-size: 60px; font-family: BACS"">YJLcAGrbk</p>",,,,,,,,,,
html-keyboard-response,412,494813,0.0-17.0,5f33c58329beab1f63c0dfaa,650c16f0f2faf8d7a0d14c09,651c1ce9bca7d9252c87b257,4792, ,"<p>Great, you've seen the fifth block of words. You may now take a short break.</p>
      <p>Press the spacebar when you're ready to continue.</p>",,,,,,,,,,
html-keyboard-response,413,495824,0.0-18.0-0.0,5f33c58329beab1f63c0dfaa,650c16f0f2faf8d7a0d14c09,651c1ce9bca7d9252c87b257,null,null,"<p style=""font-size: 60px; font-family: BACS"">NAacQJZr</p>",,,,,,,,,,
html-keyboard-response,414,496838,0.0-18.0-0.1,5f33c58329beab1f63c0dfaa,650c16f0f2faf8d7a0d14c09,651c1ce9bca7d9252c87b257,null,null,"<p style=""font-size: 60px; font-family: BACS"">PctRCOPE</p>",,,,,,,,,,
html-keyboard-response,415,497842,0.0-18.0-0.2,5f33c58329beab1f63c0dfaa,650c16f0f2faf8d7a0d14c09,651c1ce9bca7d9252c87b257,null,null,"<p style=""font-size: 60px; font-family: BACS"">bROCOYK</p>",,,,,,,,,,
html-keyboard-response,416,498856,0.0-18.0-0.3,5f33c58329beab1f63c0dfaa,650c16f0f2faf8d7a0d14c09,651c1ce9bca7d9252c87b257,null,null,"<p style=""font-size: 60px; font-family: BACS"">TbKMEOPE</p>",,,,,,,,,,
html-keyboard-response,417,499871,0.0-18.0-0.4,5f33c58329beab1f63c0dfaa,650c16f0f2faf8d7a0d14c09,651c1ce9bca7d9252c87b257,null,null,"<p style=""font-size: 60px; font-family: BACS"">dvNvAUZu</p>",,,,,,,,,,
html-keyboard-response,418,500884,0.0-18.0-0.5,5f33c58329beab1f63c0dfaa,650c16f0f2faf8d7a0d14c09,651c1ce9bca7d9252c87b257,null,null,"<p style=""font-size: 60px; font-family: BACS"">DBPhcBYhT</p>",,,,,,,,,,
html-keyboard-response,419,501886,0.0-18.0-0.6,5f33c58329beab1f63c0dfaa,650c16f0f2faf8d7a0d14c09,651c1ce9bca7d9252c87b257,null,null,"<p style=""font-size: 60px; font-family: BACS"">OJGQJZr</p>",,,,,,,,,,
html-keyboard-response,420,502902,0.0-18.0-0.7,5f33c58329beab1f63c0dfaa,650c16f0f2faf8d7a0d14c09,651c1ce9bca7d9252c87b257,null,null,"<p style=""font-size: 60px; font-family: BACS"">tRdMOYK</p>",,,,,,,,,,
html-keyboard-response,421,503907,0.0-18.0-0.8,5f33c58329beab1f63c0dfaa,650c16f0f2faf8d7a0d14c09,651c1ce9bca7d9252c87b257,null,null,"<p style=""font-size: 60px; font-family: BACS"">YJLcAcrdY</p>",,,,,,,,,,
html-keyboard-response,422,504909,0.0-18.0-0.9,5f33c58329beab1f63c0dfaa,650c16f0f2faf8d7a0d14c09,651c1ce9bca7d9252c87b257,null,null,"<p style=""font-size: 60px; font-family: BACS"">bROCPMYm</p>",,,,,,,,,,
html-keyboard-response,423,505925,0.0-18.0-0.10,5f33c58329beab1f63c0dfaa,650c16f0f2faf8d7a0d14c09,651c1ce9bca7d9252c87b257,null,null,"<p style=""font-size: 60px; font-family: BACS"">GLluAcrdY</p>",,,,,,,,,,
html-keyboard-response,424,506929,0.0-18.0-0.11,5f33c58329beab1f63c0dfaa,650c16f0f2faf8d7a0d14c09,651c1ce9bca7d9252c87b257,null,null,"<p style=""font-size: 60px; font-family: BACS"">aYQmUZu</p>",,,,,,,,,,
html-keyboard-response,425,507939,0.0-18.0-0.12,5f33c58329beab1f63c0dfaa,650c16f0f2faf8d7a0d14c09,651c1ce9bca7d9252c87b257,null,null,"<p style=""font-size: 60px; font-family: BACS"">tKDmhPMYm</p>",,,,,,,,,,
html-keyboard-response,426,508955,0.0-18.0-0.13,5f33c58329beab1f63c0dfaa,650c16f0f2faf8d7a0d14c09,651c1ce9bca7d9252c87b257,null,null,"<p style=""font-size: 60px; font-family: BACS"">YJLcAJZr</p>",,,,,,,,,,
html-keyboard-response,427,509960,0.0-18.0-0.14,5f33c58329beab1f63c0dfaa,650c16f0f2faf8d7a0d14c09,651c1ce9bca7d9252c87b257,null,null,"<p style=""font-size: 60px; font-family: BACS"">adkrlvk</p>",,,,,,,,,,
html-keyboard-response,428,510974,0.0-18.0-0.15,5f33c58329beab1f63c0dfaa,650c16f0f2faf8d7a0d14c09,651c1ce9bca7d9252c87b257,null,null,"<p style=""font-size: 60px; font-family: BACS"">rLaZJZr</p>",,,,,,,,,,
html-keyboard-response,429,511987,0.0-18.0-0.16,5f33c58329beab1f63c0dfaa,650c16f0f2faf8d7a0d14c09,651c1ce9bca7d9252c87b257,null,null,"<p style=""font-size: 60px; font-family: BACS"">ZNLOvlvk</p>",,,,,,,,,,
html-keyboard-response,430,512999,0.0-18.0-0.17,5f33c58329beab1f63c0dfaa,650c16f0f2faf8d7a0d14c09,651c1ce9bca7d9252c87b257,null,null,"<p style=""font-size: 60px; font-family: BACS"">DBPhcPMYm</p>",,,,,,,,,,
html-keyboard-response,431,514011,0.0-18.0-0.18,5f33c58329beab1f63c0dfaa,650c16f0f2faf8d7a0d14c09,651c1ce9bca7d9252c87b257,null,null,"<p style=""font-size: 60px; font-family: BACS"">dvNvAcrdY</p>",,,,,,,,,,
html-keyboard-response,432,515016,0.0-18.0-0.19,5f33c58329beab1f63c0dfaa,650c16f0f2faf8d7a0d14c09,651c1ce9bca7d9252c87b257,null,null,"<p style=""font-size: 60px; font-family: BACS"">YJLcAGrbk</p>",,,,,,,,,,
html-keyboard-response,433,516018,0.0-18.0-0.20,5f33c58329beab1f63c0dfaa,650c16f0f2faf8d7a0d14c09,651c1ce9bca7d9252c87b257,null,null,"<p style=""font-size: 60px; font-family: BACS"">adkrcrdY</p>",,,,,,,,,,
html-keyboard-response,434,517024,0.0-18.0-0.21,5f33c58329beab1f63c0dfaa,650c16f0f2faf8d7a0d14c09,651c1ce9bca7d9252c87b257,null,null,"<p style=""font-size: 60px; font-family: BACS"">tRdMBYhT</p>",,,,,,,,,,
html-keyboard-response,435,518030,0.0-18.0-0.22,5f33c58329beab1f63c0dfaa,650c16f0f2faf8d7a0d14c09,651c1ce9bca7d9252c87b257,null,null,"<p style=""font-size: 60px; font-family: BACS"">CDEmYOYK</p>",,,,,,,,,,
html-keyboard-response,436,519043,0.0-18.0-0.23,5f33c58329beab1f63c0dfaa,650c16f0f2faf8d7a0d14c09,651c1ce9bca7d9252c87b257,null,null,"<p style=""font-size: 60px; font-family: BACS"">aYQmlvk</p>",,,,,,,,,,
html-keyboard-response,437,520058,0.0-18.0-0.24,5f33c58329beab1f63c0dfaa,650c16f0f2faf8d7a0d14c09,651c1ce9bca7d9252c87b257,null,null,"<p style=""font-size: 60px; font-family: BACS"">TbKMEPMYm</p>",,,,,,,,,,
html-keyboard-response,438,521064,0.0-18.0-0.25,5f33c58329beab1f63c0dfaa,650c16f0f2faf8d7a0d14c09,651c1ce9bca7d9252c87b257,null,null,"<p style=""font-size: 60px; font-family: BACS"">bROCOPE</p>",,,,,,,,,,
html-keyboard-response,439,522076,0.0-18.0-0.26,5f33c58329beab1f63c0dfaa,650c16f0f2faf8d7a0d14c09,651c1ce9bca7d9252c87b257,null,null,"<p style=""font-size: 60px; font-family: BACS"">YJLcAlvk</p>",,,,,,,,,,
html-keyboard-response,440,523079,0.0-18.0-0.27,5f33c58329beab1f63c0dfaa,650c16f0f2faf8d7a0d14c09,651c1ce9bca7d9252c87b257,null,null,"<p style=""font-size: 60px; font-family: BACS"">OJGQGrbk</p>",,,,,,,,,,
html-keyboard-response,441,524083,0.0-18.0-0.28,5f33c58329beab1f63c0dfaa,650c16f0f2faf8d7a0d14c09,651c1ce9bca7d9252c87b257,null,null,"<p style=""font-size: 60px; font-family: BACS"">NAacQUZu</p>",,,,,,,,,,
html-keyboard-response,442,525093,0.0-18.0-0.29,5f33c58329beab1f63c0dfaa,650c16f0f2faf8d7a0d14c09,651c1ce9bca7d9252c87b257,null,null,"<p style=""font-size: 60px; font-family: BACS"">ZNLOvGrbk</p>",,,,,,,,,,
html-keyboard-response,443,526095,0.0-18.0-0.30,5f33c58329beab1f63c0dfaa,650c16f0f2faf8d7a0d14c09,651c1ce9bca7d9252c87b257,null,null,"<p style=""font-size: 60px; font-family: BACS"">RhPmOPE</p>",,,,,,,,,,
html-keyboard-response,444,527111,0.0-18.0-0.31,5f33c58329beab1f63c0dfaa,650c16f0f2faf8d7a0d14c09,651c1ce9bca7d9252c87b257,null,null,"<p style=""font-size: 60px; font-family: BACS"">PctRCOYK</p>",,,,,,,,,,
html-keyboard-response,445,528125,0.0-18.0-0.32,5f33c58329beab1f63c0dfaa,650c16f0f2faf8d7a0d14c09,651c1ce9bca7d9252c87b257,null,null,"<p style=""font-size: 60px; font-family: BACS"">DOBhYPMYm</p>",,,,,,,,,,
html-keyboard-response,446,529139,0.0-18.0-0.33,5f33c58329beab1f63c0dfaa,650c16f0f2faf8d7a0d14c09,651c1ce9bca7d9252c87b257,null,null,"<p style=""font-size: 60px; font-family: BACS"">RhPmBYhT</p>",,,,,,,,,,
html-keyboard-response,447,530152,0.0-18.0-0.34,5f33c58329beab1f63c0dfaa,650c16f0f2faf8d7a0d14c09,651c1ce9bca7d9252c87b257,null,null,"<p style=""font-size: 60px; font-family: BACS"">OAmGrlvk</p>",,,,,,,,,,
html-keyboard-response,448,531164,0.0-18.0-0.35,5f33c58329beab1f63c0dfaa,650c16f0f2faf8d7a0d14c09,651c1ce9bca7d9252c87b257,null,null,"<p style=""font-size: 60px; font-family: BACS"">PctRCKOYC</p>",,,,,,,,,,
html-keyboard-response,449,532176,0.0-18.0-0.36,5f33c58329beab1f63c0dfaa,650c16f0f2faf8d7a0d14c09,651c1ce9bca7d9252c87b257,null,null,"<p style=""font-size: 60px; font-family: BACS"">rLaZGrbk</p>",,,,,,,,,,
html-keyboard-response,450,533188,0.0-18.0-0.37,5f33c58329beab1f63c0dfaa,650c16f0f2faf8d7a0d14c09,651c1ce9bca7d9252c87b257,null,null,"<p style=""font-size: 60px; font-family: BACS"">DOBhYOPE</p>",,,,,,,,,,
html-keyboard-response,451,534195,0.0-18.0-0.38,5f33c58329beab1f63c0dfaa,650c16f0f2faf8d7a0d14c09,651c1ce9bca7d9252c87b257,null,null,"<p style=""font-size: 60px; font-family: BACS"">OJGQcrdY</p>",,,,,,,,,,
html-keyboard-response,452,535209,0.0-18.0-0.39,5f33c58329beab1f63c0dfaa,650c16f0f2faf8d7a0d14c09,651c1ce9bca7d9252c87b257,null,null,"<p style=""font-size: 60px; font-family: BACS"">mhtcOPE</p>",,,,,,,,,,
html-keyboard-response,453,536214,0.0-18.0-0.40,5f33c58329beab1f63c0dfaa,650c16f0f2faf8d7a0d14c09,651c1ce9bca7d9252c87b257,null,null,"<p style=""font-size: 60px; font-family: BACS"">DBPhcKOYC</p>",,,,,,,,,,
html-keyboard-response,454,537230,0.0-18.0-0.41,5f33c58329beab1f63c0dfaa,650c16f0f2faf8d7a0d14c09,651c1ce9bca7d9252c87b257,null,null,"<p style=""font-size: 60px; font-family: BACS"">CDEmYPMYm</p>",,,,,,,,,,
html-keyboard-response,455,538237,0.0-18.0-0.42,5f33c58329beab1f63c0dfaa,650c16f0f2faf8d7a0d14c09,651c1ce9bca7d9252c87b257,null,null,"<p style=""font-size: 60px; font-family: BACS"">NAacQlvk</p>",,,,,,,,,,
html-keyboard-response,456,539252,0.0-18.0-0.43,5f33c58329beab1f63c0dfaa,650c16f0f2faf8d7a0d14c09,651c1ce9bca7d9252c87b257,null,null,"<p style=""font-size: 60px; font-family: BACS"">OJGQUZu</p>",,,,,,,,,,
html-keyboard-response,457,540265,0.0-18.0-0.44,5f33c58329beab1f63c0dfaa,650c16f0f2faf8d7a0d14c09,651c1ce9bca7d9252c87b257,null,null,"<p style=""font-size: 60px; font-family: BACS"">CDEmYKOYC</p>",,,,,,,,,,
html-keyboard-response,458,541274,0.0-18.0-0.45,5f33c58329beab1f63c0dfaa,650c16f0f2faf8d7a0d14c09,651c1ce9bca7d9252c87b257,null,null,"<p style=""font-size: 60px; font-family: BACS"">tKDmhBYhT</p>",,,,,,,,,,
html-keyboard-response,459,542284,0.0-18.0-0.46,5f33c58329beab1f63c0dfaa,650c16f0f2faf8d7a0d14c09,651c1ce9bca7d9252c87b257,null,null,"<p style=""font-size: 60px; font-family: BACS"">adkrJZr</p>",,,,,,,,,,
html-keyboard-response,460,543292,0.0-18.0-0.47,5f33c58329beab1f63c0dfaa,650c16f0f2faf8d7a0d14c09,651c1ce9bca7d9252c87b257,null,null,"<p style=""font-size: 60px; font-family: BACS"">PctRCBYhT</p>",,,,,,,,,,
html-keyboard-response,461,544294,0.0-18.0-0.48,5f33c58329beab1f63c0dfaa,650c16f0f2faf8d7a0d14c09,651c1ce9bca7d9252c87b257,null,null,"<p style=""font-size: 60px; font-family: BACS"">GLluAUZu</p>",,,,,,,,,,
html-keyboard-response,462,545305,0.0-18.0-0.49,5f33c58329beab1f63c0dfaa,650c16f0f2faf8d7a0d14c09,651c1ce9bca7d9252c87b257,null,null,"<p style=""font-size: 60px; font-family: BACS"">tRdMPMYm</p>",,,,,,,,,,
html-keyboard-response,463,546321,0.0-18.0-0.50,5f33c58329beab1f63c0dfaa,650c16f0f2faf8d7a0d14c09,651c1ce9bca7d9252c87b257,null,null,"<p style=""font-size: 60px; font-family: BACS"">RhPmOYK</p>",,,,,,,,,,
html-keyboard-response,464,547330,0.0-18.0-0.51,5f33c58329beab1f63c0dfaa,650c16f0f2faf8d7a0d14c09,651c1ce9bca7d9252c87b257,null,null,"<p style=""font-size: 60px; font-family: BACS"">adkrGrbk</p>",,,,,,,,,,
html-keyboard-response,465,548341,0.0-18.0-0.52,5f33c58329beab1f63c0dfaa,650c16f0f2faf8d7a0d14c09,651c1ce9bca7d9252c87b257,null,null,"<p style=""font-size: 60px; font-family: BACS"">GLluAlvk</p>",,,,,,,,,,
