trial_type,trial_index,time_elapsed,internal_node_id,subject_id,study_id,session_id,rt,response,stimulus,success,item,task,correct_response,testing_condition,correct,target,confound,name,view_history
pavlovia,0,895,0.0-0.0,5fc2d2d79da439201ab6addc,650c16f0f2faf8d7a0d14c09,651c1d4281aa91f235a361ad,,,,,,,,,,,,,
survey-html-form,1,10697,0.0-1.0,5fc2d2d79da439201ab6addc,650c16f0f2faf8d7a0d14c09,651c1d4281aa91f235a361ad,9799,"{""ID"":""5fc2d2d79da439201ab6addc""}",,,,,,,,,,,
html-keyboard-response,2,17555,0.0-2.0,5fc2d2d79da439201ab6addc,650c16f0f2faf8d7a0d14c09,651c1d4281aa91f235a361ad,6857, ,"<p style=""font-size: 15px;"">Before beginning, we ask that you read the consent information and confirm your agreement to participate in the experiment.</p>
      <p style=""font-size: 15px;""> We ask that you remember that this is a research project and that your participation is entirely voluntary. You can stop your participation at any time, without needing to provide any explanation. The study we're asking you to participate in aims at examining how readers process written words. You will be engaged in a session of apprximately 20 minutes, followed by a brief questionnaire. You will have the opportunity to take a few breaks during the experiment. You will be paid £4 for your participation, corresponding to a rate of £8/hour. While this experiment looks at cognitive faculties, this experiment doesn't constitute clinical proof of eventual pathologies.</p>
      <p style=""font-size: 15px;"">All of the information collected thanks to yours and others' participation will be held in a secure password-protected server, and will not be shared with anyone not authorised to view it. Your personal information will be kept with an arbitrary participant ID. Thanks to this data anonymity process, any researcher analysing the data won't be able to track the information back to a specific participant. Therefore, this process will make identifying you impossibile, even when results from the study will be published in scientific reviews, presented at congresses, or at any other public forum. More generally, the collected data will be treated in accordance with the laws on privacy and conformity to the Legislative Degree n. 196 ""Code regarding the protection of personal data"" of the 30th of June 2003 and to the European Regulation 2016/670 (General Data Protection Regulation - GDPR). The Data Protection Officer is Avv. Valentina Carollo, who can be contacted at the following email addresses: <a href=""mailto:dpo@sissa.it"">dpo@sissa.it</a> or <a href=""mailto:rpd@sissa.it"">rpd@sissa.it</a> - PEC: <a href=""mailto:protocollo@pec.sissa.it"">protocollo@pec.sissa.it</a>.</p>
      <p style=""font-size: 15px;""> Before expressing your consent to participate, we would like to remind you again that in case you need explanations on any aspect of the experimental procedure, the researcher is at your disposition (<a href=""mailto:aliebelt@sissa.it"">aliebelt@sissa.it</a>, <a href=""mailto:davide.crepaldi@sissa.it"">davide.crepaldi@sissa.it</a>).</p>
      <p style=""font-size: 15px;"">If you would like to download the informed consent form, you can do so here: <a href=""BASL-Informed_Consent.pdf"" download>informed consent form</a>.</p>
      <p style=""font-size: 15px;"">We ask that you press the spacebar to proceed to the consent section.</p>",,,,,,,,,,
survey-html-form,3,65436,0.0-3.0,5fc2d2d79da439201ab6addc,650c16f0f2faf8d7a0d14c09,651c1d4281aa91f235a361ad,47879,"{""consent1"":""YES"",""consent2"":""YES"",""consent3"":""YES"",""consent4"":""YES"",""consent5"":""YES"",""consent6"":""YES""}",,,,,,,,,,,
fullscreen,4,70315,0.0-4.0,5fc2d2d79da439201ab6addc,650c16f0f2faf8d7a0d14c09,651c1d4281aa91f235a361ad,,,,TRUE,,,,,,,,,
html-keyboard-response,5,117242,0.0-5.0,5fc2d2d79da439201ab6addc,650c16f0f2faf8d7a0d14c09,651c1d4281aa91f235a361ad,46926, ,"<p>Welcome, and thank you very much for your time!</p>
      <p>In this experiment, you'll be a language expert who's been asked to take a look at words that Earth has received in its first communication with aliens. Your task, in this first part of the experiment, is to pay close attention to the words you'll be shown; later, world leaders will ask you questions on what you saw. The words will be shown to you quite quickly; it seems that the aliens were in a hurry :-)</p>
      <p>Press the spacebar to continue.<p>",,,,,,,,,,
html-keyboard-response,6,117300,0.0-6.0,5fc2d2d79da439201ab6addc,650c16f0f2faf8d7a0d14c09,651c1d4281aa91f235a361ad,null,null,"<p style=""font-size: 120px; font-family: BACS""> </p>",,,,,,,,,,
html-keyboard-response,7,129193,0.0-7.0,5fc2d2d79da439201ab6addc,650c16f0f2faf8d7a0d14c09,651c1d4281aa91f235a361ad,11893, ,"<p>Here is an example of the words you'll see:</p>
      <img src='esempio.png' height='400px'>
      <p>When you're ready to begin, press the spacebar.</p></div>",,,,,,,,,,
html-keyboard-response,8,130211,0.0-8.0-0.0,5fc2d2d79da439201ab6addc,650c16f0f2faf8d7a0d14c09,651c1d4281aa91f235a361ad,null,null,"<p style=""font-size: 60px; font-family: BACS"">DMRPTRK</p>",,,,,,,,,,
html-keyboard-response,9,131216,0.0-8.0-0.1,5fc2d2d79da439201ab6addc,650c16f0f2faf8d7a0d14c09,651c1d4281aa91f235a361ad,null,null,"<p style=""font-size: 60px; font-family: BACS"">aUZAmLJ</p>",,,,,,,,,,
html-keyboard-response,10,132231,0.0-8.0-0.2,5fc2d2d79da439201ab6addc,650c16f0f2faf8d7a0d14c09,651c1d4281aa91f235a361ad,null,null,"<p style=""font-size: 60px; font-family: BACS"">PhktkTRK</p>",,,,,,,,,,
html-keyboard-response,11,133239,0.0-8.0-0.3,5fc2d2d79da439201ab6addc,650c16f0f2faf8d7a0d14c09,651c1d4281aa91f235a361ad,null,null,"<p style=""font-size: 60px; font-family: BACS"">ukYZmLJ</p>",,,,,,,,,,
html-keyboard-response,12,134248,0.0-8.0-0.4,5fc2d2d79da439201ab6addc,650c16f0f2faf8d7a0d14c09,651c1d4281aa91f235a361ad,null,null,"<p style=""font-size: 60px; font-family: BACS"">hkRKTRK</p>",,,,,,,,,,
html-keyboard-response,13,135254,0.0-8.0-0.5,5fc2d2d79da439201ab6addc,650c16f0f2faf8d7a0d14c09,651c1d4281aa91f235a361ad,null,null,"<p style=""font-size: 60px; font-family: BACS"">LdQvuda</p>",,,,,,,,,,
html-keyboard-response,14,136270,0.0-8.0-0.6,5fc2d2d79da439201ab6addc,650c16f0f2faf8d7a0d14c09,651c1d4281aa91f235a361ad,null,null,"<p style=""font-size: 60px; font-family: BACS"">rcmuvJUNa</p>",,,,,,,,,,
html-keyboard-response,15,137273,0.0-8.0-0.7,5fc2d2d79da439201ab6addc,650c16f0f2faf8d7a0d14c09,651c1d4281aa91f235a361ad,null,null,"<p style=""font-size: 60px; font-family: BACS"">AbKDTAm</p>",,,,,,,,,,
html-keyboard-response,16,138279,0.0-8.0-0.8,5fc2d2d79da439201ab6addc,650c16f0f2faf8d7a0d14c09,651c1d4281aa91f235a361ad,null,null,"<p style=""font-size: 60px; font-family: BACS"">PhktkdEPD</p>",,,,,,,,,,
html-keyboard-response,17,139295,0.0-8.0-0.9,5fc2d2d79da439201ab6addc,650c16f0f2faf8d7a0d14c09,651c1d4281aa91f235a361ad,null,null,"<p style=""font-size: 60px; font-family: BACS"">rcmuvmLJ</p>",,,,,,,,,,
html-keyboard-response,18,140309,0.0-8.0-0.10,5fc2d2d79da439201ab6addc,650c16f0f2faf8d7a0d14c09,651c1d4281aa91f235a361ad,null,null,"<p style=""font-size: 60px; font-family: BACS"">auYAkuvJ</p>",,,,,,,,,,
html-keyboard-response,19,141318,0.0-8.0-0.11,5fc2d2d79da439201ab6addc,650c16f0f2faf8d7a0d14c09,651c1d4281aa91f235a361ad,null,null,"<p style=""font-size: 60px; font-family: BACS"">AbKDYbBT</p>",,,,,,,,,,
html-keyboard-response,20,142324,0.0-8.0-0.12,5fc2d2d79da439201ab6addc,650c16f0f2faf8d7a0d14c09,651c1d4281aa91f235a361ad,null,null,"<p style=""font-size: 60px; font-family: BACS"">DOchlTRK</p>",,,,,,,,,,
html-keyboard-response,21,143331,0.0-8.0-0.13,5fc2d2d79da439201ab6addc,650c16f0f2faf8d7a0d14c09,651c1d4281aa91f235a361ad,null,null,"<p style=""font-size: 60px; font-family: BACS"">hkRKdEPD</p>",,,,,,,,,,
html-keyboard-response,22,144333,0.0-8.0-0.14,5fc2d2d79da439201ab6addc,650c16f0f2faf8d7a0d14c09,651c1d4281aa91f235a361ad,null,null,"<p style=""font-size: 60px; font-family: BACS"">uvaUuvJ</p>",,,,,,,,,,
html-keyboard-response,23,145348,0.0-8.0-0.15,5fc2d2d79da439201ab6addc,650c16f0f2faf8d7a0d14c09,651c1d4281aa91f235a361ad,null,null,"<p style=""font-size: 60px; font-family: BACS"">UdYUQGrub</p>",,,,,,,,,,
html-keyboard-response,24,146350,0.0-8.0-0.16,5fc2d2d79da439201ab6addc,650c16f0f2faf8d7a0d14c09,651c1d4281aa91f235a361ad,null,null,"<p style=""font-size: 60px; font-family: BACS"">mBmlAYht</p>",,,,,,,,,,
html-keyboard-response,25,147353,0.0-8.0-0.17,5fc2d2d79da439201ab6addc,650c16f0f2faf8d7a0d14c09,651c1d4281aa91f235a361ad,null,null,"<p style=""font-size: 60px; font-family: BACS"">GLluAuda</p>",,,,,,,,,,
html-keyboard-response,26,148364,0.0-8.0-0.18,5fc2d2d79da439201ab6addc,650c16f0f2faf8d7a0d14c09,651c1d4281aa91f235a361ad,null,null,"<p style=""font-size: 60px; font-family: BACS"">DMRPdEPD</p>",,,,,,,,,,
html-keyboard-response,27,149381,0.0-8.0-0.19,5fc2d2d79da439201ab6addc,650c16f0f2faf8d7a0d14c09,651c1d4281aa91f235a361ad,null,null,"<p style=""font-size: 60px; font-family: BACS"">GLluAGrub</p>",,,,,,,,,,
html-keyboard-response,28,150396,0.0-8.0-0.20,5fc2d2d79da439201ab6addc,650c16f0f2faf8d7a0d14c09,651c1d4281aa91f235a361ad,null,null,"<p style=""font-size: 60px; font-family: BACS"">EhbtTAm</p>",,,,,,,,,,
html-keyboard-response,29,151401,0.0-8.0-0.21,5fc2d2d79da439201ab6addc,650c16f0f2faf8d7a0d14c09,651c1d4281aa91f235a361ad,null,null,"<p style=""font-size: 60px; font-family: BACS"">rGUAYuda</p>",,,,,,,,,,
html-keyboard-response,30,152406,0.0-8.0-0.22,5fc2d2d79da439201ab6addc,650c16f0f2faf8d7a0d14c09,651c1d4281aa91f235a361ad,null,null,"<p style=""font-size: 60px; font-family: BACS"">DOchlYht</p>",,,,,,,,,,
html-keyboard-response,31,153421,0.0-8.0-0.23,5fc2d2d79da439201ab6addc,650c16f0f2faf8d7a0d14c09,651c1d4281aa91f235a361ad,null,null,"<p style=""font-size: 60px; font-family: BACS"">mBmlAYbBT</p>",,,,,,,,,,
html-keyboard-response,32,154434,0.0-8.0-0.24,5fc2d2d79da439201ab6addc,650c16f0f2faf8d7a0d14c09,651c1d4281aa91f235a361ad,null,null,"<p style=""font-size: 60px; font-family: BACS"">rGUAYGrub</p>",,,,,,,,,,
html-keyboard-response,33,155435,0.0-8.0-0.25,5fc2d2d79da439201ab6addc,650c16f0f2faf8d7a0d14c09,651c1d4281aa91f235a361ad,null,null,"<p style=""font-size: 60px; font-family: BACS"">ukYZuda</p>",,,,,,,,,,
html-keyboard-response,34,156444,0.0-8.0-0.26,5fc2d2d79da439201ab6addc,650c16f0f2faf8d7a0d14c09,651c1d4281aa91f235a361ad,null,null,"<p style=""font-size: 60px; font-family: BACS"">aUZAuvJ</p>",,,,,,,,,,
html-keyboard-response,35,157457,0.0-8.0-0.27,5fc2d2d79da439201ab6addc,650c16f0f2faf8d7a0d14c09,651c1d4281aa91f235a361ad,null,null,"<p style=""font-size: 60px; font-family: BACS"">EhbtYbBT</p>",,,,,,,,,,
html-keyboard-response,36,158461,0.0-8.0-0.28,5fc2d2d79da439201ab6addc,650c16f0f2faf8d7a0d14c09,651c1d4281aa91f235a361ad,null,null,"<p style=""font-size: 60px; font-family: BACS"">aUZAJUNa</p>",,,,,,,,,,
html-keyboard-response,37,159466,0.0-8.0-0.29,5fc2d2d79da439201ab6addc,650c16f0f2faf8d7a0d14c09,651c1d4281aa91f235a361ad,null,null,"<p style=""font-size: 60px; font-family: BACS"">KABATRK</p>",,,,,,,,,,
html-keyboard-response,38,160478,0.0-8.0-0.30,5fc2d2d79da439201ab6addc,650c16f0f2faf8d7a0d14c09,651c1d4281aa91f235a361ad,null,null,"<p style=""font-size: 60px; font-family: BACS"">rcmuvuda</p>",,,,,,,,,,
html-keyboard-response,39,161481,0.0-8.0-0.31,5fc2d2d79da439201ab6addc,650c16f0f2faf8d7a0d14c09,651c1d4281aa91f235a361ad,null,null,"<p style=""font-size: 60px; font-family: BACS"">uvaUmLJ</p>",,,,,,,,,,
html-keyboard-response,40,162494,0.0-8.0-0.32,5fc2d2d79da439201ab6addc,650c16f0f2faf8d7a0d14c09,651c1d4281aa91f235a361ad,null,null,"<p style=""font-size: 60px; font-family: BACS"">rGUAYJUNa</p>",,,,,,,,,,
html-keyboard-response,41,163500,0.0-8.0-0.33,5fc2d2d79da439201ab6addc,650c16f0f2faf8d7a0d14c09,651c1d4281aa91f235a361ad,null,null,"<p style=""font-size: 60px; font-family: BACS"">DMRPYbBT</p>",,,,,,,,,,
html-keyboard-response,42,164516,0.0-8.0-0.34,5fc2d2d79da439201ab6addc,650c16f0f2faf8d7a0d14c09,651c1d4281aa91f235a361ad,null,null,"<p style=""font-size: 60px; font-family: BACS"">auYAkJUNa</p>",,,,,,,,,,
html-keyboard-response,43,165530,0.0-8.0-0.35,5fc2d2d79da439201ab6addc,650c16f0f2faf8d7a0d14c09,651c1d4281aa91f235a361ad,null,null,"<p style=""font-size: 60px; font-family: BACS"">rcmuvuvJ</p>",,,,,,,,,,
html-keyboard-response,44,166546,0.0-8.0-0.36,5fc2d2d79da439201ab6addc,650c16f0f2faf8d7a0d14c09,651c1d4281aa91f235a361ad,null,null,"<p style=""font-size: 60px; font-family: BACS"">LdQvJUNa</p>",,,,,,,,,,
html-keyboard-response,45,167550,0.0-8.0-0.37,5fc2d2d79da439201ab6addc,650c16f0f2faf8d7a0d14c09,651c1d4281aa91f235a361ad,null,null,"<p style=""font-size: 60px; font-family: BACS"">CmcOYbBT</p>",,,,,,,,,,
html-keyboard-response,46,168551,0.0-8.0-0.38,5fc2d2d79da439201ab6addc,650c16f0f2faf8d7a0d14c09,651c1d4281aa91f235a361ad,null,null,"<p style=""font-size: 60px; font-family: BACS"">LdrbvGrub</p>",,,,,,,,,,
html-keyboard-response,47,169569,0.0-8.0-0.39,5fc2d2d79da439201ab6addc,650c16f0f2faf8d7a0d14c09,651c1d4281aa91f235a361ad,null,null,"<p style=""font-size: 60px; font-family: BACS"">uvaUuda</p>",,,,,,,,,,
html-keyboard-response,48,170580,0.0-8.0-0.40,5fc2d2d79da439201ab6addc,650c16f0f2faf8d7a0d14c09,651c1d4281aa91f235a361ad,null,null,"<p style=""font-size: 60px; font-family: BACS"">DMRPTAm</p>",,,,,,,,,,
html-keyboard-response,49,171587,0.0-8.0-0.41,5fc2d2d79da439201ab6addc,650c16f0f2faf8d7a0d14c09,651c1d4281aa91f235a361ad,null,null,"<p style=""font-size: 60px; font-family: BACS"">KABAdEPD</p>",,,,,,,,,,
html-keyboard-response,50,172594,0.0-8.0-0.42,5fc2d2d79da439201ab6addc,650c16f0f2faf8d7a0d14c09,651c1d4281aa91f235a361ad,null,null,"<p style=""font-size: 60px; font-family: BACS"">hkRKYbBT</p>",,,,,,,,,,
html-keyboard-response,51,173610,0.0-8.0-0.43,5fc2d2d79da439201ab6addc,650c16f0f2faf8d7a0d14c09,651c1d4281aa91f235a361ad,null,null,"<p style=""font-size: 60px; font-family: BACS"">LdQvmLJ</p>",,,,,,,,,,
html-keyboard-response,52,174626,0.0-8.0-0.44,5fc2d2d79da439201ab6addc,650c16f0f2faf8d7a0d14c09,651c1d4281aa91f235a361ad,null,null,"<p style=""font-size: 60px; font-family: BACS"">KABAYht</p>",,,,,,,,,,
html-keyboard-response,53,175628,0.0-8.0-0.45,5fc2d2d79da439201ab6addc,650c16f0f2faf8d7a0d14c09,651c1d4281aa91f235a361ad,null,null,"<p style=""font-size: 60px; font-family: BACS"">mBmlAdEPD</p>",,,,,,,,,,
html-keyboard-response,54,176649,0.0-8.0-0.46,5fc2d2d79da439201ab6addc,650c16f0f2faf8d7a0d14c09,651c1d4281aa91f235a361ad,null,null,"<p style=""font-size: 60px; font-family: BACS"">auYAkuda</p>",,,,,,,,,,
html-keyboard-response,55,177652,0.0-8.0-0.47,5fc2d2d79da439201ab6addc,650c16f0f2faf8d7a0d14c09,651c1d4281aa91f235a361ad,null,null,"<p style=""font-size: 60px; font-family: BACS"">ukYZGrub</p>",,,,,,,,,,
html-keyboard-response,56,178654,0.0-8.0-0.48,5fc2d2d79da439201ab6addc,650c16f0f2faf8d7a0d14c09,651c1d4281aa91f235a361ad,null,null,"<p style=""font-size: 60px; font-family: BACS"">AbKDdEPD</p>",,,,,,,,,,
html-keyboard-response,57,179665,0.0-8.0-0.49,5fc2d2d79da439201ab6addc,650c16f0f2faf8d7a0d14c09,651c1d4281aa91f235a361ad,null,null,"<p style=""font-size: 60px; font-family: BACS"">LdrbvuvJ</p>",,,,,,,,,,
html-keyboard-response,58,180667,0.0-8.0-0.50,5fc2d2d79da439201ab6addc,650c16f0f2faf8d7a0d14c09,651c1d4281aa91f235a361ad,null,null,"<p style=""font-size: 60px; font-family: BACS"">CmcOTAm</p>",,,,,,,,,,
html-keyboard-response,59,181683,0.0-8.0-0.51,5fc2d2d79da439201ab6addc,650c16f0f2faf8d7a0d14c09,651c1d4281aa91f235a361ad,null,null,"<p style=""font-size: 60px; font-family: BACS"">EhbtdEPD</p>",,,,,,,,,,
html-keyboard-response,60,182698,0.0-8.0-0.52,5fc2d2d79da439201ab6addc,650c16f0f2faf8d7a0d14c09,651c1d4281aa91f235a361ad,null,null,"<p style=""font-size: 60px; font-family: BACS"">LdrbvJUNa</p>",,,,,,,,,,
html-keyboard-response,61,183699,0.0-8.0-0.53,5fc2d2d79da439201ab6addc,650c16f0f2faf8d7a0d14c09,651c1d4281aa91f235a361ad,null,null,"<p style=""font-size: 60px; font-family: BACS"">aUZAGrub</p>",,,,,,,,,,
html-keyboard-response,62,184709,0.0-8.0-0.54,5fc2d2d79da439201ab6addc,650c16f0f2faf8d7a0d14c09,651c1d4281aa91f235a361ad,null,null,"<p style=""font-size: 60px; font-family: BACS"">UdYUQJUNa</p>",,,,,,,,,,
html-keyboard-response,63,185719,0.0-8.0-0.55,5fc2d2d79da439201ab6addc,650c16f0f2faf8d7a0d14c09,651c1d4281aa91f235a361ad,null,null,"<p style=""font-size: 60px; font-family: BACS"">EhbtYht</p>",,,,,,,,,,
html-keyboard-response,64,186724,0.0-8.0-0.56,5fc2d2d79da439201ab6addc,650c16f0f2faf8d7a0d14c09,651c1d4281aa91f235a361ad,null,null,"<p style=""font-size: 60px; font-family: BACS"">uvaUJUNa</p>",,,,,,,,,,
html-keyboard-response,65,187738,0.0-8.0-0.57,5fc2d2d79da439201ab6addc,650c16f0f2faf8d7a0d14c09,651c1d4281aa91f235a361ad,null,null,"<p style=""font-size: 60px; font-family: BACS"">bAdkTAm</p>",,,,,,,,,,
html-keyboard-response,66,188742,0.0-8.0-0.58,5fc2d2d79da439201ab6addc,650c16f0f2faf8d7a0d14c09,651c1d4281aa91f235a361ad,null,null,"<p style=""font-size: 60px; font-family: BACS"">CmcOTRK</p>",,,,,,,,,,
html-keyboard-response,67,189755,0.0-8.0-0.59,5fc2d2d79da439201ab6addc,650c16f0f2faf8d7a0d14c09,651c1d4281aa91f235a361ad,null,null,"<p style=""font-size: 60px; font-family: BACS"">bAdkdEPD</p>",,,,,,,,,,
html-keyboard-response,68,190760,0.0-8.0-0.60,5fc2d2d79da439201ab6addc,650c16f0f2faf8d7a0d14c09,651c1d4281aa91f235a361ad,null,null,"<p style=""font-size: 60px; font-family: BACS"">CmcOYht</p>",,,,,,,,,,
html-keyboard-response,69,191775,0.0-8.0-0.61,5fc2d2d79da439201ab6addc,650c16f0f2faf8d7a0d14c09,651c1d4281aa91f235a361ad,null,null,"<p style=""font-size: 60px; font-family: BACS"">PhktkYbBT</p>",,,,,,,,,,
html-keyboard-response,70,192790,0.0-8.0-0.62,5fc2d2d79da439201ab6addc,650c16f0f2faf8d7a0d14c09,651c1d4281aa91f235a361ad,null,null,"<p style=""font-size: 60px; font-family: BACS"">Ldrbvuda</p>",,,,,,,,,,
html-keyboard-response,71,193806,0.0-8.0-0.63,5fc2d2d79da439201ab6addc,650c16f0f2faf8d7a0d14c09,651c1d4281aa91f235a361ad,null,null,"<p style=""font-size: 60px; font-family: BACS"">UdYUQuvJ</p>",,,,,,,,,,
html-keyboard-response,72,194814,0.0-8.0-0.64,5fc2d2d79da439201ab6addc,650c16f0f2faf8d7a0d14c09,651c1d4281aa91f235a361ad,null,null,"<p style=""font-size: 60px; font-family: BACS"">PhktkYht</p>",,,,,,,,,,
html-keyboard-response,73,195829,0.0-8.0-0.65,5fc2d2d79da439201ab6addc,650c16f0f2faf8d7a0d14c09,651c1d4281aa91f235a361ad,null,null,"<p style=""font-size: 60px; font-family: BACS"">LdQvGrub</p>",,,,,,,,,,
html-keyboard-response,74,196831,0.0-8.0-0.66,5fc2d2d79da439201ab6addc,650c16f0f2faf8d7a0d14c09,651c1d4281aa91f235a361ad,null,null,"<p style=""font-size: 60px; font-family: BACS"">AbKDYht</p>",,,,,,,,,,
html-keyboard-response,75,197846,0.0-8.0-0.67,5fc2d2d79da439201ab6addc,650c16f0f2faf8d7a0d14c09,651c1d4281aa91f235a361ad,null,null,"<p style=""font-size: 60px; font-family: BACS"">bAdkTRK</p>",,,,,,,,,,
html-keyboard-response,76,198853,0.0-8.0-0.68,5fc2d2d79da439201ab6addc,650c16f0f2faf8d7a0d14c09,651c1d4281aa91f235a361ad,null,null,"<p style=""font-size: 60px; font-family: BACS"">auYAkGrub</p>",,,,,,,,,,
html-keyboard-response,77,199869,0.0-8.0-0.69,5fc2d2d79da439201ab6addc,650c16f0f2faf8d7a0d14c09,651c1d4281aa91f235a361ad,null,null,"<p style=""font-size: 60px; font-family: BACS"">GLluAuvJ</p>",,,,,,,,,,
html-keyboard-response,78,200876,0.0-8.0-0.70,5fc2d2d79da439201ab6addc,650c16f0f2faf8d7a0d14c09,651c1d4281aa91f235a361ad,null,null,"<p style=""font-size: 60px; font-family: BACS"">mBmlATRK</p>",,,,,,,,,,
html-keyboard-response,79,201885,0.0-8.0-0.71,5fc2d2d79da439201ab6addc,650c16f0f2faf8d7a0d14c09,651c1d4281aa91f235a361ad,null,null,"<p style=""font-size: 60px; font-family: BACS"">rGUAYmLJ</p>",,,,,,,,,,
html-keyboard-response,80,202901,0.0-8.0-0.72,5fc2d2d79da439201ab6addc,650c16f0f2faf8d7a0d14c09,651c1d4281aa91f235a361ad,null,null,"<p style=""font-size: 60px; font-family: BACS"">bAdkYht</p>",,,,,,,,,,
html-keyboard-response,81,203907,0.0-8.0-0.73,5fc2d2d79da439201ab6addc,650c16f0f2faf8d7a0d14c09,651c1d4281aa91f235a361ad,null,null,"<p style=""font-size: 60px; font-family: BACS"">DOchlYbBT</p>",,,,,,,,,,
html-keyboard-response,82,204918,0.0-8.0-0.74,5fc2d2d79da439201ab6addc,650c16f0f2faf8d7a0d14c09,651c1d4281aa91f235a361ad,null,null,"<p style=""font-size: 60px; font-family: BACS"">UdYUQmLJ</p>",,,,,,,,,,
html-keyboard-response,83,205921,0.0-8.0-0.75,5fc2d2d79da439201ab6addc,650c16f0f2faf8d7a0d14c09,651c1d4281aa91f235a361ad,null,null,"<p style=""font-size: 60px; font-family: BACS"">DOchlTAm</p>",,,,,,,,,,
html-keyboard-response,84,206924,0.0-8.0-0.76,5fc2d2d79da439201ab6addc,650c16f0f2faf8d7a0d14c09,651c1d4281aa91f235a361ad,null,null,"<p style=""font-size: 60px; font-family: BACS"">ukYZuvJ</p>",,,,,,,,,,
html-keyboard-response,85,207949,0.0-8.0-0.77,5fc2d2d79da439201ab6addc,650c16f0f2faf8d7a0d14c09,651c1d4281aa91f235a361ad,null,null,"<p style=""font-size: 60px; font-family: BACS"">KABATAm</p>",,,,,,,,,,
html-keyboard-response,86,208955,0.0-8.0-0.78,5fc2d2d79da439201ab6addc,650c16f0f2faf8d7a0d14c09,651c1d4281aa91f235a361ad,null,null,"<p style=""font-size: 60px; font-family: BACS"">GLluAmLJ</p>",,,,,,,,,,
html-keyboard-response,87,209965,0.0-8.0-0.79,5fc2d2d79da439201ab6addc,650c16f0f2faf8d7a0d14c09,651c1d4281aa91f235a361ad,null,null,"<p style=""font-size: 60px; font-family: BACS"">hkRKTAm</p>",,,,,,,,,,
html-keyboard-response,88,218313,0.0-9.0,5fc2d2d79da439201ab6addc,650c16f0f2faf8d7a0d14c09,651c1d4281aa91f235a361ad,8347, ,"<p>Great, you've seen the first block of words. You may now take a short break.</p>
      <p>Press the spacebar when you're ready to continue.</p>",,,,,,,,,,
html-keyboard-response,89,219319,0.0-10.0-0.0,5fc2d2d79da439201ab6addc,650c16f0f2faf8d7a0d14c09,651c1d4281aa91f235a361ad,null,null,"<p style=""font-size: 60px; font-family: BACS"">rGUAYGrub</p>",,,,,,,,,,
html-keyboard-response,90,220330,0.0-10.0-0.1,5fc2d2d79da439201ab6addc,650c16f0f2faf8d7a0d14c09,651c1d4281aa91f235a361ad,null,null,"<p style=""font-size: 60px; font-family: BACS"">EhbtdEPD</p>",,,,,,,,,,
html-keyboard-response,91,221337,0.0-10.0-0.2,5fc2d2d79da439201ab6addc,650c16f0f2faf8d7a0d14c09,651c1d4281aa91f235a361ad,null,null,"<p style=""font-size: 60px; font-family: BACS"">UdYUQJUNa</p>",,,,,,,,,,
html-keyboard-response,92,222340,0.0-10.0-0.3,5fc2d2d79da439201ab6addc,650c16f0f2faf8d7a0d14c09,651c1d4281aa91f235a361ad,null,null,"<p style=""font-size: 60px; font-family: BACS"">DMRPTRK</p>",,,,,,,,,,
html-keyboard-response,93,223360,0.0-10.0-0.4,5fc2d2d79da439201ab6addc,650c16f0f2faf8d7a0d14c09,651c1d4281aa91f235a361ad,null,null,"<p style=""font-size: 60px; font-family: BACS"">PhktkYbBT</p>",,,,,,,,,,
html-keyboard-response,94,224375,0.0-10.0-0.5,5fc2d2d79da439201ab6addc,650c16f0f2faf8d7a0d14c09,651c1d4281aa91f235a361ad,null,null,"<p style=""font-size: 60px; font-family: BACS"">LdrbvuvJ</p>",,,,,,,,,,
html-keyboard-response,95,225390,0.0-10.0-0.6,5fc2d2d79da439201ab6addc,650c16f0f2faf8d7a0d14c09,651c1d4281aa91f235a361ad,null,null,"<p style=""font-size: 60px; font-family: BACS"">rcmuvmLJ</p>",,,,,,,,,,
html-keyboard-response,96,226405,0.0-10.0-0.7,5fc2d2d79da439201ab6addc,650c16f0f2faf8d7a0d14c09,651c1d4281aa91f235a361ad,null,null,"<p style=""font-size: 60px; font-family: BACS"">hkRKdEPD</p>",,,,,,,,,,
html-keyboard-response,97,227410,0.0-10.0-0.8,5fc2d2d79da439201ab6addc,650c16f0f2faf8d7a0d14c09,651c1d4281aa91f235a361ad,null,null,"<p style=""font-size: 60px; font-family: BACS"">bAdkTRK</p>",,,,,,,,,,
html-keyboard-response,98,228416,0.0-10.0-0.9,5fc2d2d79da439201ab6addc,650c16f0f2faf8d7a0d14c09,651c1d4281aa91f235a361ad,null,null,"<p style=""font-size: 60px; font-family: BACS"">LdrbvGrub</p>",,,,,,,,,,
html-keyboard-response,99,229431,0.0-10.0-0.10,5fc2d2d79da439201ab6addc,650c16f0f2faf8d7a0d14c09,651c1d4281aa91f235a361ad,null,null,"<p style=""font-size: 60px; font-family: BACS"">rGUAYJUNa</p>",,,,,,,,,,
html-keyboard-response,100,230445,0.0-10.0-0.11,5fc2d2d79da439201ab6addc,650c16f0f2faf8d7a0d14c09,651c1d4281aa91f235a361ad,null,null,"<p style=""font-size: 60px; font-family: BACS"">bAdkYht</p>",,,,,,,,,,
html-keyboard-response,101,231460,0.0-10.0-0.12,5fc2d2d79da439201ab6addc,650c16f0f2faf8d7a0d14c09,651c1d4281aa91f235a361ad,null,null,"<p style=""font-size: 60px; font-family: BACS"">Ldrbvuda</p>",,,,,,,,,,
html-keyboard-response,102,232467,0.0-10.0-0.13,5fc2d2d79da439201ab6addc,650c16f0f2faf8d7a0d14c09,651c1d4281aa91f235a361ad,null,null,"<p style=""font-size: 60px; font-family: BACS"">AbKDTAm</p>",,,,,,,,,,
html-keyboard-response,103,233470,0.0-10.0-0.14,5fc2d2d79da439201ab6addc,650c16f0f2faf8d7a0d14c09,651c1d4281aa91f235a361ad,null,null,"<p style=""font-size: 60px; font-family: BACS"">mBmlAYht</p>",,,,,,,,,,
html-keyboard-response,104,234485,0.0-10.0-0.15,5fc2d2d79da439201ab6addc,650c16f0f2faf8d7a0d14c09,651c1d4281aa91f235a361ad,null,null,"<p style=""font-size: 60px; font-family: BACS"">aUZAuvJ</p>",,,,,,,,,,
html-keyboard-response,105,235509,0.0-10.0-0.16,5fc2d2d79da439201ab6addc,650c16f0f2faf8d7a0d14c09,651c1d4281aa91f235a361ad,null,null,"<p style=""font-size: 60px; font-family: BACS"">KABATAm</p>",,,,,,,,,,
html-keyboard-response,106,236520,0.0-10.0-0.17,5fc2d2d79da439201ab6addc,650c16f0f2faf8d7a0d14c09,651c1d4281aa91f235a361ad,null,null,"<p style=""font-size: 60px; font-family: BACS"">ukYZmLJ</p>",,,,,,,,,,
html-keyboard-response,107,237527,0.0-10.0-0.18,5fc2d2d79da439201ab6addc,650c16f0f2faf8d7a0d14c09,651c1d4281aa91f235a361ad,null,null,"<p style=""font-size: 60px; font-family: BACS"">LdrbvJUNa</p>",,,,,,,,,,
html-keyboard-response,108,238543,0.0-10.0-0.19,5fc2d2d79da439201ab6addc,650c16f0f2faf8d7a0d14c09,651c1d4281aa91f235a361ad,null,null,"<p style=""font-size: 60px; font-family: BACS"">KABAdEPD</p>",,,,,,,,,,
html-keyboard-response,109,239552,0.0-10.0-0.20,5fc2d2d79da439201ab6addc,650c16f0f2faf8d7a0d14c09,651c1d4281aa91f235a361ad,null,null,"<p style=""font-size: 60px; font-family: BACS"">CmcOTRK</p>",,,,,,,,,,
html-keyboard-response,110,240556,0.0-10.0-0.21,5fc2d2d79da439201ab6addc,650c16f0f2faf8d7a0d14c09,651c1d4281aa91f235a361ad,null,null,"<p style=""font-size: 60px; font-family: BACS"">rcmuvJUNa</p>",,,,,,,,,,
html-keyboard-response,111,241557,0.0-10.0-0.22,5fc2d2d79da439201ab6addc,650c16f0f2faf8d7a0d14c09,651c1d4281aa91f235a361ad,null,null,"<p style=""font-size: 60px; font-family: BACS"">bAdkdEPD</p>",,,,,,,,,,
html-keyboard-response,112,242559,0.0-10.0-0.23,5fc2d2d79da439201ab6addc,650c16f0f2faf8d7a0d14c09,651c1d4281aa91f235a361ad,null,null,"<p style=""font-size: 60px; font-family: BACS"">DOchlYbBT</p>",,,,,,,,,,
html-keyboard-response,113,243565,0.0-10.0-0.24,5fc2d2d79da439201ab6addc,650c16f0f2faf8d7a0d14c09,651c1d4281aa91f235a361ad,null,null,"<p style=""font-size: 60px; font-family: BACS"">rcmuvuvJ</p>",,,,,,,,,,
html-keyboard-response,114,244571,0.0-10.0-0.25,5fc2d2d79da439201ab6addc,650c16f0f2faf8d7a0d14c09,651c1d4281aa91f235a361ad,null,null,"<p style=""font-size: 60px; font-family: BACS"">DMRPdEPD</p>",,,,,,,,,,
html-keyboard-response,115,245579,0.0-10.0-0.26,5fc2d2d79da439201ab6addc,650c16f0f2faf8d7a0d14c09,651c1d4281aa91f235a361ad,null,null,"<p style=""font-size: 60px; font-family: BACS"">rGUAYmLJ</p>",,,,,,,,,,
html-keyboard-response,116,246586,0.0-10.0-0.27,5fc2d2d79da439201ab6addc,650c16f0f2faf8d7a0d14c09,651c1d4281aa91f235a361ad,null,null,"<p style=""font-size: 60px; font-family: BACS"">DOchlTRK</p>",,,,,,,,,,
html-keyboard-response,117,247597,0.0-10.0-0.28,5fc2d2d79da439201ab6addc,650c16f0f2faf8d7a0d14c09,651c1d4281aa91f235a361ad,null,null,"<p style=""font-size: 60px; font-family: BACS"">GLluAuda</p>",,,,,,,,,,
html-keyboard-response,118,248609,0.0-10.0-0.29,5fc2d2d79da439201ab6addc,650c16f0f2faf8d7a0d14c09,651c1d4281aa91f235a361ad,null,null,"<p style=""font-size: 60px; font-family: BACS"">uvaUJUNa</p>",,,,,,,,,,
html-keyboard-response,119,249616,0.0-10.0-0.30,5fc2d2d79da439201ab6addc,650c16f0f2faf8d7a0d14c09,651c1d4281aa91f235a361ad,null,null,"<p style=""font-size: 60px; font-family: BACS"">hkRKTRK</p>",,,,,,,,,,
html-keyboard-response,120,250617,0.0-10.0-0.31,5fc2d2d79da439201ab6addc,650c16f0f2faf8d7a0d14c09,651c1d4281aa91f235a361ad,null,null,"<p style=""font-size: 60px; font-family: BACS"">GLluAmLJ</p>",,,,,,,,,,
html-keyboard-response,121,251622,0.0-10.0-0.32,5fc2d2d79da439201ab6addc,650c16f0f2faf8d7a0d14c09,651c1d4281aa91f235a361ad,null,null,"<p style=""font-size: 60px; font-family: BACS"">PhktkdEPD</p>",,,,,,,,,,
html-keyboard-response,122,252636,0.0-10.0-0.33,5fc2d2d79da439201ab6addc,650c16f0f2faf8d7a0d14c09,651c1d4281aa91f235a361ad,null,null,"<p style=""font-size: 60px; font-family: BACS"">uvaUmLJ</p>",,,,,,,,,,
html-keyboard-response,123,253650,0.0-10.0-0.34,5fc2d2d79da439201ab6addc,650c16f0f2faf8d7a0d14c09,651c1d4281aa91f235a361ad,null,null,"<p style=""font-size: 60px; font-family: BACS"">DOchlTAm</p>",,,,,,,,,,
html-keyboard-response,124,254652,0.0-10.0-0.35,5fc2d2d79da439201ab6addc,650c16f0f2faf8d7a0d14c09,651c1d4281aa91f235a361ad,null,null,"<p style=""font-size: 60px; font-family: BACS"">ukYZuda</p>",,,,,,,,,,
html-keyboard-response,125,255656,0.0-10.0-0.36,5fc2d2d79da439201ab6addc,650c16f0f2faf8d7a0d14c09,651c1d4281aa91f235a361ad,null,null,"<p style=""font-size: 60px; font-family: BACS"">hkRKTAm</p>",,,,,,,,,,
html-keyboard-response,126,256660,0.0-10.0-0.37,5fc2d2d79da439201ab6addc,650c16f0f2faf8d7a0d14c09,651c1d4281aa91f235a361ad,null,null,"<p style=""font-size: 60px; font-family: BACS"">LdQvGrub</p>",,,,,,,,,,
html-keyboard-response,127,257662,0.0-10.0-0.38,5fc2d2d79da439201ab6addc,650c16f0f2faf8d7a0d14c09,651c1d4281aa91f235a361ad,null,null,"<p style=""font-size: 60px; font-family: BACS"">mBmlAdEPD</p>",,,,,,,,,,
html-keyboard-response,128,258676,0.0-10.0-0.39,5fc2d2d79da439201ab6addc,650c16f0f2faf8d7a0d14c09,651c1d4281aa91f235a361ad,null,null,"<p style=""font-size: 60px; font-family: BACS"">ukYZGrub</p>",,,,,,,,,,
html-keyboard-response,129,259690,0.0-10.0-0.40,5fc2d2d79da439201ab6addc,650c16f0f2faf8d7a0d14c09,651c1d4281aa91f235a361ad,null,null,"<p style=""font-size: 60px; font-family: BACS"">KABATRK</p>",,,,,,,,,,
html-keyboard-response,130,260700,0.0-10.0-0.41,5fc2d2d79da439201ab6addc,650c16f0f2faf8d7a0d14c09,651c1d4281aa91f235a361ad,null,null,"<p style=""font-size: 60px; font-family: BACS"">GLluAuvJ</p>",,,,,,,,,,
html-keyboard-response,131,261706,0.0-10.0-0.42,5fc2d2d79da439201ab6addc,650c16f0f2faf8d7a0d14c09,651c1d4281aa91f235a361ad,null,null,"<p style=""font-size: 60px; font-family: BACS"">PhktkYht</p>",,,,,,,,,,
html-keyboard-response,132,262713,0.0-10.0-0.43,5fc2d2d79da439201ab6addc,650c16f0f2faf8d7a0d14c09,651c1d4281aa91f235a361ad,null,null,"<p style=""font-size: 60px; font-family: BACS"">AbKDdEPD</p>",,,,,,,,,,
html-keyboard-response,133,263730,0.0-10.0-0.44,5fc2d2d79da439201ab6addc,650c16f0f2faf8d7a0d14c09,651c1d4281aa91f235a361ad,null,null,"<p style=""font-size: 60px; font-family: BACS"">UdYUQmLJ</p>",,,,,,,,,,
html-keyboard-response,134,264740,0.0-10.0-0.45,5fc2d2d79da439201ab6addc,650c16f0f2faf8d7a0d14c09,651c1d4281aa91f235a361ad,null,null,"<p style=""font-size: 60px; font-family: BACS"">EhbtYht</p>",,,,,,,,,,
html-keyboard-response,135,265750,0.0-10.0-0.46,5fc2d2d79da439201ab6addc,650c16f0f2faf8d7a0d14c09,651c1d4281aa91f235a361ad,null,null,"<p style=""font-size: 60px; font-family: BACS"">auYAkuvJ</p>",,,,,,,,,,
html-keyboard-response,136,266753,0.0-10.0-0.47,5fc2d2d79da439201ab6addc,650c16f0f2faf8d7a0d14c09,651c1d4281aa91f235a361ad,null,null,"<p style=""font-size: 60px; font-family: BACS"">CmcOTAm</p>",,,,,,,,,,
html-keyboard-response,137,267754,0.0-10.0-0.48,5fc2d2d79da439201ab6addc,650c16f0f2faf8d7a0d14c09,651c1d4281aa91f235a361ad,null,null,"<p style=""font-size: 60px; font-family: BACS"">LdQvuda</p>",,,,,,,,,,
html-keyboard-response,138,268763,0.0-10.0-0.49,5fc2d2d79da439201ab6addc,650c16f0f2faf8d7a0d14c09,651c1d4281aa91f235a361ad,null,null,"<p style=""font-size: 60px; font-family: BACS"">DOchlYht</p>",,,,,,,,,,
html-keyboard-response,139,269772,0.0-10.0-0.50,5fc2d2d79da439201ab6addc,650c16f0f2faf8d7a0d14c09,651c1d4281aa91f235a361ad,null,null,"<p style=""font-size: 60px; font-family: BACS"">DMRPYbBT</p>",,,,,,,,,,
html-keyboard-response,140,270774,0.0-10.0-0.51,5fc2d2d79da439201ab6addc,650c16f0f2faf8d7a0d14c09,651c1d4281aa91f235a361ad,null,null,"<p style=""font-size: 60px; font-family: BACS"">EhbtTAm</p>",,,,,,,,,,
html-keyboard-response,141,271780,0.0-10.0-0.52,5fc2d2d79da439201ab6addc,650c16f0f2faf8d7a0d14c09,651c1d4281aa91f235a361ad,null,null,"<p style=""font-size: 60px; font-family: BACS"">LdQvmLJ</p>",,,,,,,,,,
html-keyboard-response,142,272781,0.0-10.0-0.53,5fc2d2d79da439201ab6addc,650c16f0f2faf8d7a0d14c09,651c1d4281aa91f235a361ad,null,null,"<p style=""font-size: 60px; font-family: BACS"">aUZAGrub</p>",,,,,,,,,,
html-keyboard-response,143,273787,0.0-10.0-0.54,5fc2d2d79da439201ab6addc,650c16f0f2faf8d7a0d14c09,651c1d4281aa91f235a361ad,null,null,"<p style=""font-size: 60px; font-family: BACS"">KABAYht</p>",,,,,,,,,,
html-keyboard-response,144,274795,0.0-10.0-0.55,5fc2d2d79da439201ab6addc,650c16f0f2faf8d7a0d14c09,651c1d4281aa91f235a361ad,null,null,"<p style=""font-size: 60px; font-family: BACS"">uvaUuda</p>",,,,,,,,,,
html-keyboard-response,145,275810,0.0-10.0-0.56,5fc2d2d79da439201ab6addc,650c16f0f2faf8d7a0d14c09,651c1d4281aa91f235a361ad,null,null,"<p style=""font-size: 60px; font-family: BACS"">mBmlATRK</p>",,,,,,,,,,
html-keyboard-response,146,276813,0.0-10.0-0.57,5fc2d2d79da439201ab6addc,650c16f0f2faf8d7a0d14c09,651c1d4281aa91f235a361ad,null,null,"<p style=""font-size: 60px; font-family: BACS"">AbKDYht</p>",,,,,,,,,,
html-keyboard-response,147,277828,0.0-10.0-0.58,5fc2d2d79da439201ab6addc,650c16f0f2faf8d7a0d14c09,651c1d4281aa91f235a361ad,null,null,"<p style=""font-size: 60px; font-family: BACS"">auYAkJUNa</p>",,,,,,,,,,
html-keyboard-response,148,278831,0.0-10.0-0.59,5fc2d2d79da439201ab6addc,650c16f0f2faf8d7a0d14c09,651c1d4281aa91f235a361ad,null,null,"<p style=""font-size: 60px; font-family: BACS"">mBmlAYbBT</p>",,,,,,,,,,
html-keyboard-response,149,279835,0.0-10.0-0.60,5fc2d2d79da439201ab6addc,650c16f0f2faf8d7a0d14c09,651c1d4281aa91f235a361ad,null,null,"<p style=""font-size: 60px; font-family: BACS"">rcmuvuda</p>",,,,,,,,,,
html-keyboard-response,150,280841,0.0-10.0-0.61,5fc2d2d79da439201ab6addc,650c16f0f2faf8d7a0d14c09,651c1d4281aa91f235a361ad,null,null,"<p style=""font-size: 60px; font-family: BACS"">auYAkGrub</p>",,,,,,,,,,
html-keyboard-response,151,281851,0.0-10.0-0.62,5fc2d2d79da439201ab6addc,650c16f0f2faf8d7a0d14c09,651c1d4281aa91f235a361ad,null,null,"<p style=""font-size: 60px; font-family: BACS"">LdQvJUNa</p>",,,,,,,,,,
html-keyboard-response,152,282866,0.0-10.0-0.63,5fc2d2d79da439201ab6addc,650c16f0f2faf8d7a0d14c09,651c1d4281aa91f235a361ad,null,null,"<p style=""font-size: 60px; font-family: BACS"">AbKDYbBT</p>",,,,,,,,,,
html-keyboard-response,153,283890,0.0-10.0-0.64,5fc2d2d79da439201ab6addc,650c16f0f2faf8d7a0d14c09,651c1d4281aa91f235a361ad,null,null,"<p style=""font-size: 60px; font-family: BACS"">aUZAmLJ</p>",,,,,,,,,,
html-keyboard-response,154,284896,0.0-10.0-0.65,5fc2d2d79da439201ab6addc,650c16f0f2faf8d7a0d14c09,651c1d4281aa91f235a361ad,null,null,"<p style=""font-size: 60px; font-family: BACS"">uvaUuvJ</p>",,,,,,,,,,
html-keyboard-response,155,285899,0.0-10.0-0.66,5fc2d2d79da439201ab6addc,650c16f0f2faf8d7a0d14c09,651c1d4281aa91f235a361ad,null,null,"<p style=""font-size: 60px; font-family: BACS"">aUZAJUNa</p>",,,,,,,,,,
html-keyboard-response,156,286905,0.0-10.0-0.67,5fc2d2d79da439201ab6addc,650c16f0f2faf8d7a0d14c09,651c1d4281aa91f235a361ad,null,null,"<p style=""font-size: 60px; font-family: BACS"">EhbtYbBT</p>",,,,,,,,,,
html-keyboard-response,157,287911,0.0-10.0-0.68,5fc2d2d79da439201ab6addc,650c16f0f2faf8d7a0d14c09,651c1d4281aa91f235a361ad,null,null,"<p style=""font-size: 60px; font-family: BACS"">DMRPTAm</p>",,,,,,,,,,
html-keyboard-response,158,288916,0.0-10.0-0.69,5fc2d2d79da439201ab6addc,650c16f0f2faf8d7a0d14c09,651c1d4281aa91f235a361ad,null,null,"<p style=""font-size: 60px; font-family: BACS"">GLluAGrub</p>",,,,,,,,,,
html-keyboard-response,159,289920,0.0-10.0-0.70,5fc2d2d79da439201ab6addc,650c16f0f2faf8d7a0d14c09,651c1d4281aa91f235a361ad,null,null,"<p style=""font-size: 60px; font-family: BACS"">PhktkTRK</p>",,,,,,,,,,
html-keyboard-response,160,290926,0.0-10.0-0.71,5fc2d2d79da439201ab6addc,650c16f0f2faf8d7a0d14c09,651c1d4281aa91f235a361ad,null,null,"<p style=""font-size: 60px; font-family: BACS"">ukYZuvJ</p>",,,,,,,,,,
html-keyboard-response,161,291930,0.0-10.0-0.72,5fc2d2d79da439201ab6addc,650c16f0f2faf8d7a0d14c09,651c1d4281aa91f235a361ad,null,null,"<p style=""font-size: 60px; font-family: BACS"">CmcOYbBT</p>",,,,,,,,,,
html-keyboard-response,162,292950,0.0-10.0-0.73,5fc2d2d79da439201ab6addc,650c16f0f2faf8d7a0d14c09,651c1d4281aa91f235a361ad,null,null,"<p style=""font-size: 60px; font-family: BACS"">UdYUQGrub</p>",,,,,,,,,,
html-keyboard-response,163,293965,0.0-10.0-0.74,5fc2d2d79da439201ab6addc,650c16f0f2faf8d7a0d14c09,651c1d4281aa91f235a361ad,null,null,"<p style=""font-size: 60px; font-family: BACS"">auYAkuda</p>",,,,,,,,,,
html-keyboard-response,164,294975,0.0-10.0-0.75,5fc2d2d79da439201ab6addc,650c16f0f2faf8d7a0d14c09,651c1d4281aa91f235a361ad,null,null,"<p style=""font-size: 60px; font-family: BACS"">UdYUQuvJ</p>",,,,,,,,,,
html-keyboard-response,165,295977,0.0-10.0-0.76,5fc2d2d79da439201ab6addc,650c16f0f2faf8d7a0d14c09,651c1d4281aa91f235a361ad,null,null,"<p style=""font-size: 60px; font-family: BACS"">CmcOYht</p>",,,,,,,,,,
html-keyboard-response,166,296983,0.0-10.0-0.77,5fc2d2d79da439201ab6addc,650c16f0f2faf8d7a0d14c09,651c1d4281aa91f235a361ad,null,null,"<p style=""font-size: 60px; font-family: BACS"">hkRKYbBT</p>",,,,,,,,,,
html-keyboard-response,167,297986,0.0-10.0-0.78,5fc2d2d79da439201ab6addc,650c16f0f2faf8d7a0d14c09,651c1d4281aa91f235a361ad,null,null,"<p style=""font-size: 60px; font-family: BACS"">bAdkTAm</p>",,,,,,,,,,
html-keyboard-response,168,299000,0.0-10.0-0.79,5fc2d2d79da439201ab6addc,650c16f0f2faf8d7a0d14c09,651c1d4281aa91f235a361ad,null,null,"<p style=""font-size: 60px; font-family: BACS"">rGUAYuda</p>",,,,,,,,,,
html-keyboard-response,169,341762,0.0-11.0,5fc2d2d79da439201ab6addc,650c16f0f2faf8d7a0d14c09,651c1d4281aa91f235a361ad,42761, ,"<p>Great, you've seen the second block of words. You may now take a short break.</p>
      <p>Press the spacebar when you're ready to continue.</p>",,,,,,,,,,
html-keyboard-response,170,342771,0.0-12.0-0.0,5fc2d2d79da439201ab6addc,650c16f0f2faf8d7a0d14c09,651c1d4281aa91f235a361ad,null,null,"<p style=""font-size: 60px; font-family: BACS"">PhktkYht</p>",,,,,,,,,,
html-keyboard-response,171,343781,0.0-12.0-0.1,5fc2d2d79da439201ab6addc,650c16f0f2faf8d7a0d14c09,651c1d4281aa91f235a361ad,null,null,"<p style=""font-size: 60px; font-family: BACS"">rGUAYuda</p>",,,,,,,,,,
html-keyboard-response,172,344800,0.0-12.0-0.2,5fc2d2d79da439201ab6addc,650c16f0f2faf8d7a0d14c09,651c1d4281aa91f235a361ad,null,null,"<p style=""font-size: 60px; font-family: BACS"">DMRPTAm</p>",,,,,,,,,,
html-keyboard-response,173,345812,0.0-12.0-0.3,5fc2d2d79da439201ab6addc,650c16f0f2faf8d7a0d14c09,651c1d4281aa91f235a361ad,null,null,"<p style=""font-size: 60px; font-family: BACS"">ukYZuda</p>",,,,,,,,,,
html-keyboard-response,174,346818,0.0-12.0-0.4,5fc2d2d79da439201ab6addc,650c16f0f2faf8d7a0d14c09,651c1d4281aa91f235a361ad,null,null,"<p style=""font-size: 60px; font-family: BACS"">rcmuvuvJ</p>",,,,,,,,,,
html-keyboard-response,175,347819,0.0-12.0-0.5,5fc2d2d79da439201ab6addc,650c16f0f2faf8d7a0d14c09,651c1d4281aa91f235a361ad,null,null,"<p style=""font-size: 60px; font-family: BACS"">CmcOTAm</p>",,,,,,,,,,
html-keyboard-response,176,348833,0.0-12.0-0.6,5fc2d2d79da439201ab6addc,650c16f0f2faf8d7a0d14c09,651c1d4281aa91f235a361ad,null,null,"<p style=""font-size: 60px; font-family: BACS"">hkRKYbBT</p>",,,,,,,,,,
html-keyboard-response,177,349835,0.0-12.0-0.7,5fc2d2d79da439201ab6addc,650c16f0f2faf8d7a0d14c09,651c1d4281aa91f235a361ad,null,null,"<p style=""font-size: 60px; font-family: BACS"">GLluAuda</p>",,,,,,,,,,
html-keyboard-response,178,350837,0.0-12.0-0.8,5fc2d2d79da439201ab6addc,650c16f0f2faf8d7a0d14c09,651c1d4281aa91f235a361ad,null,null,"<p style=""font-size: 60px; font-family: BACS"">DOchlYht</p>",,,,,,,,,,
html-keyboard-response,179,351839,0.0-12.0-0.9,5fc2d2d79da439201ab6addc,650c16f0f2faf8d7a0d14c09,651c1d4281aa91f235a361ad,null,null,"<p style=""font-size: 60px; font-family: BACS"">KABATAm</p>",,,,,,,,,,
html-keyboard-response,180,352851,0.0-12.0-0.10,5fc2d2d79da439201ab6addc,650c16f0f2faf8d7a0d14c09,651c1d4281aa91f235a361ad,null,null,"<p style=""font-size: 60px; font-family: BACS"">bAdkTRK</p>",,,,,,,,,,
html-keyboard-response,181,353865,0.0-12.0-0.11,5fc2d2d79da439201ab6addc,650c16f0f2faf8d7a0d14c09,651c1d4281aa91f235a361ad,null,null,"<p style=""font-size: 60px; font-family: BACS"">AbKDYht</p>",,,,,,,,,,
html-keyboard-response,182,354876,0.0-12.0-0.12,5fc2d2d79da439201ab6addc,650c16f0f2faf8d7a0d14c09,651c1d4281aa91f235a361ad,null,null,"<p style=""font-size: 60px; font-family: BACS"">PhktkdEPD</p>",,,,,,,,,,
html-keyboard-response,183,355881,0.0-12.0-0.13,5fc2d2d79da439201ab6addc,650c16f0f2faf8d7a0d14c09,651c1d4281aa91f235a361ad,null,null,"<p style=""font-size: 60px; font-family: BACS"">bAdkTAm</p>",,,,,,,,,,
html-keyboard-response,184,356890,0.0-12.0-0.14,5fc2d2d79da439201ab6addc,650c16f0f2faf8d7a0d14c09,651c1d4281aa91f235a361ad,null,null,"<p style=""font-size: 60px; font-family: BACS"">LdQvmLJ</p>",,,,,,,,,,
html-keyboard-response,185,357893,0.0-12.0-0.15,5fc2d2d79da439201ab6addc,650c16f0f2faf8d7a0d14c09,651c1d4281aa91f235a361ad,null,null,"<p style=""font-size: 60px; font-family: BACS"">DMRPdEPD</p>",,,,,,,,,,
html-keyboard-response,186,358907,0.0-12.0-0.16,5fc2d2d79da439201ab6addc,650c16f0f2faf8d7a0d14c09,651c1d4281aa91f235a361ad,null,null,"<p style=""font-size: 60px; font-family: BACS"">rGUAYGrub</p>",,,,,,,,,,
html-keyboard-response,187,359908,0.0-12.0-0.17,5fc2d2d79da439201ab6addc,650c16f0f2faf8d7a0d14c09,651c1d4281aa91f235a361ad,null,null,"<p style=""font-size: 60px; font-family: BACS"">KABAdEPD</p>",,,,,,,,,,
html-keyboard-response,188,360916,0.0-12.0-0.18,5fc2d2d79da439201ab6addc,650c16f0f2faf8d7a0d14c09,651c1d4281aa91f235a361ad,null,null,"<p style=""font-size: 60px; font-family: BACS"">CmcOTRK</p>",,,,,,,,,,
html-keyboard-response,189,361930,0.0-12.0-0.19,5fc2d2d79da439201ab6addc,650c16f0f2faf8d7a0d14c09,651c1d4281aa91f235a361ad,null,null,"<p style=""font-size: 60px; font-family: BACS"">bAdkdEPD</p>",,,,,,,,,,
html-keyboard-response,190,362932,0.0-12.0-0.20,5fc2d2d79da439201ab6addc,650c16f0f2faf8d7a0d14c09,651c1d4281aa91f235a361ad,null,null,"<p style=""font-size: 60px; font-family: BACS"">KABAYht</p>",,,,,,,,,,
html-keyboard-response,191,363936,0.0-12.0-0.21,5fc2d2d79da439201ab6addc,650c16f0f2faf8d7a0d14c09,651c1d4281aa91f235a361ad,null,null,"<p style=""font-size: 60px; font-family: BACS"">LdQvuda</p>",,,,,,,,,,
html-keyboard-response,192,364950,0.0-12.0-0.22,5fc2d2d79da439201ab6addc,650c16f0f2faf8d7a0d14c09,651c1d4281aa91f235a361ad,null,null,"<p style=""font-size: 60px; font-family: BACS"">UdYUQJUNa</p>",,,,,,,,,,
html-keyboard-response,193,365952,0.0-12.0-0.23,5fc2d2d79da439201ab6addc,650c16f0f2faf8d7a0d14c09,651c1d4281aa91f235a361ad,null,null,"<p style=""font-size: 60px; font-family: BACS"">DOchlTAm</p>",,,,,,,,,,
html-keyboard-response,194,366966,0.0-12.0-0.24,5fc2d2d79da439201ab6addc,650c16f0f2faf8d7a0d14c09,651c1d4281aa91f235a361ad,null,null,"<p style=""font-size: 60px; font-family: BACS"">mBmlAdEPD</p>",,,,,,,,,,
html-keyboard-response,195,367982,0.0-12.0-0.25,5fc2d2d79da439201ab6addc,650c16f0f2faf8d7a0d14c09,651c1d4281aa91f235a361ad,null,null,"<p style=""font-size: 60px; font-family: BACS"">UdYUQGrub</p>",,,,,,,,,,
html-keyboard-response,196,368985,0.0-12.0-0.26,5fc2d2d79da439201ab6addc,650c16f0f2faf8d7a0d14c09,651c1d4281aa91f235a361ad,null,null,"<p style=""font-size: 60px; font-family: BACS"">uvaUuvJ</p>",,,,,,,,,,
html-keyboard-response,197,369987,0.0-12.0-0.27,5fc2d2d79da439201ab6addc,650c16f0f2faf8d7a0d14c09,651c1d4281aa91f235a361ad,null,null,"<p style=""font-size: 60px; font-family: BACS"">PhktkYbBT</p>",,,,,,,,,,
html-keyboard-response,198,370992,0.0-12.0-0.28,5fc2d2d79da439201ab6addc,650c16f0f2faf8d7a0d14c09,651c1d4281aa91f235a361ad,null,null,"<p style=""font-size: 60px; font-family: BACS"">EhbtTAm</p>",,,,,,,,,,
html-keyboard-response,199,372010,0.0-12.0-0.29,5fc2d2d79da439201ab6addc,650c16f0f2faf8d7a0d14c09,651c1d4281aa91f235a361ad,null,null,"<p style=""font-size: 60px; font-family: BACS"">CmcOYht</p>",,,,,,,,,,
html-keyboard-response,200,373015,0.0-12.0-0.30,5fc2d2d79da439201ab6addc,650c16f0f2faf8d7a0d14c09,651c1d4281aa91f235a361ad,null,null,"<p style=""font-size: 60px; font-family: BACS"">UdYUQuvJ</p>",,,,,,,,,,
html-keyboard-response,201,374025,0.0-12.0-0.31,5fc2d2d79da439201ab6addc,650c16f0f2faf8d7a0d14c09,651c1d4281aa91f235a361ad,null,null,"<p style=""font-size: 60px; font-family: BACS"">GLluAmLJ</p>",,,,,,,,,,
html-keyboard-response,202,375027,0.0-12.0-0.32,5fc2d2d79da439201ab6addc,650c16f0f2faf8d7a0d14c09,651c1d4281aa91f235a361ad,null,null,"<p style=""font-size: 60px; font-family: BACS"">hkRKTRK</p>",,,,,,,,,,
html-keyboard-response,203,376030,0.0-12.0-0.33,5fc2d2d79da439201ab6addc,650c16f0f2faf8d7a0d14c09,651c1d4281aa91f235a361ad,null,null,"<p style=""font-size: 60px; font-family: BACS"">uvaUuda</p>",,,,,,,,,,
html-keyboard-response,204,377041,0.0-12.0-0.34,5fc2d2d79da439201ab6addc,650c16f0f2faf8d7a0d14c09,651c1d4281aa91f235a361ad,null,null,"<p style=""font-size: 60px; font-family: BACS"">EhbtYht</p>",,,,,,,,,,
html-keyboard-response,205,378057,0.0-12.0-0.35,5fc2d2d79da439201ab6addc,650c16f0f2faf8d7a0d14c09,651c1d4281aa91f235a361ad,null,null,"<p style=""font-size: 60px; font-family: BACS"">LdrbvuvJ</p>",,,,,,,,,,
html-keyboard-response,206,379065,0.0-12.0-0.36,5fc2d2d79da439201ab6addc,650c16f0f2faf8d7a0d14c09,651c1d4281aa91f235a361ad,null,null,"<p style=""font-size: 60px; font-family: BACS"">PhktkTRK</p>",,,,,,,,,,
html-keyboard-response,207,380081,0.0-12.0-0.37,5fc2d2d79da439201ab6addc,650c16f0f2faf8d7a0d14c09,651c1d4281aa91f235a361ad,null,null,"<p style=""font-size: 60px; font-family: BACS"">auYAkJUNa</p>",,,,,,,,,,
html-keyboard-response,208,381096,0.0-12.0-0.38,5fc2d2d79da439201ab6addc,650c16f0f2faf8d7a0d14c09,651c1d4281aa91f235a361ad,null,null,"<p style=""font-size: 60px; font-family: BACS"">AbKDTAm</p>",,,,,,,,,,
html-keyboard-response,209,382101,0.0-12.0-0.39,5fc2d2d79da439201ab6addc,650c16f0f2faf8d7a0d14c09,651c1d4281aa91f235a361ad,null,null,"<p style=""font-size: 60px; font-family: BACS"">auYAkGrub</p>",,,,,,,,,,
html-keyboard-response,210,383111,0.0-12.0-0.40,5fc2d2d79da439201ab6addc,650c16f0f2faf8d7a0d14c09,651c1d4281aa91f235a361ad,null,null,"<p style=""font-size: 60px; font-family: BACS"">bAdkYht</p>",,,,,,,,,,
html-keyboard-response,211,384121,0.0-12.0-0.41,5fc2d2d79da439201ab6addc,650c16f0f2faf8d7a0d14c09,651c1d4281aa91f235a361ad,null,null,"<p style=""font-size: 60px; font-family: BACS"">AbKDYbBT</p>",,,,,,,,,,
html-keyboard-response,212,385133,0.0-12.0-0.42,5fc2d2d79da439201ab6addc,650c16f0f2faf8d7a0d14c09,651c1d4281aa91f235a361ad,null,null,"<p style=""font-size: 60px; font-family: BACS"">uvaUmLJ</p>",,,,,,,,,,
html-keyboard-response,213,386140,0.0-12.0-0.43,5fc2d2d79da439201ab6addc,650c16f0f2faf8d7a0d14c09,651c1d4281aa91f235a361ad,null,null,"<p style=""font-size: 60px; font-family: BACS"">ukYZuvJ</p>",,,,,,,,,,
html-keyboard-response,214,387150,0.0-12.0-0.44,5fc2d2d79da439201ab6addc,650c16f0f2faf8d7a0d14c09,651c1d4281aa91f235a361ad,null,null,"<p style=""font-size: 60px; font-family: BACS"">LdQvJUNa</p>",,,,,,,,,,
html-keyboard-response,215,388156,0.0-12.0-0.45,5fc2d2d79da439201ab6addc,650c16f0f2faf8d7a0d14c09,651c1d4281aa91f235a361ad,null,null,"<p style=""font-size: 60px; font-family: BACS"">aUZAmLJ</p>",,,,,,,,,,
html-keyboard-response,216,389160,0.0-12.0-0.46,5fc2d2d79da439201ab6addc,650c16f0f2faf8d7a0d14c09,651c1d4281aa91f235a361ad,null,null,"<p style=""font-size: 60px; font-family: BACS"">LdQvGrub</p>",,,,,,,,,,
html-keyboard-response,217,390175,0.0-12.0-0.47,5fc2d2d79da439201ab6addc,650c16f0f2faf8d7a0d14c09,651c1d4281aa91f235a361ad,null,null,"<p style=""font-size: 60px; font-family: BACS"">KABATRK</p>",,,,,,,,,,
html-keyboard-response,218,391180,0.0-12.0-0.48,5fc2d2d79da439201ab6addc,650c16f0f2faf8d7a0d14c09,651c1d4281aa91f235a361ad,null,null,"<p style=""font-size: 60px; font-family: BACS"">mBmlAYht</p>",,,,,,,,,,
html-keyboard-response,219,392195,0.0-12.0-0.49,5fc2d2d79da439201ab6addc,650c16f0f2faf8d7a0d14c09,651c1d4281aa91f235a361ad,null,null,"<p style=""font-size: 60px; font-family: BACS"">hkRKdEPD</p>",,,,,,,,,,
html-keyboard-response,220,393202,0.0-12.0-0.50,5fc2d2d79da439201ab6addc,650c16f0f2faf8d7a0d14c09,651c1d4281aa91f235a361ad,null,null,"<p style=""font-size: 60px; font-family: BACS"">GLluAGrub</p>",,,,,,,,,,
html-keyboard-response,221,394214,0.0-12.0-0.51,5fc2d2d79da439201ab6addc,650c16f0f2faf8d7a0d14c09,651c1d4281aa91f235a361ad,null,null,"<p style=""font-size: 60px; font-family: BACS"">auYAkuda</p>",,,,,,,,,,
html-keyboard-response,222,395226,0.0-12.0-0.52,5fc2d2d79da439201ab6addc,650c16f0f2faf8d7a0d14c09,651c1d4281aa91f235a361ad,null,null,"<p style=""font-size: 60px; font-family: BACS"">rcmuvmLJ</p>",,,,,,,,,,
html-keyboard-response,223,396228,0.0-12.0-0.53,5fc2d2d79da439201ab6addc,650c16f0f2faf8d7a0d14c09,651c1d4281aa91f235a361ad,null,null,"<p style=""font-size: 60px; font-family: BACS"">EhbtYbBT</p>",,,,,,,,,,
html-keyboard-response,224,397242,0.0-12.0-0.54,5fc2d2d79da439201ab6addc,650c16f0f2faf8d7a0d14c09,651c1d4281aa91f235a361ad,null,null,"<p style=""font-size: 60px; font-family: BACS"">ukYZGrub</p>",,,,,,,,,,
html-keyboard-response,225,398252,0.0-12.0-0.55,5fc2d2d79da439201ab6addc,650c16f0f2faf8d7a0d14c09,651c1d4281aa91f235a361ad,null,null,"<p style=""font-size: 60px; font-family: BACS"">LdrbvJUNa</p>",,,,,,,,,,
html-keyboard-response,226,399264,0.0-12.0-0.56,5fc2d2d79da439201ab6addc,650c16f0f2faf8d7a0d14c09,651c1d4281aa91f235a361ad,null,null,"<p style=""font-size: 60px; font-family: BACS"">rcmuvuda</p>",,,,,,,,,,
html-keyboard-response,227,400266,0.0-12.0-0.57,5fc2d2d79da439201ab6addc,650c16f0f2faf8d7a0d14c09,651c1d4281aa91f235a361ad,null,null,"<p style=""font-size: 60px; font-family: BACS"">GLluAuvJ</p>",,,,,,,,,,
html-keyboard-response,228,401267,0.0-12.0-0.58,5fc2d2d79da439201ab6addc,650c16f0f2faf8d7a0d14c09,651c1d4281aa91f235a361ad,null,null,"<p style=""font-size: 60px; font-family: BACS"">ukYZmLJ</p>",,,,,,,,,,
html-keyboard-response,229,402291,0.0-12.0-0.59,5fc2d2d79da439201ab6addc,650c16f0f2faf8d7a0d14c09,651c1d4281aa91f235a361ad,null,null,"<p style=""font-size: 60px; font-family: BACS"">auYAkuvJ</p>",,,,,,,,,,
html-keyboard-response,230,403307,0.0-12.0-0.60,5fc2d2d79da439201ab6addc,650c16f0f2faf8d7a0d14c09,651c1d4281aa91f235a361ad,null,null,"<p style=""font-size: 60px; font-family: BACS"">DOchlYbBT</p>",,,,,,,,,,
html-keyboard-response,231,404309,0.0-12.0-0.61,5fc2d2d79da439201ab6addc,650c16f0f2faf8d7a0d14c09,651c1d4281aa91f235a361ad,null,null,"<p style=""font-size: 60px; font-family: BACS"">aUZAuvJ</p>",,,,,,,,,,
html-keyboard-response,232,405331,0.0-12.0-0.62,5fc2d2d79da439201ab6addc,650c16f0f2faf8d7a0d14c09,651c1d4281aa91f235a361ad,null,null,"<p style=""font-size: 60px; font-family: BACS"">DOchlTRK</p>",,,,,,,,,,
html-keyboard-response,233,406333,0.0-12.0-0.63,5fc2d2d79da439201ab6addc,650c16f0f2faf8d7a0d14c09,651c1d4281aa91f235a361ad,null,null,"<p style=""font-size: 60px; font-family: BACS"">hkRKTAm</p>",,,,,,,,,,
html-keyboard-response,234,407338,0.0-12.0-0.64,5fc2d2d79da439201ab6addc,650c16f0f2faf8d7a0d14c09,651c1d4281aa91f235a361ad,null,null,"<p style=""font-size: 60px; font-family: BACS"">UdYUQmLJ</p>",,,,,,,,,,
html-keyboard-response,235,408360,0.0-12.0-0.65,5fc2d2d79da439201ab6addc,650c16f0f2faf8d7a0d14c09,651c1d4281aa91f235a361ad,null,null,"<p style=""font-size: 60px; font-family: BACS"">rGUAYJUNa</p>",,,,,,,,,,
html-keyboard-response,236,409375,0.0-12.0-0.66,5fc2d2d79da439201ab6addc,650c16f0f2faf8d7a0d14c09,651c1d4281aa91f235a361ad,null,null,"<p style=""font-size: 60px; font-family: BACS"">DMRPYbBT</p>",,,,,,,,,,
html-keyboard-response,237,410401,0.0-12.0-0.67,5fc2d2d79da439201ab6addc,650c16f0f2faf8d7a0d14c09,651c1d4281aa91f235a361ad,null,null,"<p style=""font-size: 60px; font-family: BACS"">rGUAYmLJ</p>",,,,,,,,,,
html-keyboard-response,238,411415,0.0-12.0-0.68,5fc2d2d79da439201ab6addc,650c16f0f2faf8d7a0d14c09,651c1d4281aa91f235a361ad,null,null,"<p style=""font-size: 60px; font-family: BACS"">LdrbvGrub</p>",,,,,,,,,,
html-keyboard-response,239,412417,0.0-12.0-0.69,5fc2d2d79da439201ab6addc,650c16f0f2faf8d7a0d14c09,651c1d4281aa91f235a361ad,null,null,"<p style=""font-size: 60px; font-family: BACS"">aUZAJUNa</p>",,,,,,,,,,
html-keyboard-response,240,413430,0.0-12.0-0.70,5fc2d2d79da439201ab6addc,650c16f0f2faf8d7a0d14c09,651c1d4281aa91f235a361ad,null,null,"<p style=""font-size: 60px; font-family: BACS"">DMRPTRK</p>",,,,,,,,,,
html-keyboard-response,241,414432,0.0-12.0-0.71,5fc2d2d79da439201ab6addc,650c16f0f2faf8d7a0d14c09,651c1d4281aa91f235a361ad,null,null,"<p style=""font-size: 60px; font-family: BACS"">aUZAGrub</p>",,,,,,,,,,
html-keyboard-response,242,415446,0.0-12.0-0.72,5fc2d2d79da439201ab6addc,650c16f0f2faf8d7a0d14c09,651c1d4281aa91f235a361ad,null,null,"<p style=""font-size: 60px; font-family: BACS"">mBmlATRK</p>",,,,,,,,,,
html-keyboard-response,243,416447,0.0-12.0-0.73,5fc2d2d79da439201ab6addc,650c16f0f2faf8d7a0d14c09,651c1d4281aa91f235a361ad,null,null,"<p style=""font-size: 60px; font-family: BACS"">CmcOYbBT</p>",,,,,,,,,,
html-keyboard-response,244,417456,0.0-12.0-0.74,5fc2d2d79da439201ab6addc,650c16f0f2faf8d7a0d14c09,651c1d4281aa91f235a361ad,null,null,"<p style=""font-size: 60px; font-family: BACS"">rcmuvJUNa</p>",,,,,,,,,,
html-keyboard-response,245,418471,0.0-12.0-0.75,5fc2d2d79da439201ab6addc,650c16f0f2faf8d7a0d14c09,651c1d4281aa91f235a361ad,null,null,"<p style=""font-size: 60px; font-family: BACS"">AbKDdEPD</p>",,,,,,,,,,
html-keyboard-response,246,419472,0.0-12.0-0.76,5fc2d2d79da439201ab6addc,650c16f0f2faf8d7a0d14c09,651c1d4281aa91f235a361ad,null,null,"<p style=""font-size: 60px; font-family: BACS"">Ldrbvuda</p>",,,,,,,,,,
html-keyboard-response,247,420475,0.0-12.0-0.77,5fc2d2d79da439201ab6addc,650c16f0f2faf8d7a0d14c09,651c1d4281aa91f235a361ad,null,null,"<p style=""font-size: 60px; font-family: BACS"">EhbtdEPD</p>",,,,,,,,,,
html-keyboard-response,248,421480,0.0-12.0-0.78,5fc2d2d79da439201ab6addc,650c16f0f2faf8d7a0d14c09,651c1d4281aa91f235a361ad,null,null,"<p style=""font-size: 60px; font-family: BACS"">uvaUJUNa</p>",,,,,,,,,,
html-keyboard-response,249,422487,0.0-12.0-0.79,5fc2d2d79da439201ab6addc,650c16f0f2faf8d7a0d14c09,651c1d4281aa91f235a361ad,null,null,"<p style=""font-size: 60px; font-family: BACS"">mBmlAYbBT</p>",,,,,,,,,,
html-keyboard-response,250,425898,0.0-13.0,5fc2d2d79da439201ab6addc,650c16f0f2faf8d7a0d14c09,651c1d4281aa91f235a361ad,3411, ,"<p>Great, you've seen the third block of words. You may now take a short break.</p>
      <p>Press the spacebar when you're ready to continue.</p>",,,,,,,,,,
html-keyboard-response,251,426910,0.0-14.0-0.0,5fc2d2d79da439201ab6addc,650c16f0f2faf8d7a0d14c09,651c1d4281aa91f235a361ad,null,null,"<p style=""font-size: 60px; font-family: BACS"">DOchlTAm</p>",,,,,,,,,,
html-keyboard-response,252,427911,0.0-14.0-0.1,5fc2d2d79da439201ab6addc,650c16f0f2faf8d7a0d14c09,651c1d4281aa91f235a361ad,null,null,"<p style=""font-size: 60px; font-family: BACS"">rGUAYmLJ</p>",,,,,,,,,,
html-keyboard-response,253,428921,0.0-14.0-0.2,5fc2d2d79da439201ab6addc,650c16f0f2faf8d7a0d14c09,651c1d4281aa91f235a361ad,null,null,"<p style=""font-size: 60px; font-family: BACS"">EhbtYht</p>",,,,,,,,,,
html-keyboard-response,254,429928,0.0-14.0-0.3,5fc2d2d79da439201ab6addc,650c16f0f2faf8d7a0d14c09,651c1d4281aa91f235a361ad,null,null,"<p style=""font-size: 60px; font-family: BACS"">uvaUJUNa</p>",,,,,,,,,,
html-keyboard-response,255,430941,0.0-14.0-0.4,5fc2d2d79da439201ab6addc,650c16f0f2faf8d7a0d14c09,651c1d4281aa91f235a361ad,null,null,"<p style=""font-size: 60px; font-family: BACS"">LdrbvuvJ</p>",,,,,,,,,,
html-keyboard-response,256,431951,0.0-14.0-0.5,5fc2d2d79da439201ab6addc,650c16f0f2faf8d7a0d14c09,651c1d4281aa91f235a361ad,null,null,"<p style=""font-size: 60px; font-family: BACS"">PhktkTRK</p>",,,,,,,,,,
html-keyboard-response,257,432966,0.0-14.0-0.6,5fc2d2d79da439201ab6addc,650c16f0f2faf8d7a0d14c09,651c1d4281aa91f235a361ad,null,null,"<p style=""font-size: 60px; font-family: BACS"">GLluAGrub</p>",,,,,,,,,,
html-keyboard-response,258,433967,0.0-14.0-0.7,5fc2d2d79da439201ab6addc,650c16f0f2faf8d7a0d14c09,651c1d4281aa91f235a361ad,null,null,"<p style=""font-size: 60px; font-family: BACS"">aUZAJUNa</p>",,,,,,,,,,
html-keyboard-response,259,434972,0.0-14.0-0.8,5fc2d2d79da439201ab6addc,650c16f0f2faf8d7a0d14c09,651c1d4281aa91f235a361ad,null,null,"<p style=""font-size: 60px; font-family: BACS"">uvaUuda</p>",,,,,,,,,,
html-keyboard-response,260,435974,0.0-14.0-0.9,5fc2d2d79da439201ab6addc,650c16f0f2faf8d7a0d14c09,651c1d4281aa91f235a361ad,null,null,"<p style=""font-size: 60px; font-family: BACS"">LdrbvGrub</p>",,,,,,,,,,
html-keyboard-response,261,436989,0.0-14.0-0.10,5fc2d2d79da439201ab6addc,650c16f0f2faf8d7a0d14c09,651c1d4281aa91f235a361ad,null,null,"<p style=""font-size: 60px; font-family: BACS"">rGUAYJUNa</p>",,,,,,,,,,
html-keyboard-response,262,437991,0.0-14.0-0.11,5fc2d2d79da439201ab6addc,650c16f0f2faf8d7a0d14c09,651c1d4281aa91f235a361ad,null,null,"<p style=""font-size: 60px; font-family: BACS"">mBmlAdEPD</p>",,,,,,,,,,
html-keyboard-response,263,439007,0.0-14.0-0.12,5fc2d2d79da439201ab6addc,650c16f0f2faf8d7a0d14c09,651c1d4281aa91f235a361ad,null,null,"<p style=""font-size: 60px; font-family: BACS"">uvaUmLJ</p>",,,,,,,,,,
html-keyboard-response,264,440017,0.0-14.0-0.13,5fc2d2d79da439201ab6addc,650c16f0f2faf8d7a0d14c09,651c1d4281aa91f235a361ad,null,null,"<p style=""font-size: 60px; font-family: BACS"">LdQvJUNa</p>",,,,,,,,,,
html-keyboard-response,265,441030,0.0-14.0-0.14,5fc2d2d79da439201ab6addc,650c16f0f2faf8d7a0d14c09,651c1d4281aa91f235a361ad,null,null,"<p style=""font-size: 60px; font-family: BACS"">hkRKYbBT</p>",,,,,,,,,,
html-keyboard-response,266,442046,0.0-14.0-0.15,5fc2d2d79da439201ab6addc,650c16f0f2faf8d7a0d14c09,651c1d4281aa91f235a361ad,null,null,"<p style=""font-size: 60px; font-family: BACS"">bAdkTRK</p>",,,,,,,,,,
html-keyboard-response,267,443060,0.0-14.0-0.16,5fc2d2d79da439201ab6addc,650c16f0f2faf8d7a0d14c09,651c1d4281aa91f235a361ad,null,null,"<p style=""font-size: 60px; font-family: BACS"">Ldrbvuda</p>",,,,,,,,,,
html-keyboard-response,268,444063,0.0-14.0-0.17,5fc2d2d79da439201ab6addc,650c16f0f2faf8d7a0d14c09,651c1d4281aa91f235a361ad,null,null,"<p style=""font-size: 60px; font-family: BACS"">bAdkTAm</p>",,,,,,,,,,
html-keyboard-response,269,445066,0.0-14.0-0.18,5fc2d2d79da439201ab6addc,650c16f0f2faf8d7a0d14c09,651c1d4281aa91f235a361ad,null,null,"<p style=""font-size: 60px; font-family: BACS"">rcmuvuda</p>",,,,,,,,,,
html-keyboard-response,270,446081,0.0-14.0-0.19,5fc2d2d79da439201ab6addc,650c16f0f2faf8d7a0d14c09,651c1d4281aa91f235a361ad,null,null,"<p style=""font-size: 60px; font-family: BACS"">LdQvmLJ</p>",,,,,,,,,,
html-keyboard-response,271,447096,0.0-14.0-0.20,5fc2d2d79da439201ab6addc,650c16f0f2faf8d7a0d14c09,651c1d4281aa91f235a361ad,null,null,"<p style=""font-size: 60px; font-family: BACS"">ukYZGrub</p>",,,,,,,,,,
html-keyboard-response,272,448112,0.0-14.0-0.21,5fc2d2d79da439201ab6addc,650c16f0f2faf8d7a0d14c09,651c1d4281aa91f235a361ad,null,null,"<p style=""font-size: 60px; font-family: BACS"">DOchlTRK</p>",,,,,,,,,,
html-keyboard-response,273,449117,0.0-14.0-0.22,5fc2d2d79da439201ab6addc,650c16f0f2faf8d7a0d14c09,651c1d4281aa91f235a361ad,null,null,"<p style=""font-size: 60px; font-family: BACS"">bAdkYht</p>",,,,,,,,,,
html-keyboard-response,274,450125,0.0-14.0-0.23,5fc2d2d79da439201ab6addc,650c16f0f2faf8d7a0d14c09,651c1d4281aa91f235a361ad,null,null,"<p style=""font-size: 60px; font-family: BACS"">KABATRK</p>",,,,,,,,,,
html-keyboard-response,275,451137,0.0-14.0-0.24,5fc2d2d79da439201ab6addc,650c16f0f2faf8d7a0d14c09,651c1d4281aa91f235a361ad,null,null,"<p style=""font-size: 60px; font-family: BACS"">AbKDTAm</p>",,,,,,,,,,
html-keyboard-response,276,452151,0.0-14.0-0.25,5fc2d2d79da439201ab6addc,650c16f0f2faf8d7a0d14c09,651c1d4281aa91f235a361ad,null,null,"<p style=""font-size: 60px; font-family: BACS"">auYAkuda</p>",,,,,,,,,,
html-keyboard-response,277,453161,0.0-14.0-0.26,5fc2d2d79da439201ab6addc,650c16f0f2faf8d7a0d14c09,651c1d4281aa91f235a361ad,null,null,"<p style=""font-size: 60px; font-family: BACS"">EhbtYbBT</p>",,,,,,,,,,
html-keyboard-response,278,454176,0.0-14.0-0.27,5fc2d2d79da439201ab6addc,650c16f0f2faf8d7a0d14c09,651c1d4281aa91f235a361ad,null,null,"<p style=""font-size: 60px; font-family: BACS"">DOchlYht</p>",,,,,,,,,,
html-keyboard-response,279,455191,0.0-14.0-0.28,5fc2d2d79da439201ab6addc,650c16f0f2faf8d7a0d14c09,651c1d4281aa91f235a361ad,null,null,"<p style=""font-size: 60px; font-family: BACS"">ukYZuvJ</p>",,,,,,,,,,
html-keyboard-response,280,456206,0.0-14.0-0.29,5fc2d2d79da439201ab6addc,650c16f0f2faf8d7a0d14c09,651c1d4281aa91f235a361ad,null,null,"<p style=""font-size: 60px; font-family: BACS"">hkRKdEPD</p>",,,,,,,,,,
html-keyboard-response,281,457210,0.0-14.0-0.30,5fc2d2d79da439201ab6addc,650c16f0f2faf8d7a0d14c09,651c1d4281aa91f235a361ad,null,null,"<p style=""font-size: 60px; font-family: BACS"">uvaUuvJ</p>",,,,,,,,,,
html-keyboard-response,282,458214,0.0-14.0-0.31,5fc2d2d79da439201ab6addc,650c16f0f2faf8d7a0d14c09,651c1d4281aa91f235a361ad,null,null,"<p style=""font-size: 60px; font-family: BACS"">UdYUQmLJ</p>",,,,,,,,,,
html-keyboard-response,283,459222,0.0-14.0-0.32,5fc2d2d79da439201ab6addc,650c16f0f2faf8d7a0d14c09,651c1d4281aa91f235a361ad,null,null,"<p style=""font-size: 60px; font-family: BACS"">DMRPYbBT</p>",,,,,,,,,,
html-keyboard-response,284,460230,0.0-14.0-0.33,5fc2d2d79da439201ab6addc,650c16f0f2faf8d7a0d14c09,651c1d4281aa91f235a361ad,null,null,"<p style=""font-size: 60px; font-family: BACS"">GLluAmLJ</p>",,,,,,,,,,
html-keyboard-response,285,461251,0.0-14.0-0.34,5fc2d2d79da439201ab6addc,650c16f0f2faf8d7a0d14c09,651c1d4281aa91f235a361ad,null,null,"<p style=""font-size: 60px; font-family: BACS"">mBmlAYbBT</p>",,,,,,,,,,
html-keyboard-response,286,462265,0.0-14.0-0.35,5fc2d2d79da439201ab6addc,650c16f0f2faf8d7a0d14c09,651c1d4281aa91f235a361ad,null,null,"<p style=""font-size: 60px; font-family: BACS"">UdYUQuvJ</p>",,,,,,,,,,
html-keyboard-response,287,463268,0.0-14.0-0.36,5fc2d2d79da439201ab6addc,650c16f0f2faf8d7a0d14c09,651c1d4281aa91f235a361ad,null,null,"<p style=""font-size: 60px; font-family: BACS"">ukYZuda</p>",,,,,,,,,,
html-keyboard-response,288,464269,0.0-14.0-0.37,5fc2d2d79da439201ab6addc,650c16f0f2faf8d7a0d14c09,651c1d4281aa91f235a361ad,null,null,"<p style=""font-size: 60px; font-family: BACS"">rcmuvJUNa</p>",,,,,,,,,,
html-keyboard-response,289,465280,0.0-14.0-0.38,5fc2d2d79da439201ab6addc,650c16f0f2faf8d7a0d14c09,651c1d4281aa91f235a361ad,null,null,"<p style=""font-size: 60px; font-family: BACS"">aUZAuvJ</p>",,,,,,,,,,
html-keyboard-response,290,466290,0.0-14.0-0.39,5fc2d2d79da439201ab6addc,650c16f0f2faf8d7a0d14c09,651c1d4281aa91f235a361ad,null,null,"<p style=""font-size: 60px; font-family: BACS"">AbKDYbBT</p>",,,,,,,,,,
html-keyboard-response,291,467305,0.0-14.0-0.40,5fc2d2d79da439201ab6addc,650c16f0f2faf8d7a0d14c09,651c1d4281aa91f235a361ad,null,null,"<p style=""font-size: 60px; font-family: BACS"">hkRKTRK</p>",,,,,,,,,,
html-keyboard-response,292,468320,0.0-14.0-0.41,5fc2d2d79da439201ab6addc,650c16f0f2faf8d7a0d14c09,651c1d4281aa91f235a361ad,null,null,"<p style=""font-size: 60px; font-family: BACS"">KABATAm</p>",,,,,,,,,,
html-keyboard-response,293,469322,0.0-14.0-0.42,5fc2d2d79da439201ab6addc,650c16f0f2faf8d7a0d14c09,651c1d4281aa91f235a361ad,null,null,"<p style=""font-size: 60px; font-family: BACS"">CmcOTRK</p>",,,,,,,,,,
html-keyboard-response,294,470324,0.0-14.0-0.43,5fc2d2d79da439201ab6addc,650c16f0f2faf8d7a0d14c09,651c1d4281aa91f235a361ad,null,null,"<p style=""font-size: 60px; font-family: BACS"">GLluAuvJ</p>",,,,,,,,,,
html-keyboard-response,295,471330,0.0-14.0-0.44,5fc2d2d79da439201ab6addc,650c16f0f2faf8d7a0d14c09,651c1d4281aa91f235a361ad,null,null,"<p style=""font-size: 60px; font-family: BACS"">CmcOYbBT</p>",,,,,,,,,,
html-keyboard-response,296,472337,0.0-14.0-0.45,5fc2d2d79da439201ab6addc,650c16f0f2faf8d7a0d14c09,651c1d4281aa91f235a361ad,null,null,"<p style=""font-size: 60px; font-family: BACS"">aUZAGrub</p>",,,,,,,,,,
html-keyboard-response,297,473346,0.0-14.0-0.46,5fc2d2d79da439201ab6addc,650c16f0f2faf8d7a0d14c09,651c1d4281aa91f235a361ad,null,null,"<p style=""font-size: 60px; font-family: BACS"">UdYUQJUNa</p>",,,,,,,,,,
html-keyboard-response,298,474361,0.0-14.0-0.47,5fc2d2d79da439201ab6addc,650c16f0f2faf8d7a0d14c09,651c1d4281aa91f235a361ad,null,null,"<p style=""font-size: 60px; font-family: BACS"">PhktkdEPD</p>",,,,,,,,,,
html-keyboard-response,299,475374,0.0-14.0-0.48,5fc2d2d79da439201ab6addc,650c16f0f2faf8d7a0d14c09,651c1d4281aa91f235a361ad,null,null,"<p style=""font-size: 60px; font-family: BACS"">mBmlAYht</p>",,,,,,,,,,
html-keyboard-response,300,476376,0.0-14.0-0.49,5fc2d2d79da439201ab6addc,650c16f0f2faf8d7a0d14c09,651c1d4281aa91f235a361ad,null,null,"<p style=""font-size: 60px; font-family: BACS"">AbKDdEPD</p>",,,,,,,,,,
html-keyboard-response,301,477380,0.0-14.0-0.50,5fc2d2d79da439201ab6addc,650c16f0f2faf8d7a0d14c09,651c1d4281aa91f235a361ad,null,null,"<p style=""font-size: 60px; font-family: BACS"">rcmuvuvJ</p>",,,,,,,,,,
html-keyboard-response,302,478395,0.0-14.0-0.51,5fc2d2d79da439201ab6addc,650c16f0f2faf8d7a0d14c09,651c1d4281aa91f235a361ad,null,null,"<p style=""font-size: 60px; font-family: BACS"">KABAdEPD</p>",,,,,,,,,,
html-keyboard-response,303,479397,0.0-14.0-0.52,5fc2d2d79da439201ab6addc,650c16f0f2faf8d7a0d14c09,651c1d4281aa91f235a361ad,null,null,"<p style=""font-size: 60px; font-family: BACS"">LdrbvJUNa</p>",,,,,,,,,,
html-keyboard-response,304,480411,0.0-14.0-0.53,5fc2d2d79da439201ab6addc,650c16f0f2faf8d7a0d14c09,651c1d4281aa91f235a361ad,null,null,"<p style=""font-size: 60px; font-family: BACS"">rGUAYuda</p>",,,,,,,,,,
html-keyboard-response,305,481417,0.0-14.0-0.54,5fc2d2d79da439201ab6addc,650c16f0f2faf8d7a0d14c09,651c1d4281aa91f235a361ad,null,null,"<p style=""font-size: 60px; font-family: BACS"">auYAkGrub</p>",,,,,,,,,,
html-keyboard-response,306,482418,0.0-14.0-0.55,5fc2d2d79da439201ab6addc,650c16f0f2faf8d7a0d14c09,651c1d4281aa91f235a361ad,null,null,"<p style=""font-size: 60px; font-family: BACS"">AbKDYht</p>",,,,,,,,,,
html-keyboard-response,307,483434,0.0-14.0-0.56,5fc2d2d79da439201ab6addc,650c16f0f2faf8d7a0d14c09,651c1d4281aa91f235a361ad,null,null,"<p style=""font-size: 60px; font-family: BACS"">rcmuvmLJ</p>",,,,,,,,,,
html-keyboard-response,308,484442,0.0-14.0-0.57,5fc2d2d79da439201ab6addc,650c16f0f2faf8d7a0d14c09,651c1d4281aa91f235a361ad,null,null,"<p style=""font-size: 60px; font-family: BACS"">DMRPdEPD</p>",,,,,,,,,,
html-keyboard-response,309,485455,0.0-14.0-0.58,5fc2d2d79da439201ab6addc,650c16f0f2faf8d7a0d14c09,651c1d4281aa91f235a361ad,null,null,"<p style=""font-size: 60px; font-family: BACS"">ukYZmLJ</p>",,,,,,,,,,
html-keyboard-response,310,486471,0.0-14.0-0.59,5fc2d2d79da439201ab6addc,650c16f0f2faf8d7a0d14c09,651c1d4281aa91f235a361ad,null,null,"<p style=""font-size: 60px; font-family: BACS"">DOchlYbBT</p>",,,,,,,,,,
html-keyboard-response,311,487485,0.0-14.0-0.60,5fc2d2d79da439201ab6addc,650c16f0f2faf8d7a0d14c09,651c1d4281aa91f235a361ad,null,null,"<p style=""font-size: 60px; font-family: BACS"">PhktkYht</p>",,,,,,,,,,
html-keyboard-response,312,488489,0.0-14.0-0.61,5fc2d2d79da439201ab6addc,650c16f0f2faf8d7a0d14c09,651c1d4281aa91f235a361ad,null,null,"<p style=""font-size: 60px; font-family: BACS"">GLluAuda</p>",,,,,,,,,,
html-keyboard-response,313,489496,0.0-14.0-0.62,5fc2d2d79da439201ab6addc,650c16f0f2faf8d7a0d14c09,651c1d4281aa91f235a361ad,null,null,"<p style=""font-size: 60px; font-family: BACS"">auYAkJUNa</p>",,,,,,,,,,
html-keyboard-response,314,490510,0.0-14.0-0.63,5fc2d2d79da439201ab6addc,650c16f0f2faf8d7a0d14c09,651c1d4281aa91f235a361ad,null,null,"<p style=""font-size: 60px; font-family: BACS"">LdQvGrub</p>",,,,,,,,,,
html-keyboard-response,315,491525,0.0-14.0-0.64,5fc2d2d79da439201ab6addc,650c16f0f2faf8d7a0d14c09,651c1d4281aa91f235a361ad,null,null,"<p style=""font-size: 60px; font-family: BACS"">CmcOYht</p>",,,,,,,,,,
html-keyboard-response,316,492530,0.0-14.0-0.65,5fc2d2d79da439201ab6addc,650c16f0f2faf8d7a0d14c09,651c1d4281aa91f235a361ad,null,null,"<p style=""font-size: 60px; font-family: BACS"">LdQvuda</p>",,,,,,,,,,
html-keyboard-response,317,493540,0.0-14.0-0.66,5fc2d2d79da439201ab6addc,650c16f0f2faf8d7a0d14c09,651c1d4281aa91f235a361ad,null,null,"<p style=""font-size: 60px; font-family: BACS"">DMRPTRK</p>",,,,,,,,,,
html-keyboard-response,318,494555,0.0-14.0-0.67,5fc2d2d79da439201ab6addc,650c16f0f2faf8d7a0d14c09,651c1d4281aa91f235a361ad,null,null,"<p style=""font-size: 60px; font-family: BACS"">aUZAmLJ</p>",,,,,,,,,,
html-keyboard-response,319,495567,0.0-14.0-0.68,5fc2d2d79da439201ab6addc,650c16f0f2faf8d7a0d14c09,651c1d4281aa91f235a361ad,null,null,"<p style=""font-size: 60px; font-family: BACS"">KABAYht</p>",,,,,,,,,,
html-keyboard-response,320,496569,0.0-14.0-0.69,5fc2d2d79da439201ab6addc,650c16f0f2faf8d7a0d14c09,651c1d4281aa91f235a361ad,null,null,"<p style=""font-size: 60px; font-family: BACS"">mBmlATRK</p>",,,,,,,,,,
html-keyboard-response,321,497578,0.0-14.0-0.70,5fc2d2d79da439201ab6addc,650c16f0f2faf8d7a0d14c09,651c1d4281aa91f235a361ad,null,null,"<p style=""font-size: 60px; font-family: BACS"">EhbtdEPD</p>",,,,,,,,,,
html-keyboard-response,322,498586,0.0-14.0-0.71,5fc2d2d79da439201ab6addc,650c16f0f2faf8d7a0d14c09,651c1d4281aa91f235a361ad,null,null,"<p style=""font-size: 60px; font-family: BACS"">CmcOTAm</p>",,,,,,,,,,
html-keyboard-response,323,499601,0.0-14.0-0.72,5fc2d2d79da439201ab6addc,650c16f0f2faf8d7a0d14c09,651c1d4281aa91f235a361ad,null,null,"<p style=""font-size: 60px; font-family: BACS"">auYAkuvJ</p>",,,,,,,,,,
html-keyboard-response,324,500604,0.0-14.0-0.73,5fc2d2d79da439201ab6addc,650c16f0f2faf8d7a0d14c09,651c1d4281aa91f235a361ad,null,null,"<p style=""font-size: 60px; font-family: BACS"">rGUAYGrub</p>",,,,,,,,,,
html-keyboard-response,325,501610,0.0-14.0-0.74,5fc2d2d79da439201ab6addc,650c16f0f2faf8d7a0d14c09,651c1d4281aa91f235a361ad,null,null,"<p style=""font-size: 60px; font-family: BACS"">hkRKTAm</p>",,,,,,,,,,
html-keyboard-response,326,502612,0.0-14.0-0.75,5fc2d2d79da439201ab6addc,650c16f0f2faf8d7a0d14c09,651c1d4281aa91f235a361ad,null,null,"<p style=""font-size: 60px; font-family: BACS"">bAdkdEPD</p>",,,,,,,,,,
html-keyboard-response,327,503622,0.0-14.0-0.76,5fc2d2d79da439201ab6addc,650c16f0f2faf8d7a0d14c09,651c1d4281aa91f235a361ad,null,null,"<p style=""font-size: 60px; font-family: BACS"">PhktkYbBT</p>",,,,,,,,,,
html-keyboard-response,328,504630,0.0-14.0-0.77,5fc2d2d79da439201ab6addc,650c16f0f2faf8d7a0d14c09,651c1d4281aa91f235a361ad,null,null,"<p style=""font-size: 60px; font-family: BACS"">DMRPTAm</p>",,,,,,,,,,
html-keyboard-response,329,505640,0.0-14.0-0.78,5fc2d2d79da439201ab6addc,650c16f0f2faf8d7a0d14c09,651c1d4281aa91f235a361ad,null,null,"<p style=""font-size: 60px; font-family: BACS"">UdYUQGrub</p>",,,,,,,,,,
html-keyboard-response,330,506643,0.0-14.0-0.79,5fc2d2d79da439201ab6addc,650c16f0f2faf8d7a0d14c09,651c1d4281aa91f235a361ad,null,null,"<p style=""font-size: 60px; font-family: BACS"">EhbtTAm</p>",,,,,,,,,,
html-keyboard-response,331,509762,0.0-15.0,5fc2d2d79da439201ab6addc,650c16f0f2faf8d7a0d14c09,651c1d4281aa91f235a361ad,3118, ,"<p>Great, you've seen the fourth block of words. You may now take a short break.</p>
      <p>Press the spacebar when you're ready to continue.</p>",,,,,,,,,,
html-keyboard-response,332,510765,0.0-16.0-0.0,5fc2d2d79da439201ab6addc,650c16f0f2faf8d7a0d14c09,651c1d4281aa91f235a361ad,null,null,"<p style=""font-size: 60px; font-family: BACS"">hkRKTAm</p>",,,,,,,,,,
html-keyboard-response,333,511771,0.0-16.0-0.1,5fc2d2d79da439201ab6addc,650c16f0f2faf8d7a0d14c09,651c1d4281aa91f235a361ad,null,null,"<p style=""font-size: 60px; font-family: BACS"">hkRKTAm</p>",,,,,,,,,,
html-keyboard-response,334,512787,0.0-16.0-0.2,5fc2d2d79da439201ab6addc,650c16f0f2faf8d7a0d14c09,651c1d4281aa91f235a361ad,null,null,"<p style=""font-size: 60px; font-family: BACS"">hkRKTAm</p>",,,,,,,,,,
html-keyboard-response,335,513789,0.0-16.0-0.3,5fc2d2d79da439201ab6addc,650c16f0f2faf8d7a0d14c09,651c1d4281aa91f235a361ad,null,null,"<p style=""font-size: 60px; font-family: BACS"">hkRKTAm</p>",,,,,,,,,,
html-keyboard-response,336,514800,0.0-16.0-0.4,5fc2d2d79da439201ab6addc,650c16f0f2faf8d7a0d14c09,651c1d4281aa91f235a361ad,null,null,"<p style=""font-size: 60px; font-family: BACS"">hkRKTAm</p>",,,,,,,,,,
html-keyboard-response,337,515810,0.0-16.0-0.5,5fc2d2d79da439201ab6addc,650c16f0f2faf8d7a0d14c09,651c1d4281aa91f235a361ad,null,null,"<p style=""font-size: 60px; font-family: BACS"">hkRKTAm</p>",,,,,,,,,,
html-keyboard-response,338,516820,0.0-16.0-0.6,5fc2d2d79da439201ab6addc,650c16f0f2faf8d7a0d14c09,651c1d4281aa91f235a361ad,null,null,"<p style=""font-size: 60px; font-family: BACS"">hkRKTAm</p>",,,,,,,,,,
html-keyboard-response,339,517823,0.0-16.0-0.7,5fc2d2d79da439201ab6addc,650c16f0f2faf8d7a0d14c09,651c1d4281aa91f235a361ad,null,null,"<p style=""font-size: 60px; font-family: BACS"">hkRKTAm</p>",,,,,,,,,,
html-keyboard-response,340,518838,0.0-16.0-0.8,5fc2d2d79da439201ab6addc,650c16f0f2faf8d7a0d14c09,651c1d4281aa91f235a361ad,null,null,"<p style=""font-size: 60px; font-family: BACS"">hkRKTAm</p>",,,,,,,,,,
html-keyboard-response,341,519847,0.0-16.0-0.9,5fc2d2d79da439201ab6addc,650c16f0f2faf8d7a0d14c09,651c1d4281aa91f235a361ad,null,null,"<p style=""font-size: 60px; font-family: BACS"">hkRKTAm</p>",,,,,,,,,,
html-keyboard-response,342,520850,0.0-16.0-0.10,5fc2d2d79da439201ab6addc,650c16f0f2faf8d7a0d14c09,651c1d4281aa91f235a361ad,null,null,"<p style=""font-size: 60px; font-family: BACS"">hkRKTAm</p>",,,,,,,,,,
html-keyboard-response,343,521858,0.0-16.0-0.11,5fc2d2d79da439201ab6addc,650c16f0f2faf8d7a0d14c09,651c1d4281aa91f235a361ad,null,null,"<p style=""font-size: 60px; font-family: BACS"">hkRKTAm</p>",,,,,,,,,,
html-keyboard-response,344,522865,0.0-16.0-0.12,5fc2d2d79da439201ab6addc,650c16f0f2faf8d7a0d14c09,651c1d4281aa91f235a361ad,null,null,"<p style=""font-size: 60px; font-family: BACS"">hkRKTAm</p>",,,,,,,,,,
html-keyboard-response,345,523875,0.0-16.0-0.13,5fc2d2d79da439201ab6addc,650c16f0f2faf8d7a0d14c09,651c1d4281aa91f235a361ad,null,null,"<p style=""font-size: 60px; font-family: BACS"">hkRKTAm</p>",,,,,,,,,,
html-keyboard-response,346,524877,0.0-16.0-0.14,5fc2d2d79da439201ab6addc,650c16f0f2faf8d7a0d14c09,651c1d4281aa91f235a361ad,null,null,"<p style=""font-size: 60px; font-family: BACS"">hkRKTAm</p>",,,,,,,,,,
html-keyboard-response,347,525879,0.0-16.0-0.15,5fc2d2d79da439201ab6addc,650c16f0f2faf8d7a0d14c09,651c1d4281aa91f235a361ad,null,null,"<p style=""font-size: 60px; font-family: BACS"">hkRKTAm</p>",,,,,,,,,,
html-keyboard-response,348,526890,0.0-16.0-0.16,5fc2d2d79da439201ab6addc,650c16f0f2faf8d7a0d14c09,651c1d4281aa91f235a361ad,null,null,"<p style=""font-size: 60px; font-family: BACS"">hkRKTAm</p>",,,,,,,,,,
html-keyboard-response,349,527900,0.0-16.0-0.17,5fc2d2d79da439201ab6addc,650c16f0f2faf8d7a0d14c09,651c1d4281aa91f235a361ad,null,null,"<p style=""font-size: 60px; font-family: BACS"">hkRKTAm</p>",,,,,,,,,,
html-keyboard-response,350,528915,0.0-16.0-0.18,5fc2d2d79da439201ab6addc,650c16f0f2faf8d7a0d14c09,651c1d4281aa91f235a361ad,null,null,"<p style=""font-size: 60px; font-family: BACS"">hkRKTAm</p>",,,,,,,,,,
html-keyboard-response,351,529930,0.0-16.0-0.19,5fc2d2d79da439201ab6addc,650c16f0f2faf8d7a0d14c09,651c1d4281aa91f235a361ad,null,null,"<p style=""font-size: 60px; font-family: BACS"">hkRKTAm</p>",,,,,,,,,,
html-keyboard-response,352,530942,0.0-16.0-0.20,5fc2d2d79da439201ab6addc,650c16f0f2faf8d7a0d14c09,651c1d4281aa91f235a361ad,null,null,"<p style=""font-size: 60px; font-family: BACS"">hkRKTAm</p>",,,,,,,,,,
html-keyboard-response,353,531958,0.0-16.0-0.21,5fc2d2d79da439201ab6addc,650c16f0f2faf8d7a0d14c09,651c1d4281aa91f235a361ad,null,null,"<p style=""font-size: 60px; font-family: BACS"">hkRKTAm</p>",,,,,,,,,,
html-keyboard-response,354,532970,0.0-16.0-0.22,5fc2d2d79da439201ab6addc,650c16f0f2faf8d7a0d14c09,651c1d4281aa91f235a361ad,null,null,"<p style=""font-size: 60px; font-family: BACS"">hkRKTAm</p>",,,,,,,,,,
html-keyboard-response,355,533985,0.0-16.0-0.23,5fc2d2d79da439201ab6addc,650c16f0f2faf8d7a0d14c09,651c1d4281aa91f235a361ad,null,null,"<p style=""font-size: 60px; font-family: BACS"">hkRKTAm</p>",,,,,,,,,,
html-keyboard-response,356,534986,0.0-16.0-0.24,5fc2d2d79da439201ab6addc,650c16f0f2faf8d7a0d14c09,651c1d4281aa91f235a361ad,null,null,"<p style=""font-size: 60px; font-family: BACS"">hkRKTAm</p>",,,,,,,,,,
html-keyboard-response,357,536001,0.0-16.0-0.25,5fc2d2d79da439201ab6addc,650c16f0f2faf8d7a0d14c09,651c1d4281aa91f235a361ad,null,null,"<p style=""font-size: 60px; font-family: BACS"">hkRKTAm</p>",,,,,,,,,,
html-keyboard-response,358,537010,0.0-16.0-0.26,5fc2d2d79da439201ab6addc,650c16f0f2faf8d7a0d14c09,651c1d4281aa91f235a361ad,null,null,"<p style=""font-size: 60px; font-family: BACS"">hkRKTAm</p>",,,,,,,,,,
html-keyboard-response,359,538012,0.0-16.0-0.27,5fc2d2d79da439201ab6addc,650c16f0f2faf8d7a0d14c09,651c1d4281aa91f235a361ad,null,null,"<p style=""font-size: 60px; font-family: BACS"">hkRKTAm</p>",,,,,,,,,,
html-keyboard-response,360,539017,0.0-16.0-0.28,5fc2d2d79da439201ab6addc,650c16f0f2faf8d7a0d14c09,651c1d4281aa91f235a361ad,null,null,"<p style=""font-size: 60px; font-family: BACS"">hkRKTAm</p>",,,,,,,,,,
html-keyboard-response,361,540026,0.0-16.0-0.29,5fc2d2d79da439201ab6addc,650c16f0f2faf8d7a0d14c09,651c1d4281aa91f235a361ad,null,null,"<p style=""font-size: 60px; font-family: BACS"">hkRKTAm</p>",,,,,,,,,,
html-keyboard-response,362,541050,0.0-16.0-0.30,5fc2d2d79da439201ab6addc,650c16f0f2faf8d7a0d14c09,651c1d4281aa91f235a361ad,null,null,"<p style=""font-size: 60px; font-family: BACS"">hkRKTAm</p>",,,,,,,,,,
html-keyboard-response,363,542062,0.0-16.0-0.31,5fc2d2d79da439201ab6addc,650c16f0f2faf8d7a0d14c09,651c1d4281aa91f235a361ad,null,null,"<p style=""font-size: 60px; font-family: BACS"">hkRKTAm</p>",,,,,,,,,,
html-keyboard-response,364,543080,0.0-16.0-0.32,5fc2d2d79da439201ab6addc,650c16f0f2faf8d7a0d14c09,651c1d4281aa91f235a361ad,null,null,"<p style=""font-size: 60px; font-family: BACS"">hkRKTAm</p>",,,,,,,,,,
html-keyboard-response,365,544095,0.0-16.0-0.33,5fc2d2d79da439201ab6addc,650c16f0f2faf8d7a0d14c09,651c1d4281aa91f235a361ad,null,null,"<p style=""font-size: 60px; font-family: BACS"">hkRKTAm</p>",,,,,,,,,,
html-keyboard-response,366,545100,0.0-16.0-0.34,5fc2d2d79da439201ab6addc,650c16f0f2faf8d7a0d14c09,651c1d4281aa91f235a361ad,null,null,"<p style=""font-size: 60px; font-family: BACS"">hkRKTAm</p>",,,,,,,,,,
html-keyboard-response,367,546101,0.0-16.0-0.35,5fc2d2d79da439201ab6addc,650c16f0f2faf8d7a0d14c09,651c1d4281aa91f235a361ad,null,null,"<p style=""font-size: 60px; font-family: BACS"">hkRKTAm</p>",,,,,,,,,,
html-keyboard-response,368,547110,0.0-16.0-0.36,5fc2d2d79da439201ab6addc,650c16f0f2faf8d7a0d14c09,651c1d4281aa91f235a361ad,null,null,"<p style=""font-size: 60px; font-family: BACS"">hkRKTAm</p>",,,,,,,,,,
html-keyboard-response,369,548118,0.0-16.0-0.37,5fc2d2d79da439201ab6addc,650c16f0f2faf8d7a0d14c09,651c1d4281aa91f235a361ad,null,null,"<p style=""font-size: 60px; font-family: BACS"">hkRKTAm</p>",,,,,,,,,,
html-keyboard-response,370,549127,0.0-16.0-0.38,5fc2d2d79da439201ab6addc,650c16f0f2faf8d7a0d14c09,651c1d4281aa91f235a361ad,null,null,"<p style=""font-size: 60px; font-family: BACS"">hkRKTAm</p>",,,,,,,,,,
html-keyboard-response,371,550133,0.0-16.0-0.39,5fc2d2d79da439201ab6addc,650c16f0f2faf8d7a0d14c09,651c1d4281aa91f235a361ad,null,null,"<p style=""font-size: 60px; font-family: BACS"">hkRKTAm</p>",,,,,,,,,,
html-keyboard-response,372,551139,0.0-16.0-0.40,5fc2d2d79da439201ab6addc,650c16f0f2faf8d7a0d14c09,651c1d4281aa91f235a361ad,null,null,"<p style=""font-size: 60px; font-family: BACS"">hkRKTAm</p>",,,,,,,,,,
html-keyboard-response,373,552155,0.0-16.0-0.41,5fc2d2d79da439201ab6addc,650c16f0f2faf8d7a0d14c09,651c1d4281aa91f235a361ad,null,null,"<p style=""font-size: 60px; font-family: BACS"">hkRKTAm</p>",,,,,,,,,,
html-keyboard-response,374,553170,0.0-16.0-0.42,5fc2d2d79da439201ab6addc,650c16f0f2faf8d7a0d14c09,651c1d4281aa91f235a361ad,null,null,"<p style=""font-size: 60px; font-family: BACS"">hkRKTAm</p>",,,,,,,,,,
html-keyboard-response,375,554175,0.0-16.0-0.43,5fc2d2d79da439201ab6addc,650c16f0f2faf8d7a0d14c09,651c1d4281aa91f235a361ad,null,null,"<p style=""font-size: 60px; font-family: BACS"">hkRKTAm</p>",,,,,,,,,,
html-keyboard-response,376,555190,0.0-16.0-0.44,5fc2d2d79da439201ab6addc,650c16f0f2faf8d7a0d14c09,651c1d4281aa91f235a361ad,null,null,"<p style=""font-size: 60px; font-family: BACS"">hkRKTAm</p>",,,,,,,,,,
html-keyboard-response,377,556204,0.0-16.0-0.45,5fc2d2d79da439201ab6addc,650c16f0f2faf8d7a0d14c09,651c1d4281aa91f235a361ad,null,null,"<p style=""font-size: 60px; font-family: BACS"">hkRKTAm</p>",,,,,,,,,,
html-keyboard-response,378,557209,0.0-16.0-0.46,5fc2d2d79da439201ab6addc,650c16f0f2faf8d7a0d14c09,651c1d4281aa91f235a361ad,null,null,"<p style=""font-size: 60px; font-family: BACS"">hkRKTAm</p>",,,,,,,,,,
html-keyboard-response,379,558221,0.0-16.0-0.47,5fc2d2d79da439201ab6addc,650c16f0f2faf8d7a0d14c09,651c1d4281aa91f235a361ad,null,null,"<p style=""font-size: 60px; font-family: BACS"">hkRKTAm</p>",,,,,,,,,,
html-keyboard-response,380,559223,0.0-16.0-0.48,5fc2d2d79da439201ab6addc,650c16f0f2faf8d7a0d14c09,651c1d4281aa91f235a361ad,null,null,"<p style=""font-size: 60px; font-family: BACS"">hkRKTAm</p>",,,,,,,,,,
html-keyboard-response,381,560235,0.0-16.0-0.49,5fc2d2d79da439201ab6addc,650c16f0f2faf8d7a0d14c09,651c1d4281aa91f235a361ad,null,null,"<p style=""font-size: 60px; font-family: BACS"">hkRKTAm</p>",,,,,,,,,,
html-keyboard-response,382,561251,0.0-16.0-0.50,5fc2d2d79da439201ab6addc,650c16f0f2faf8d7a0d14c09,651c1d4281aa91f235a361ad,null,null,"<p style=""font-size: 60px; font-family: BACS"">hkRKTAm</p>",,,,,,,,,,
html-keyboard-response,383,562260,0.0-16.0-0.51,5fc2d2d79da439201ab6addc,650c16f0f2faf8d7a0d14c09,651c1d4281aa91f235a361ad,null,null,"<p style=""font-size: 60px; font-family: BACS"">hkRKTAm</p>",,,,,,,,,,
html-keyboard-response,384,563276,0.0-16.0-0.52,5fc2d2d79da439201ab6addc,650c16f0f2faf8d7a0d14c09,651c1d4281aa91f235a361ad,null,null,"<p style=""font-size: 60px; font-family: BACS"">hkRKTAm</p>",,,,,,,,,,
html-keyboard-response,385,564281,0.0-16.0-0.53,5fc2d2d79da439201ab6addc,650c16f0f2faf8d7a0d14c09,651c1d4281aa91f235a361ad,null,null,"<p style=""font-size: 60px; font-family: BACS"">hkRKTAm</p>",,,,,,,,,,
html-keyboard-response,386,565292,0.0-16.0-0.54,5fc2d2d79da439201ab6addc,650c16f0f2faf8d7a0d14c09,651c1d4281aa91f235a361ad,null,null,"<p style=""font-size: 60px; font-family: BACS"">hkRKTAm</p>",,,,,,,,,,
html-keyboard-response,387,566301,0.0-16.0-0.55,5fc2d2d79da439201ab6addc,650c16f0f2faf8d7a0d14c09,651c1d4281aa91f235a361ad,null,null,"<p style=""font-size: 60px; font-family: BACS"">hkRKTAm</p>",,,,,,,,,,
html-keyboard-response,388,567316,0.0-16.0-0.56,5fc2d2d79da439201ab6addc,650c16f0f2faf8d7a0d14c09,651c1d4281aa91f235a361ad,null,null,"<p style=""font-size: 60px; font-family: BACS"">hkRKTAm</p>",,,,,,,,,,
html-keyboard-response,389,568330,0.0-16.0-0.57,5fc2d2d79da439201ab6addc,650c16f0f2faf8d7a0d14c09,651c1d4281aa91f235a361ad,null,null,"<p style=""font-size: 60px; font-family: BACS"">hkRKTAm</p>",,,,,,,,,,
html-keyboard-response,390,569335,0.0-16.0-0.58,5fc2d2d79da439201ab6addc,650c16f0f2faf8d7a0d14c09,651c1d4281aa91f235a361ad,null,null,"<p style=""font-size: 60px; font-family: BACS"">hkRKTAm</p>",,,,,,,,,,
html-keyboard-response,391,570341,0.0-16.0-0.59,5fc2d2d79da439201ab6addc,650c16f0f2faf8d7a0d14c09,651c1d4281aa91f235a361ad,null,null,"<p style=""font-size: 60px; font-family: BACS"">hkRKTAm</p>",,,,,,,,,,
html-keyboard-response,392,571346,0.0-16.0-0.60,5fc2d2d79da439201ab6addc,650c16f0f2faf8d7a0d14c09,651c1d4281aa91f235a361ad,null,null,"<p style=""font-size: 60px; font-family: BACS"">hkRKTAm</p>",,,,,,,,,,
html-keyboard-response,393,572356,0.0-16.0-0.61,5fc2d2d79da439201ab6addc,650c16f0f2faf8d7a0d14c09,651c1d4281aa91f235a361ad,null,null,"<p style=""font-size: 60px; font-family: BACS"">hkRKTAm</p>",,,,,,,,,,
html-keyboard-response,394,573360,0.0-16.0-0.62,5fc2d2d79da439201ab6addc,650c16f0f2faf8d7a0d14c09,651c1d4281aa91f235a361ad,null,null,"<p style=""font-size: 60px; font-family: BACS"">hkRKTAm</p>",,,,,,,,,,
html-keyboard-response,395,574376,0.0-16.0-0.63,5fc2d2d79da439201ab6addc,650c16f0f2faf8d7a0d14c09,651c1d4281aa91f235a361ad,null,null,"<p style=""font-size: 60px; font-family: BACS"">hkRKTAm</p>",,,,,,,,,,
html-keyboard-response,396,575400,0.0-16.0-0.64,5fc2d2d79da439201ab6addc,650c16f0f2faf8d7a0d14c09,651c1d4281aa91f235a361ad,null,null,"<p style=""font-size: 60px; font-family: BACS"">hkRKTAm</p>",,,,,,,,,,
html-keyboard-response,397,576413,0.0-16.0-0.65,5fc2d2d79da439201ab6addc,650c16f0f2faf8d7a0d14c09,651c1d4281aa91f235a361ad,null,null,"<p style=""font-size: 60px; font-family: BACS"">hkRKTAm</p>",,,,,,,,,,
html-keyboard-response,398,577424,0.0-16.0-0.66,5fc2d2d79da439201ab6addc,650c16f0f2faf8d7a0d14c09,651c1d4281aa91f235a361ad,null,null,"<p style=""font-size: 60px; font-family: BACS"">hkRKTAm</p>",,,,,,,,,,
html-keyboard-response,399,578431,0.0-16.0-0.67,5fc2d2d79da439201ab6addc,650c16f0f2faf8d7a0d14c09,651c1d4281aa91f235a361ad,null,null,"<p style=""font-size: 60px; font-family: BACS"">hkRKTAm</p>",,,,,,,,,,
html-keyboard-response,400,579433,0.0-16.0-0.68,5fc2d2d79da439201ab6addc,650c16f0f2faf8d7a0d14c09,651c1d4281aa91f235a361ad,null,null,"<p style=""font-size: 60px; font-family: BACS"">hkRKTAm</p>",,,,,,,,,,
html-keyboard-response,401,580437,0.0-16.0-0.69,5fc2d2d79da439201ab6addc,650c16f0f2faf8d7a0d14c09,651c1d4281aa91f235a361ad,null,null,"<p style=""font-size: 60px; font-family: BACS"">hkRKTAm</p>",,,,,,,,,,
html-keyboard-response,402,581447,0.0-16.0-0.70,5fc2d2d79da439201ab6addc,650c16f0f2faf8d7a0d14c09,651c1d4281aa91f235a361ad,null,null,"<p style=""font-size: 60px; font-family: BACS"">hkRKTAm</p>",,,,,,,,,,
html-keyboard-response,403,582470,0.0-16.0-0.71,5fc2d2d79da439201ab6addc,650c16f0f2faf8d7a0d14c09,651c1d4281aa91f235a361ad,null,null,"<p style=""font-size: 60px; font-family: BACS"">hkRKTAm</p>",,,,,,,,,,
html-keyboard-response,404,583486,0.0-16.0-0.72,5fc2d2d79da439201ab6addc,650c16f0f2faf8d7a0d14c09,651c1d4281aa91f235a361ad,null,null,"<p style=""font-size: 60px; font-family: BACS"">hkRKTAm</p>",,,,,,,,,,
html-keyboard-response,405,584489,0.0-16.0-0.73,5fc2d2d79da439201ab6addc,650c16f0f2faf8d7a0d14c09,651c1d4281aa91f235a361ad,null,null,"<p style=""font-size: 60px; font-family: BACS"">hkRKTAm</p>",,,,,,,,,,
html-keyboard-response,406,585490,0.0-16.0-0.74,5fc2d2d79da439201ab6addc,650c16f0f2faf8d7a0d14c09,651c1d4281aa91f235a361ad,null,null,"<p style=""font-size: 60px; font-family: BACS"">hkRKTAm</p>",,,,,,,,,,
html-keyboard-response,407,586495,0.0-16.0-0.75,5fc2d2d79da439201ab6addc,650c16f0f2faf8d7a0d14c09,651c1d4281aa91f235a361ad,null,null,"<p style=""font-size: 60px; font-family: BACS"">hkRKTAm</p>",,,,,,,,,,
html-keyboard-response,408,587510,0.0-16.0-0.76,5fc2d2d79da439201ab6addc,650c16f0f2faf8d7a0d14c09,651c1d4281aa91f235a361ad,null,null,"<p style=""font-size: 60px; font-family: BACS"">hkRKTAm</p>",,,,,,,,,,
html-keyboard-response,409,588512,0.0-16.0-0.77,5fc2d2d79da439201ab6addc,650c16f0f2faf8d7a0d14c09,651c1d4281aa91f235a361ad,null,null,"<p style=""font-size: 60px; font-family: BACS"">hkRKTAm</p>",,,,,,,,,,
html-keyboard-response,410,589525,0.0-16.0-0.78,5fc2d2d79da439201ab6addc,650c16f0f2faf8d7a0d14c09,651c1d4281aa91f235a361ad,null,null,"<p style=""font-size: 60px; font-family: BACS"">hkRKTAm</p>",,,,,,,,,,
html-keyboard-response,411,590540,0.0-16.0-0.79,5fc2d2d79da439201ab6addc,650c16f0f2faf8d7a0d14c09,651c1d4281aa91f235a361ad,null,null,"<p style=""font-size: 60px; font-family: BACS"">hkRKTAm</p>",,,,,,,,,,
html-keyboard-response,412,595793,0.0-17.0,5fc2d2d79da439201ab6addc,650c16f0f2faf8d7a0d14c09,651c1d4281aa91f235a361ad,5252, ,"<p>Great, you've seen the fifth block of words. You may now take a short break.</p>
      <p>Press the spacebar when you're ready to continue.</p>",,,,,,,,,,
html-keyboard-response,413,596795,0.0-18.0-0.0,5fc2d2d79da439201ab6addc,650c16f0f2faf8d7a0d14c09,651c1d4281aa91f235a361ad,null,null,"<p style=""font-size: 60px; font-family: BACS"">uvaUmLJ</p>",,,,,,,,,,
html-keyboard-response,414,597800,0.0-18.0-0.1,5fc2d2d79da439201ab6addc,650c16f0f2faf8d7a0d14c09,651c1d4281aa91f235a361ad,null,null,"<p style=""font-size: 60px; font-family: BACS"">CmcOTRK</p>",,,,,,,,,,
html-keyboard-response,415,598820,0.0-18.0-0.2,5fc2d2d79da439201ab6addc,650c16f0f2faf8d7a0d14c09,651c1d4281aa91f235a361ad,null,null,"<p style=""font-size: 60px; font-family: BACS"">aUZAJUNa</p>",,,,,,,,,,
html-keyboard-response,416,599836,0.0-18.0-0.3,5fc2d2d79da439201ab6addc,650c16f0f2faf8d7a0d14c09,651c1d4281aa91f235a361ad,null,null,"<p style=""font-size: 60px; font-family: BACS"">EhbtYbBT</p>",,,,,,,,,,
html-keyboard-response,417,600840,0.0-18.0-0.4,5fc2d2d79da439201ab6addc,650c16f0f2faf8d7a0d14c09,651c1d4281aa91f235a361ad,null,null,"<p style=""font-size: 60px; font-family: BACS"">UdYUQuvJ</p>",,,,,,,,,,
html-keyboard-response,418,601843,0.0-18.0-0.5,5fc2d2d79da439201ab6addc,650c16f0f2faf8d7a0d14c09,651c1d4281aa91f235a361ad,null,null,"<p style=""font-size: 60px; font-family: BACS"">mBmlATRK</p>",,,,,,,,,,
html-keyboard-response,419,602850,0.0-18.0-0.6,5fc2d2d79da439201ab6addc,650c16f0f2faf8d7a0d14c09,651c1d4281aa91f235a361ad,null,null,"<p style=""font-size: 60px; font-family: BACS"">aUZAuvJ</p>",,,,,,,,,,
html-keyboard-response,420,603856,0.0-18.0-0.7,5fc2d2d79da439201ab6addc,650c16f0f2faf8d7a0d14c09,651c1d4281aa91f235a361ad,null,null,"<p style=""font-size: 60px; font-family: BACS"">KABAYht</p>",,,,,,,,,,
html-keyboard-response,421,604860,0.0-18.0-0.8,5fc2d2d79da439201ab6addc,650c16f0f2faf8d7a0d14c09,651c1d4281aa91f235a361ad,null,null,"<p style=""font-size: 60px; font-family: BACS"">mBmlAYbBT</p>",,,,,,,,,,
html-keyboard-response,422,605875,0.0-18.0-0.9,5fc2d2d79da439201ab6addc,650c16f0f2faf8d7a0d14c09,651c1d4281aa91f235a361ad,null,null,"<p style=""font-size: 60px; font-family: BACS"">rcmuvuvJ</p>",,,,,,,,,,
html-keyboard-response,423,606886,0.0-18.0-0.10,5fc2d2d79da439201ab6addc,650c16f0f2faf8d7a0d14c09,651c1d4281aa91f235a361ad,null,null,"<p style=""font-size: 60px; font-family: BACS"">ukYZGrub</p>",,,,,,,,,,
html-keyboard-response,424,607889,0.0-18.0-0.11,5fc2d2d79da439201ab6addc,650c16f0f2faf8d7a0d14c09,651c1d4281aa91f235a361ad,null,null,"<p style=""font-size: 60px; font-family: BACS"">LdrbvuvJ</p>",,,,,,,,,,
html-keyboard-response,425,608895,0.0-18.0-0.12,5fc2d2d79da439201ab6addc,650c16f0f2faf8d7a0d14c09,651c1d4281aa91f235a361ad,null,null,"<p style=""font-size: 60px; font-family: BACS"">uvaUuda</p>",,,,,,,,,,
html-keyboard-response,426,609910,0.0-18.0-0.13,5fc2d2d79da439201ab6addc,650c16f0f2faf8d7a0d14c09,651c1d4281aa91f235a361ad,null,null,"<p style=""font-size: 60px; font-family: BACS"">PhktkYbBT</p>",,,,,,,,,,
html-keyboard-response,427,610915,0.0-18.0-0.14,5fc2d2d79da439201ab6addc,650c16f0f2faf8d7a0d14c09,651c1d4281aa91f235a361ad,null,null,"<p style=""font-size: 60px; font-family: BACS"">rGUAYuda</p>",,,,,,,,,,
html-keyboard-response,428,611929,0.0-18.0-0.15,5fc2d2d79da439201ab6addc,650c16f0f2faf8d7a0d14c09,651c1d4281aa91f235a361ad,null,null,"<p style=""font-size: 60px; font-family: BACS"">uvaUJUNa</p>",,,,,,,,,,
html-keyboard-response,429,612950,0.0-18.0-0.16,5fc2d2d79da439201ab6addc,650c16f0f2faf8d7a0d14c09,651c1d4281aa91f235a361ad,null,null,"<p style=""font-size: 60px; font-family: BACS"">hkRKTAm</p>",,,,,,,,,,
html-keyboard-response,430,613965,0.0-18.0-0.17,5fc2d2d79da439201ab6addc,650c16f0f2faf8d7a0d14c09,651c1d4281aa91f235a361ad,null,null,"<p style=""font-size: 60px; font-family: BACS"">AbKDdEPD</p>",,,,,,,,,,
html-keyboard-response,431,614966,0.0-18.0-0.18,5fc2d2d79da439201ab6addc,650c16f0f2faf8d7a0d14c09,651c1d4281aa91f235a361ad,null,null,"<p style=""font-size: 60px; font-family: BACS"">mBmlAYht</p>",,,,,,,,,,
html-keyboard-response,432,615967,0.0-18.0-0.19,5fc2d2d79da439201ab6addc,650c16f0f2faf8d7a0d14c09,651c1d4281aa91f235a361ad,null,null,"<p style=""font-size: 60px; font-family: BACS"">AbKDYbBT</p>",,,,,,,,,,
html-keyboard-response,433,616990,0.0-18.0-0.20,5fc2d2d79da439201ab6addc,650c16f0f2faf8d7a0d14c09,651c1d4281aa91f235a361ad,null,null,"<p style=""font-size: 60px; font-family: BACS"">EhbtTAm</p>",,,,,,,,,,
html-keyboard-response,434,617996,0.0-18.0-0.21,5fc2d2d79da439201ab6addc,650c16f0f2faf8d7a0d14c09,651c1d4281aa91f235a361ad,null,null,"<p style=""font-size: 60px; font-family: BACS"">LdQvmLJ</p>",,,,,,,,,,
html-keyboard-response,435,619001,0.0-18.0-0.22,5fc2d2d79da439201ab6addc,650c16f0f2faf8d7a0d14c09,651c1d4281aa91f235a361ad,null,null,"<p style=""font-size: 60px; font-family: BACS"">EhbtdEPD</p>",,,,,,,,,,
html-keyboard-response,436,620006,0.0-18.0-0.23,5fc2d2d79da439201ab6addc,650c16f0f2faf8d7a0d14c09,651c1d4281aa91f235a361ad,null,null,"<p style=""font-size: 60px; font-family: BACS"">rcmuvuda</p>",,,,,,,,,,
html-keyboard-response,437,621008,0.0-18.0-0.24,5fc2d2d79da439201ab6addc,650c16f0f2faf8d7a0d14c09,651c1d4281aa91f235a361ad,null,null,"<p style=""font-size: 60px; font-family: BACS"">LdrbvJUNa</p>",,,,,,,,,,
html-keyboard-response,438,622024,0.0-18.0-0.25,5fc2d2d79da439201ab6addc,650c16f0f2faf8d7a0d14c09,651c1d4281aa91f235a361ad,null,null,"<p style=""font-size: 60px; font-family: BACS"">bAdkdEPD</p>",,,,,,,,,,
html-keyboard-response,439,623035,0.0-18.0-0.26,5fc2d2d79da439201ab6addc,650c16f0f2faf8d7a0d14c09,651c1d4281aa91f235a361ad,null,null,"<p style=""font-size: 60px; font-family: BACS"">UdYUQGrub</p>",,,,,,,,,,
html-keyboard-response,440,624036,0.0-18.0-0.27,5fc2d2d79da439201ab6addc,650c16f0f2faf8d7a0d14c09,651c1d4281aa91f235a361ad,null,null,"<p style=""font-size: 60px; font-family: BACS"">DOchlTRK</p>",,,,,,,,,,
html-keyboard-response,441,625050,0.0-18.0-0.28,5fc2d2d79da439201ab6addc,650c16f0f2faf8d7a0d14c09,651c1d4281aa91f235a361ad,null,null,"<p style=""font-size: 60px; font-family: BACS"">EhbtYht</p>",,,,,,,,,,
html-keyboard-response,442,626062,0.0-18.0-0.29,5fc2d2d79da439201ab6addc,650c16f0f2faf8d7a0d14c09,651c1d4281aa91f235a361ad,null,null,"<p style=""font-size: 60px; font-family: BACS"">GLluAuvJ</p>",,,,,,,,,,
html-keyboard-response,443,627071,0.0-18.0-0.30,5fc2d2d79da439201ab6addc,650c16f0f2faf8d7a0d14c09,651c1d4281aa91f235a361ad,null,null,"<p style=""font-size: 60px; font-family: BACS"">ukYZmLJ</p>",,,,,,,,,,
html-keyboard-response,444,628077,0.0-18.0-0.31,5fc2d2d79da439201ab6addc,650c16f0f2faf8d7a0d14c09,651c1d4281aa91f235a361ad,null,null,"<p style=""font-size: 60px; font-family: BACS"">aUZAGrub</p>",,,,,,,,,,
html-keyboard-response,445,629087,0.0-18.0-0.32,5fc2d2d79da439201ab6addc,650c16f0f2faf8d7a0d14c09,651c1d4281aa91f235a361ad,null,null,"<p style=""font-size: 60px; font-family: BACS"">LdQvJUNa</p>",,,,,,,,,,
html-keyboard-response,446,630093,0.0-18.0-0.33,5fc2d2d79da439201ab6addc,650c16f0f2faf8d7a0d14c09,651c1d4281aa91f235a361ad,null,null,"<p style=""font-size: 60px; font-family: BACS"">DOchlYbBT</p>",,,,,,,,,,
html-keyboard-response,447,631096,0.0-18.0-0.34,5fc2d2d79da439201ab6addc,650c16f0f2faf8d7a0d14c09,651c1d4281aa91f235a361ad,null,null,"<p style=""font-size: 60px; font-family: BACS"">AbKDYht</p>",,,,,,,,,,
html-keyboard-response,448,632098,0.0-18.0-0.35,5fc2d2d79da439201ab6addc,650c16f0f2faf8d7a0d14c09,651c1d4281aa91f235a361ad,null,null,"<p style=""font-size: 60px; font-family: BACS"">DMRPYbBT</p>",,,,,,,,,,
html-keyboard-response,449,633120,0.0-18.0-0.36,5fc2d2d79da439201ab6addc,650c16f0f2faf8d7a0d14c09,651c1d4281aa91f235a361ad,null,null,"<p style=""font-size: 60px; font-family: BACS"">KABATRK</p>",,,,,,,,,,
html-keyboard-response,450,634131,0.0-18.0-0.37,5fc2d2d79da439201ab6addc,650c16f0f2faf8d7a0d14c09,651c1d4281aa91f235a361ad,null,null,"<p style=""font-size: 60px; font-family: BACS"">bAdkYht</p>",,,,,,,,,,
html-keyboard-response,451,635136,0.0-18.0-0.38,5fc2d2d79da439201ab6addc,650c16f0f2faf8d7a0d14c09,651c1d4281aa91f235a361ad,null,null,"<p style=""font-size: 60px; font-family: BACS"">PhktkdEPD</p>",,,,,,,,,,
html-keyboard-response,452,636142,0.0-18.0-0.39,5fc2d2d79da439201ab6addc,650c16f0f2faf8d7a0d14c09,651c1d4281aa91f235a361ad,null,null,"<p style=""font-size: 60px; font-family: BACS"">rcmuvmLJ</p>",,,,,,,,,,
html-keyboard-response,453,637160,0.0-18.0-0.40,5fc2d2d79da439201ab6addc,650c16f0f2faf8d7a0d14c09,651c1d4281aa91f235a361ad,null,null,"<p style=""font-size: 60px; font-family: BACS"">PhktkYht</p>",,,,,,,,,,
html-keyboard-response,454,638165,0.0-18.0-0.41,5fc2d2d79da439201ab6addc,650c16f0f2faf8d7a0d14c09,651c1d4281aa91f235a361ad,null,null,"<p style=""font-size: 60px; font-family: BACS"">uvaUuvJ</p>",,,,,,,,,,
html-keyboard-response,455,639177,0.0-18.0-0.42,5fc2d2d79da439201ab6addc,650c16f0f2faf8d7a0d14c09,651c1d4281aa91f235a361ad,null,null,"<p style=""font-size: 60px; font-family: BACS"">ukYZuda</p>",,,,,,,,,,
html-keyboard-response,456,640190,0.0-18.0-0.43,5fc2d2d79da439201ab6addc,650c16f0f2faf8d7a0d14c09,651c1d4281aa91f235a361ad,null,null,"<p style=""font-size: 60px; font-family: BACS"">rGUAYGrub</p>",,,,,,,,,,
html-keyboard-response,457,641195,0.0-18.0-0.44,5fc2d2d79da439201ab6addc,650c16f0f2faf8d7a0d14c09,651c1d4281aa91f235a361ad,null,null,"<p style=""font-size: 60px; font-family: BACS"">hkRKTRK</p>",,,,,,,,,,
html-keyboard-response,458,642211,0.0-18.0-0.45,5fc2d2d79da439201ab6addc,650c16f0f2faf8d7a0d14c09,651c1d4281aa91f235a361ad,null,null,"<p style=""font-size: 60px; font-family: BACS"">DMRPdEPD</p>",,,,,,,,,,
html-keyboard-response,459,643213,0.0-18.0-0.46,5fc2d2d79da439201ab6addc,650c16f0f2faf8d7a0d14c09,651c1d4281aa91f235a361ad,null,null,"<p style=""font-size: 60px; font-family: BACS"">CmcOYht</p>",,,,,,,,,,
html-keyboard-response,460,644220,0.0-18.0-0.47,5fc2d2d79da439201ab6addc,650c16f0f2faf8d7a0d14c09,651c1d4281aa91f235a361ad,null,null,"<p style=""font-size: 60px; font-family: BACS"">auYAkJUNa</p>",,,,,,,,,,
html-keyboard-response,461,645228,0.0-18.0-0.48,5fc2d2d79da439201ab6addc,650c16f0f2faf8d7a0d14c09,651c1d4281aa91f235a361ad,null,null,"<p style=""font-size: 60px; font-family: BACS"">rGUAYmLJ</p>",,,,,,,,,,
html-keyboard-response,462,646230,0.0-18.0-0.49,5fc2d2d79da439201ab6addc,650c16f0f2faf8d7a0d14c09,651c1d4281aa91f235a361ad,null,null,"<p style=""font-size: 60px; font-family: BACS"">hkRKdEPD</p>",,,,,,,,,,
html-keyboard-response,463,647234,0.0-18.0-0.50,5fc2d2d79da439201ab6addc,650c16f0f2faf8d7a0d14c09,651c1d4281aa91f235a361ad,null,null,"<p style=""font-size: 60px; font-family: BACS"">CmcOYbBT</p>",,,,,,,,,,
html-keyboard-response,464,648246,0.0-18.0-0.51,5fc2d2d79da439201ab6addc,650c16f0f2faf8d7a0d14c09,651c1d4281aa91f235a361ad,null,null,"<p style=""font-size: 60px; font-family: BACS"">GLluAuda</p>",,,,,,,,,,
html-keyboard-response,465,649249,0.0-18.0-0.52,5fc2d2d79da439201ab6addc,650c16f0f2faf8d7a0d14c09,651c1d4281aa91f235a361ad,null,null,"<p style=""font-size: 60px; font-family: BACS"">DOchlYht</p>",,,,,,,,,,
html-keyboard-response,466,650260,0.0-18.0-0.53,5fc2d2d79da439201ab6addc,650c16f0f2faf8d7a0d14c09,651c1d4281aa91f235a361ad,null,null,"<p style=""font-size: 60px; font-family: BACS"">mBmlAdEPD</p>",,,,,,,,,,
