trial_type,trial_index,time_elapsed,internal_node_id,subject_id,study_id,session_id,rt,response,stimulus,success,item,task,correct_response,testing_condition,correct,target,confound,name
pavlovia,0,1671,0.0-0.0,6172a1d4cffa5162140cc8c2,64e77d7b61f440b60e28659d,64ecab53963bae2a49220d83,,,,,,,,,,,,
survey-html-form,1,58825,0.0-1.0,6172a1d4cffa5162140cc8c2,64e77d7b61f440b60e28659d,64ecab53963bae2a49220d83,57150,"{""ID"":""6172a1d4cffa5162140cc8c2""}",,,,,,,,,,
html-keyboard-response,2,60035,0.0-2.0,6172a1d4cffa5162140cc8c2,64e77d7b61f440b60e28659d,64ecab53963bae2a49220d83,1208, ,"<p style=""font-size: 15px;"">Before beginning, we ask that you read the consent information and confirm your agreement to participate in the experiment.</p>
      <p style=""font-size: 15px;""> We ask that you remember that this is a research project and that your participation is entirely voluntary. You can stop your participation at any time, without needing to provide any explanation. The study we're asking you to participate in aims at examining how readers process written words. You will be engaged in a session of apprximately 20 minutes, followed by a brief questionnaire. You will have the opportunity to take a few breaks during the experiment. You will be paid £4 for your participation, corresponding to a rate of £8/hour. While this experiment looks at cognitive faculties, this experiment doesn't constitute clinical proof of eventual pathologies.</p>
      <p style=""font-size: 15px;"">All of the information collected thanks to yours and others' participation will be held in a secure password-protected server, and will not be shared with anyone not authorised to view it. Your personal information will be kept with an arbitrary participant ID. Thanks to this data anonymity process, any researcher analysing the data won't be able to track the information back to a specific participant. Therefore, this process will make identifying you impossibile, even when results from the study will be published in scientific reviews, presented at congresses, or at any other public forum. More generally, the collected data will be treated in accordance with the laws on privacy and conformity to the Legislative Degree n. 196 ""Code regarding the protection of personal data"" of the 30th of June 2003 and to the European Regulation 2016/670 (General Data Protection Regulation - GDPR). The Data Protection Officer is Avv. Valentina Carollo, who can be contacted at the following email addresses: <a href=""mailto:dpo@sissa.it"">dpo@sissa.it</a> or <a href=""mailto:rpd@sissa.it"">rpd@sissa.it</a> - PEC: <a href=""mailto:protocollo@pec.sissa.it"">protocollo@pec.sissa.it</a>.</p>
      <p style=""font-size: 15px;""> Before expressing your consent to participate, we would like to remind you again that in case you need explanations on any aspect of the experimental procedure, the researcher is at your disposition (<a href=""mailto:aliebelt@sissa.it"">aliebelt@sissa.it</a>, <a href=""mailto:davide.crepaldi@sissa.it"">davide.crepaldi@sissa.it</a>).</p>
      <p style=""font-size: 15px;"">If you would like to download the informed consent form, you can do so here: <a href=""BASL-Informed_Consent.pdf"" download>informed consent form</a>.</p>
      <p style=""font-size: 15px;"">We ask that you press the spacebar to proceed to the consent section.</p>",,,,,,,,,
survey-html-form,3,76448,0.0-3.0,6172a1d4cffa5162140cc8c2,64e77d7b61f440b60e28659d,64ecab53963bae2a49220d83,16411,"{""consent1"":""YES"",""consent2"":""YES"",""consent3"":""YES"",""consent4"":""YES"",""consent5"":""YES"",""consent6"":""YES""}",,,,,,,,,,
fullscreen,4,92383,0.0-4.0,6172a1d4cffa5162140cc8c2,64e77d7b61f440b60e28659d,64ecab53963bae2a49220d83,,,,TRUE,,,,,,,,
html-keyboard-response,5,100242,0.0-5.0,6172a1d4cffa5162140cc8c2,64e77d7b61f440b60e28659d,64ecab53963bae2a49220d83,7858, ,"<p>Welcome, and thank you very much for your time!</p>
      <p>In this experiment, you'll be a language expert who's been asked to take a look at words that Earth has received in its first communication with aliens. Your task, in this first part of the experiment, is to pay close attention to the words you'll be shown; later, world leaders will ask you questions on what you saw. The words will be shown to you quite quickly; it seems that the aliens were in a hurry :-)</p>
      <p>Press the spacebar to continue.<p>",,,,,,,,,
html-keyboard-response,6,105776,0.0-6.0,6172a1d4cffa5162140cc8c2,64e77d7b61f440b60e28659d,64ecab53963bae2a49220d83,5532, ,"<p>Here is an example of the words you'll see:</p>
      <img src='esempio.png' height='400px'>
      <p>When you're ready to begin, press the spacebar.</p></div>",,,,,,,,,
html-keyboard-response,7,106788,0.0-7.0-0.0,6172a1d4cffa5162140cc8c2,64e77d7b61f440b60e28659d,64ecab53963bae2a49220d83,null,null,"<p style=""font-size: 60px; font-family: BACS"">lbBDEOdOP</p>",,,,,,,,,
html-keyboard-response,8,107803,0.0-7.0-0.1,6172a1d4cffa5162140cc8c2,64e77d7b61f440b60e28659d,64ecab53963bae2a49220d83,null,null,"<p style=""font-size: 60px; font-family: BACS"">ldAakuvb</p>",,,,,,,,,
html-keyboard-response,9,108805,0.0-7.0-0.2,6172a1d4cffa5162140cc8c2,64e77d7b61f440b60e28659d,64ecab53963bae2a49220d83,null,null,"<p style=""font-size: 60px; font-family: BACS"">dvNvAGlu</p>",,,,,,,,,
html-keyboard-response,10,109806,0.0-7.0-0.3,6172a1d4cffa5162140cc8c2,64e77d7b61f440b60e28659d,64ecab53963bae2a49220d83,null,null,"<p style=""font-size: 60px; font-family: BACS"">kcCRtdBC</p>",,,,,,,,,
html-keyboard-response,11,110810,0.0-7.0-0.4,6172a1d4cffa5162140cc8c2,64e77d7b61f440b60e28659d,64ecab53963bae2a49220d83,null,null,"<p style=""font-size: 60px; font-family: BACS"">UdumdGlu</p>",,,,,,,,,
html-keyboard-response,12,111823,0.0-7.0-0.5,6172a1d4cffa5162140cc8c2,64e77d7b61f440b60e28659d,64ecab53963bae2a49220d83,null,null,"<p style=""font-size: 60px; font-family: BACS"">lbBDERdCc</p>",,,,,,,,,
html-keyboard-response,13,112825,0.0-7.0-0.6,6172a1d4cffa5162140cc8c2,64e77d7b61f440b60e28659d,64ecab53963bae2a49220d83,null,null,"<p style=""font-size: 60px; font-family: BACS"">UdumdbLd</p>",,,,,,,,,
html-keyboard-response,14,113840,0.0-7.0-0.7,6172a1d4cffa5162140cc8c2,64e77d7b61f440b60e28659d,64ecab53963bae2a49220d83,null,null,"<p style=""font-size: 60px; font-family: BACS"">amJmvUdm</p>",,,,,,,,,
html-keyboard-response,15,114846,0.0-7.0-0.8,6172a1d4cffa5162140cc8c2,64e77d7b61f440b60e28659d,64ecab53963bae2a49220d83,null,null,"<p style=""font-size: 60px; font-family: BACS"">ldAarNlZ</p>",,,,,,,,,
html-keyboard-response,16,115849,0.0-7.0-0.9,6172a1d4cffa5162140cc8c2,64e77d7b61f440b60e28659d,64ecab53963bae2a49220d83,null,null,"<p style=""font-size: 60px; font-family: BACS"">bAdkRdCc</p>",,,,,,,,,
html-keyboard-response,17,116856,0.0-7.0-0.10,6172a1d4cffa5162140cc8c2,64e77d7b61f440b60e28659d,64ecab53963bae2a49220d83,null,null,"<p style=""font-size: 60px; font-family: BACS"">DOchlRDM</p>",,,,,,,,,
html-keyboard-response,18,117862,0.0-7.0-0.11,6172a1d4cffa5162140cc8c2,64e77d7b61f440b60e28659d,64ecab53963bae2a49220d83,null,null,"<p style=""font-size: 60px; font-family: BACS"">BPAlRdCc</p>",,,,,,,,,
html-keyboard-response,19,118871,0.0-7.0-0.12,6172a1d4cffa5162140cc8c2,64e77d7b61f440b60e28659d,64ecab53963bae2a49220d83,null,null,"<p style=""font-size: 60px; font-family: BACS"">dmZvmbLd</p>",,,,,,,,,
html-keyboard-response,20,119877,0.0-7.0-0.13,6172a1d4cffa5162140cc8c2,64e77d7b61f440b60e28659d,64ecab53963bae2a49220d83,null,null,"<p style=""font-size: 60px; font-family: BACS"">UdbdvUdm</p>",,,,,,,,,
html-keyboard-response,21,120886,0.0-7.0-0.14,6172a1d4cffa5162140cc8c2,64e77d7b61f440b60e28659d,64ecab53963bae2a49220d83,null,null,"<p style=""font-size: 60px; font-family: BACS"">NJZlGlu</p>",,,,,,,,,
html-keyboard-response,22,121889,0.0-7.0-0.15,6172a1d4cffa5162140cc8c2,64e77d7b61f440b60e28659d,64ecab53963bae2a49220d83,null,null,"<p style=""font-size: 60px; font-family: BACS"">QOLmukuvb</p>",,,,,,,,,
html-keyboard-response,23,122892,0.0-7.0-0.16,6172a1d4cffa5162140cc8c2,64e77d7b61f440b60e28659d,64ecab53963bae2a49220d83,null,null,"<p style=""font-size: 60px; font-family: BACS"">mBYldBC</p>",,,,,,,,,
html-keyboard-response,24,123901,0.0-7.0-0.17,6172a1d4cffa5162140cc8c2,64e77d7b61f440b60e28659d,64ecab53963bae2a49220d83,null,null,"<p style=""font-size: 60px; font-family: BACS"">QOLmurNlZ</p>",,,,,,,,,
html-keyboard-response,25,124905,0.0-7.0-0.18,6172a1d4cffa5162140cc8c2,64e77d7b61f440b60e28659d,64ecab53963bae2a49220d83,null,null,"<p style=""font-size: 60px; font-family: BACS"">UdbdbLd</p>",,,,,,,,,
html-keyboard-response,26,125911,0.0-7.0-0.19,6172a1d4cffa5162140cc8c2,64e77d7b61f440b60e28659d,64ecab53963bae2a49220d83,null,null,"<p style=""font-size: 60px; font-family: BACS"">BPAldBC</p>",,,,,,,,,
html-keyboard-response,27,126928,0.0-7.0-0.20,6172a1d4cffa5162140cc8c2,64e77d7b61f440b60e28659d,64ecab53963bae2a49220d83,null,null,"<p style=""font-size: 60px; font-family: BACS"">TdTDRdCc</p>",,,,,,,,,
html-keyboard-response,28,127936,0.0-7.0-0.21,6172a1d4cffa5162140cc8c2,64e77d7b61f440b60e28659d,64ecab53963bae2a49220d83,null,null,"<p style=""font-size: 60px; font-family: BACS"">lbBDEKlkD</p>",,,,,,,,,
html-keyboard-response,29,128949,0.0-7.0-0.22,6172a1d4cffa5162140cc8c2,64e77d7b61f440b60e28659d,64ecab53963bae2a49220d83,null,null,"<p style=""font-size: 60px; font-family: BACS"">dKDthdBC</p>",,,,,,,,,
html-keyboard-response,30,129965,0.0-7.0-0.23,6172a1d4cffa5162140cc8c2,64e77d7b61f440b60e28659d,64ecab53963bae2a49220d83,null,null,"<p style=""font-size: 60px; font-family: BACS"">NJZlbLd</p>",,,,,,,,,
html-keyboard-response,31,130970,0.0-7.0-0.24,6172a1d4cffa5162140cc8c2,64e77d7b61f440b60e28659d,64ecab53963bae2a49220d83,null,null,"<p style=""font-size: 60px; font-family: BACS"">UmNJkuvb</p>",,,,,,,,,
html-keyboard-response,32,131977,0.0-7.0-0.25,6172a1d4cffa5162140cc8c2,64e77d7b61f440b60e28659d,64ecab53963bae2a49220d83,null,null,"<p style=""font-size: 60px; font-family: BACS"">BPAlRDM</p>",,,,,,,,,
html-keyboard-response,33,132979,0.0-7.0-0.26,6172a1d4cffa5162140cc8c2,64e77d7b61f440b60e28659d,64ecab53963bae2a49220d83,null,null,"<p style=""font-size: 60px; font-family: BACS"">mBmlAKlkD</p>",,,,,,,,,
html-keyboard-response,34,133988,0.0-7.0-0.27,6172a1d4cffa5162140cc8c2,64e77d7b61f440b60e28659d,64ecab53963bae2a49220d83,null,null,"<p style=""font-size: 60px; font-family: BACS"">dvNvAbLd</p>",,,,,,,,,
html-keyboard-response,35,135003,0.0-7.0-0.28,6172a1d4cffa5162140cc8c2,64e77d7b61f440b60e28659d,64ecab53963bae2a49220d83,null,null,"<p style=""font-size: 60px; font-family: BACS"">DMRPKlkD</p>",,,,,,,,,
html-keyboard-response,36,136020,0.0-7.0-0.29,6172a1d4cffa5162140cc8c2,64e77d7b61f440b60e28659d,64ecab53963bae2a49220d83,null,null,"<p style=""font-size: 60px; font-family: BACS"">QOLmuGlu</p>",,,,,,,,,
html-keyboard-response,37,137035,0.0-7.0-0.30,6172a1d4cffa5162140cc8c2,64e77d7b61f440b60e28659d,64ecab53963bae2a49220d83,null,null,"<p style=""font-size: 60px; font-family: BACS"">amJmrNlZ</p>",,,,,,,,,
html-keyboard-response,38,138037,0.0-7.0-0.31,6172a1d4cffa5162140cc8c2,64e77d7b61f440b60e28659d,64ecab53963bae2a49220d83,null,null,"<p style=""font-size: 60px; font-family: BACS"">bAdkKlkD</p>",,,,,,,,,
html-keyboard-response,39,139044,0.0-7.0-0.32,6172a1d4cffa5162140cc8c2,64e77d7b61f440b60e28659d,64ecab53963bae2a49220d83,null,null,"<p style=""font-size: 60px; font-family: BACS"">DOchlOdOP</p>",,,,,,,,,
html-keyboard-response,40,140047,0.0-7.0-0.33,6172a1d4cffa5162140cc8c2,64e77d7b61f440b60e28659d,64ecab53963bae2a49220d83,null,null,"<p style=""font-size: 60px; font-family: BACS"">mBYlKlkD</p>",,,,,,,,,
html-keyboard-response,41,141060,0.0-7.0-0.34,6172a1d4cffa5162140cc8c2,64e77d7b61f440b60e28659d,64ecab53963bae2a49220d83,null,null,"<p style=""font-size: 60px; font-family: BACS"">bAdkOdOP</p>",,,,,,,,,
html-keyboard-response,42,142076,0.0-7.0-0.35,6172a1d4cffa5162140cc8c2,64e77d7b61f440b60e28659d,64ecab53963bae2a49220d83,null,null,"<p style=""font-size: 60px; font-family: BACS"">DMRPRdCc</p>",,,,,,,,,
html-keyboard-response,43,143090,0.0-7.0-0.36,6172a1d4cffa5162140cc8c2,64e77d7b61f440b60e28659d,64ecab53963bae2a49220d83,null,null,"<p style=""font-size: 60px; font-family: BACS"">DOchlKlkD</p>",,,,,,,,,
html-keyboard-response,44,144101,0.0-7.0-0.37,6172a1d4cffa5162140cc8c2,64e77d7b61f440b60e28659d,64ecab53963bae2a49220d83,null,null,"<p style=""font-size: 60px; font-family: BACS"">amJmGlu</p>",,,,,,,,,
html-keyboard-response,45,145104,0.0-7.0-0.38,6172a1d4cffa5162140cc8c2,64e77d7b61f440b60e28659d,64ecab53963bae2a49220d83,null,null,"<p style=""font-size: 60px; font-family: BACS"">ldAavUdm</p>",,,,,,,,,
html-keyboard-response,46,146107,0.0-7.0-0.39,6172a1d4cffa5162140cc8c2,64e77d7b61f440b60e28659d,64ecab53963bae2a49220d83,null,null,"<p style=""font-size: 60px; font-family: BACS"">dKDthRdCc</p>",,,,,,,,,
html-keyboard-response,47,147122,0.0-7.0-0.40,6172a1d4cffa5162140cc8c2,64e77d7b61f440b60e28659d,64ecab53963bae2a49220d83,null,null,"<p style=""font-size: 60px; font-family: BACS"">Udbdkuvb</p>",,,,,,,,,
html-keyboard-response,48,148126,0.0-7.0-0.41,6172a1d4cffa5162140cc8c2,64e77d7b61f440b60e28659d,64ecab53963bae2a49220d83,null,null,"<p style=""font-size: 60px; font-family: BACS"">kcCRtRDM</p>",,,,,,,,,
html-keyboard-response,49,149129,0.0-7.0-0.42,6172a1d4cffa5162140cc8c2,64e77d7b61f440b60e28659d,64ecab53963bae2a49220d83,null,null,"<p style=""font-size: 60px; font-family: BACS"">NJZlkuvb</p>",,,,,,,,,
html-keyboard-response,50,150141,0.0-7.0-0.43,6172a1d4cffa5162140cc8c2,64e77d7b61f440b60e28659d,64ecab53963bae2a49220d83,null,null,"<p style=""font-size: 60px; font-family: BACS"">mBmlAdBC</p>",,,,,,,,,
html-keyboard-response,51,151146,0.0-7.0-0.44,6172a1d4cffa5162140cc8c2,64e77d7b61f440b60e28659d,64ecab53963bae2a49220d83,null,null,"<p style=""font-size: 60px; font-family: BACS"">ldAabLd</p>",,,,,,,,,
html-keyboard-response,52,152154,0.0-7.0-0.45,6172a1d4cffa5162140cc8c2,64e77d7b61f440b60e28659d,64ecab53963bae2a49220d83,null,null,"<p style=""font-size: 60px; font-family: BACS"">rvOvUrNlZ</p>",,,,,,,,,
html-keyboard-response,53,153163,0.0-7.0-0.46,6172a1d4cffa5162140cc8c2,64e77d7b61f440b60e28659d,64ecab53963bae2a49220d83,null,null,"<p style=""font-size: 60px; font-family: BACS"">UmNJGlu</p>",,,,,,,,,
html-keyboard-response,54,154164,0.0-7.0-0.47,6172a1d4cffa5162140cc8c2,64e77d7b61f440b60e28659d,64ecab53963bae2a49220d83,null,null,"<p style=""font-size: 60px; font-family: BACS"">DMRPdBC</p>",,,,,,,,,
html-keyboard-response,55,155167,0.0-7.0-0.48,6172a1d4cffa5162140cc8c2,64e77d7b61f440b60e28659d,64ecab53963bae2a49220d83,null,null,"<p style=""font-size: 60px; font-family: BACS"">rvOvUGlu</p>",,,,,,,,,
html-keyboard-response,56,156175,0.0-7.0-0.49,6172a1d4cffa5162140cc8c2,64e77d7b61f440b60e28659d,64ecab53963bae2a49220d83,null,null,"<p style=""font-size: 60px; font-family: BACS"">UdumdrNlZ</p>",,,,,,,,,
html-keyboard-response,57,157177,0.0-7.0-0.50,6172a1d4cffa5162140cc8c2,64e77d7b61f440b60e28659d,64ecab53963bae2a49220d83,null,null,"<p style=""font-size: 60px; font-family: BACS"">TdTDdBC</p>",,,,,,,,,
html-keyboard-response,58,158181,0.0-7.0-0.51,6172a1d4cffa5162140cc8c2,64e77d7b61f440b60e28659d,64ecab53963bae2a49220d83,null,null,"<p style=""font-size: 60px; font-family: BACS"">dKDthRDM</p>",,,,,,,,,
html-keyboard-response,59,159194,0.0-7.0-0.52,6172a1d4cffa5162140cc8c2,64e77d7b61f440b60e28659d,64ecab53963bae2a49220d83,null,null,"<p style=""font-size: 60px; font-family: BACS"">dvNvAvUdm</p>",,,,,,,,,
html-keyboard-response,60,160204,0.0-7.0-0.53,6172a1d4cffa5162140cc8c2,64e77d7b61f440b60e28659d,64ecab53963bae2a49220d83,null,null,"<p style=""font-size: 60px; font-family: BACS"">dmZvmGlu</p>",,,,,,,,,
html-keyboard-response,61,161217,0.0-7.0-0.54,6172a1d4cffa5162140cc8c2,64e77d7b61f440b60e28659d,64ecab53963bae2a49220d83,null,null,"<p style=""font-size: 60px; font-family: BACS"">kcCRtKlkD</p>",,,,,,,,,
html-keyboard-response,62,162232,0.0-7.0-0.55,6172a1d4cffa5162140cc8c2,64e77d7b61f440b60e28659d,64ecab53963bae2a49220d83,null,null,"<p style=""font-size: 60px; font-family: BACS"">NJZlrNlZ</p>",,,,,,,,,
html-keyboard-response,63,163241,0.0-7.0-0.56,6172a1d4cffa5162140cc8c2,64e77d7b61f440b60e28659d,64ecab53963bae2a49220d83,null,null,"<p style=""font-size: 60px; font-family: BACS"">UmNJbLd</p>",,,,,,,,,
html-keyboard-response,64,164253,0.0-7.0-0.57,6172a1d4cffa5162140cc8c2,64e77d7b61f440b60e28659d,64ecab53963bae2a49220d83,null,null,"<p style=""font-size: 60px; font-family: BACS"">kcCRtOdOP</p>",,,,,,,,,
html-keyboard-response,65,165265,0.0-7.0-0.58,6172a1d4cffa5162140cc8c2,64e77d7b61f440b60e28659d,64ecab53963bae2a49220d83,null,null,"<p style=""font-size: 60px; font-family: BACS"">QOLmuvUdm</p>",,,,,,,,,
html-keyboard-response,66,166281,0.0-7.0-0.59,6172a1d4cffa5162140cc8c2,64e77d7b61f440b60e28659d,64ecab53963bae2a49220d83,null,null,"<p style=""font-size: 60px; font-family: BACS"">UdbdrNlZ</p>",,,,,,,,,
html-keyboard-response,67,167291,0.0-7.0-0.60,6172a1d4cffa5162140cc8c2,64e77d7b61f440b60e28659d,64ecab53963bae2a49220d83,null,null,"<p style=""font-size: 60px; font-family: BACS"">lbBDERDM</p>",,,,,,,,,
html-keyboard-response,68,168300,0.0-7.0-0.61,6172a1d4cffa5162140cc8c2,64e77d7b61f440b60e28659d,64ecab53963bae2a49220d83,null,null,"<p style=""font-size: 60px; font-family: BACS"">BPAlKlkD</p>",,,,,,,,,
html-keyboard-response,69,169318,0.0-7.0-0.62,6172a1d4cffa5162140cc8c2,64e77d7b61f440b60e28659d,64ecab53963bae2a49220d83,null,null,"<p style=""font-size: 60px; font-family: BACS"">dmZvmkuvb</p>",,,,,,,,,
html-keyboard-response,70,170326,0.0-7.0-0.63,6172a1d4cffa5162140cc8c2,64e77d7b61f440b60e28659d,64ecab53963bae2a49220d83,null,null,"<p style=""font-size: 60px; font-family: BACS"">TdTDOdOP</p>",,,,,,,,,
html-keyboard-response,71,171333,0.0-7.0-0.64,6172a1d4cffa5162140cc8c2,64e77d7b61f440b60e28659d,64ecab53963bae2a49220d83,null,null,"<p style=""font-size: 60px; font-family: BACS"">dvNvAkuvb</p>",,,,,,,,,
html-keyboard-response,72,172340,0.0-7.0-0.65,6172a1d4cffa5162140cc8c2,64e77d7b61f440b60e28659d,64ecab53963bae2a49220d83,null,null,"<p style=""font-size: 60px; font-family: BACS"">mBmlARdCc</p>",,,,,,,,,
html-keyboard-response,73,173357,0.0-7.0-0.66,6172a1d4cffa5162140cc8c2,64e77d7b61f440b60e28659d,64ecab53963bae2a49220d83,null,null,"<p style=""font-size: 60px; font-family: BACS"">DOchldBC</p>",,,,,,,,,
html-keyboard-response,74,174370,0.0-7.0-0.67,6172a1d4cffa5162140cc8c2,64e77d7b61f440b60e28659d,64ecab53963bae2a49220d83,null,null,"<p style=""font-size: 60px; font-family: BACS"">mBYlRdCc</p>",,,,,,,,,
html-keyboard-response,75,175374,0.0-7.0-0.68,6172a1d4cffa5162140cc8c2,64e77d7b61f440b60e28659d,64ecab53963bae2a49220d83,null,null,"<p style=""font-size: 60px; font-family: BACS"">dmZvmvUdm</p>",,,,,,,,,
html-keyboard-response,76,176383,0.0-7.0-0.69,6172a1d4cffa5162140cc8c2,64e77d7b61f440b60e28659d,64ecab53963bae2a49220d83,null,null,"<p style=""font-size: 60px; font-family: BACS"">dKDthOdOP</p>",,,,,,,,,
html-keyboard-response,77,177391,0.0-7.0-0.70,6172a1d4cffa5162140cc8c2,64e77d7b61f440b60e28659d,64ecab53963bae2a49220d83,null,null,"<p style=""font-size: 60px; font-family: BACS"">rvOvUvUdm</p>",,,,,,,,,
html-keyboard-response,78,178404,0.0-7.0-0.71,6172a1d4cffa5162140cc8c2,64e77d7b61f440b60e28659d,64ecab53963bae2a49220d83,null,null,"<p style=""font-size: 60px; font-family: BACS"">UmNJrNlZ</p>",,,,,,,,,
html-keyboard-response,79,179411,0.0-7.0-0.72,6172a1d4cffa5162140cc8c2,64e77d7b61f440b60e28659d,64ecab53963bae2a49220d83,null,null,"<p style=""font-size: 60px; font-family: BACS"">TdTDRDM</p>",,,,,,,,,
html-keyboard-response,80,180425,0.0-7.0-0.73,6172a1d4cffa5162140cc8c2,64e77d7b61f440b60e28659d,64ecab53963bae2a49220d83,null,null,"<p style=""font-size: 60px; font-family: BACS"">amJmbLd</p>",,,,,,,,,
html-keyboard-response,81,181441,0.0-7.0-0.74,6172a1d4cffa5162140cc8c2,64e77d7b61f440b60e28659d,64ecab53963bae2a49220d83,null,null,"<p style=""font-size: 60px; font-family: BACS"">mBmlAOdOP</p>",,,,,,,,,
html-keyboard-response,82,182444,0.0-7.0-0.75,6172a1d4cffa5162140cc8c2,64e77d7b61f440b60e28659d,64ecab53963bae2a49220d83,null,null,"<p style=""font-size: 60px; font-family: BACS"">rvOvUkuvb</p>",,,,,,,,,
html-keyboard-response,83,183459,0.0-7.0-0.76,6172a1d4cffa5162140cc8c2,64e77d7b61f440b60e28659d,64ecab53963bae2a49220d83,null,null,"<p style=""font-size: 60px; font-family: BACS"">mBYlOdOP</p>",,,,,,,,,
html-keyboard-response,84,184473,0.0-7.0-0.77,6172a1d4cffa5162140cc8c2,64e77d7b61f440b60e28659d,64ecab53963bae2a49220d83,null,null,"<p style=""font-size: 60px; font-family: BACS"">bAdkRDM</p>",,,,,,,,,
html-keyboard-response,85,185477,0.0-7.0-0.78,6172a1d4cffa5162140cc8c2,64e77d7b61f440b60e28659d,64ecab53963bae2a49220d83,null,null,"<p style=""font-size: 60px; font-family: BACS"">UdumdvUdm</p>",,,,,,,,,
html-keyboard-response,86,186482,0.0-7.0-0.79,6172a1d4cffa5162140cc8c2,64e77d7b61f440b60e28659d,64ecab53963bae2a49220d83,null,null,"<p style=""font-size: 60px; font-family: BACS"">DMRPRDM</p>",,,,,,,,,
html-keyboard-response,87,193372,0.0-8.0,6172a1d4cffa5162140cc8c2,64e77d7b61f440b60e28659d,64ecab53963bae2a49220d83,6889, ,"<p>Great, you've seen the first block of words. You may now take a short break.</p>
      <p>Press the spacebar when you're ready to continue.</p>",,,,,,,,,
html-keyboard-response,88,194391,0.0-9.0-0.0,6172a1d4cffa5162140cc8c2,64e77d7b61f440b60e28659d,64ecab53963bae2a49220d83,null,null,"<p style=""font-size: 60px; font-family: BACS"">UdumdGlu</p>",,,,,,,,,
html-keyboard-response,89,195398,0.0-9.0-0.1,6172a1d4cffa5162140cc8c2,64e77d7b61f440b60e28659d,64ecab53963bae2a49220d83,null,null,"<p style=""font-size: 60px; font-family: BACS"">DOchlOdOP</p>",,,,,,,,,
html-keyboard-response,90,196414,0.0-9.0-0.2,6172a1d4cffa5162140cc8c2,64e77d7b61f440b60e28659d,64ecab53963bae2a49220d83,null,null,"<p style=""font-size: 60px; font-family: BACS"">UdbdvUdm</p>",,,,,,,,,
html-keyboard-response,91,197417,0.0-9.0-0.3,6172a1d4cffa5162140cc8c2,64e77d7b61f440b60e28659d,64ecab53963bae2a49220d83,null,null,"<p style=""font-size: 60px; font-family: BACS"">NJZlkuvb</p>",,,,,,,,,
html-keyboard-response,92,198433,0.0-9.0-0.4,6172a1d4cffa5162140cc8c2,64e77d7b61f440b60e28659d,64ecab53963bae2a49220d83,null,null,"<p style=""font-size: 60px; font-family: BACS"">ldAavUdm</p>",,,,,,,,,
html-keyboard-response,93,199444,0.0-9.0-0.5,6172a1d4cffa5162140cc8c2,64e77d7b61f440b60e28659d,64ecab53963bae2a49220d83,null,null,"<p style=""font-size: 60px; font-family: BACS"">UdumdrNlZ</p>",,,,,,,,,
html-keyboard-response,94,200451,0.0-9.0-0.6,6172a1d4cffa5162140cc8c2,64e77d7b61f440b60e28659d,64ecab53963bae2a49220d83,null,null,"<p style=""font-size: 60px; font-family: BACS"">dmZvmvUdm</p>",,,,,,,,,
html-keyboard-response,95,201453,0.0-9.0-0.7,6172a1d4cffa5162140cc8c2,64e77d7b61f440b60e28659d,64ecab53963bae2a49220d83,null,null,"<p style=""font-size: 60px; font-family: BACS"">UdumdbLd</p>",,,,,,,,,
html-keyboard-response,96,202459,0.0-9.0-0.8,6172a1d4cffa5162140cc8c2,64e77d7b61f440b60e28659d,64ecab53963bae2a49220d83,null,null,"<p style=""font-size: 60px; font-family: BACS"">mBmlAKlkD</p>",,,,,,,,,
html-keyboard-response,97,203466,0.0-9.0-0.9,6172a1d4cffa5162140cc8c2,64e77d7b61f440b60e28659d,64ecab53963bae2a49220d83,null,null,"<p style=""font-size: 60px; font-family: BACS"">TdTDRdCc</p>",,,,,,,,,
html-keyboard-response,98,204478,0.0-9.0-0.10,6172a1d4cffa5162140cc8c2,64e77d7b61f440b60e28659d,64ecab53963bae2a49220d83,null,null,"<p style=""font-size: 60px; font-family: BACS"">dmZvmbLd</p>",,,,,,,,,
html-keyboard-response,99,205485,0.0-9.0-0.11,6172a1d4cffa5162140cc8c2,64e77d7b61f440b60e28659d,64ecab53963bae2a49220d83,null,null,"<p style=""font-size: 60px; font-family: BACS"">amJmrNlZ</p>",,,,,,,,,
html-keyboard-response,100,206497,0.0-9.0-0.12,6172a1d4cffa5162140cc8c2,64e77d7b61f440b60e28659d,64ecab53963bae2a49220d83,null,null,"<p style=""font-size: 60px; font-family: BACS"">kcCRtKlkD</p>",,,,,,,,,
html-keyboard-response,101,207503,0.0-9.0-0.13,6172a1d4cffa5162140cc8c2,64e77d7b61f440b60e28659d,64ecab53963bae2a49220d83,null,null,"<p style=""font-size: 60px; font-family: BACS"">NJZlGlu</p>",,,,,,,,,
html-keyboard-response,102,208519,0.0-9.0-0.14,6172a1d4cffa5162140cc8c2,64e77d7b61f440b60e28659d,64ecab53963bae2a49220d83,null,null,"<p style=""font-size: 60px; font-family: BACS"">lbBDEOdOP</p>",,,,,,,,,
html-keyboard-response,103,209528,0.0-9.0-0.15,6172a1d4cffa5162140cc8c2,64e77d7b61f440b60e28659d,64ecab53963bae2a49220d83,null,null,"<p style=""font-size: 60px; font-family: BACS"">DMRPKlkD</p>",,,,,,,,,
html-keyboard-response,104,210530,0.0-9.0-0.16,6172a1d4cffa5162140cc8c2,64e77d7b61f440b60e28659d,64ecab53963bae2a49220d83,null,null,"<p style=""font-size: 60px; font-family: BACS"">UmNJGlu</p>",,,,,,,,,
html-keyboard-response,105,211537,0.0-9.0-0.17,6172a1d4cffa5162140cc8c2,64e77d7b61f440b60e28659d,64ecab53963bae2a49220d83,null,null,"<p style=""font-size: 60px; font-family: BACS"">dvNvAvUdm</p>",,,,,,,,,
html-keyboard-response,106,212545,0.0-9.0-0.18,6172a1d4cffa5162140cc8c2,64e77d7b61f440b60e28659d,64ecab53963bae2a49220d83,null,null,"<p style=""font-size: 60px; font-family: BACS"">lbBDERDM</p>",,,,,,,,,
html-keyboard-response,107,213547,0.0-9.0-0.19,6172a1d4cffa5162140cc8c2,64e77d7b61f440b60e28659d,64ecab53963bae2a49220d83,null,null,"<p style=""font-size: 60px; font-family: BACS"">bAdkRdCc</p>",,,,,,,,,
html-keyboard-response,108,214561,0.0-9.0-0.20,6172a1d4cffa5162140cc8c2,64e77d7b61f440b60e28659d,64ecab53963bae2a49220d83,null,null,"<p style=""font-size: 60px; font-family: BACS"">UdbdbLd</p>",,,,,,,,,
html-keyboard-response,109,215569,0.0-9.0-0.21,6172a1d4cffa5162140cc8c2,64e77d7b61f440b60e28659d,64ecab53963bae2a49220d83,null,null,"<p style=""font-size: 60px; font-family: BACS"">dvNvAkuvb</p>",,,,,,,,,
html-keyboard-response,110,216574,0.0-9.0-0.22,6172a1d4cffa5162140cc8c2,64e77d7b61f440b60e28659d,64ecab53963bae2a49220d83,null,null,"<p style=""font-size: 60px; font-family: BACS"">BPAlRdCc</p>",,,,,,,,,
html-keyboard-response,111,217576,0.0-9.0-0.23,6172a1d4cffa5162140cc8c2,64e77d7b61f440b60e28659d,64ecab53963bae2a49220d83,null,null,"<p style=""font-size: 60px; font-family: BACS"">UmNJbLd</p>",,,,,,,,,
html-keyboard-response,112,218578,0.0-9.0-0.24,6172a1d4cffa5162140cc8c2,64e77d7b61f440b60e28659d,64ecab53963bae2a49220d83,null,null,"<p style=""font-size: 60px; font-family: BACS"">lbBDERdCc</p>",,,,,,,,,
html-keyboard-response,113,219595,0.0-9.0-0.25,6172a1d4cffa5162140cc8c2,64e77d7b61f440b60e28659d,64ecab53963bae2a49220d83,null,null,"<p style=""font-size: 60px; font-family: BACS"">mBYlOdOP</p>",,,,,,,,,
html-keyboard-response,114,220612,0.0-9.0-0.26,6172a1d4cffa5162140cc8c2,64e77d7b61f440b60e28659d,64ecab53963bae2a49220d83,null,null,"<p style=""font-size: 60px; font-family: BACS"">UmNJkuvb</p>",,,,,,,,,
html-keyboard-response,115,221617,0.0-9.0-0.27,6172a1d4cffa5162140cc8c2,64e77d7b61f440b60e28659d,64ecab53963bae2a49220d83,null,null,"<p style=""font-size: 60px; font-family: BACS"">BPAldBC</p>",,,,,,,,,
html-keyboard-response,116,222630,0.0-9.0-0.28,6172a1d4cffa5162140cc8c2,64e77d7b61f440b60e28659d,64ecab53963bae2a49220d83,null,null,"<p style=""font-size: 60px; font-family: BACS"">dmZvmGlu</p>",,,,,,,,,
html-keyboard-response,117,223647,0.0-9.0-0.29,6172a1d4cffa5162140cc8c2,64e77d7b61f440b60e28659d,64ecab53963bae2a49220d83,null,null,"<p style=""font-size: 60px; font-family: BACS"">kcCRtRDM</p>",,,,,,,,,
html-keyboard-response,118,224659,0.0-9.0-0.30,6172a1d4cffa5162140cc8c2,64e77d7b61f440b60e28659d,64ecab53963bae2a49220d83,null,null,"<p style=""font-size: 60px; font-family: BACS"">lbBDEKlkD</p>",,,,,,,,,
html-keyboard-response,119,225675,0.0-9.0-0.31,6172a1d4cffa5162140cc8c2,64e77d7b61f440b60e28659d,64ecab53963bae2a49220d83,null,null,"<p style=""font-size: 60px; font-family: BACS"">dKDthRDM</p>",,,,,,,,,
html-keyboard-response,120,226684,0.0-9.0-0.32,6172a1d4cffa5162140cc8c2,64e77d7b61f440b60e28659d,64ecab53963bae2a49220d83,null,null,"<p style=""font-size: 60px; font-family: BACS"">amJmbLd</p>",,,,,,,,,
html-keyboard-response,121,227688,0.0-9.0-0.33,6172a1d4cffa5162140cc8c2,64e77d7b61f440b60e28659d,64ecab53963bae2a49220d83,null,null,"<p style=""font-size: 60px; font-family: BACS"">bAdkKlkD</p>",,,,,,,,,
html-keyboard-response,122,228701,0.0-9.0-0.34,6172a1d4cffa5162140cc8c2,64e77d7b61f440b60e28659d,64ecab53963bae2a49220d83,null,null,"<p style=""font-size: 60px; font-family: BACS"">dKDthRdCc</p>",,,,,,,,,
html-keyboard-response,123,229714,0.0-9.0-0.35,6172a1d4cffa5162140cc8c2,64e77d7b61f440b60e28659d,64ecab53963bae2a49220d83,null,null,"<p style=""font-size: 60px; font-family: BACS"">rvOvUkuvb</p>",,,,,,,,,
html-keyboard-response,124,230718,0.0-9.0-0.36,6172a1d4cffa5162140cc8c2,64e77d7b61f440b60e28659d,64ecab53963bae2a49220d83,null,null,"<p style=""font-size: 60px; font-family: BACS"">ldAabLd</p>",,,,,,,,,
html-keyboard-response,125,231732,0.0-9.0-0.37,6172a1d4cffa5162140cc8c2,64e77d7b61f440b60e28659d,64ecab53963bae2a49220d83,null,null,"<p style=""font-size: 60px; font-family: BACS"">rvOvUGlu</p>",,,,,,,,,
html-keyboard-response,126,232751,0.0-9.0-0.38,6172a1d4cffa5162140cc8c2,64e77d7b61f440b60e28659d,64ecab53963bae2a49220d83,null,null,"<p style=""font-size: 60px; font-family: BACS"">mBYlKlkD</p>",,,,,,,,,
html-keyboard-response,127,233762,0.0-9.0-0.39,6172a1d4cffa5162140cc8c2,64e77d7b61f440b60e28659d,64ecab53963bae2a49220d83,null,null,"<p style=""font-size: 60px; font-family: BACS"">QOLmurNlZ</p>",,,,,,,,,
html-keyboard-response,128,234775,0.0-9.0-0.40,6172a1d4cffa5162140cc8c2,64e77d7b61f440b60e28659d,64ecab53963bae2a49220d83,null,null,"<p style=""font-size: 60px; font-family: BACS"">dKDthOdOP</p>",,,,,,,,,
html-keyboard-response,129,235789,0.0-9.0-0.41,6172a1d4cffa5162140cc8c2,64e77d7b61f440b60e28659d,64ecab53963bae2a49220d83,null,null,"<p style=""font-size: 60px; font-family: BACS"">dvNvAbLd</p>",,,,,,,,,
html-keyboard-response,130,236793,0.0-9.0-0.42,6172a1d4cffa5162140cc8c2,64e77d7b61f440b60e28659d,64ecab53963bae2a49220d83,null,null,"<p style=""font-size: 60px; font-family: BACS"">DOchlRDM</p>",,,,,,,,,
html-keyboard-response,131,237795,0.0-9.0-0.43,6172a1d4cffa5162140cc8c2,64e77d7b61f440b60e28659d,64ecab53963bae2a49220d83,null,null,"<p style=""font-size: 60px; font-family: BACS"">mBmlAdBC</p>",,,,,,,,,
html-keyboard-response,132,238809,0.0-9.0-0.44,6172a1d4cffa5162140cc8c2,64e77d7b61f440b60e28659d,64ecab53963bae2a49220d83,null,null,"<p style=""font-size: 60px; font-family: BACS"">UdumdvUdm</p>",,,,,,,,,
html-keyboard-response,133,239826,0.0-9.0-0.45,6172a1d4cffa5162140cc8c2,64e77d7b61f440b60e28659d,64ecab53963bae2a49220d83,null,null,"<p style=""font-size: 60px; font-family: BACS"">QOLmukuvb</p>",,,,,,,,,
html-keyboard-response,134,240833,0.0-9.0-0.46,6172a1d4cffa5162140cc8c2,64e77d7b61f440b60e28659d,64ecab53963bae2a49220d83,null,null,"<p style=""font-size: 60px; font-family: BACS"">DOchldBC</p>",,,,,,,,,
html-keyboard-response,135,241848,0.0-9.0-0.47,6172a1d4cffa5162140cc8c2,64e77d7b61f440b60e28659d,64ecab53963bae2a49220d83,null,null,"<p style=""font-size: 60px; font-family: BACS"">mBmlAOdOP</p>",,,,,,,,,
html-keyboard-response,136,242860,0.0-9.0-0.48,6172a1d4cffa5162140cc8c2,64e77d7b61f440b60e28659d,64ecab53963bae2a49220d83,null,null,"<p style=""font-size: 60px; font-family: BACS"">dKDthdBC</p>",,,,,,,,,
html-keyboard-response,137,243875,0.0-9.0-0.49,6172a1d4cffa5162140cc8c2,64e77d7b61f440b60e28659d,64ecab53963bae2a49220d83,null,null,"<p style=""font-size: 60px; font-family: BACS"">UmNJrNlZ</p>",,,,,,,,,
html-keyboard-response,138,244879,0.0-9.0-0.50,6172a1d4cffa5162140cc8c2,64e77d7b61f440b60e28659d,64ecab53963bae2a49220d83,null,null,"<p style=""font-size: 60px; font-family: BACS"">DMRPRDM</p>",,,,,,,,,
html-keyboard-response,139,245881,0.0-9.0-0.51,6172a1d4cffa5162140cc8c2,64e77d7b61f440b60e28659d,64ecab53963bae2a49220d83,null,null,"<p style=""font-size: 60px; font-family: BACS"">mBYldBC</p>",,,,,,,,,
html-keyboard-response,140,246887,0.0-9.0-0.52,6172a1d4cffa5162140cc8c2,64e77d7b61f440b60e28659d,64ecab53963bae2a49220d83,null,null,"<p style=""font-size: 60px; font-family: BACS"">amJmvUdm</p>",,,,,,,,,
html-keyboard-response,141,247896,0.0-9.0-0.53,6172a1d4cffa5162140cc8c2,64e77d7b61f440b60e28659d,64ecab53963bae2a49220d83,null,null,"<p style=""font-size: 60px; font-family: BACS"">NJZlbLd</p>",,,,,,,,,
html-keyboard-response,142,248906,0.0-9.0-0.54,6172a1d4cffa5162140cc8c2,64e77d7b61f440b60e28659d,64ecab53963bae2a49220d83,null,null,"<p style=""font-size: 60px; font-family: BACS"">mBYlRdCc</p>",,,,,,,,,
html-keyboard-response,143,249920,0.0-9.0-0.55,6172a1d4cffa5162140cc8c2,64e77d7b61f440b60e28659d,64ecab53963bae2a49220d83,null,null,"<p style=""font-size: 60px; font-family: BACS"">dvNvAGlu</p>",,,,,,,,,
html-keyboard-response,144,250929,0.0-9.0-0.56,6172a1d4cffa5162140cc8c2,64e77d7b61f440b60e28659d,64ecab53963bae2a49220d83,null,null,"<p style=""font-size: 60px; font-family: BACS"">BPAlRDM</p>",,,,,,,,,
html-keyboard-response,145,251947,0.0-9.0-0.57,6172a1d4cffa5162140cc8c2,64e77d7b61f440b60e28659d,64ecab53963bae2a49220d83,null,null,"<p style=""font-size: 60px; font-family: BACS"">NJZlrNlZ</p>",,,,,,,,,
html-keyboard-response,146,252963,0.0-9.0-0.58,6172a1d4cffa5162140cc8c2,64e77d7b61f440b60e28659d,64ecab53963bae2a49220d83,null,null,"<p style=""font-size: 60px; font-family: BACS"">DMRPRdCc</p>",,,,,,,,,
html-keyboard-response,147,253966,0.0-9.0-0.59,6172a1d4cffa5162140cc8c2,64e77d7b61f440b60e28659d,64ecab53963bae2a49220d83,null,null,"<p style=""font-size: 60px; font-family: BACS"">DOchlKlkD</p>",,,,,,,,,
html-keyboard-response,148,254976,0.0-9.0-0.60,6172a1d4cffa5162140cc8c2,64e77d7b61f440b60e28659d,64ecab53963bae2a49220d83,null,null,"<p style=""font-size: 60px; font-family: BACS"">kcCRtdBC</p>",,,,,,,,,
html-keyboard-response,149,255992,0.0-9.0-0.61,6172a1d4cffa5162140cc8c2,64e77d7b61f440b60e28659d,64ecab53963bae2a49220d83,null,null,"<p style=""font-size: 60px; font-family: BACS"">rvOvUrNlZ</p>",,,,,,,,,
html-keyboard-response,150,257008,0.0-9.0-0.62,6172a1d4cffa5162140cc8c2,64e77d7b61f440b60e28659d,64ecab53963bae2a49220d83,null,null,"<p style=""font-size: 60px; font-family: BACS"">BPAlKlkD</p>",,,,,,,,,
html-keyboard-response,151,258027,0.0-9.0-0.63,6172a1d4cffa5162140cc8c2,64e77d7b61f440b60e28659d,64ecab53963bae2a49220d83,null,null,"<p style=""font-size: 60px; font-family: BACS"">QOLmuGlu</p>",,,,,,,,,
html-keyboard-response,152,259040,0.0-9.0-0.64,6172a1d4cffa5162140cc8c2,64e77d7b61f440b60e28659d,64ecab53963bae2a49220d83,null,null,"<p style=""font-size: 60px; font-family: BACS"">mBmlARdCc</p>",,,,,,,,,
html-keyboard-response,153,260043,0.0-9.0-0.65,6172a1d4cffa5162140cc8c2,64e77d7b61f440b60e28659d,64ecab53963bae2a49220d83,null,null,"<p style=""font-size: 60px; font-family: BACS"">ldAarNlZ</p>",,,,,,,,,
html-keyboard-response,154,261051,0.0-9.0-0.66,6172a1d4cffa5162140cc8c2,64e77d7b61f440b60e28659d,64ecab53963bae2a49220d83,null,null,"<p style=""font-size: 60px; font-family: BACS"">kcCRtOdOP</p>",,,,,,,,,
html-keyboard-response,155,262063,0.0-9.0-0.67,6172a1d4cffa5162140cc8c2,64e77d7b61f440b60e28659d,64ecab53963bae2a49220d83,null,null,"<p style=""font-size: 60px; font-family: BACS"">amJmGlu</p>",,,,,,,,,
html-keyboard-response,156,263065,0.0-9.0-0.68,6172a1d4cffa5162140cc8c2,64e77d7b61f440b60e28659d,64ecab53963bae2a49220d83,null,null,"<p style=""font-size: 60px; font-family: BACS"">TdTDOdOP</p>",,,,,,,,,
html-keyboard-response,157,264079,0.0-9.0-0.69,6172a1d4cffa5162140cc8c2,64e77d7b61f440b60e28659d,64ecab53963bae2a49220d83,null,null,"<p style=""font-size: 60px; font-family: BACS"">QOLmuvUdm</p>",,,,,,,,,
html-keyboard-response,158,265085,0.0-9.0-0.70,6172a1d4cffa5162140cc8c2,64e77d7b61f440b60e28659d,64ecab53963bae2a49220d83,null,null,"<p style=""font-size: 60px; font-family: BACS"">TdTDdBC</p>",,,,,,,,,
html-keyboard-response,159,266096,0.0-9.0-0.71,6172a1d4cffa5162140cc8c2,64e77d7b61f440b60e28659d,64ecab53963bae2a49220d83,null,null,"<p style=""font-size: 60px; font-family: BACS"">ldAakuvb</p>",,,,,,,,,
html-keyboard-response,160,267105,0.0-9.0-0.72,6172a1d4cffa5162140cc8c2,64e77d7b61f440b60e28659d,64ecab53963bae2a49220d83,null,null,"<p style=""font-size: 60px; font-family: BACS"">bAdkOdOP</p>",,,,,,,,,
html-keyboard-response,161,268112,0.0-9.0-0.73,6172a1d4cffa5162140cc8c2,64e77d7b61f440b60e28659d,64ecab53963bae2a49220d83,null,null,"<p style=""font-size: 60px; font-family: BACS"">TdTDRDM</p>",,,,,,,,,
html-keyboard-response,162,269115,0.0-9.0-0.74,6172a1d4cffa5162140cc8c2,64e77d7b61f440b60e28659d,64ecab53963bae2a49220d83,null,null,"<p style=""font-size: 60px; font-family: BACS"">dmZvmkuvb</p>",,,,,,,,,
html-keyboard-response,163,270145,0.0-9.0-0.75,6172a1d4cffa5162140cc8c2,64e77d7b61f440b60e28659d,64ecab53963bae2a49220d83,null,null,"<p style=""font-size: 60px; font-family: BACS"">UdbdrNlZ</p>",,,,,,,,,
html-keyboard-response,164,271156,0.0-9.0-0.76,6172a1d4cffa5162140cc8c2,64e77d7b61f440b60e28659d,64ecab53963bae2a49220d83,null,null,"<p style=""font-size: 60px; font-family: BACS"">rvOvUvUdm</p>",,,,,,,,,
html-keyboard-response,165,272163,0.0-9.0-0.77,6172a1d4cffa5162140cc8c2,64e77d7b61f440b60e28659d,64ecab53963bae2a49220d83,null,null,"<p style=""font-size: 60px; font-family: BACS"">Udbdkuvb</p>",,,,,,,,,
html-keyboard-response,166,273168,0.0-9.0-0.78,6172a1d4cffa5162140cc8c2,64e77d7b61f440b60e28659d,64ecab53963bae2a49220d83,null,null,"<p style=""font-size: 60px; font-family: BACS"">bAdkRDM</p>",,,,,,,,,
html-keyboard-response,167,274179,0.0-9.0-0.79,6172a1d4cffa5162140cc8c2,64e77d7b61f440b60e28659d,64ecab53963bae2a49220d83,null,null,"<p style=""font-size: 60px; font-family: BACS"">DMRPdBC</p>",,,,,,,,,
html-keyboard-response,168,281481,0.0-10.0,6172a1d4cffa5162140cc8c2,64e77d7b61f440b60e28659d,64ecab53963bae2a49220d83,7300, ,"<p>Great, you've seen the second block of words. You may now take a short break.</p>
      <p>Press the spacebar when you're ready to continue.</p>",,,,,,,,,
html-keyboard-response,169,282490,0.0-11.0-0.0,6172a1d4cffa5162140cc8c2,64e77d7b61f440b60e28659d,64ecab53963bae2a49220d83,null,null,"<p style=""font-size: 60px; font-family: BACS"">BPAldBC</p>",,,,,,,,,
html-keyboard-response,170,283495,0.0-11.0-0.1,6172a1d4cffa5162140cc8c2,64e77d7b61f440b60e28659d,64ecab53963bae2a49220d83,null,null,"<p style=""font-size: 60px; font-family: BACS"">QOLmuvUdm</p>",,,,,,,,,
html-keyboard-response,171,284496,0.0-11.0-0.2,6172a1d4cffa5162140cc8c2,64e77d7b61f440b60e28659d,64ecab53963bae2a49220d83,null,null,"<p style=""font-size: 60px; font-family: BACS"">UmNJkuvb</p>",,,,,,,,,
html-keyboard-response,172,285512,0.0-11.0-0.3,6172a1d4cffa5162140cc8c2,64e77d7b61f440b60e28659d,64ecab53963bae2a49220d83,null,null,"<p style=""font-size: 60px; font-family: BACS"">amJmvUdm</p>",,,,,,,,,
html-keyboard-response,173,286518,0.0-11.0-0.4,6172a1d4cffa5162140cc8c2,64e77d7b61f440b60e28659d,64ecab53963bae2a49220d83,null,null,"<p style=""font-size: 60px; font-family: BACS"">QOLmukuvb</p>",,,,,,,,,
html-keyboard-response,174,287538,0.0-11.0-0.5,6172a1d4cffa5162140cc8c2,64e77d7b61f440b60e28659d,64ecab53963bae2a49220d83,null,null,"<p style=""font-size: 60px; font-family: BACS"">mBYlRdCc</p>",,,,,,,,,
html-keyboard-response,175,288541,0.0-11.0-0.6,6172a1d4cffa5162140cc8c2,64e77d7b61f440b60e28659d,64ecab53963bae2a49220d83,null,null,"<p style=""font-size: 60px; font-family: BACS"">TdTDdBC</p>",,,,,,,,,
html-keyboard-response,176,289547,0.0-11.0-0.7,6172a1d4cffa5162140cc8c2,64e77d7b61f440b60e28659d,64ecab53963bae2a49220d83,null,null,"<p style=""font-size: 60px; font-family: BACS"">ldAabLd</p>",,,,,,,,,
html-keyboard-response,177,290561,0.0-11.0-0.8,6172a1d4cffa5162140cc8c2,64e77d7b61f440b60e28659d,64ecab53963bae2a49220d83,null,null,"<p style=""font-size: 60px; font-family: BACS"">mBmlAKlkD</p>",,,,,,,,,
html-keyboard-response,178,291563,0.0-11.0-0.9,6172a1d4cffa5162140cc8c2,64e77d7b61f440b60e28659d,64ecab53963bae2a49220d83,null,null,"<p style=""font-size: 60px; font-family: BACS"">DOchldBC</p>",,,,,,,,,
html-keyboard-response,179,292565,0.0-11.0-0.10,6172a1d4cffa5162140cc8c2,64e77d7b61f440b60e28659d,64ecab53963bae2a49220d83,null,null,"<p style=""font-size: 60px; font-family: BACS"">ldAavUdm</p>",,,,,,,,,
html-keyboard-response,180,293571,0.0-11.0-0.11,6172a1d4cffa5162140cc8c2,64e77d7b61f440b60e28659d,64ecab53963bae2a49220d83,null,null,"<p style=""font-size: 60px; font-family: BACS"">UmNJGlu</p>",,,,,,,,,
html-keyboard-response,181,294586,0.0-11.0-0.12,6172a1d4cffa5162140cc8c2,64e77d7b61f440b60e28659d,64ecab53963bae2a49220d83,null,null,"<p style=""font-size: 60px; font-family: BACS"">kcCRtRDM</p>",,,,,,,,,
html-keyboard-response,182,295600,0.0-11.0-0.13,6172a1d4cffa5162140cc8c2,64e77d7b61f440b60e28659d,64ecab53963bae2a49220d83,null,null,"<p style=""font-size: 60px; font-family: BACS"">amJmbLd</p>",,,,,,,,,
html-keyboard-response,183,296615,0.0-11.0-0.14,6172a1d4cffa5162140cc8c2,64e77d7b61f440b60e28659d,64ecab53963bae2a49220d83,null,null,"<p style=""font-size: 60px; font-family: BACS"">lbBDEKlkD</p>",,,,,,,,,
html-keyboard-response,184,297623,0.0-11.0-0.15,6172a1d4cffa5162140cc8c2,64e77d7b61f440b60e28659d,64ecab53963bae2a49220d83,null,null,"<p style=""font-size: 60px; font-family: BACS"">bAdkRdCc</p>",,,,,,,,,
html-keyboard-response,185,298625,0.0-11.0-0.16,6172a1d4cffa5162140cc8c2,64e77d7b61f440b60e28659d,64ecab53963bae2a49220d83,null,null,"<p style=""font-size: 60px; font-family: BACS"">mBmlAdBC</p>",,,,,,,,,
html-keyboard-response,186,299635,0.0-11.0-0.17,6172a1d4cffa5162140cc8c2,64e77d7b61f440b60e28659d,64ecab53963bae2a49220d83,null,null,"<p style=""font-size: 60px; font-family: BACS"">lbBDERDM</p>",,,,,,,,,
html-keyboard-response,187,300650,0.0-11.0-0.18,6172a1d4cffa5162140cc8c2,64e77d7b61f440b60e28659d,64ecab53963bae2a49220d83,null,null,"<p style=""font-size: 60px; font-family: BACS"">NJZlkuvb</p>",,,,,,,,,
html-keyboard-response,188,301665,0.0-11.0-0.19,6172a1d4cffa5162140cc8c2,64e77d7b61f440b60e28659d,64ecab53963bae2a49220d83,null,null,"<p style=""font-size: 60px; font-family: BACS"">rvOvUvUdm</p>",,,,,,,,,
html-keyboard-response,189,302668,0.0-11.0-0.20,6172a1d4cffa5162140cc8c2,64e77d7b61f440b60e28659d,64ecab53963bae2a49220d83,null,null,"<p style=""font-size: 60px; font-family: BACS"">dKDthRDM</p>",,,,,,,,,
html-keyboard-response,190,303687,0.0-11.0-0.21,6172a1d4cffa5162140cc8c2,64e77d7b61f440b60e28659d,64ecab53963bae2a49220d83,null,null,"<p style=""font-size: 60px; font-family: BACS"">dvNvAkuvb</p>",,,,,,,,,
html-keyboard-response,191,304708,0.0-11.0-0.22,6172a1d4cffa5162140cc8c2,64e77d7b61f440b60e28659d,64ecab53963bae2a49220d83,null,null,"<p style=""font-size: 60px; font-family: BACS"">rvOvUGlu</p>",,,,,,,,,
html-keyboard-response,192,305724,0.0-11.0-0.23,6172a1d4cffa5162140cc8c2,64e77d7b61f440b60e28659d,64ecab53963bae2a49220d83,null,null,"<p style=""font-size: 60px; font-family: BACS"">mBmlAOdOP</p>",,,,,,,,,
html-keyboard-response,193,306732,0.0-11.0-0.24,6172a1d4cffa5162140cc8c2,64e77d7b61f440b60e28659d,64ecab53963bae2a49220d83,null,null,"<p style=""font-size: 60px; font-family: BACS"">NJZlGlu</p>",,,,,,,,,
html-keyboard-response,194,307739,0.0-11.0-0.25,6172a1d4cffa5162140cc8c2,64e77d7b61f440b60e28659d,64ecab53963bae2a49220d83,null,null,"<p style=""font-size: 60px; font-family: BACS"">TdTDRDM</p>",,,,,,,,,
html-keyboard-response,195,308757,0.0-11.0-0.26,6172a1d4cffa5162140cc8c2,64e77d7b61f440b60e28659d,64ecab53963bae2a49220d83,null,null,"<p style=""font-size: 60px; font-family: BACS"">UmNJrNlZ</p>",,,,,,,,,
html-keyboard-response,196,309771,0.0-11.0-0.27,6172a1d4cffa5162140cc8c2,64e77d7b61f440b60e28659d,64ecab53963bae2a49220d83,null,null,"<p style=""font-size: 60px; font-family: BACS"">BPAlRdCc</p>",,,,,,,,,
html-keyboard-response,197,310781,0.0-11.0-0.28,6172a1d4cffa5162140cc8c2,64e77d7b61f440b60e28659d,64ecab53963bae2a49220d83,null,null,"<p style=""font-size: 60px; font-family: BACS"">bAdkRDM</p>",,,,,,,,,
html-keyboard-response,198,311790,0.0-11.0-0.29,6172a1d4cffa5162140cc8c2,64e77d7b61f440b60e28659d,64ecab53963bae2a49220d83,null,null,"<p style=""font-size: 60px; font-family: BACS"">kcCRtOdOP</p>",,,,,,,,,
html-keyboard-response,199,312802,0.0-11.0-0.30,6172a1d4cffa5162140cc8c2,64e77d7b61f440b60e28659d,64ecab53963bae2a49220d83,null,null,"<p style=""font-size: 60px; font-family: BACS"">UdbdvUdm</p>",,,,,,,,,
html-keyboard-response,200,313808,0.0-11.0-0.31,6172a1d4cffa5162140cc8c2,64e77d7b61f440b60e28659d,64ecab53963bae2a49220d83,null,null,"<p style=""font-size: 60px; font-family: BACS"">DOchlKlkD</p>",,,,,,,,,
html-keyboard-response,201,314810,0.0-11.0-0.32,6172a1d4cffa5162140cc8c2,64e77d7b61f440b60e28659d,64ecab53963bae2a49220d83,null,null,"<p style=""font-size: 60px; font-family: BACS"">QOLmurNlZ</p>",,,,,,,,,
html-keyboard-response,202,315816,0.0-11.0-0.33,6172a1d4cffa5162140cc8c2,64e77d7b61f440b60e28659d,64ecab53963bae2a49220d83,null,null,"<p style=""font-size: 60px; font-family: BACS"">NJZlbLd</p>",,,,,,,,,
html-keyboard-response,203,316821,0.0-11.0-0.34,6172a1d4cffa5162140cc8c2,64e77d7b61f440b60e28659d,64ecab53963bae2a49220d83,null,null,"<p style=""font-size: 60px; font-family: BACS"">ldAakuvb</p>",,,,,,,,,
html-keyboard-response,204,317837,0.0-11.0-0.35,6172a1d4cffa5162140cc8c2,64e77d7b61f440b60e28659d,64ecab53963bae2a49220d83,null,null,"<p style=""font-size: 60px; font-family: BACS"">amJmGlu</p>",,,,,,,,,
html-keyboard-response,205,318854,0.0-11.0-0.36,6172a1d4cffa5162140cc8c2,64e77d7b61f440b60e28659d,64ecab53963bae2a49220d83,null,null,"<p style=""font-size: 60px; font-family: BACS"">DMRPRdCc</p>",,,,,,,,,
html-keyboard-response,206,319868,0.0-11.0-0.37,6172a1d4cffa5162140cc8c2,64e77d7b61f440b60e28659d,64ecab53963bae2a49220d83,null,null,"<p style=""font-size: 60px; font-family: BACS"">lbBDEOdOP</p>",,,,,,,,,
html-keyboard-response,207,320874,0.0-11.0-0.38,6172a1d4cffa5162140cc8c2,64e77d7b61f440b60e28659d,64ecab53963bae2a49220d83,null,null,"<p style=""font-size: 60px; font-family: BACS"">dvNvAGlu</p>",,,,,,,,,
html-keyboard-response,208,321885,0.0-11.0-0.39,6172a1d4cffa5162140cc8c2,64e77d7b61f440b60e28659d,64ecab53963bae2a49220d83,null,null,"<p style=""font-size: 60px; font-family: BACS"">dKDthRdCc</p>",,,,,,,,,
html-keyboard-response,209,322888,0.0-11.0-0.40,6172a1d4cffa5162140cc8c2,64e77d7b61f440b60e28659d,64ecab53963bae2a49220d83,null,null,"<p style=""font-size: 60px; font-family: BACS"">UdbdbLd</p>",,,,,,,,,
html-keyboard-response,210,323901,0.0-11.0-0.41,6172a1d4cffa5162140cc8c2,64e77d7b61f440b60e28659d,64ecab53963bae2a49220d83,null,null,"<p style=""font-size: 60px; font-family: BACS"">mBYlOdOP</p>",,,,,,,,,
html-keyboard-response,211,324914,0.0-11.0-0.42,6172a1d4cffa5162140cc8c2,64e77d7b61f440b60e28659d,64ecab53963bae2a49220d83,null,null,"<p style=""font-size: 60px; font-family: BACS"">BPAlKlkD</p>",,,,,,,,,
html-keyboard-response,212,325930,0.0-11.0-0.43,6172a1d4cffa5162140cc8c2,64e77d7b61f440b60e28659d,64ecab53963bae2a49220d83,null,null,"<p style=""font-size: 60px; font-family: BACS"">dmZvmkuvb</p>",,,,,,,,,
html-keyboard-response,213,326943,0.0-11.0-0.44,6172a1d4cffa5162140cc8c2,64e77d7b61f440b60e28659d,64ecab53963bae2a49220d83,null,null,"<p style=""font-size: 60px; font-family: BACS"">kcCRtKlkD</p>",,,,,,,,,
html-keyboard-response,214,327959,0.0-11.0-0.45,6172a1d4cffa5162140cc8c2,64e77d7b61f440b60e28659d,64ecab53963bae2a49220d83,null,null,"<p style=""font-size: 60px; font-family: BACS"">UdbdrNlZ</p>",,,,,,,,,
html-keyboard-response,215,328961,0.0-11.0-0.46,6172a1d4cffa5162140cc8c2,64e77d7b61f440b60e28659d,64ecab53963bae2a49220d83,null,null,"<p style=""font-size: 60px; font-family: BACS"">mBYldBC</p>",,,,,,,,,
html-keyboard-response,216,329963,0.0-11.0-0.47,6172a1d4cffa5162140cc8c2,64e77d7b61f440b60e28659d,64ecab53963bae2a49220d83,null,null,"<p style=""font-size: 60px; font-family: BACS"">dmZvmbLd</p>",,,,,,,,,
html-keyboard-response,217,330969,0.0-11.0-0.48,6172a1d4cffa5162140cc8c2,64e77d7b61f440b60e28659d,64ecab53963bae2a49220d83,null,null,"<p style=""font-size: 60px; font-family: BACS"">QOLmuGlu</p>",,,,,,,,,
html-keyboard-response,218,331978,0.0-11.0-0.49,6172a1d4cffa5162140cc8c2,64e77d7b61f440b60e28659d,64ecab53963bae2a49220d83,null,null,"<p style=""font-size: 60px; font-family: BACS"">mBmlARdCc</p>",,,,,,,,,
html-keyboard-response,219,332990,0.0-11.0-0.50,6172a1d4cffa5162140cc8c2,64e77d7b61f440b60e28659d,64ecab53963bae2a49220d83,null,null,"<p style=""font-size: 60px; font-family: BACS"">UdumdGlu</p>",,,,,,,,,
html-keyboard-response,220,333995,0.0-11.0-0.51,6172a1d4cffa5162140cc8c2,64e77d7b61f440b60e28659d,64ecab53963bae2a49220d83,null,null,"<p style=""font-size: 60px; font-family: BACS"">DMRPKlkD</p>",,,,,,,,,
html-keyboard-response,221,335011,0.0-11.0-0.52,6172a1d4cffa5162140cc8c2,64e77d7b61f440b60e28659d,64ecab53963bae2a49220d83,null,null,"<p style=""font-size: 60px; font-family: BACS"">amJmrNlZ</p>",,,,,,,,,
html-keyboard-response,222,336027,0.0-11.0-0.53,6172a1d4cffa5162140cc8c2,64e77d7b61f440b60e28659d,64ecab53963bae2a49220d83,null,null,"<p style=""font-size: 60px; font-family: BACS"">dmZvmvUdm</p>",,,,,,,,,
html-keyboard-response,223,337029,0.0-11.0-0.54,6172a1d4cffa5162140cc8c2,64e77d7b61f440b60e28659d,64ecab53963bae2a49220d83,null,null,"<p style=""font-size: 60px; font-family: BACS"">DOchlRDM</p>",,,,,,,,,
html-keyboard-response,224,338035,0.0-11.0-0.55,6172a1d4cffa5162140cc8c2,64e77d7b61f440b60e28659d,64ecab53963bae2a49220d83,null,null,"<p style=""font-size: 60px; font-family: BACS"">UmNJbLd</p>",,,,,,,,,
html-keyboard-response,225,339048,0.0-11.0-0.56,6172a1d4cffa5162140cc8c2,64e77d7b61f440b60e28659d,64ecab53963bae2a49220d83,null,null,"<p style=""font-size: 60px; font-family: BACS"">dmZvmGlu</p>",,,,,,,,,
html-keyboard-response,226,340063,0.0-11.0-0.57,6172a1d4cffa5162140cc8c2,64e77d7b61f440b60e28659d,64ecab53963bae2a49220d83,null,null,"<p style=""font-size: 60px; font-family: BACS"">dvNvAbLd</p>",,,,,,,,,
html-keyboard-response,227,341079,0.0-11.0-0.58,6172a1d4cffa5162140cc8c2,64e77d7b61f440b60e28659d,64ecab53963bae2a49220d83,null,null,"<p style=""font-size: 60px; font-family: BACS"">NJZlrNlZ</p>",,,,,,,,,
html-keyboard-response,228,342092,0.0-11.0-0.59,6172a1d4cffa5162140cc8c2,64e77d7b61f440b60e28659d,64ecab53963bae2a49220d83,null,null,"<p style=""font-size: 60px; font-family: BACS"">TdTDRdCc</p>",,,,,,,,,
html-keyboard-response,229,343098,0.0-11.0-0.60,6172a1d4cffa5162140cc8c2,64e77d7b61f440b60e28659d,64ecab53963bae2a49220d83,null,null,"<p style=""font-size: 60px; font-family: BACS"">UdumdrNlZ</p>",,,,,,,,,
html-keyboard-response,230,344113,0.0-11.0-0.61,6172a1d4cffa5162140cc8c2,64e77d7b61f440b60e28659d,64ecab53963bae2a49220d83,null,null,"<p style=""font-size: 60px; font-family: BACS"">mBYlKlkD</p>",,,,,,,,,
html-keyboard-response,231,345121,0.0-11.0-0.62,6172a1d4cffa5162140cc8c2,64e77d7b61f440b60e28659d,64ecab53963bae2a49220d83,null,null,"<p style=""font-size: 60px; font-family: BACS"">dKDthOdOP</p>",,,,,,,,,
html-keyboard-response,232,346135,0.0-11.0-0.63,6172a1d4cffa5162140cc8c2,64e77d7b61f440b60e28659d,64ecab53963bae2a49220d83,null,null,"<p style=""font-size: 60px; font-family: BACS"">rvOvUkuvb</p>",,,,,,,,,
html-keyboard-response,233,347152,0.0-11.0-0.64,6172a1d4cffa5162140cc8c2,64e77d7b61f440b60e28659d,64ecab53963bae2a49220d83,null,null,"<p style=""font-size: 60px; font-family: BACS"">DOchlOdOP</p>",,,,,,,,,
html-keyboard-response,234,348161,0.0-11.0-0.65,6172a1d4cffa5162140cc8c2,64e77d7b61f440b60e28659d,64ecab53963bae2a49220d83,null,null,"<p style=""font-size: 60px; font-family: BACS"">kcCRtdBC</p>",,,,,,,,,
html-keyboard-response,235,349167,0.0-11.0-0.66,6172a1d4cffa5162140cc8c2,64e77d7b61f440b60e28659d,64ecab53963bae2a49220d83,null,null,"<p style=""font-size: 60px; font-family: BACS"">rvOvUrNlZ</p>",,,,,,,,,
html-keyboard-response,236,350171,0.0-11.0-0.67,6172a1d4cffa5162140cc8c2,64e77d7b61f440b60e28659d,64ecab53963bae2a49220d83,null,null,"<p style=""font-size: 60px; font-family: BACS"">DMRPdBC</p>",,,,,,,,,
html-keyboard-response,237,351173,0.0-11.0-0.68,6172a1d4cffa5162140cc8c2,64e77d7b61f440b60e28659d,64ecab53963bae2a49220d83,null,null,"<p style=""font-size: 60px; font-family: BACS"">dvNvAvUdm</p>",,,,,,,,,
html-keyboard-response,238,352186,0.0-11.0-0.69,6172a1d4cffa5162140cc8c2,64e77d7b61f440b60e28659d,64ecab53963bae2a49220d83,null,null,"<p style=""font-size: 60px; font-family: BACS"">BPAlRDM</p>",,,,,,,,,
html-keyboard-response,239,353188,0.0-11.0-0.70,6172a1d4cffa5162140cc8c2,64e77d7b61f440b60e28659d,64ecab53963bae2a49220d83,null,null,"<p style=""font-size: 60px; font-family: BACS"">lbBDERdCc</p>",,,,,,,,,
html-keyboard-response,240,354199,0.0-11.0-0.71,6172a1d4cffa5162140cc8c2,64e77d7b61f440b60e28659d,64ecab53963bae2a49220d83,null,null,"<p style=""font-size: 60px; font-family: BACS"">TdTDOdOP</p>",,,,,,,,,
html-keyboard-response,241,355210,0.0-11.0-0.72,6172a1d4cffa5162140cc8c2,64e77d7b61f440b60e28659d,64ecab53963bae2a49220d83,null,null,"<p style=""font-size: 60px; font-family: BACS"">DMRPRDM</p>",,,,,,,,,
html-keyboard-response,242,356227,0.0-11.0-0.73,6172a1d4cffa5162140cc8c2,64e77d7b61f440b60e28659d,64ecab53963bae2a49220d83,null,null,"<p style=""font-size: 60px; font-family: BACS"">UdumdvUdm</p>",,,,,,,,,
html-keyboard-response,243,357236,0.0-11.0-0.74,6172a1d4cffa5162140cc8c2,64e77d7b61f440b60e28659d,64ecab53963bae2a49220d83,null,null,"<p style=""font-size: 60px; font-family: BACS"">dKDthdBC</p>",,,,,,,,,
html-keyboard-response,244,358250,0.0-11.0-0.75,6172a1d4cffa5162140cc8c2,64e77d7b61f440b60e28659d,64ecab53963bae2a49220d83,null,null,"<p style=""font-size: 60px; font-family: BACS"">UdumdbLd</p>",,,,,,,,,
html-keyboard-response,245,359262,0.0-11.0-0.76,6172a1d4cffa5162140cc8c2,64e77d7b61f440b60e28659d,64ecab53963bae2a49220d83,null,null,"<p style=""font-size: 60px; font-family: BACS"">bAdkKlkD</p>",,,,,,,,,
html-keyboard-response,246,360267,0.0-11.0-0.77,6172a1d4cffa5162140cc8c2,64e77d7b61f440b60e28659d,64ecab53963bae2a49220d83,null,null,"<p style=""font-size: 60px; font-family: BACS"">ldAarNlZ</p>",,,,,,,,,
html-keyboard-response,247,361273,0.0-11.0-0.78,6172a1d4cffa5162140cc8c2,64e77d7b61f440b60e28659d,64ecab53963bae2a49220d83,null,null,"<p style=""font-size: 60px; font-family: BACS"">bAdkOdOP</p>",,,,,,,,,
html-keyboard-response,248,362288,0.0-11.0-0.79,6172a1d4cffa5162140cc8c2,64e77d7b61f440b60e28659d,64ecab53963bae2a49220d83,null,null,"<p style=""font-size: 60px; font-family: BACS"">Udbdkuvb</p>",,,,,,,,,
html-keyboard-response,249,378604,0.0-12.0,6172a1d4cffa5162140cc8c2,64e77d7b61f440b60e28659d,64ecab53963bae2a49220d83,16315, ,"<p>Great, you've seen the third block of words. You may now take a short break.</p>
      <p>Press the spacebar when you're ready to continue.</p>",,,,,,,,,
html-keyboard-response,250,379616,0.0-13.0-0.0,6172a1d4cffa5162140cc8c2,64e77d7b61f440b60e28659d,64ecab53963bae2a49220d83,null,null,"<p style=""font-size: 60px; font-family: BACS"">lbBDERdCc</p>",,,,,,,,,
html-keyboard-response,251,380632,0.0-13.0-0.1,6172a1d4cffa5162140cc8c2,64e77d7b61f440b60e28659d,64ecab53963bae2a49220d83,null,null,"<p style=""font-size: 60px; font-family: BACS"">dKDthdBC</p>",,,,,,,,,
html-keyboard-response,252,381647,0.0-13.0-0.2,6172a1d4cffa5162140cc8c2,64e77d7b61f440b60e28659d,64ecab53963bae2a49220d83,null,null,"<p style=""font-size: 60px; font-family: BACS"">dmZvmkuvb</p>",,,,,,,,,
html-keyboard-response,253,382666,0.0-13.0-0.3,6172a1d4cffa5162140cc8c2,64e77d7b61f440b60e28659d,64ecab53963bae2a49220d83,null,null,"<p style=""font-size: 60px; font-family: BACS"">DMRPRDM</p>",,,,,,,,,
html-keyboard-response,254,383686,0.0-13.0-0.4,6172a1d4cffa5162140cc8c2,64e77d7b61f440b60e28659d,64ecab53963bae2a49220d83,null,null,"<p style=""font-size: 60px; font-family: BACS"">BPAldBC</p>",,,,,,,,,
html-keyboard-response,255,384690,0.0-13.0-0.5,6172a1d4cffa5162140cc8c2,64e77d7b61f440b60e28659d,64ecab53963bae2a49220d83,null,null,"<p style=""font-size: 60px; font-family: BACS"">UmNJbLd</p>",,,,,,,,,
html-keyboard-response,256,385702,0.0-13.0-0.6,6172a1d4cffa5162140cc8c2,64e77d7b61f440b60e28659d,64ecab53963bae2a49220d83,null,null,"<p style=""font-size: 60px; font-family: BACS"">bAdkRdCc</p>",,,,,,,,,
html-keyboard-response,257,386706,0.0-13.0-0.7,6172a1d4cffa5162140cc8c2,64e77d7b61f440b60e28659d,64ecab53963bae2a49220d83,null,null,"<p style=""font-size: 60px; font-family: BACS"">rvOvUkuvb</p>",,,,,,,,,
html-keyboard-response,258,387708,0.0-13.0-0.8,6172a1d4cffa5162140cc8c2,64e77d7b61f440b60e28659d,64ecab53963bae2a49220d83,null,null,"<p style=""font-size: 60px; font-family: BACS"">UdumdvUdm</p>",,,,,,,,,
html-keyboard-response,259,388725,0.0-13.0-0.9,6172a1d4cffa5162140cc8c2,64e77d7b61f440b60e28659d,64ecab53963bae2a49220d83,null,null,"<p style=""font-size: 60px; font-family: BACS"">BPAlRDM</p>",,,,,,,,,
html-keyboard-response,260,389736,0.0-13.0-0.10,6172a1d4cffa5162140cc8c2,64e77d7b61f440b60e28659d,64ecab53963bae2a49220d83,null,null,"<p style=""font-size: 60px; font-family: BACS"">dmZvmGlu</p>",,,,,,,,,
html-keyboard-response,261,390740,0.0-13.0-0.11,6172a1d4cffa5162140cc8c2,64e77d7b61f440b60e28659d,64ecab53963bae2a49220d83,null,null,"<p style=""font-size: 60px; font-family: BACS"">DOchlRDM</p>",,,,,,,,,
html-keyboard-response,262,391742,0.0-13.0-0.12,6172a1d4cffa5162140cc8c2,64e77d7b61f440b60e28659d,64ecab53963bae2a49220d83,null,null,"<p style=""font-size: 60px; font-family: BACS"">dKDthOdOP</p>",,,,,,,,,
html-keyboard-response,263,392757,0.0-13.0-0.13,6172a1d4cffa5162140cc8c2,64e77d7b61f440b60e28659d,64ecab53963bae2a49220d83,null,null,"<p style=""font-size: 60px; font-family: BACS"">ldAavUdm</p>",,,,,,,,,
html-keyboard-response,264,393766,0.0-13.0-0.14,6172a1d4cffa5162140cc8c2,64e77d7b61f440b60e28659d,64ecab53963bae2a49220d83,null,null,"<p style=""font-size: 60px; font-family: BACS"">UmNJGlu</p>",,,,,,,,,
html-keyboard-response,265,394776,0.0-13.0-0.15,6172a1d4cffa5162140cc8c2,64e77d7b61f440b60e28659d,64ecab53963bae2a49220d83,null,null,"<p style=""font-size: 60px; font-family: BACS"">ldAakuvb</p>",,,,,,,,,
html-keyboard-response,266,395789,0.0-13.0-0.16,6172a1d4cffa5162140cc8c2,64e77d7b61f440b60e28659d,64ecab53963bae2a49220d83,null,null,"<p style=""font-size: 60px; font-family: BACS"">lbBDERDM</p>",,,,,,,,,
html-keyboard-response,267,396793,0.0-13.0-0.17,6172a1d4cffa5162140cc8c2,64e77d7b61f440b60e28659d,64ecab53963bae2a49220d83,null,null,"<p style=""font-size: 60px; font-family: BACS"">mBYlOdOP</p>",,,,,,,,,
html-keyboard-response,268,397799,0.0-13.0-0.18,6172a1d4cffa5162140cc8c2,64e77d7b61f440b60e28659d,64ecab53963bae2a49220d83,null,null,"<p style=""font-size: 60px; font-family: BACS"">dvNvAbLd</p>",,,,,,,,,
html-keyboard-response,269,398816,0.0-13.0-0.19,6172a1d4cffa5162140cc8c2,64e77d7b61f440b60e28659d,64ecab53963bae2a49220d83,null,null,"<p style=""font-size: 60px; font-family: BACS"">UdumdrNlZ</p>",,,,,,,,,
html-keyboard-response,270,399823,0.0-13.0-0.20,6172a1d4cffa5162140cc8c2,64e77d7b61f440b60e28659d,64ecab53963bae2a49220d83,null,null,"<p style=""font-size: 60px; font-family: BACS"">dvNvAGlu</p>",,,,,,,,,
html-keyboard-response,271,400827,0.0-13.0-0.21,6172a1d4cffa5162140cc8c2,64e77d7b61f440b60e28659d,64ecab53963bae2a49220d83,null,null,"<p style=""font-size: 60px; font-family: BACS"">Udbdkuvb</p>",,,,,,,,,
html-keyboard-response,272,401829,0.0-13.0-0.22,6172a1d4cffa5162140cc8c2,64e77d7b61f440b60e28659d,64ecab53963bae2a49220d83,null,null,"<p style=""font-size: 60px; font-family: BACS"">amJmbLd</p>",,,,,,,,,
html-keyboard-response,273,402836,0.0-13.0-0.23,6172a1d4cffa5162140cc8c2,64e77d7b61f440b60e28659d,64ecab53963bae2a49220d83,null,null,"<p style=""font-size: 60px; font-family: BACS"">DMRPKlkD</p>",,,,,,,,,
html-keyboard-response,274,403846,0.0-13.0-0.24,6172a1d4cffa5162140cc8c2,64e77d7b61f440b60e28659d,64ecab53963bae2a49220d83,null,null,"<p style=""font-size: 60px; font-family: BACS"">QOLmuvUdm</p>",,,,,,,,,
html-keyboard-response,275,404862,0.0-13.0-0.25,6172a1d4cffa5162140cc8c2,64e77d7b61f440b60e28659d,64ecab53963bae2a49220d83,null,null,"<p style=""font-size: 60px; font-family: BACS"">UdumdGlu</p>",,,,,,,,,
html-keyboard-response,276,405864,0.0-13.0-0.26,6172a1d4cffa5162140cc8c2,64e77d7b61f440b60e28659d,64ecab53963bae2a49220d83,null,null,"<p style=""font-size: 60px; font-family: BACS"">mBmlAdBC</p>",,,,,,,,,
html-keyboard-response,277,406879,0.0-13.0-0.27,6172a1d4cffa5162140cc8c2,64e77d7b61f440b60e28659d,64ecab53963bae2a49220d83,null,null,"<p style=""font-size: 60px; font-family: BACS"">rvOvUrNlZ</p>",,,,,,,,,
html-keyboard-response,278,407892,0.0-13.0-0.28,6172a1d4cffa5162140cc8c2,64e77d7b61f440b60e28659d,64ecab53963bae2a49220d83,null,null,"<p style=""font-size: 60px; font-family: BACS"">kcCRtRDM</p>",,,,,,,,,
html-keyboard-response,279,408894,0.0-13.0-0.29,6172a1d4cffa5162140cc8c2,64e77d7b61f440b60e28659d,64ecab53963bae2a49220d83,null,null,"<p style=""font-size: 60px; font-family: BACS"">dmZvmvUdm</p>",,,,,,,,,
html-keyboard-response,280,409904,0.0-13.0-0.30,6172a1d4cffa5162140cc8c2,64e77d7b61f440b60e28659d,64ecab53963bae2a49220d83,null,null,"<p style=""font-size: 60px; font-family: BACS"">mBmlAOdOP</p>",,,,,,,,,
html-keyboard-response,281,410921,0.0-13.0-0.31,6172a1d4cffa5162140cc8c2,64e77d7b61f440b60e28659d,64ecab53963bae2a49220d83,null,null,"<p style=""font-size: 60px; font-family: BACS"">dKDthRdCc</p>",,,,,,,,,
html-keyboard-response,282,411924,0.0-13.0-0.32,6172a1d4cffa5162140cc8c2,64e77d7b61f440b60e28659d,64ecab53963bae2a49220d83,null,null,"<p style=""font-size: 60px; font-family: BACS"">DOchlKlkD</p>",,,,,,,,,
html-keyboard-response,283,412938,0.0-13.0-0.33,6172a1d4cffa5162140cc8c2,64e77d7b61f440b60e28659d,64ecab53963bae2a49220d83,null,null,"<p style=""font-size: 60px; font-family: BACS"">ldAabLd</p>",,,,,,,,,
html-keyboard-response,284,413952,0.0-13.0-0.34,6172a1d4cffa5162140cc8c2,64e77d7b61f440b60e28659d,64ecab53963bae2a49220d83,null,null,"<p style=""font-size: 60px; font-family: BACS"">rvOvUGlu</p>",,,,,,,,,
html-keyboard-response,285,414967,0.0-13.0-0.35,6172a1d4cffa5162140cc8c2,64e77d7b61f440b60e28659d,64ecab53963bae2a49220d83,null,null,"<p style=""font-size: 60px; font-family: BACS"">dKDthRDM</p>",,,,,,,,,
html-keyboard-response,286,415984,0.0-13.0-0.36,6172a1d4cffa5162140cc8c2,64e77d7b61f440b60e28659d,64ecab53963bae2a49220d83,null,null,"<p style=""font-size: 60px; font-family: BACS"">kcCRtKlkD</p>",,,,,,,,,
html-keyboard-response,287,416988,0.0-13.0-0.37,6172a1d4cffa5162140cc8c2,64e77d7b61f440b60e28659d,64ecab53963bae2a49220d83,null,null,"<p style=""font-size: 60px; font-family: BACS"">TdTDOdOP</p>",,,,,,,,,
html-keyboard-response,288,418000,0.0-13.0-0.38,6172a1d4cffa5162140cc8c2,64e77d7b61f440b60e28659d,64ecab53963bae2a49220d83,null,null,"<p style=""font-size: 60px; font-family: BACS"">mBmlARdCc</p>",,,,,,,,,
html-keyboard-response,289,419016,0.0-13.0-0.39,6172a1d4cffa5162140cc8c2,64e77d7b61f440b60e28659d,64ecab53963bae2a49220d83,null,null,"<p style=""font-size: 60px; font-family: BACS"">NJZlrNlZ</p>",,,,,,,,,
html-keyboard-response,290,420032,0.0-13.0-0.40,6172a1d4cffa5162140cc8c2,64e77d7b61f440b60e28659d,64ecab53963bae2a49220d83,null,null,"<p style=""font-size: 60px; font-family: BACS"">lbBDEKlkD</p>",,,,,,,,,
html-keyboard-response,291,421037,0.0-13.0-0.41,6172a1d4cffa5162140cc8c2,64e77d7b61f440b60e28659d,64ecab53963bae2a49220d83,null,null,"<p style=""font-size: 60px; font-family: BACS"">bAdkOdOP</p>",,,,,,,,,
html-keyboard-response,292,422051,0.0-13.0-0.42,6172a1d4cffa5162140cc8c2,64e77d7b61f440b60e28659d,64ecab53963bae2a49220d83,null,null,"<p style=""font-size: 60px; font-family: BACS"">amJmvUdm</p>",,,,,,,,,
html-keyboard-response,293,423069,0.0-13.0-0.43,6172a1d4cffa5162140cc8c2,64e77d7b61f440b60e28659d,64ecab53963bae2a49220d83,null,null,"<p style=""font-size: 60px; font-family: BACS"">UdbdbLd</p>",,,,,,,,,
html-keyboard-response,294,424084,0.0-13.0-0.44,6172a1d4cffa5162140cc8c2,64e77d7b61f440b60e28659d,64ecab53963bae2a49220d83,null,null,"<p style=""font-size: 60px; font-family: BACS"">bAdkKlkD</p>",,,,,,,,,
html-keyboard-response,295,425098,0.0-13.0-0.45,6172a1d4cffa5162140cc8c2,64e77d7b61f440b60e28659d,64ecab53963bae2a49220d83,null,null,"<p style=""font-size: 60px; font-family: BACS"">TdTDRdCc</p>",,,,,,,,,
html-keyboard-response,296,426099,0.0-13.0-0.46,6172a1d4cffa5162140cc8c2,64e77d7b61f440b60e28659d,64ecab53963bae2a49220d83,null,null,"<p style=""font-size: 60px; font-family: BACS"">dvNvAvUdm</p>",,,,,,,,,
html-keyboard-response,297,427112,0.0-13.0-0.47,6172a1d4cffa5162140cc8c2,64e77d7b61f440b60e28659d,64ecab53963bae2a49220d83,null,null,"<p style=""font-size: 60px; font-family: BACS"">TdTDRDM</p>",,,,,,,,,
html-keyboard-response,298,428129,0.0-13.0-0.48,6172a1d4cffa5162140cc8c2,64e77d7b61f440b60e28659d,64ecab53963bae2a49220d83,null,null,"<p style=""font-size: 60px; font-family: BACS"">BPAlKlkD</p>",,,,,,,,,
html-keyboard-response,299,429145,0.0-13.0-0.49,6172a1d4cffa5162140cc8c2,64e77d7b61f440b60e28659d,64ecab53963bae2a49220d83,null,null,"<p style=""font-size: 60px; font-family: BACS"">UdbdvUdm</p>",,,,,,,,,
html-keyboard-response,300,430154,0.0-13.0-0.50,6172a1d4cffa5162140cc8c2,64e77d7b61f440b60e28659d,64ecab53963bae2a49220d83,null,null,"<p style=""font-size: 60px; font-family: BACS"">NJZlGlu</p>",,,,,,,,,
html-keyboard-response,301,431169,0.0-13.0-0.51,6172a1d4cffa5162140cc8c2,64e77d7b61f440b60e28659d,64ecab53963bae2a49220d83,null,null,"<p style=""font-size: 60px; font-family: BACS"">UmNJrNlZ</p>",,,,,,,,,
html-keyboard-response,302,432185,0.0-13.0-0.52,6172a1d4cffa5162140cc8c2,64e77d7b61f440b60e28659d,64ecab53963bae2a49220d83,null,null,"<p style=""font-size: 60px; font-family: BACS"">NJZlkuvb</p>",,,,,,,,,
html-keyboard-response,303,433198,0.0-13.0-0.53,6172a1d4cffa5162140cc8c2,64e77d7b61f440b60e28659d,64ecab53963bae2a49220d83,null,null,"<p style=""font-size: 60px; font-family: BACS"">kcCRtdBC</p>",,,,,,,,,
html-keyboard-response,304,434203,0.0-13.0-0.54,6172a1d4cffa5162140cc8c2,64e77d7b61f440b60e28659d,64ecab53963bae2a49220d83,null,null,"<p style=""font-size: 60px; font-family: BACS"">QOLmurNlZ</p>",,,,,,,,,
html-keyboard-response,305,435214,0.0-13.0-0.55,6172a1d4cffa5162140cc8c2,64e77d7b61f440b60e28659d,64ecab53963bae2a49220d83,null,null,"<p style=""font-size: 60px; font-family: BACS"">DMRPRdCc</p>",,,,,,,,,
html-keyboard-response,306,436231,0.0-13.0-0.56,6172a1d4cffa5162140cc8c2,64e77d7b61f440b60e28659d,64ecab53963bae2a49220d83,null,null,"<p style=""font-size: 60px; font-family: BACS"">UdbdrNlZ</p>",,,,,,,,,
html-keyboard-response,307,437247,0.0-13.0-0.57,6172a1d4cffa5162140cc8c2,64e77d7b61f440b60e28659d,64ecab53963bae2a49220d83,null,null,"<p style=""font-size: 60px; font-family: BACS"">NJZlbLd</p>",,,,,,,,,
html-keyboard-response,308,438259,0.0-13.0-0.58,6172a1d4cffa5162140cc8c2,64e77d7b61f440b60e28659d,64ecab53963bae2a49220d83,null,null,"<p style=""font-size: 60px; font-family: BACS"">bAdkRDM</p>",,,,,,,,,
html-keyboard-response,309,439262,0.0-13.0-0.59,6172a1d4cffa5162140cc8c2,64e77d7b61f440b60e28659d,64ecab53963bae2a49220d83,null,null,"<p style=""font-size: 60px; font-family: BACS"">kcCRtOdOP</p>",,,,,,,,,
html-keyboard-response,310,440270,0.0-13.0-0.60,6172a1d4cffa5162140cc8c2,64e77d7b61f440b60e28659d,64ecab53963bae2a49220d83,null,null,"<p style=""font-size: 60px; font-family: BACS"">UmNJkuvb</p>",,,,,,,,,
html-keyboard-response,311,441284,0.0-13.0-0.61,6172a1d4cffa5162140cc8c2,64e77d7b61f440b60e28659d,64ecab53963bae2a49220d83,null,null,"<p style=""font-size: 60px; font-family: BACS"">TdTDdBC</p>",,,,,,,,,
html-keyboard-response,312,442299,0.0-13.0-0.62,6172a1d4cffa5162140cc8c2,64e77d7b61f440b60e28659d,64ecab53963bae2a49220d83,null,null,"<p style=""font-size: 60px; font-family: BACS"">rvOvUvUdm</p>",,,,,,,,,
html-keyboard-response,313,443313,0.0-13.0-0.63,6172a1d4cffa5162140cc8c2,64e77d7b61f440b60e28659d,64ecab53963bae2a49220d83,null,null,"<p style=""font-size: 60px; font-family: BACS"">lbBDEOdOP</p>",,,,,,,,,
html-keyboard-response,314,444326,0.0-13.0-0.64,6172a1d4cffa5162140cc8c2,64e77d7b61f440b60e28659d,64ecab53963bae2a49220d83,null,null,"<p style=""font-size: 60px; font-family: BACS"">UdumdbLd</p>",,,,,,,,,
html-keyboard-response,315,445343,0.0-13.0-0.65,6172a1d4cffa5162140cc8c2,64e77d7b61f440b60e28659d,64ecab53963bae2a49220d83,null,null,"<p style=""font-size: 60px; font-family: BACS"">QOLmuGlu</p>",,,,,,,,,
html-keyboard-response,316,446353,0.0-13.0-0.66,6172a1d4cffa5162140cc8c2,64e77d7b61f440b60e28659d,64ecab53963bae2a49220d83,null,null,"<p style=""font-size: 60px; font-family: BACS"">mBYldBC</p>",,,,,,,,,
html-keyboard-response,317,447365,0.0-13.0-0.67,6172a1d4cffa5162140cc8c2,64e77d7b61f440b60e28659d,64ecab53963bae2a49220d83,null,null,"<p style=""font-size: 60px; font-family: BACS"">amJmGlu</p>",,,,,,,,,
html-keyboard-response,318,448377,0.0-13.0-0.68,6172a1d4cffa5162140cc8c2,64e77d7b61f440b60e28659d,64ecab53963bae2a49220d83,null,null,"<p style=""font-size: 60px; font-family: BACS"">mBYlRdCc</p>",,,,,,,,,
html-keyboard-response,319,449388,0.0-13.0-0.69,6172a1d4cffa5162140cc8c2,64e77d7b61f440b60e28659d,64ecab53963bae2a49220d83,null,null,"<p style=""font-size: 60px; font-family: BACS"">DOchlOdOP</p>",,,,,,,,,
html-keyboard-response,320,450393,0.0-13.0-0.70,6172a1d4cffa5162140cc8c2,64e77d7b61f440b60e28659d,64ecab53963bae2a49220d83,null,null,"<p style=""font-size: 60px; font-family: BACS"">QOLmukuvb</p>",,,,,,,,,
html-keyboard-response,321,451396,0.0-13.0-0.71,6172a1d4cffa5162140cc8c2,64e77d7b61f440b60e28659d,64ecab53963bae2a49220d83,null,null,"<p style=""font-size: 60px; font-family: BACS"">amJmrNlZ</p>",,,,,,,,,
html-keyboard-response,322,452398,0.0-13.0-0.72,6172a1d4cffa5162140cc8c2,64e77d7b61f440b60e28659d,64ecab53963bae2a49220d83,null,null,"<p style=""font-size: 60px; font-family: BACS"">DMRPdBC</p>",,,,,,,,,
html-keyboard-response,323,453406,0.0-13.0-0.73,6172a1d4cffa5162140cc8c2,64e77d7b61f440b60e28659d,64ecab53963bae2a49220d83,null,null,"<p style=""font-size: 60px; font-family: BACS"">BPAlRdCc</p>",,,,,,,,,
html-keyboard-response,324,454413,0.0-13.0-0.74,6172a1d4cffa5162140cc8c2,64e77d7b61f440b60e28659d,64ecab53963bae2a49220d83,null,null,"<p style=""font-size: 60px; font-family: BACS"">mBmlAKlkD</p>",,,,,,,,,
html-keyboard-response,325,455420,0.0-13.0-0.75,6172a1d4cffa5162140cc8c2,64e77d7b61f440b60e28659d,64ecab53963bae2a49220d83,null,null,"<p style=""font-size: 60px; font-family: BACS"">dvNvAkuvb</p>",,,,,,,,,
html-keyboard-response,326,456435,0.0-13.0-0.76,6172a1d4cffa5162140cc8c2,64e77d7b61f440b60e28659d,64ecab53963bae2a49220d83,null,null,"<p style=""font-size: 60px; font-family: BACS"">DOchldBC</p>",,,,,,,,,
html-keyboard-response,327,457448,0.0-13.0-0.77,6172a1d4cffa5162140cc8c2,64e77d7b61f440b60e28659d,64ecab53963bae2a49220d83,null,null,"<p style=""font-size: 60px; font-family: BACS"">ldAarNlZ</p>",,,,,,,,,
html-keyboard-response,328,458453,0.0-13.0-0.78,6172a1d4cffa5162140cc8c2,64e77d7b61f440b60e28659d,64ecab53963bae2a49220d83,null,null,"<p style=""font-size: 60px; font-family: BACS"">mBYlKlkD</p>",,,,,,,,,
html-keyboard-response,329,459464,0.0-13.0-0.79,6172a1d4cffa5162140cc8c2,64e77d7b61f440b60e28659d,64ecab53963bae2a49220d83,null,null,"<p style=""font-size: 60px; font-family: BACS"">dmZvmbLd</p>",,,,,,,,,
html-keyboard-response,330,469035,0.0-14.0,6172a1d4cffa5162140cc8c2,64e77d7b61f440b60e28659d,64ecab53963bae2a49220d83,9570, ,"<p>Great, you've seen the fourth block of words. You may now take a short break.</p>
      <p>Press the spacebar when you're ready to continue.</p>",,,,,,,,,
html-keyboard-response,331,470056,0.0-15.0-0.0,6172a1d4cffa5162140cc8c2,64e77d7b61f440b60e28659d,64ecab53963bae2a49220d83,null,null,"<p style=""font-size: 60px; font-family: BACS"">DMRPRDM</p>",,,,,,,,,
html-keyboard-response,332,471059,0.0-15.0-0.1,6172a1d4cffa5162140cc8c2,64e77d7b61f440b60e28659d,64ecab53963bae2a49220d83,null,null,"<p style=""font-size: 60px; font-family: BACS"">DMRPRDM</p>",,,,,,,,,
html-keyboard-response,333,472075,0.0-15.0-0.2,6172a1d4cffa5162140cc8c2,64e77d7b61f440b60e28659d,64ecab53963bae2a49220d83,null,null,"<p style=""font-size: 60px; font-family: BACS"">DMRPRDM</p>",,,,,,,,,
html-keyboard-response,334,473092,0.0-15.0-0.3,6172a1d4cffa5162140cc8c2,64e77d7b61f440b60e28659d,64ecab53963bae2a49220d83,null,null,"<p style=""font-size: 60px; font-family: BACS"">DMRPRDM</p>",,,,,,,,,
html-keyboard-response,335,474097,0.0-15.0-0.4,6172a1d4cffa5162140cc8c2,64e77d7b61f440b60e28659d,64ecab53963bae2a49220d83,null,null,"<p style=""font-size: 60px; font-family: BACS"">DMRPRDM</p>",,,,,,,,,
html-keyboard-response,336,475109,0.0-15.0-0.5,6172a1d4cffa5162140cc8c2,64e77d7b61f440b60e28659d,64ecab53963bae2a49220d83,null,null,"<p style=""font-size: 60px; font-family: BACS"">DMRPRDM</p>",,,,,,,,,
html-keyboard-response,337,476126,0.0-15.0-0.6,6172a1d4cffa5162140cc8c2,64e77d7b61f440b60e28659d,64ecab53963bae2a49220d83,null,null,"<p style=""font-size: 60px; font-family: BACS"">DMRPRDM</p>",,,,,,,,,
html-keyboard-response,338,477139,0.0-15.0-0.7,6172a1d4cffa5162140cc8c2,64e77d7b61f440b60e28659d,64ecab53963bae2a49220d83,null,null,"<p style=""font-size: 60px; font-family: BACS"">DMRPRDM</p>",,,,,,,,,
html-keyboard-response,339,478141,0.0-15.0-0.8,6172a1d4cffa5162140cc8c2,64e77d7b61f440b60e28659d,64ecab53963bae2a49220d83,null,null,"<p style=""font-size: 60px; font-family: BACS"">DMRPRDM</p>",,,,,,,,,
html-keyboard-response,340,479156,0.0-15.0-0.9,6172a1d4cffa5162140cc8c2,64e77d7b61f440b60e28659d,64ecab53963bae2a49220d83,null,null,"<p style=""font-size: 60px; font-family: BACS"">DMRPRDM</p>",,,,,,,,,
html-keyboard-response,341,480170,0.0-15.0-0.10,6172a1d4cffa5162140cc8c2,64e77d7b61f440b60e28659d,64ecab53963bae2a49220d83,null,null,"<p style=""font-size: 60px; font-family: BACS"">DMRPRDM</p>",,,,,,,,,
html-keyboard-response,342,481186,0.0-15.0-0.11,6172a1d4cffa5162140cc8c2,64e77d7b61f440b60e28659d,64ecab53963bae2a49220d83,null,null,"<p style=""font-size: 60px; font-family: BACS"">DMRPRDM</p>",,,,,,,,,
html-keyboard-response,343,482198,0.0-15.0-0.12,6172a1d4cffa5162140cc8c2,64e77d7b61f440b60e28659d,64ecab53963bae2a49220d83,null,null,"<p style=""font-size: 60px; font-family: BACS"">DMRPRDM</p>",,,,,,,,,
html-keyboard-response,344,483212,0.0-15.0-0.13,6172a1d4cffa5162140cc8c2,64e77d7b61f440b60e28659d,64ecab53963bae2a49220d83,null,null,"<p style=""font-size: 60px; font-family: BACS"">DMRPRDM</p>",,,,,,,,,
html-keyboard-response,345,484230,0.0-15.0-0.14,6172a1d4cffa5162140cc8c2,64e77d7b61f440b60e28659d,64ecab53963bae2a49220d83,null,null,"<p style=""font-size: 60px; font-family: BACS"">DMRPRDM</p>",,,,,,,,,
html-keyboard-response,346,485240,0.0-15.0-0.15,6172a1d4cffa5162140cc8c2,64e77d7b61f440b60e28659d,64ecab53963bae2a49220d83,null,null,"<p style=""font-size: 60px; font-family: BACS"">DMRPRDM</p>",,,,,,,,,
html-keyboard-response,347,486246,0.0-15.0-0.16,6172a1d4cffa5162140cc8c2,64e77d7b61f440b60e28659d,64ecab53963bae2a49220d83,null,null,"<p style=""font-size: 60px; font-family: BACS"">DMRPRDM</p>",,,,,,,,,
html-keyboard-response,348,487264,0.0-15.0-0.17,6172a1d4cffa5162140cc8c2,64e77d7b61f440b60e28659d,64ecab53963bae2a49220d83,null,null,"<p style=""font-size: 60px; font-family: BACS"">DMRPRDM</p>",,,,,,,,,
html-keyboard-response,349,488281,0.0-15.0-0.18,6172a1d4cffa5162140cc8c2,64e77d7b61f440b60e28659d,64ecab53963bae2a49220d83,null,null,"<p style=""font-size: 60px; font-family: BACS"">DMRPRDM</p>",,,,,,,,,
html-keyboard-response,350,489282,0.0-15.0-0.19,6172a1d4cffa5162140cc8c2,64e77d7b61f440b60e28659d,64ecab53963bae2a49220d83,null,null,"<p style=""font-size: 60px; font-family: BACS"">DMRPRDM</p>",,,,,,,,,
html-keyboard-response,351,490286,0.0-15.0-0.20,6172a1d4cffa5162140cc8c2,64e77d7b61f440b60e28659d,64ecab53963bae2a49220d83,null,null,"<p style=""font-size: 60px; font-family: BACS"">DMRPRDM</p>",,,,,,,,,
html-keyboard-response,352,491291,0.0-15.0-0.21,6172a1d4cffa5162140cc8c2,64e77d7b61f440b60e28659d,64ecab53963bae2a49220d83,null,null,"<p style=""font-size: 60px; font-family: BACS"">DMRPRDM</p>",,,,,,,,,
html-keyboard-response,353,492308,0.0-15.0-0.22,6172a1d4cffa5162140cc8c2,64e77d7b61f440b60e28659d,64ecab53963bae2a49220d83,null,null,"<p style=""font-size: 60px; font-family: BACS"">DMRPRDM</p>",,,,,,,,,
html-keyboard-response,354,493322,0.0-15.0-0.23,6172a1d4cffa5162140cc8c2,64e77d7b61f440b60e28659d,64ecab53963bae2a49220d83,null,null,"<p style=""font-size: 60px; font-family: BACS"">DMRPRDM</p>",,,,,,,,,
html-keyboard-response,355,494331,0.0-15.0-0.24,6172a1d4cffa5162140cc8c2,64e77d7b61f440b60e28659d,64ecab53963bae2a49220d83,null,null,"<p style=""font-size: 60px; font-family: BACS"">DMRPRDM</p>",,,,,,,,,
html-keyboard-response,356,495340,0.0-15.0-0.25,6172a1d4cffa5162140cc8c2,64e77d7b61f440b60e28659d,64ecab53963bae2a49220d83,null,null,"<p style=""font-size: 60px; font-family: BACS"">DMRPRDM</p>",,,,,,,,,
html-keyboard-response,357,496351,0.0-15.0-0.26,6172a1d4cffa5162140cc8c2,64e77d7b61f440b60e28659d,64ecab53963bae2a49220d83,null,null,"<p style=""font-size: 60px; font-family: BACS"">DMRPRDM</p>",,,,,,,,,
html-keyboard-response,358,497367,0.0-15.0-0.27,6172a1d4cffa5162140cc8c2,64e77d7b61f440b60e28659d,64ecab53963bae2a49220d83,null,null,"<p style=""font-size: 60px; font-family: BACS"">DMRPRDM</p>",,,,,,,,,
html-keyboard-response,359,498369,0.0-15.0-0.28,6172a1d4cffa5162140cc8c2,64e77d7b61f440b60e28659d,64ecab53963bae2a49220d83,null,null,"<p style=""font-size: 60px; font-family: BACS"">DMRPRDM</p>",,,,,,,,,
html-keyboard-response,360,499385,0.0-15.0-0.29,6172a1d4cffa5162140cc8c2,64e77d7b61f440b60e28659d,64ecab53963bae2a49220d83,null,null,"<p style=""font-size: 60px; font-family: BACS"">DMRPRDM</p>",,,,,,,,,
html-keyboard-response,361,500403,0.0-15.0-0.30,6172a1d4cffa5162140cc8c2,64e77d7b61f440b60e28659d,64ecab53963bae2a49220d83,null,null,"<p style=""font-size: 60px; font-family: BACS"">DMRPRDM</p>",,,,,,,,,
html-keyboard-response,362,501416,0.0-15.0-0.31,6172a1d4cffa5162140cc8c2,64e77d7b61f440b60e28659d,64ecab53963bae2a49220d83,null,null,"<p style=""font-size: 60px; font-family: BACS"">DMRPRDM</p>",,,,,,,,,
html-keyboard-response,363,502421,0.0-15.0-0.32,6172a1d4cffa5162140cc8c2,64e77d7b61f440b60e28659d,64ecab53963bae2a49220d83,null,null,"<p style=""font-size: 60px; font-family: BACS"">DMRPRDM</p>",,,,,,,,,
html-keyboard-response,364,503435,0.0-15.0-0.33,6172a1d4cffa5162140cc8c2,64e77d7b61f440b60e28659d,64ecab53963bae2a49220d83,null,null,"<p style=""font-size: 60px; font-family: BACS"">DMRPRDM</p>",,,,,,,,,
html-keyboard-response,365,504453,0.0-15.0-0.34,6172a1d4cffa5162140cc8c2,64e77d7b61f440b60e28659d,64ecab53963bae2a49220d83,null,null,"<p style=""font-size: 60px; font-family: BACS"">DMRPRDM</p>",,,,,,,,,
html-keyboard-response,366,505459,0.0-15.0-0.35,6172a1d4cffa5162140cc8c2,64e77d7b61f440b60e28659d,64ecab53963bae2a49220d83,null,null,"<p style=""font-size: 60px; font-family: BACS"">DMRPRDM</p>",,,,,,,,,
html-keyboard-response,367,506468,0.0-15.0-0.36,6172a1d4cffa5162140cc8c2,64e77d7b61f440b60e28659d,64ecab53963bae2a49220d83,null,null,"<p style=""font-size: 60px; font-family: BACS"">DMRPRDM</p>",,,,,,,,,
html-keyboard-response,368,507482,0.0-15.0-0.37,6172a1d4cffa5162140cc8c2,64e77d7b61f440b60e28659d,64ecab53963bae2a49220d83,null,null,"<p style=""font-size: 60px; font-family: BACS"">DMRPRDM</p>",,,,,,,,,
html-keyboard-response,369,508491,0.0-15.0-0.38,6172a1d4cffa5162140cc8c2,64e77d7b61f440b60e28659d,64ecab53963bae2a49220d83,null,null,"<p style=""font-size: 60px; font-family: BACS"">DMRPRDM</p>",,,,,,,,,
html-keyboard-response,370,509508,0.0-15.0-0.39,6172a1d4cffa5162140cc8c2,64e77d7b61f440b60e28659d,64ecab53963bae2a49220d83,null,null,"<p style=""font-size: 60px; font-family: BACS"">DMRPRDM</p>",,,,,,,,,
html-keyboard-response,371,510527,0.0-15.0-0.40,6172a1d4cffa5162140cc8c2,64e77d7b61f440b60e28659d,64ecab53963bae2a49220d83,null,null,"<p style=""font-size: 60px; font-family: BACS"">DMRPRDM</p>",,,,,,,,,
html-keyboard-response,372,511529,0.0-15.0-0.41,6172a1d4cffa5162140cc8c2,64e77d7b61f440b60e28659d,64ecab53963bae2a49220d83,null,null,"<p style=""font-size: 60px; font-family: BACS"">DMRPRDM</p>",,,,,,,,,
html-keyboard-response,373,512556,0.0-15.0-0.42,6172a1d4cffa5162140cc8c2,64e77d7b61f440b60e28659d,64ecab53963bae2a49220d83,null,null,"<p style=""font-size: 60px; font-family: BACS"">DMRPRDM</p>",,,,,,,,,
html-keyboard-response,374,513564,0.0-15.0-0.43,6172a1d4cffa5162140cc8c2,64e77d7b61f440b60e28659d,64ecab53963bae2a49220d83,null,null,"<p style=""font-size: 60px; font-family: BACS"">DMRPRDM</p>",,,,,,,,,
html-keyboard-response,375,514568,0.0-15.0-0.44,6172a1d4cffa5162140cc8c2,64e77d7b61f440b60e28659d,64ecab53963bae2a49220d83,null,null,"<p style=""font-size: 60px; font-family: BACS"">DMRPRDM</p>",,,,,,,,,
html-keyboard-response,376,515583,0.0-15.0-0.45,6172a1d4cffa5162140cc8c2,64e77d7b61f440b60e28659d,64ecab53963bae2a49220d83,null,null,"<p style=""font-size: 60px; font-family: BACS"">DMRPRDM</p>",,,,,,,,,
html-keyboard-response,377,516591,0.0-15.0-0.46,6172a1d4cffa5162140cc8c2,64e77d7b61f440b60e28659d,64ecab53963bae2a49220d83,null,null,"<p style=""font-size: 60px; font-family: BACS"">DMRPRDM</p>",,,,,,,,,
html-keyboard-response,378,517594,0.0-15.0-0.47,6172a1d4cffa5162140cc8c2,64e77d7b61f440b60e28659d,64ecab53963bae2a49220d83,null,null,"<p style=""font-size: 60px; font-family: BACS"">DMRPRDM</p>",,,,,,,,,
html-keyboard-response,379,518610,0.0-15.0-0.48,6172a1d4cffa5162140cc8c2,64e77d7b61f440b60e28659d,64ecab53963bae2a49220d83,null,null,"<p style=""font-size: 60px; font-family: BACS"">DMRPRDM</p>",,,,,,,,,
html-keyboard-response,380,519627,0.0-15.0-0.49,6172a1d4cffa5162140cc8c2,64e77d7b61f440b60e28659d,64ecab53963bae2a49220d83,null,null,"<p style=""font-size: 60px; font-family: BACS"">DMRPRDM</p>",,,,,,,,,
html-keyboard-response,381,520629,0.0-15.0-0.50,6172a1d4cffa5162140cc8c2,64e77d7b61f440b60e28659d,64ecab53963bae2a49220d83,null,null,"<p style=""font-size: 60px; font-family: BACS"">DMRPRDM</p>",,,,,,,,,
html-keyboard-response,382,521643,0.0-15.0-0.51,6172a1d4cffa5162140cc8c2,64e77d7b61f440b60e28659d,64ecab53963bae2a49220d83,null,null,"<p style=""font-size: 60px; font-family: BACS"">DMRPRDM</p>",,,,,,,,,
html-keyboard-response,383,522666,0.0-15.0-0.52,6172a1d4cffa5162140cc8c2,64e77d7b61f440b60e28659d,64ecab53963bae2a49220d83,null,null,"<p style=""font-size: 60px; font-family: BACS"">DMRPRDM</p>",,,,,,,,,
html-keyboard-response,384,523674,0.0-15.0-0.53,6172a1d4cffa5162140cc8c2,64e77d7b61f440b60e28659d,64ecab53963bae2a49220d83,null,null,"<p style=""font-size: 60px; font-family: BACS"">DMRPRDM</p>",,,,,,,,,
html-keyboard-response,385,524678,0.0-15.0-0.54,6172a1d4cffa5162140cc8c2,64e77d7b61f440b60e28659d,64ecab53963bae2a49220d83,null,null,"<p style=""font-size: 60px; font-family: BACS"">DMRPRDM</p>",,,,,,,,,
html-keyboard-response,386,525680,0.0-15.0-0.55,6172a1d4cffa5162140cc8c2,64e77d7b61f440b60e28659d,64ecab53963bae2a49220d83,null,null,"<p style=""font-size: 60px; font-family: BACS"">DMRPRDM</p>",,,,,,,,,
html-keyboard-response,387,526695,0.0-15.0-0.56,6172a1d4cffa5162140cc8c2,64e77d7b61f440b60e28659d,64ecab53963bae2a49220d83,null,null,"<p style=""font-size: 60px; font-family: BACS"">DMRPRDM</p>",,,,,,,,,
html-keyboard-response,388,527703,0.0-15.0-0.57,6172a1d4cffa5162140cc8c2,64e77d7b61f440b60e28659d,64ecab53963bae2a49220d83,null,null,"<p style=""font-size: 60px; font-family: BACS"">DMRPRDM</p>",,,,,,,,,
html-keyboard-response,389,528714,0.0-15.0-0.58,6172a1d4cffa5162140cc8c2,64e77d7b61f440b60e28659d,64ecab53963bae2a49220d83,null,null,"<p style=""font-size: 60px; font-family: BACS"">DMRPRDM</p>",,,,,,,,,
html-keyboard-response,390,529723,0.0-15.0-0.59,6172a1d4cffa5162140cc8c2,64e77d7b61f440b60e28659d,64ecab53963bae2a49220d83,null,null,"<p style=""font-size: 60px; font-family: BACS"">DMRPRDM</p>",,,,,,,,,
html-keyboard-response,391,530726,0.0-15.0-0.60,6172a1d4cffa5162140cc8c2,64e77d7b61f440b60e28659d,64ecab53963bae2a49220d83,null,null,"<p style=""font-size: 60px; font-family: BACS"">DMRPRDM</p>",,,,,,,,,
html-keyboard-response,392,531736,0.0-15.0-0.61,6172a1d4cffa5162140cc8c2,64e77d7b61f440b60e28659d,64ecab53963bae2a49220d83,null,null,"<p style=""font-size: 60px; font-family: BACS"">DMRPRDM</p>",,,,,,,,,
html-keyboard-response,393,532738,0.0-15.0-0.62,6172a1d4cffa5162140cc8c2,64e77d7b61f440b60e28659d,64ecab53963bae2a49220d83,null,null,"<p style=""font-size: 60px; font-family: BACS"">DMRPRDM</p>",,,,,,,,,
html-keyboard-response,394,533746,0.0-15.0-0.63,6172a1d4cffa5162140cc8c2,64e77d7b61f440b60e28659d,64ecab53963bae2a49220d83,null,null,"<p style=""font-size: 60px; font-family: BACS"">DMRPRDM</p>",,,,,,,,,
html-keyboard-response,395,534757,0.0-15.0-0.64,6172a1d4cffa5162140cc8c2,64e77d7b61f440b60e28659d,64ecab53963bae2a49220d83,null,null,"<p style=""font-size: 60px; font-family: BACS"">DMRPRDM</p>",,,,,,,,,
html-keyboard-response,396,535760,0.0-15.0-0.65,6172a1d4cffa5162140cc8c2,64e77d7b61f440b60e28659d,64ecab53963bae2a49220d83,null,null,"<p style=""font-size: 60px; font-family: BACS"">DMRPRDM</p>",,,,,,,,,
html-keyboard-response,397,536772,0.0-15.0-0.66,6172a1d4cffa5162140cc8c2,64e77d7b61f440b60e28659d,64ecab53963bae2a49220d83,null,null,"<p style=""font-size: 60px; font-family: BACS"">DMRPRDM</p>",,,,,,,,,
html-keyboard-response,398,537774,0.0-15.0-0.67,6172a1d4cffa5162140cc8c2,64e77d7b61f440b60e28659d,64ecab53963bae2a49220d83,null,null,"<p style=""font-size: 60px; font-family: BACS"">DMRPRDM</p>",,,,,,,,,
html-keyboard-response,399,538777,0.0-15.0-0.68,6172a1d4cffa5162140cc8c2,64e77d7b61f440b60e28659d,64ecab53963bae2a49220d83,null,null,"<p style=""font-size: 60px; font-family: BACS"">DMRPRDM</p>",,,,,,,,,
html-keyboard-response,400,539790,0.0-15.0-0.69,6172a1d4cffa5162140cc8c2,64e77d7b61f440b60e28659d,64ecab53963bae2a49220d83,null,null,"<p style=""font-size: 60px; font-family: BACS"">DMRPRDM</p>",,,,,,,,,
html-keyboard-response,401,540793,0.0-15.0-0.70,6172a1d4cffa5162140cc8c2,64e77d7b61f440b60e28659d,64ecab53963bae2a49220d83,null,null,"<p style=""font-size: 60px; font-family: BACS"">DMRPRDM</p>",,,,,,,,,
html-keyboard-response,402,541805,0.0-15.0-0.71,6172a1d4cffa5162140cc8c2,64e77d7b61f440b60e28659d,64ecab53963bae2a49220d83,null,null,"<p style=""font-size: 60px; font-family: BACS"">DMRPRDM</p>",,,,,,,,,
html-keyboard-response,403,542818,0.0-15.0-0.72,6172a1d4cffa5162140cc8c2,64e77d7b61f440b60e28659d,64ecab53963bae2a49220d83,null,null,"<p style=""font-size: 60px; font-family: BACS"">DMRPRDM</p>",,,,,,,,,
html-keyboard-response,404,543835,0.0-15.0-0.73,6172a1d4cffa5162140cc8c2,64e77d7b61f440b60e28659d,64ecab53963bae2a49220d83,null,null,"<p style=""font-size: 60px; font-family: BACS"">DMRPRDM</p>",,,,,,,,,
html-keyboard-response,405,544845,0.0-15.0-0.74,6172a1d4cffa5162140cc8c2,64e77d7b61f440b60e28659d,64ecab53963bae2a49220d83,null,null,"<p style=""font-size: 60px; font-family: BACS"">DMRPRDM</p>",,,,,,,,,
html-keyboard-response,406,545853,0.0-15.0-0.75,6172a1d4cffa5162140cc8c2,64e77d7b61f440b60e28659d,64ecab53963bae2a49220d83,null,null,"<p style=""font-size: 60px; font-family: BACS"">DMRPRDM</p>",,,,,,,,,
html-keyboard-response,407,546866,0.0-15.0-0.76,6172a1d4cffa5162140cc8c2,64e77d7b61f440b60e28659d,64ecab53963bae2a49220d83,null,null,"<p style=""font-size: 60px; font-family: BACS"">DMRPRDM</p>",,,,,,,,,
html-keyboard-response,408,547872,0.0-15.0-0.77,6172a1d4cffa5162140cc8c2,64e77d7b61f440b60e28659d,64ecab53963bae2a49220d83,null,null,"<p style=""font-size: 60px; font-family: BACS"">DMRPRDM</p>",,,,,,,,,
html-keyboard-response,409,548876,0.0-15.0-0.78,6172a1d4cffa5162140cc8c2,64e77d7b61f440b60e28659d,64ecab53963bae2a49220d83,null,null,"<p style=""font-size: 60px; font-family: BACS"">DMRPRDM</p>",,,,,,,,,
html-keyboard-response,410,549881,0.0-15.0-0.79,6172a1d4cffa5162140cc8c2,64e77d7b61f440b60e28659d,64ecab53963bae2a49220d83,null,null,"<p style=""font-size: 60px; font-family: BACS"">DMRPRDM</p>",,,,,,,,,
html-keyboard-response,411,552143,0.0-16.0,6172a1d4cffa5162140cc8c2,64e77d7b61f440b60e28659d,64ecab53963bae2a49220d83,2261, ,"<p>Great, you've seen the fifth block of words. You may now take a short break.</p>
      <p>Press the spacebar when you're ready to continue.</p>",,,,,,,,,
html-keyboard-response,412,553156,0.0-17.0-0.0,6172a1d4cffa5162140cc8c2,64e77d7b61f440b60e28659d,64ecab53963bae2a49220d83,null,null,"<p style=""font-size: 60px; font-family: BACS"">UdumdbLd</p>",,,,,,,,,
html-keyboard-response,413,554170,0.0-17.0-0.1,6172a1d4cffa5162140cc8c2,64e77d7b61f440b60e28659d,64ecab53963bae2a49220d83,null,null,"<p style=""font-size: 60px; font-family: BACS"">mBYldBC</p>",,,,,,,,,
html-keyboard-response,414,555182,0.0-17.0-0.2,6172a1d4cffa5162140cc8c2,64e77d7b61f440b60e28659d,64ecab53963bae2a49220d83,null,null,"<p style=""font-size: 60px; font-family: BACS"">DOchlKlkD</p>",,,,,,,,,
html-keyboard-response,415,556194,0.0-17.0-0.3,6172a1d4cffa5162140cc8c2,64e77d7b61f440b60e28659d,64ecab53963bae2a49220d83,null,null,"<p style=""font-size: 60px; font-family: BACS"">bAdkRDM</p>",,,,,,,,,
html-keyboard-response,416,557201,0.0-17.0-0.4,6172a1d4cffa5162140cc8c2,64e77d7b61f440b60e28659d,64ecab53963bae2a49220d83,null,null,"<p style=""font-size: 60px; font-family: BACS"">QOLmuGlu</p>",,,,,,,,,
html-keyboard-response,417,558212,0.0-17.0-0.5,6172a1d4cffa5162140cc8c2,64e77d7b61f440b60e28659d,64ecab53963bae2a49220d83,null,null,"<p style=""font-size: 60px; font-family: BACS"">mBmlAKlkD</p>",,,,,,,,,
html-keyboard-response,418,559218,0.0-17.0-0.6,6172a1d4cffa5162140cc8c2,64e77d7b61f440b60e28659d,64ecab53963bae2a49220d83,null,null,"<p style=""font-size: 60px; font-family: BACS"">ldAakuvb</p>",,,,,,,,,
html-keyboard-response,419,560231,0.0-17.0-0.7,6172a1d4cffa5162140cc8c2,64e77d7b61f440b60e28659d,64ecab53963bae2a49220d83,null,null,"<p style=""font-size: 60px; font-family: BACS"">bAdkOdOP</p>",,,,,,,,,
html-keyboard-response,420,561258,0.0-17.0-0.8,6172a1d4cffa5162140cc8c2,64e77d7b61f440b60e28659d,64ecab53963bae2a49220d83,null,null,"<p style=""font-size: 60px; font-family: BACS"">amJmGlu</p>",,,,,,,,,
html-keyboard-response,421,562260,0.0-17.0-0.9,6172a1d4cffa5162140cc8c2,64e77d7b61f440b60e28659d,64ecab53963bae2a49220d83,null,null,"<p style=""font-size: 60px; font-family: BACS"">QOLmukuvb</p>",,,,,,,,,
html-keyboard-response,422,563288,0.0-17.0-0.10,6172a1d4cffa5162140cc8c2,64e77d7b61f440b60e28659d,64ecab53963bae2a49220d83,null,null,"<p style=""font-size: 60px; font-family: BACS"">UdbdbLd</p>",,,,,,,,,
html-keyboard-response,423,564295,0.0-17.0-0.11,6172a1d4cffa5162140cc8c2,64e77d7b61f440b60e28659d,64ecab53963bae2a49220d83,null,null,"<p style=""font-size: 60px; font-family: BACS"">BPAldBC</p>",,,,,,,,,
html-keyboard-response,424,565301,0.0-17.0-0.12,6172a1d4cffa5162140cc8c2,64e77d7b61f440b60e28659d,64ecab53963bae2a49220d83,null,null,"<p style=""font-size: 60px; font-family: BACS"">dmZvmGlu</p>",,,,,,,,,
html-keyboard-response,425,566316,0.0-17.0-0.13,6172a1d4cffa5162140cc8c2,64e77d7b61f440b60e28659d,64ecab53963bae2a49220d83,null,null,"<p style=""font-size: 60px; font-family: BACS"">dvNvAkuvb</p>",,,,,,,,,
html-keyboard-response,426,567335,0.0-17.0-0.14,6172a1d4cffa5162140cc8c2,64e77d7b61f440b60e28659d,64ecab53963bae2a49220d83,null,null,"<p style=""font-size: 60px; font-family: BACS"">DOchldBC</p>",,,,,,,,,
html-keyboard-response,427,568339,0.0-17.0-0.15,6172a1d4cffa5162140cc8c2,64e77d7b61f440b60e28659d,64ecab53963bae2a49220d83,null,null,"<p style=""font-size: 60px; font-family: BACS"">ldAavUdm</p>",,,,,,,,,
html-keyboard-response,428,569351,0.0-17.0-0.16,6172a1d4cffa5162140cc8c2,64e77d7b61f440b60e28659d,64ecab53963bae2a49220d83,null,null,"<p style=""font-size: 60px; font-family: BACS"">dvNvAGlu</p>",,,,,,,,,
html-keyboard-response,429,570369,0.0-17.0-0.17,6172a1d4cffa5162140cc8c2,64e77d7b61f440b60e28659d,64ecab53963bae2a49220d83,null,null,"<p style=""font-size: 60px; font-family: BACS"">UdbdrNlZ</p>",,,,,,,,,
html-keyboard-response,430,571385,0.0-17.0-0.18,6172a1d4cffa5162140cc8c2,64e77d7b61f440b60e28659d,64ecab53963bae2a49220d83,null,null,"<p style=""font-size: 60px; font-family: BACS"">BPAlRDM</p>",,,,,,,,,
html-keyboard-response,431,572392,0.0-17.0-0.19,6172a1d4cffa5162140cc8c2,64e77d7b61f440b60e28659d,64ecab53963bae2a49220d83,null,null,"<p style=""font-size: 60px; font-family: BACS"">ldAarNlZ</p>",,,,,,,,,
html-keyboard-response,432,573406,0.0-17.0-0.20,6172a1d4cffa5162140cc8c2,64e77d7b61f440b60e28659d,64ecab53963bae2a49220d83,null,null,"<p style=""font-size: 60px; font-family: BACS"">lbBDEOdOP</p>",,,,,,,,,
html-keyboard-response,433,574422,0.0-17.0-0.21,6172a1d4cffa5162140cc8c2,64e77d7b61f440b60e28659d,64ecab53963bae2a49220d83,null,null,"<p style=""font-size: 60px; font-family: BACS"">dvNvAvUdm</p>",,,,,,,,,
html-keyboard-response,434,575431,0.0-17.0-0.22,6172a1d4cffa5162140cc8c2,64e77d7b61f440b60e28659d,64ecab53963bae2a49220d83,null,null,"<p style=""font-size: 60px; font-family: BACS"">mBmlAOdOP</p>",,,,,,,,,
html-keyboard-response,435,576441,0.0-17.0-0.23,6172a1d4cffa5162140cc8c2,64e77d7b61f440b60e28659d,64ecab53963bae2a49220d83,null,null,"<p style=""font-size: 60px; font-family: BACS"">UdumdGlu</p>",,,,,,,,,
html-keyboard-response,436,577449,0.0-17.0-0.24,6172a1d4cffa5162140cc8c2,64e77d7b61f440b60e28659d,64ecab53963bae2a49220d83,null,null,"<p style=""font-size: 60px; font-family: BACS"">DMRPRdCc</p>",,,,,,,,,
html-keyboard-response,437,578451,0.0-17.0-0.25,6172a1d4cffa5162140cc8c2,64e77d7b61f440b60e28659d,64ecab53963bae2a49220d83,null,null,"<p style=""font-size: 60px; font-family: BACS"">QOLmuvUdm</p>",,,,,,,,,
html-keyboard-response,438,579458,0.0-17.0-0.26,6172a1d4cffa5162140cc8c2,64e77d7b61f440b60e28659d,64ecab53963bae2a49220d83,null,null,"<p style=""font-size: 60px; font-family: BACS"">TdTDOdOP</p>",,,,,,,,,
html-keyboard-response,439,580461,0.0-17.0-0.27,6172a1d4cffa5162140cc8c2,64e77d7b61f440b60e28659d,64ecab53963bae2a49220d83,null,null,"<p style=""font-size: 60px; font-family: BACS"">UdumdrNlZ</p>",,,,,,,,,
html-keyboard-response,440,581470,0.0-17.0-0.28,6172a1d4cffa5162140cc8c2,64e77d7b61f440b60e28659d,64ecab53963bae2a49220d83,null,null,"<p style=""font-size: 60px; font-family: BACS"">rvOvUvUdm</p>",,,,,,,,,
html-keyboard-response,441,582485,0.0-17.0-0.29,6172a1d4cffa5162140cc8c2,64e77d7b61f440b60e28659d,64ecab53963bae2a49220d83,null,null,"<p style=""font-size: 60px; font-family: BACS"">kcCRtRDM</p>",,,,,,,,,
html-keyboard-response,442,583490,0.0-17.0-0.30,6172a1d4cffa5162140cc8c2,64e77d7b61f440b60e28659d,64ecab53963bae2a49220d83,null,null,"<p style=""font-size: 60px; font-family: BACS"">rvOvUrNlZ</p>",,,,,,,,,
html-keyboard-response,443,584495,0.0-17.0-0.31,6172a1d4cffa5162140cc8c2,64e77d7b61f440b60e28659d,64ecab53963bae2a49220d83,null,null,"<p style=""font-size: 60px; font-family: BACS"">TdTDRDM</p>",,,,,,,,,
html-keyboard-response,444,585513,0.0-17.0-0.32,6172a1d4cffa5162140cc8c2,64e77d7b61f440b60e28659d,64ecab53963bae2a49220d83,null,null,"<p style=""font-size: 60px; font-family: BACS"">lbBDERdCc</p>",,,,,,,,,
html-keyboard-response,445,586520,0.0-17.0-0.33,6172a1d4cffa5162140cc8c2,64e77d7b61f440b60e28659d,64ecab53963bae2a49220d83,null,null,"<p style=""font-size: 60px; font-family: BACS"">dmZvmvUdm</p>",,,,,,,,,
html-keyboard-response,446,587537,0.0-17.0-0.34,6172a1d4cffa5162140cc8c2,64e77d7b61f440b60e28659d,64ecab53963bae2a49220d83,null,null,"<p style=""font-size: 60px; font-family: BACS"">dvNvAbLd</p>",,,,,,,,,
html-keyboard-response,447,588541,0.0-17.0-0.35,6172a1d4cffa5162140cc8c2,64e77d7b61f440b60e28659d,64ecab53963bae2a49220d83,null,null,"<p style=""font-size: 60px; font-family: BACS"">kcCRtKlkD</p>",,,,,,,,,
html-keyboard-response,448,589545,0.0-17.0-0.36,6172a1d4cffa5162140cc8c2,64e77d7b61f440b60e28659d,64ecab53963bae2a49220d83,null,null,"<p style=""font-size: 60px; font-family: BACS"">mBYlOdOP</p>",,,,,,,,,
html-keyboard-response,449,590557,0.0-17.0-0.37,6172a1d4cffa5162140cc8c2,64e77d7b61f440b60e28659d,64ecab53963bae2a49220d83,null,null,"<p style=""font-size: 60px; font-family: BACS"">NJZlGlu</p>",,,,,,,,,
html-keyboard-response,450,591573,0.0-17.0-0.38,6172a1d4cffa5162140cc8c2,64e77d7b61f440b60e28659d,64ecab53963bae2a49220d83,null,null,"<p style=""font-size: 60px; font-family: BACS"">DMRPRDM</p>",,,,,,,,,
html-keyboard-response,451,592583,0.0-17.0-0.39,6172a1d4cffa5162140cc8c2,64e77d7b61f440b60e28659d,64ecab53963bae2a49220d83,null,null,"<p style=""font-size: 60px; font-family: BACS"">mBmlARdCc</p>",,,,,,,,,
html-keyboard-response,452,593595,0.0-17.0-0.40,6172a1d4cffa5162140cc8c2,64e77d7b61f440b60e28659d,64ecab53963bae2a49220d83,null,null,"<p style=""font-size: 60px; font-family: BACS"">UmNJbLd</p>",,,,,,,,,
html-keyboard-response,453,594612,0.0-17.0-0.41,6172a1d4cffa5162140cc8c2,64e77d7b61f440b60e28659d,64ecab53963bae2a49220d83,null,null,"<p style=""font-size: 60px; font-family: BACS"">NJZlrNlZ</p>",,,,,,,,,
html-keyboard-response,454,595617,0.0-17.0-0.42,6172a1d4cffa5162140cc8c2,64e77d7b61f440b60e28659d,64ecab53963bae2a49220d83,null,null,"<p style=""font-size: 60px; font-family: BACS"">rvOvUGlu</p>",,,,,,,,,
html-keyboard-response,455,596630,0.0-17.0-0.43,6172a1d4cffa5162140cc8c2,64e77d7b61f440b60e28659d,64ecab53963bae2a49220d83,null,null,"<p style=""font-size: 60px; font-family: BACS"">DMRPdBC</p>",,,,,,,,,
html-keyboard-response,456,597631,0.0-17.0-0.44,6172a1d4cffa5162140cc8c2,64e77d7b61f440b60e28659d,64ecab53963bae2a49220d83,null,null,"<p style=""font-size: 60px; font-family: BACS"">dKDthRDM</p>",,,,,,,,,
html-keyboard-response,457,598633,0.0-17.0-0.45,6172a1d4cffa5162140cc8c2,64e77d7b61f440b60e28659d,64ecab53963bae2a49220d83,null,null,"<p style=""font-size: 60px; font-family: BACS"">NJZlkuvb</p>",,,,,,,,,
html-keyboard-response,458,599642,0.0-17.0-0.46,6172a1d4cffa5162140cc8c2,64e77d7b61f440b60e28659d,64ecab53963bae2a49220d83,null,null,"<p style=""font-size: 60px; font-family: BACS"">DOchlRDM</p>",,,,,,,,,
html-keyboard-response,459,600646,0.0-17.0-0.47,6172a1d4cffa5162140cc8c2,64e77d7b61f440b60e28659d,64ecab53963bae2a49220d83,null,null,"<p style=""font-size: 60px; font-family: BACS"">DMRPKlkD</p>",,,,,,,,,
html-keyboard-response,460,601648,0.0-17.0-0.48,6172a1d4cffa5162140cc8c2,64e77d7b61f440b60e28659d,64ecab53963bae2a49220d83,null,null,"<p style=""font-size: 60px; font-family: BACS"">NJZlbLd</p>",,,,,,,,,
html-keyboard-response,461,602663,0.0-17.0-0.49,6172a1d4cffa5162140cc8c2,64e77d7b61f440b60e28659d,64ecab53963bae2a49220d83,null,null,"<p style=""font-size: 60px; font-family: BACS"">QOLmurNlZ</p>",,,,,,,,,
html-keyboard-response,462,603670,0.0-17.0-0.50,6172a1d4cffa5162140cc8c2,64e77d7b61f440b60e28659d,64ecab53963bae2a49220d83,null,null,"<p style=""font-size: 60px; font-family: BACS"">BPAlKlkD</p>",,,,,,,,,
html-keyboard-response,463,604682,0.0-17.0-0.51,6172a1d4cffa5162140cc8c2,64e77d7b61f440b60e28659d,64ecab53963bae2a49220d83,null,null,"<p style=""font-size: 60px; font-family: BACS"">dmZvmbLd</p>",,,,,,,,,
html-keyboard-response,464,605685,0.0-17.0-0.52,6172a1d4cffa5162140cc8c2,64e77d7b61f440b60e28659d,64ecab53963bae2a49220d83,null,null,"<p style=""font-size: 60px; font-family: BACS"">TdTDRdCc</p>",,,,,,,,,
html-keyboard-response,465,606690,0.0-17.0-0.53,6172a1d4cffa5162140cc8c2,64e77d7b61f440b60e28659d,64ecab53963bae2a49220d83,null,null,"<p style=""font-size: 60px; font-family: BACS"">UmNJrNlZ</p>",,,,,,,,,
html-keyboard-response,466,607707,0.0-17.0-0.54,6172a1d4cffa5162140cc8c2,64e77d7b61f440b60e28659d,64ecab53963bae2a49220d83,null,null,"<p style=""font-size: 60px; font-family: BACS"">dKDthdBC</p>",,,,,,,,,
html-keyboard-response,467,608710,0.0-17.0-0.55,6172a1d4cffa5162140cc8c2,64e77d7b61f440b60e28659d,64ecab53963bae2a49220d83,null,null,"<p style=""font-size: 60px; font-family: BACS"">UdbdvUdm</p>",,,,,,,,,
html-keyboard-response,468,609723,0.0-17.0-0.56,6172a1d4cffa5162140cc8c2,64e77d7b61f440b60e28659d,64ecab53963bae2a49220d83,null,null,"<p style=""font-size: 60px; font-family: BACS"">lbBDEKlkD</p>",,,,,,,,,
html-keyboard-response,469,610735,0.0-17.0-0.57,6172a1d4cffa5162140cc8c2,64e77d7b61f440b60e28659d,64ecab53963bae2a49220d83,null,null,"<p style=""font-size: 60px; font-family: BACS"">mBYlRdCc</p>",,,,,,,,,
html-keyboard-response,470,611748,0.0-17.0-0.58,6172a1d4cffa5162140cc8c2,64e77d7b61f440b60e28659d,64ecab53963bae2a49220d83,null,null,"<p style=""font-size: 60px; font-family: BACS"">Udbdkuvb</p>",,,,,,,,,
