"trial_type","trial_index","time_elapsed","internal_node_id","subject_id","study_id","session_id","rt","response","stimulus","success","item","task","correct_response","testing_condition","correct","target","confound","name"
"pavlovia","0","794","0.0-0.0","6155e204cc071b306458dfff","650c16f0f2faf8d7a0d14c09","651c1daac42b120c3361d431","","","","","","","","","","","",""
"survey-html-form","1","5601","0.0-1.0","6155e204cc071b306458dfff","650c16f0f2faf8d7a0d14c09","651c1daac42b120c3361d431","4806","{""ID"":""6155e204cc071b306458dfff""}","","","","","","","","","",""
"html-keyboard-response","2","24199","0.0-2.0","6155e204cc071b306458dfff","650c16f0f2faf8d7a0d14c09","651c1daac42b120c3361d431","18598"," ","<p style=""font-size: 15px;"">Before beginning, we ask that you read the consent information and confirm your agreement to participate in the experiment.</p>
      <p style=""font-size: 15px;""> We ask that you remember that this is a research project and that your participation is entirely voluntary. You can stop your participation at any time, without needing to provide any explanation. The study we're asking you to participate in aims at examining how readers process written words. You will be engaged in a session of apprximately 20 minutes, followed by a brief questionnaire. You will have the opportunity to take a few breaks during the experiment. You will be paid £4 for your participation, corresponding to a rate of £8/hour. While this experiment looks at cognitive faculties, this experiment doesn't constitute clinical proof of eventual pathologies.</p>
      <p style=""font-size: 15px;"">All of the information collected thanks to yours and others' participation will be held in a secure password-protected server, and will not be shared with anyone not authorised to view it. Your personal information will be kept with an arbitrary participant ID. Thanks to this data anonymity process, any researcher analysing the data won't be able to track the information back to a specific participant. Therefore, this process will make identifying you impossibile, even when results from the study will be published in scientific reviews, presented at congresses, or at any other public forum. More generally, the collected data will be treated in accordance with the laws on privacy and conformity to the Legislative Degree n. 196 ""Code regarding the protection of personal data"" of the 30th of June 2003 and to the European Regulation 2016/670 (General Data Protection Regulation - GDPR). The Data Protection Officer is Avv. Valentina Carollo, who can be contacted at the following email addresses: <a href=""mailto:dpo@sissa.it"">dpo@sissa.it</a> or <a href=""mailto:rpd@sissa.it"">rpd@sissa.it</a> - PEC: <a href=""mailto:protocollo@pec.sissa.it"">protocollo@pec.sissa.it</a>.</p>
      <p style=""font-size: 15px;""> Before expressing your consent to participate, we would like to remind you again that in case you need explanations on any aspect of the experimental procedure, the researcher is at your disposition (<a href=""mailto:aliebelt@sissa.it"">aliebelt@sissa.it</a>, <a href=""mailto:davide.crepaldi@sissa.it"">davide.crepaldi@sissa.it</a>).</p>
      <p style=""font-size: 15px;"">If you would like to download the informed consent form, you can do so here: <a href=""BASL-Informed_Consent.pdf"" download>informed consent form</a>.</p>
      <p style=""font-size: 15px;"">We ask that you press the spacebar to proceed to the consent section.</p>","","","","","","","","",""
"survey-html-form","3","34849","0.0-3.0","6155e204cc071b306458dfff","650c16f0f2faf8d7a0d14c09","651c1daac42b120c3361d431","10648","{""consent1"":""YES"",""consent2"":""YES"",""consent3"":""YES"",""consent4"":""YES"",""consent5"":""YES"",""consent6"":""YES""}","","","","","","","","","",""
"fullscreen","4","37959","0.0-4.0","6155e204cc071b306458dfff","650c16f0f2faf8d7a0d14c09","651c1daac42b120c3361d431","","","","true","","","","","","","",""
"html-keyboard-response","5","49121","0.0-5.0","6155e204cc071b306458dfff","650c16f0f2faf8d7a0d14c09","651c1daac42b120c3361d431","11160"," ","<p>Welcome, and thank you very much for your time!</p>
      <p>In this experiment, you'll be a language expert who's been asked to take a look at words that Earth has received in its first communication with aliens. Your task, in this first part of the experiment, is to pay close attention to the words you'll be shown; later, world leaders will ask you questions on what you saw. The words will be shown to you quite quickly; it seems that the aliens were in a hurry :-)</p>
      <p>Press the spacebar to continue.<p>","","","","","","","","",""
"html-keyboard-response","6","49175","0.0-6.0","6155e204cc071b306458dfff","650c16f0f2faf8d7a0d14c09","651c1daac42b120c3361d431","null","null","<p style=""font-size: 120px; font-family: BACS""> </p>","","","","","","","","",""
"html-keyboard-response","7","76017","0.0-7.0","6155e204cc071b306458dfff","650c16f0f2faf8d7a0d14c09","651c1daac42b120c3361d431","26841"," ","<p>Here is an example of the words you'll see:</p>
      <img src='esempio.png' height='400px'>
      <p>When you're ready to begin, press the spacebar.</p></div>","","","","","","","","",""
"html-keyboard-response","8","77021","0.0-8.0-0.0","6155e204cc071b306458dfff","650c16f0f2faf8d7a0d14c09","651c1daac42b120c3361d431","null","null","<p style=""font-size: 60px; font-family: BACS"">YObADOk</p>","","","","","","","","",""
"html-keyboard-response","9","78052","0.0-8.0-0.1","6155e204cc071b306458dfff","650c16f0f2faf8d7a0d14c09","651c1daac42b120c3361d431","null","null","<p style=""font-size: 60px; font-family: BACS"">ZvalvkYL</p>","","","","","","","","",""
"html-keyboard-response","10","79065","0.0-8.0-0.2","6155e204cc071b306458dfff","650c16f0f2faf8d7a0d14c09","651c1daac42b120c3361d431","null","null","<p style=""font-size: 60px; font-family: BACS"">COTKDOk</p>","","","","","","","","",""
"html-keyboard-response","11","80066","0.0-8.0-0.3","6155e204cc071b306458dfff","650c16f0f2faf8d7a0d14c09","651c1daac42b120c3361d431","null","null","<p style=""font-size: 60px; font-family: BACS"">kulZkYL</p>","","","","","","","","",""
"html-keyboard-response","12","81080","0.0-8.0-0.4","6155e204cc071b306458dfff","650c16f0f2faf8d7a0d14c09","651c1daac42b120c3361d431","null","null","<p style=""font-size: 60px; font-family: BACS"">ubALmQvlZ</p>","","","","","","","","",""
"html-keyboard-response","13","82094","0.0-8.0-0.5","6155e204cc071b306458dfff","650c16f0f2faf8d7a0d14c09","651c1daac42b120c3361d431","null","null","<p style=""font-size: 60px; font-family: BACS"">EMbDPTRkY</p>","","","","","","","","",""
"html-keyboard-response","14","83125","0.0-8.0-0.6","6155e204cc071b306458dfff","650c16f0f2faf8d7a0d14c09","651c1daac42b120c3361d431","null","null","<p style=""font-size: 60px; font-family: BACS"">GLYrAGrub</p>","","","","","","","","",""
"html-keyboard-response","15","84128","0.0-8.0-0.7","6155e204cc071b306458dfff","650c16f0f2faf8d7a0d14c09","651c1daac42b120c3361d431","null","null","<p style=""font-size: 60px; font-family: BACS"">rkYLrAJu</p>","","","","","","","","",""
"html-keyboard-response","16","85129","0.0-8.0-0.8","6155e204cc071b306458dfff","650c16f0f2faf8d7a0d14c09","651c1daac42b120c3361d431","null","null","<p style=""font-size: 60px; font-family: BACS"">PctRCTRkY</p>","","","","","","","","",""
"html-keyboard-response","17","86141","0.0-8.0-0.9","6155e204cc071b306458dfff","650c16f0f2faf8d7a0d14c09","651c1daac42b120c3361d431","null","null","<p style=""font-size: 60px; font-family: BACS"">YObAYbBT</p>","","","","","","","","",""
"html-keyboard-response","18","87142","0.0-8.0-0.10","6155e204cc071b306458dfff","650c16f0f2faf8d7a0d14c09","651c1daac42b120c3361d431","null","null","<p style=""font-size: 60px; font-family: BACS"">Udumdkuvb</p>","","","","","","","","",""
"html-keyboard-response","19","88176","0.0-8.0-0.11","6155e204cc071b306458dfff","650c16f0f2faf8d7a0d14c09","651c1daac42b120c3361d431","null","null","<p style=""font-size: 60px; font-family: BACS"">ZvalvGrub</p>","","","","","","","","",""
"html-keyboard-response","20","89177","0.0-8.0-0.12","6155e204cc071b306458dfff","650c16f0f2faf8d7a0d14c09","651c1daac42b120c3361d431","null","null","<p style=""font-size: 60px; font-family: BACS"">PctRCmhc</p>","","","","","","","","",""
"html-keyboard-response","21","90191","0.0-8.0-0.13","6155e204cc071b306458dfff","650c16f0f2faf8d7a0d14c09","651c1daac42b120c3361d431","null","null","<p style=""font-size: 60px; font-family: BACS"">MDKPkKE</p>","","","","","","","","",""
"html-keyboard-response","22","91205","0.0-8.0-0.14","6155e204cc071b306458dfff","650c16f0f2faf8d7a0d14c09","651c1daac42b120c3361d431","null","null","<p style=""font-size: 60px; font-family: BACS"">kulZkuvb</p>","","","","","","","","",""
"html-keyboard-response","23","92221","0.0-8.0-0.15","6155e204cc071b306458dfff","650c16f0f2faf8d7a0d14c09","651c1daac42b120c3361d431","null","null","<p style=""font-size: 60px; font-family: BACS"">ubALmrAJu</p>","","","","","","","","",""
"html-keyboard-response","24","93251","0.0-8.0-0.16","6155e204cc071b306458dfff","650c16f0f2faf8d7a0d14c09","651c1daac42b120c3361d431","null","null","<p style=""font-size: 60px; font-family: BACS"">uvaUkYL</p>","","","","","","","","",""
"html-keyboard-response","25","94252","0.0-8.0-0.17","6155e204cc071b306458dfff","650c16f0f2faf8d7a0d14c09","651c1daac42b120c3361d431","null","null","<p style=""font-size: 60px; font-family: BACS"">ktBdTRkY</p>","","","","","","","","",""
"html-keyboard-response","26","95252","0.0-8.0-0.18","6155e204cc071b306458dfff","650c16f0f2faf8d7a0d14c09","651c1daac42b120c3361d431","null","null","<p style=""font-size: 60px; font-family: BACS"">NJZlGrub</p>","","","","","","","","",""
"html-keyboard-response","27","96265","0.0-8.0-0.19","6155e204cc071b306458dfff","650c16f0f2faf8d7a0d14c09","651c1daac42b120c3361d431","null","null","<p style=""font-size: 60px; font-family: BACS"">hTtBbYbBT</p>","","","","","","","","",""
"html-keyboard-response","28","97268","0.0-8.0-0.20","6155e204cc071b306458dfff","650c16f0f2faf8d7a0d14c09","651c1daac42b120c3361d431","null","null","<p style=""font-size: 60px; font-family: BACS"">COTKkKE</p>","","","","","","","","",""
"html-keyboard-response","29","98297","0.0-8.0-0.21","6155e204cc071b306458dfff","650c16f0f2faf8d7a0d14c09","651c1daac42b120c3361d431","null","null","<p style=""font-size: 60px; font-family: BACS"">advYOrAJu</p>","","","","","","","","",""
"html-keyboard-response","30","99302","0.0-8.0-0.22","6155e204cc071b306458dfff","650c16f0f2faf8d7a0d14c09","651c1daac42b120c3361d431","null","null","<p style=""font-size: 60px; font-family: BACS"">kZUbkYL</p>","","","","","","","","",""
"html-keyboard-response","31","100304","0.0-8.0-0.23","6155e204cc071b306458dfff","650c16f0f2faf8d7a0d14c09","651c1daac42b120c3361d431","null","null","<p style=""font-size: 60px; font-family: BACS"">ktBdYbBT</p>","","","","","","","","",""
"html-keyboard-response","32","101320","0.0-8.0-0.24","6155e204cc071b306458dfff","650c16f0f2faf8d7a0d14c09","651c1daac42b120c3361d431","null","null","<p style=""font-size: 60px; font-family: BACS"">UdumdrAJu</p>","","","","","","","","",""
"html-keyboard-response","33","102320","0.0-8.0-0.25","6155e204cc071b306458dfff","650c16f0f2faf8d7a0d14c09","651c1daac42b120c3361d431","null","null","<p style=""font-size: 60px; font-family: BACS"">ubALmkuvb</p>","","","","","","","","",""
"html-keyboard-response","34","103335","0.0-8.0-0.26","6155e204cc071b306458dfff","650c16f0f2faf8d7a0d14c09","651c1daac42b120c3361d431","null","null","<p style=""font-size: 60px; font-family: BACS"">MDKPDOk</p>","","","","","","","","",""
"html-keyboard-response","35","104346","0.0-8.0-0.27","6155e204cc071b306458dfff","650c16f0f2faf8d7a0d14c09","651c1daac42b120c3361d431","null","null","<p style=""font-size: 60px; font-family: BACS"">chAhTRkY</p>","","","","","","","","",""
"html-keyboard-response","36","105360","0.0-8.0-0.28","6155e204cc071b306458dfff","650c16f0f2faf8d7a0d14c09","651c1daac42b120c3361d431","null","null","<p style=""font-size: 60px; font-family: BACS"">ubALmkYL</p>","","","","","","","","",""
"html-keyboard-response","37","106361","0.0-8.0-0.29","6155e204cc071b306458dfff","650c16f0f2faf8d7a0d14c09","651c1daac42b120c3361d431","null","null","<p style=""font-size: 60px; font-family: BACS"">kZUbkuvb</p>","","","","","","","","",""
"html-keyboard-response","38","107374","0.0-8.0-0.30","6155e204cc071b306458dfff","650c16f0f2faf8d7a0d14c09","651c1daac42b120c3361d431","null","null","<p style=""font-size: 60px; font-family: BACS"">hTtBbDOk</p>","","","","","","","","",""
"html-keyboard-response","39","108377","0.0-8.0-0.31","6155e204cc071b306458dfff","650c16f0f2faf8d7a0d14c09","651c1daac42b120c3361d431","null","null","<p style=""font-size: 60px; font-family: BACS"">kulZGrub</p>","","","","","","","","",""
"html-keyboard-response","40","109388","0.0-8.0-0.32","6155e204cc071b306458dfff","650c16f0f2faf8d7a0d14c09","651c1daac42b120c3361d431","null","null","<p style=""font-size: 60px; font-family: BACS"">chAhDOk</p>","","","","","","","","",""
"html-keyboard-response","41","110391","0.0-8.0-0.33","6155e204cc071b306458dfff","650c16f0f2faf8d7a0d14c09","651c1daac42b120c3361d431","null","null","<p style=""font-size: 60px; font-family: BACS"">KTDTBYbBT</p>","","","","","","","","",""
"html-keyboard-response","42","111392","0.0-8.0-0.34","6155e204cc071b306458dfff","650c16f0f2faf8d7a0d14c09","651c1daac42b120c3361d431","null","null","<p style=""font-size: 60px; font-family: BACS"">kcCRtmhc</p>","","","","","","","","",""
"html-keyboard-response","43","112403","0.0-8.0-0.35","6155e204cc071b306458dfff","650c16f0f2faf8d7a0d14c09","651c1daac42b120c3361d431","null","null","<p style=""font-size: 60px; font-family: BACS"">uvaUQvlZ</p>","","","","","","","","",""
"html-keyboard-response","44","113415","0.0-8.0-0.36","6155e204cc071b306458dfff","650c16f0f2faf8d7a0d14c09","651c1daac42b120c3361d431","null","null","<p style=""font-size: 60px; font-family: BACS"">YObAkKE</p>","","","","","","","","",""
"html-keyboard-response","45","114430","0.0-8.0-0.37","6155e204cc071b306458dfff","650c16f0f2faf8d7a0d14c09","651c1daac42b120c3361d431","null","null","<p style=""font-size: 60px; font-family: BACS"">advYOGrub</p>","","","","","","","","",""
"html-keyboard-response","46","115430","0.0-8.0-0.38","6155e204cc071b306458dfff","650c16f0f2faf8d7a0d14c09","651c1daac42b120c3361d431","null","null","<p style=""font-size: 60px; font-family: BACS"">EMbDPDOk</p>","","","","","","","","",""
"html-keyboard-response","47","116433","0.0-8.0-0.39","6155e204cc071b306458dfff","650c16f0f2faf8d7a0d14c09","651c1daac42b120c3361d431","null","null","<p style=""font-size: 60px; font-family: BACS"">UdumdkYL</p>","","","","","","","","",""
"html-keyboard-response","48","117434","0.0-8.0-0.40","6155e204cc071b306458dfff","650c16f0f2faf8d7a0d14c09","651c1daac42b120c3361d431","null","null","<p style=""font-size: 60px; font-family: BACS"">KTDTBmhc</p>","","","","","","","","",""
"html-keyboard-response","49","118444","0.0-8.0-0.41","6155e204cc071b306458dfff","650c16f0f2faf8d7a0d14c09","651c1daac42b120c3361d431","null","null","<p style=""font-size: 60px; font-family: BACS"">hTtBbkKE</p>","","","","","","","","",""
"html-keyboard-response","50","119458","0.0-8.0-0.42","6155e204cc071b306458dfff","650c16f0f2faf8d7a0d14c09","651c1daac42b120c3361d431","null","null","<p style=""font-size: 60px; font-family: BACS"">KTDTBTRkY</p>","","","","","","","","",""
"html-keyboard-response","51","120462","0.0-8.0-0.43","6155e204cc071b306458dfff","650c16f0f2faf8d7a0d14c09","651c1daac42b120c3361d431","null","null","<p style=""font-size: 60px; font-family: BACS"">kulZrAJu</p>","","","","","","","","",""
"html-keyboard-response","52","121462","0.0-8.0-0.44","6155e204cc071b306458dfff","650c16f0f2faf8d7a0d14c09","651c1daac42b120c3361d431","null","null","<p style=""font-size: 60px; font-family: BACS"">chAhYbBT</p>","","","","","","","","",""
"html-keyboard-response","53","122463","0.0-8.0-0.45","6155e204cc071b306458dfff","650c16f0f2faf8d7a0d14c09","651c1daac42b120c3361d431","null","null","<p style=""font-size: 60px; font-family: BACS"">EMbDPkKE</p>","","","","","","","","",""
"html-keyboard-response","54","123478","0.0-8.0-0.46","6155e204cc071b306458dfff","650c16f0f2faf8d7a0d14c09","651c1daac42b120c3361d431","null","null","<p style=""font-size: 60px; font-family: BACS"">PctRCYbBT</p>","","","","","","","","",""
"html-keyboard-response","55","124491","0.0-8.0-0.47","6155e204cc071b306458dfff","650c16f0f2faf8d7a0d14c09","651c1daac42b120c3361d431","null","null","<p style=""font-size: 60px; font-family: BACS"">advYOkuvb</p>","","","","","","","","",""
"html-keyboard-response","56","125504","0.0-8.0-0.48","6155e204cc071b306458dfff","650c16f0f2faf8d7a0d14c09","651c1daac42b120c3361d431","null","null","<p style=""font-size: 60px; font-family: BACS"">UdumdQvlZ</p>","","","","","","","","",""
"html-keyboard-response","57","126516","0.0-8.0-0.49","6155e204cc071b306458dfff","650c16f0f2faf8d7a0d14c09","651c1daac42b120c3361d431","null","null","<p style=""font-size: 60px; font-family: BACS"">kZUbGrub</p>","","","","","","","","",""
"html-keyboard-response","58","127522","0.0-8.0-0.50","6155e204cc071b306458dfff","650c16f0f2faf8d7a0d14c09","651c1daac42b120c3361d431","null","null","<p style=""font-size: 60px; font-family: BACS"">ZvalvQvlZ</p>","","","","","","","","",""
"html-keyboard-response","59","128537","0.0-8.0-0.51","6155e204cc071b306458dfff","650c16f0f2faf8d7a0d14c09","651c1daac42b120c3361d431","null","null","<p style=""font-size: 60px; font-family: BACS"">kcCRtYbBT</p>","","","","","","","","",""
"html-keyboard-response","60","129537","0.0-8.0-0.52","6155e204cc071b306458dfff","650c16f0f2faf8d7a0d14c09","651c1daac42b120c3361d431","null","null","<p style=""font-size: 60px; font-family: BACS"">rkYLGrub</p>","","","","","","","","",""
"html-keyboard-response","61","130537","0.0-8.0-0.53","6155e204cc071b306458dfff","650c16f0f2faf8d7a0d14c09","651c1daac42b120c3361d431","null","null","<p style=""font-size: 60px; font-family: BACS"">GLYrArAJu</p>","","","","","","","","",""
"html-keyboard-response","62","131540","0.0-8.0-0.54","6155e204cc071b306458dfff","650c16f0f2faf8d7a0d14c09","651c1daac42b120c3361d431","null","null","<p style=""font-size: 60px; font-family: BACS"">hTtBbTRkY</p>","","","","","","","","",""
"html-keyboard-response","63","132541","0.0-8.0-0.55","6155e204cc071b306458dfff","650c16f0f2faf8d7a0d14c09","651c1daac42b120c3361d431","null","null","<p style=""font-size: 60px; font-family: BACS"">chAhmhc</p>","","","","","","","","",""
"html-keyboard-response","64","133556","0.0-8.0-0.56","6155e204cc071b306458dfff","650c16f0f2faf8d7a0d14c09","651c1daac42b120c3361d431","null","null","<p style=""font-size: 60px; font-family: BACS"">uvaUGrub</p>","","","","","","","","",""
"html-keyboard-response","65","134571","0.0-8.0-0.57","6155e204cc071b306458dfff","650c16f0f2faf8d7a0d14c09","651c1daac42b120c3361d431","null","null","<p style=""font-size: 60px; font-family: BACS"">GLYrAkuvb</p>","","","","","","","","",""
"html-keyboard-response","66","135584","0.0-8.0-0.58","6155e204cc071b306458dfff","650c16f0f2faf8d7a0d14c09","651c1daac42b120c3361d431","null","null","<p style=""font-size: 60px; font-family: BACS"">NJZlrAJu</p>","","","","","","","","",""
"html-keyboard-response","67","136599","0.0-8.0-0.59","6155e204cc071b306458dfff","650c16f0f2faf8d7a0d14c09","651c1daac42b120c3361d431","null","null","<p style=""font-size: 60px; font-family: BACS"">KTDTBDOk</p>","","","","","","","","",""
"html-keyboard-response","68","137602","0.0-8.0-0.60","6155e204cc071b306458dfff","650c16f0f2faf8d7a0d14c09","651c1daac42b120c3361d431","null","null","<p style=""font-size: 60px; font-family: BACS"">rkYLkYL</p>","","","","","","","","",""
"html-keyboard-response","69","138614","0.0-8.0-0.61","6155e204cc071b306458dfff","650c16f0f2faf8d7a0d14c09","651c1daac42b120c3361d431","null","null","<p style=""font-size: 60px; font-family: BACS"">MDKPmhc</p>","","","","","","","","",""
"html-keyboard-response","70","139623","0.0-8.0-0.62","6155e204cc071b306458dfff","650c16f0f2faf8d7a0d14c09","651c1daac42b120c3361d431","null","null","<p style=""font-size: 60px; font-family: BACS"">ktBdkKE</p>","","","","","","","","",""
"html-keyboard-response","71","140631","0.0-8.0-0.63","6155e204cc071b306458dfff","650c16f0f2faf8d7a0d14c09","651c1daac42b120c3361d431","null","null","<p style=""font-size: 60px; font-family: BACS"">uvaUkuvb</p>","","","","","","","","",""
"html-keyboard-response","72","141632","0.0-8.0-0.64","6155e204cc071b306458dfff","650c16f0f2faf8d7a0d14c09","651c1daac42b120c3361d431","null","null","<p style=""font-size: 60px; font-family: BACS"">MDKPTRkY</p>","","","","","","","","",""
"html-keyboard-response","73","142644","0.0-8.0-0.65","6155e204cc071b306458dfff","650c16f0f2faf8d7a0d14c09","651c1daac42b120c3361d431","null","null","<p style=""font-size: 60px; font-family: BACS"">ZvalvrAJu</p>","","","","","","","","",""
"html-keyboard-response","74","143648","0.0-8.0-0.66","6155e204cc071b306458dfff","650c16f0f2faf8d7a0d14c09","651c1daac42b120c3361d431","null","null","<p style=""font-size: 60px; font-family: BACS"">YObAmhc</p>","","","","","","","","",""
"html-keyboard-response","75","144649","0.0-8.0-0.67","6155e204cc071b306458dfff","650c16f0f2faf8d7a0d14c09","651c1daac42b120c3361d431","null","null","<p style=""font-size: 60px; font-family: BACS"">kcCRtDOk</p>","","","","","","","","",""
"html-keyboard-response","76","145649","0.0-8.0-0.68","6155e204cc071b306458dfff","650c16f0f2faf8d7a0d14c09","651c1daac42b120c3361d431","null","null","<p style=""font-size: 60px; font-family: BACS"">kZUbQvlZ</p>","","","","","","","","",""
"html-keyboard-response","77","146663","0.0-8.0-0.69","6155e204cc071b306458dfff","650c16f0f2faf8d7a0d14c09","651c1daac42b120c3361d431","null","null","<p style=""font-size: 60px; font-family: BACS"">EMbDPmhc</p>","","","","","","","","",""
"html-keyboard-response","78","147665","0.0-8.0-0.70","6155e204cc071b306458dfff","650c16f0f2faf8d7a0d14c09","651c1daac42b120c3361d431","null","null","<p style=""font-size: 60px; font-family: BACS"">NJZlkuvb</p>","","","","","","","","",""
"html-keyboard-response","79","148678","0.0-8.0-0.71","6155e204cc071b306458dfff","650c16f0f2faf8d7a0d14c09","651c1daac42b120c3361d431","null","null","<p style=""font-size: 60px; font-family: BACS"">COTKTRkY</p>","","","","","","","","",""
"html-keyboard-response","80","149709","0.0-8.0-0.72","6155e204cc071b306458dfff","650c16f0f2faf8d7a0d14c09","651c1daac42b120c3361d431","null","null","<p style=""font-size: 60px; font-family: BACS"">advYOkYL</p>","","","","","","","","",""
"html-keyboard-response","81","150712","0.0-8.0-0.73","6155e204cc071b306458dfff","650c16f0f2faf8d7a0d14c09","651c1daac42b120c3361d431","null","null","<p style=""font-size: 60px; font-family: BACS"">NJZlQvlZ</p>","","","","","","","","",""
"html-keyboard-response","82","151719","0.0-8.0-0.74","6155e204cc071b306458dfff","650c16f0f2faf8d7a0d14c09","651c1daac42b120c3361d431","null","null","<p style=""font-size: 60px; font-family: BACS"">ktBdmhc</p>","","","","","","","","",""
"html-keyboard-response","83","152749","0.0-8.0-0.75","6155e204cc071b306458dfff","650c16f0f2faf8d7a0d14c09","651c1daac42b120c3361d431","null","null","<p style=""font-size: 60px; font-family: BACS"">kcCRtkKE</p>","","","","","","","","",""
"html-keyboard-response","84","153764","0.0-8.0-0.76","6155e204cc071b306458dfff","650c16f0f2faf8d7a0d14c09","651c1daac42b120c3361d431","null","null","<p style=""font-size: 60px; font-family: BACS"">rkYLQvlZ</p>","","","","","","","","",""
"html-keyboard-response","85","154779","0.0-8.0-0.77","6155e204cc071b306458dfff","650c16f0f2faf8d7a0d14c09","651c1daac42b120c3361d431","null","null","<p style=""font-size: 60px; font-family: BACS"">PctRCkKE</p>","","","","","","","","",""
"html-keyboard-response","86","155792","0.0-8.0-0.78","6155e204cc071b306458dfff","650c16f0f2faf8d7a0d14c09","651c1daac42b120c3361d431","null","null","<p style=""font-size: 60px; font-family: BACS"">GLYrAQvlZ</p>","","","","","","","","",""
"html-keyboard-response","87","156822","0.0-8.0-0.79","6155e204cc071b306458dfff","650c16f0f2faf8d7a0d14c09","651c1daac42b120c3361d431","null","null","<p style=""font-size: 60px; font-family: BACS"">COTKYbBT</p>","","","","","","","","",""
"html-keyboard-response","88","166491","0.0-9.0","6155e204cc071b306458dfff","650c16f0f2faf8d7a0d14c09","651c1daac42b120c3361d431","9668"," ","<p>Great, you've seen the first block of words. You may now take a short break.</p>
      <p>Press the spacebar when you're ready to continue.</p>","","","","","","","","",""
"html-keyboard-response","89","167497","0.0-10.0-0.0","6155e204cc071b306458dfff","650c16f0f2faf8d7a0d14c09","651c1daac42b120c3361d431","null","null","<p style=""font-size: 60px; font-family: BACS"">kcCRtmhc</p>","","","","","","","","",""
"html-keyboard-response","90","168512","0.0-10.0-0.1","6155e204cc071b306458dfff","650c16f0f2faf8d7a0d14c09","651c1daac42b120c3361d431","null","null","<p style=""font-size: 60px; font-family: BACS"">PctRCYbBT</p>","","","","","","","","",""
"html-keyboard-response","91","169513","0.0-10.0-0.2","6155e204cc071b306458dfff","650c16f0f2faf8d7a0d14c09","651c1daac42b120c3361d431","null","null","<p style=""font-size: 60px; font-family: BACS"">KTDTBmhc</p>","","","","","","","","",""
"html-keyboard-response","92","170513","0.0-10.0-0.3","6155e204cc071b306458dfff","650c16f0f2faf8d7a0d14c09","651c1daac42b120c3361d431","null","null","<p style=""font-size: 60px; font-family: BACS"">uvaUGrub</p>","","","","","","","","",""
"html-keyboard-response","93","171517","0.0-10.0-0.4","6155e204cc071b306458dfff","650c16f0f2faf8d7a0d14c09","651c1daac42b120c3361d431","null","null","<p style=""font-size: 60px; font-family: BACS"">EMbDPkKE</p>","","","","","","","","",""
"html-keyboard-response","94","172519","0.0-10.0-0.5","6155e204cc071b306458dfff","650c16f0f2faf8d7a0d14c09","651c1daac42b120c3361d431","null","null","<p style=""font-size: 60px; font-family: BACS"">hTtBbYbBT</p>","","","","","","","","",""
"html-keyboard-response","95","173533","0.0-10.0-0.6","6155e204cc071b306458dfff","650c16f0f2faf8d7a0d14c09","651c1daac42b120c3361d431","null","null","<p style=""font-size: 60px; font-family: BACS"">rkYLkYL</p>","","","","","","","","",""
"html-keyboard-response","96","174541","0.0-10.0-0.7","6155e204cc071b306458dfff","650c16f0f2faf8d7a0d14c09","651c1daac42b120c3361d431","null","null","<p style=""font-size: 60px; font-family: BACS"">chAhYbBT</p>","","","","","","","","",""
"html-keyboard-response","97","175551","0.0-10.0-0.8","6155e204cc071b306458dfff","650c16f0f2faf8d7a0d14c09","651c1daac42b120c3361d431","null","null","<p style=""font-size: 60px; font-family: BACS"">UdumdkYL</p>","","","","","","","","",""
"html-keyboard-response","98","176556","0.0-10.0-0.9","6155e204cc071b306458dfff","650c16f0f2faf8d7a0d14c09","651c1daac42b120c3361d431","null","null","<p style=""font-size: 60px; font-family: BACS"">kcCRtkKE</p>","","","","","","","","",""
"html-keyboard-response","99","177560","0.0-10.0-0.10","6155e204cc071b306458dfff","650c16f0f2faf8d7a0d14c09","651c1daac42b120c3361d431","null","null","<p style=""font-size: 60px; font-family: BACS"">hTtBbTRkY</p>","","","","","","","","",""
"html-keyboard-response","100","178569","0.0-10.0-0.11","6155e204cc071b306458dfff","650c16f0f2faf8d7a0d14c09","651c1daac42b120c3361d431","null","null","<p style=""font-size: 60px; font-family: BACS"">ktBdYbBT</p>","","","","","","","","",""
"html-keyboard-response","101","179569","0.0-10.0-0.12","6155e204cc071b306458dfff","650c16f0f2faf8d7a0d14c09","651c1daac42b120c3361d431","null","null","<p style=""font-size: 60px; font-family: BACS"">EMbDPmhc</p>","","","","","","","","",""
"html-keyboard-response","102","180571","0.0-10.0-0.13","6155e204cc071b306458dfff","650c16f0f2faf8d7a0d14c09","651c1daac42b120c3361d431","null","null","<p style=""font-size: 60px; font-family: BACS"">ZvalvrAJu</p>","","","","","","","","",""
"html-keyboard-response","103","181577","0.0-10.0-0.14","6155e204cc071b306458dfff","650c16f0f2faf8d7a0d14c09","651c1daac42b120c3361d431","null","null","<p style=""font-size: 60px; font-family: BACS"">PctRCTRkY</p>","","","","","","","","",""
"html-keyboard-response","104","182579","0.0-10.0-0.15","6155e204cc071b306458dfff","650c16f0f2faf8d7a0d14c09","651c1daac42b120c3361d431","null","null","<p style=""font-size: 60px; font-family: BACS"">NJZlGrub</p>","","","","","","","","",""
"html-keyboard-response","105","183583","0.0-10.0-0.16","6155e204cc071b306458dfff","650c16f0f2faf8d7a0d14c09","651c1daac42b120c3361d431","null","null","<p style=""font-size: 60px; font-family: BACS"">ktBdmhc</p>","","","","","","","","",""
"html-keyboard-response","106","184585","0.0-10.0-0.17","6155e204cc071b306458dfff","650c16f0f2faf8d7a0d14c09","651c1daac42b120c3361d431","null","null","<p style=""font-size: 60px; font-family: BACS"">YObADOk</p>","","","","","","","","",""
"html-keyboard-response","107","185601","0.0-10.0-0.18","6155e204cc071b306458dfff","650c16f0f2faf8d7a0d14c09","651c1daac42b120c3361d431","null","null","<p style=""font-size: 60px; font-family: BACS"">chAhTRkY</p>","","","","","","","","",""
"html-keyboard-response","108","186603","0.0-10.0-0.19","6155e204cc071b306458dfff","650c16f0f2faf8d7a0d14c09","651c1daac42b120c3361d431","null","null","<p style=""font-size: 60px; font-family: BACS"">ubALmkuvb</p>","","","","","","","","",""
"html-keyboard-response","109","187603","0.0-10.0-0.20","6155e204cc071b306458dfff","650c16f0f2faf8d7a0d14c09","651c1daac42b120c3361d431","null","null","<p style=""font-size: 60px; font-family: BACS"">kulZkYL</p>","","","","","","","","",""
"html-keyboard-response","110","188618","0.0-10.0-0.21","6155e204cc071b306458dfff","650c16f0f2faf8d7a0d14c09","651c1daac42b120c3361d431","null","null","<p style=""font-size: 60px; font-family: BACS"">MDKPkKE</p>","","","","","","","","",""
"html-keyboard-response","111","189632","0.0-10.0-0.22","6155e204cc071b306458dfff","650c16f0f2faf8d7a0d14c09","651c1daac42b120c3361d431","null","null","<p style=""font-size: 60px; font-family: BACS"">GLYrArAJu</p>","","","","","","","","",""
"html-keyboard-response","112","190645","0.0-10.0-0.23","6155e204cc071b306458dfff","650c16f0f2faf8d7a0d14c09","651c1daac42b120c3361d431","null","null","<p style=""font-size: 60px; font-family: BACS"">kZUbkYL</p>","","","","","","","","",""
"html-keyboard-response","113","191651","0.0-10.0-0.24","6155e204cc071b306458dfff","650c16f0f2faf8d7a0d14c09","651c1daac42b120c3361d431","null","null","<p style=""font-size: 60px; font-family: BACS"">Udumdkuvb</p>","","","","","","","","",""
"html-keyboard-response","114","192666","0.0-10.0-0.25","6155e204cc071b306458dfff","650c16f0f2faf8d7a0d14c09","651c1daac42b120c3361d431","null","null","<p style=""font-size: 60px; font-family: BACS"">NJZlQvlZ</p>","","","","","","","","",""
"html-keyboard-response","115","193670","0.0-10.0-0.26","6155e204cc071b306458dfff","650c16f0f2faf8d7a0d14c09","651c1daac42b120c3361d431","null","null","<p style=""font-size: 60px; font-family: BACS"">chAhDOk</p>","","","","","","","","",""
"html-keyboard-response","116","194672","0.0-10.0-0.27","6155e204cc071b306458dfff","650c16f0f2faf8d7a0d14c09","651c1daac42b120c3361d431","null","null","<p style=""font-size: 60px; font-family: BACS"">ZvalvGrub</p>","","","","","","","","",""
"html-keyboard-response","117","195677","0.0-10.0-0.28","6155e204cc071b306458dfff","650c16f0f2faf8d7a0d14c09","651c1daac42b120c3361d431","null","null","<p style=""font-size: 60px; font-family: BACS"">kZUbQvlZ</p>","","","","","","","","",""
"html-keyboard-response","118","196678","0.0-10.0-0.29","6155e204cc071b306458dfff","650c16f0f2faf8d7a0d14c09","651c1daac42b120c3361d431","null","null","<p style=""font-size: 60px; font-family: BACS"">KTDTBTRkY</p>","","","","","","","","",""
"html-keyboard-response","119","197680","0.0-10.0-0.30","6155e204cc071b306458dfff","650c16f0f2faf8d7a0d14c09","651c1daac42b120c3361d431","null","null","<p style=""font-size: 60px; font-family: BACS"">kcCRtYbBT</p>","","","","","","","","",""
"html-keyboard-response","120","198691","0.0-10.0-0.31","6155e204cc071b306458dfff","650c16f0f2faf8d7a0d14c09","651c1daac42b120c3361d431","null","null","<p style=""font-size: 60px; font-family: BACS"">hTtBbkKE</p>","","","","","","","","",""
"html-keyboard-response","121","199705","0.0-10.0-0.32","6155e204cc071b306458dfff","650c16f0f2faf8d7a0d14c09","651c1daac42b120c3361d431","null","null","<p style=""font-size: 60px; font-family: BACS"">GLYrAkuvb</p>","","","","","","","","",""
"html-keyboard-response","122","200720","0.0-10.0-0.33","6155e204cc071b306458dfff","650c16f0f2faf8d7a0d14c09","651c1daac42b120c3361d431","null","null","<p style=""font-size: 60px; font-family: BACS"">ZvalvQvlZ</p>","","","","","","","","",""
"html-keyboard-response","123","201732","0.0-10.0-0.34","6155e204cc071b306458dfff","650c16f0f2faf8d7a0d14c09","651c1daac42b120c3361d431","null","null","<p style=""font-size: 60px; font-family: BACS"">KTDTBDOk</p>","","","","","","","","",""
"html-keyboard-response","124","202733","0.0-10.0-0.35","6155e204cc071b306458dfff","650c16f0f2faf8d7a0d14c09","651c1daac42b120c3361d431","null","null","<p style=""font-size: 60px; font-family: BACS"">rkYLGrub</p>","","","","","","","","",""
"html-keyboard-response","125","203740","0.0-10.0-0.36","6155e204cc071b306458dfff","650c16f0f2faf8d7a0d14c09","651c1daac42b120c3361d431","null","null","<p style=""font-size: 60px; font-family: BACS"">KTDTBYbBT</p>","","","","","","","","",""
"html-keyboard-response","126","204754","0.0-10.0-0.37","6155e204cc071b306458dfff","650c16f0f2faf8d7a0d14c09","651c1daac42b120c3361d431","null","null","<p style=""font-size: 60px; font-family: BACS"">ktBdkKE</p>","","","","","","","","",""
"html-keyboard-response","127","205766","0.0-10.0-0.38","6155e204cc071b306458dfff","650c16f0f2faf8d7a0d14c09","651c1daac42b120c3361d431","null","null","<p style=""font-size: 60px; font-family: BACS"">uvaUkYL</p>","","","","","","","","",""
"html-keyboard-response","128","206771","0.0-10.0-0.39","6155e204cc071b306458dfff","650c16f0f2faf8d7a0d14c09","651c1daac42b120c3361d431","null","null","<p style=""font-size: 60px; font-family: BACS"">COTKYbBT</p>","","","","","","","","",""
"html-keyboard-response","129","207784","0.0-10.0-0.40","6155e204cc071b306458dfff","650c16f0f2faf8d7a0d14c09","651c1daac42b120c3361d431","null","null","<p style=""font-size: 60px; font-family: BACS"">ubALmkYL</p>","","","","","","","","",""
"html-keyboard-response","130","208796","0.0-10.0-0.41","6155e204cc071b306458dfff","650c16f0f2faf8d7a0d14c09","651c1daac42b120c3361d431","null","null","<p style=""font-size: 60px; font-family: BACS"">advYOGrub</p>","","","","","","","","",""
"html-keyboard-response","131","209796","0.0-10.0-0.42","6155e204cc071b306458dfff","650c16f0f2faf8d7a0d14c09","651c1daac42b120c3361d431","null","null","<p style=""font-size: 60px; font-family: BACS"">ubALmQvlZ</p>","","","","","","","","",""
"html-keyboard-response","132","210807","0.0-10.0-0.43","6155e204cc071b306458dfff","650c16f0f2faf8d7a0d14c09","651c1daac42b120c3361d431","null","null","<p style=""font-size: 60px; font-family: BACS"">kulZGrub</p>","","","","","","","","",""
"html-keyboard-response","133","211822","0.0-10.0-0.44","6155e204cc071b306458dfff","650c16f0f2faf8d7a0d14c09","651c1daac42b120c3361d431","null","null","<p style=""font-size: 60px; font-family: BACS"">NJZlkuvb</p>","","","","","","","","",""
"html-keyboard-response","134","212837","0.0-10.0-0.45","6155e204cc071b306458dfff","650c16f0f2faf8d7a0d14c09","651c1daac42b120c3361d431","null","null","<p style=""font-size: 60px; font-family: BACS"">kcCRtDOk</p>","","","","","","","","",""
"html-keyboard-response","135","213840","0.0-10.0-0.46","6155e204cc071b306458dfff","650c16f0f2faf8d7a0d14c09","651c1daac42b120c3361d431","null","null","<p style=""font-size: 60px; font-family: BACS"">kulZkuvb</p>","","","","","","","","",""
"html-keyboard-response","136","214841","0.0-10.0-0.47","6155e204cc071b306458dfff","650c16f0f2faf8d7a0d14c09","651c1daac42b120c3361d431","null","null","<p style=""font-size: 60px; font-family: BACS"">COTKTRkY</p>","","","","","","","","",""
"html-keyboard-response","137","215871","0.0-10.0-0.48","6155e204cc071b306458dfff","650c16f0f2faf8d7a0d14c09","651c1daac42b120c3361d431","null","null","<p style=""font-size: 60px; font-family: BACS"">advYOrAJu</p>","","","","","","","","",""
"html-keyboard-response","138","216878","0.0-10.0-0.49","6155e204cc071b306458dfff","650c16f0f2faf8d7a0d14c09","651c1daac42b120c3361d431","null","null","<p style=""font-size: 60px; font-family: BACS"">ktBdTRkY</p>","","","","","","","","",""
"html-keyboard-response","139","217882","0.0-10.0-0.50","6155e204cc071b306458dfff","650c16f0f2faf8d7a0d14c09","651c1daac42b120c3361d431","null","null","<p style=""font-size: 60px; font-family: BACS"">COTKDOk</p>","","","","","","","","",""
"html-keyboard-response","140","218891","0.0-10.0-0.51","6155e204cc071b306458dfff","650c16f0f2faf8d7a0d14c09","651c1daac42b120c3361d431","null","null","<p style=""font-size: 60px; font-family: BACS"">rkYLrAJu</p>","","","","","","","","",""
"html-keyboard-response","141","219894","0.0-10.0-0.52","6155e204cc071b306458dfff","650c16f0f2faf8d7a0d14c09","651c1daac42b120c3361d431","null","null","<p style=""font-size: 60px; font-family: BACS"">MDKPmhc</p>","","","","","","","","",""
"html-keyboard-response","142","220897","0.0-10.0-0.53","6155e204cc071b306458dfff","650c16f0f2faf8d7a0d14c09","651c1daac42b120c3361d431","null","null","<p style=""font-size: 60px; font-family: BACS"">kulZrAJu</p>","","","","","","","","",""
"html-keyboard-response","143","221896","0.0-10.0-0.54","6155e204cc071b306458dfff","650c16f0f2faf8d7a0d14c09","651c1daac42b120c3361d431","null","null","<p style=""font-size: 60px; font-family: BACS"">uvaUkuvb</p>","","","","","","","","",""
"html-keyboard-response","144","222906","0.0-10.0-0.55","6155e204cc071b306458dfff","650c16f0f2faf8d7a0d14c09","651c1daac42b120c3361d431","null","null","<p style=""font-size: 60px; font-family: BACS"">GLYrAGrub</p>","","","","","","","","",""
"html-keyboard-response","145","223919","0.0-10.0-0.56","6155e204cc071b306458dfff","650c16f0f2faf8d7a0d14c09","651c1daac42b120c3361d431","null","null","<p style=""font-size: 60px; font-family: BACS"">YObAYbBT</p>","","","","","","","","",""
"html-keyboard-response","146","224924","0.0-10.0-0.57","6155e204cc071b306458dfff","650c16f0f2faf8d7a0d14c09","651c1daac42b120c3361d431","null","null","<p style=""font-size: 60px; font-family: BACS"">ubALmrAJu</p>","","","","","","","","",""
"html-keyboard-response","147","225929","0.0-10.0-0.58","6155e204cc071b306458dfff","650c16f0f2faf8d7a0d14c09","651c1daac42b120c3361d431","null","null","<p style=""font-size: 60px; font-family: BACS"">YObAkKE</p>","","","","","","","","",""
"html-keyboard-response","148","226933","0.0-10.0-0.59","6155e204cc071b306458dfff","650c16f0f2faf8d7a0d14c09","651c1daac42b120c3361d431","null","null","<p style=""font-size: 60px; font-family: BACS"">advYOkYL</p>","","","","","","","","",""
"html-keyboard-response","149","227936","0.0-10.0-0.60","6155e204cc071b306458dfff","650c16f0f2faf8d7a0d14c09","651c1daac42b120c3361d431","null","null","<p style=""font-size: 60px; font-family: BACS"">MDKPDOk</p>","","","","","","","","",""
"html-keyboard-response","150","228951","0.0-10.0-0.61","6155e204cc071b306458dfff","650c16f0f2faf8d7a0d14c09","651c1daac42b120c3361d431","null","null","<p style=""font-size: 60px; font-family: BACS"">rkYLQvlZ</p>","","","","","","","","",""
"html-keyboard-response","151","229957","0.0-10.0-0.62","6155e204cc071b306458dfff","650c16f0f2faf8d7a0d14c09","651c1daac42b120c3361d431","null","null","<p style=""font-size: 60px; font-family: BACS"">hTtBbDOk</p>","","","","","","","","",""
"html-keyboard-response","152","230971","0.0-10.0-0.63","6155e204cc071b306458dfff","650c16f0f2faf8d7a0d14c09","651c1daac42b120c3361d431","null","null","<p style=""font-size: 60px; font-family: BACS"">NJZlrAJu</p>","","","","","","","","",""
"html-keyboard-response","153","231985","0.0-10.0-0.64","6155e204cc071b306458dfff","650c16f0f2faf8d7a0d14c09","651c1daac42b120c3361d431","null","null","<p style=""font-size: 60px; font-family: BACS"">MDKPTRkY</p>","","","","","","","","",""
"html-keyboard-response","154","232999","0.0-10.0-0.65","6155e204cc071b306458dfff","650c16f0f2faf8d7a0d14c09","651c1daac42b120c3361d431","null","null","<p style=""font-size: 60px; font-family: BACS"">YObAmhc</p>","","","","","","","","",""
"html-keyboard-response","155","234012","0.0-10.0-0.66","6155e204cc071b306458dfff","650c16f0f2faf8d7a0d14c09","651c1daac42b120c3361d431","null","null","<p style=""font-size: 60px; font-family: BACS"">UdumdrAJu</p>","","","","","","","","",""
"html-keyboard-response","156","235026","0.0-10.0-0.67","6155e204cc071b306458dfff","650c16f0f2faf8d7a0d14c09","651c1daac42b120c3361d431","null","null","<p style=""font-size: 60px; font-family: BACS"">ZvalvkYL</p>","","","","","","","","",""
"html-keyboard-response","157","236026","0.0-10.0-0.68","6155e204cc071b306458dfff","650c16f0f2faf8d7a0d14c09","651c1daac42b120c3361d431","null","null","<p style=""font-size: 60px; font-family: BACS"">advYOkuvb</p>","","","","","","","","",""
"html-keyboard-response","158","237028","0.0-10.0-0.69","6155e204cc071b306458dfff","650c16f0f2faf8d7a0d14c09","651c1daac42b120c3361d431","null","null","<p style=""font-size: 60px; font-family: BACS"">PctRCkKE</p>","","","","","","","","",""
"html-keyboard-response","159","238042","0.0-10.0-0.70","6155e204cc071b306458dfff","650c16f0f2faf8d7a0d14c09","651c1daac42b120c3361d431","null","null","<p style=""font-size: 60px; font-family: BACS"">kZUbkuvb</p>","","","","","","","","",""
"html-keyboard-response","160","239044","0.0-10.0-0.71","6155e204cc071b306458dfff","650c16f0f2faf8d7a0d14c09","651c1daac42b120c3361d431","null","null","<p style=""font-size: 60px; font-family: BACS"">EMbDPTRkY</p>","","","","","","","","",""
"html-keyboard-response","161","240075","0.0-10.0-0.72","6155e204cc071b306458dfff","650c16f0f2faf8d7a0d14c09","651c1daac42b120c3361d431","null","null","<p style=""font-size: 60px; font-family: BACS"">uvaUQvlZ</p>","","","","","","","","",""
"html-keyboard-response","162","241079","0.0-10.0-0.73","6155e204cc071b306458dfff","650c16f0f2faf8d7a0d14c09","651c1daac42b120c3361d431","null","null","<p style=""font-size: 60px; font-family: BACS"">PctRCmhc</p>","","","","","","","","",""
"html-keyboard-response","163","242093","0.0-10.0-0.74","6155e204cc071b306458dfff","650c16f0f2faf8d7a0d14c09","651c1daac42b120c3361d431","null","null","<p style=""font-size: 60px; font-family: BACS"">COTKkKE</p>","","","","","","","","",""
"html-keyboard-response","164","243104","0.0-10.0-0.75","6155e204cc071b306458dfff","650c16f0f2faf8d7a0d14c09","651c1daac42b120c3361d431","null","null","<p style=""font-size: 60px; font-family: BACS"">UdumdQvlZ</p>","","","","","","","","",""
"html-keyboard-response","165","244105","0.0-10.0-0.76","6155e204cc071b306458dfff","650c16f0f2faf8d7a0d14c09","651c1daac42b120c3361d431","null","null","<p style=""font-size: 60px; font-family: BACS"">chAhmhc</p>","","","","","","","","",""
"html-keyboard-response","166","245107","0.0-10.0-0.77","6155e204cc071b306458dfff","650c16f0f2faf8d7a0d14c09","651c1daac42b120c3361d431","null","null","<p style=""font-size: 60px; font-family: BACS"">GLYrAQvlZ</p>","","","","","","","","",""
"html-keyboard-response","167","246108","0.0-10.0-0.78","6155e204cc071b306458dfff","650c16f0f2faf8d7a0d14c09","651c1daac42b120c3361d431","null","null","<p style=""font-size: 60px; font-family: BACS"">kZUbGrub</p>","","","","","","","","",""
"html-keyboard-response","168","247110","0.0-10.0-0.79","6155e204cc071b306458dfff","650c16f0f2faf8d7a0d14c09","651c1daac42b120c3361d431","null","null","<p style=""font-size: 60px; font-family: BACS"">EMbDPDOk</p>","","","","","","","","",""
"html-keyboard-response","169","253796","0.0-11.0","6155e204cc071b306458dfff","650c16f0f2faf8d7a0d14c09","651c1daac42b120c3361d431","6685"," ","<p>Great, you've seen the second block of words. You may now take a short break.</p>
      <p>Press the spacebar when you're ready to continue.</p>","","","","","","","","",""
"html-keyboard-response","170","254807","0.0-12.0-0.0","6155e204cc071b306458dfff","650c16f0f2faf8d7a0d14c09","651c1daac42b120c3361d431","null","null","<p style=""font-size: 60px; font-family: BACS"">ktBdkKE</p>","","","","","","","","",""
"html-keyboard-response","171","255807","0.0-12.0-0.1","6155e204cc071b306458dfff","650c16f0f2faf8d7a0d14c09","651c1daac42b120c3361d431","null","null","<p style=""font-size: 60px; font-family: BACS"">GLYrAGrub</p>","","","","","","","","",""
"html-keyboard-response","172","256821","0.0-12.0-0.2","6155e204cc071b306458dfff","650c16f0f2faf8d7a0d14c09","651c1daac42b120c3361d431","null","null","<p style=""font-size: 60px; font-family: BACS"">ktBdYbBT</p>","","","","","","","","",""
"html-keyboard-response","173","257821","0.0-12.0-0.3","6155e204cc071b306458dfff","650c16f0f2faf8d7a0d14c09","651c1daac42b120c3361d431","null","null","<p style=""font-size: 60px; font-family: BACS"">kZUbGrub</p>","","","","","","","","",""
"html-keyboard-response","174","258853","0.0-12.0-0.4","6155e204cc071b306458dfff","650c16f0f2faf8d7a0d14c09","651c1daac42b120c3361d431","null","null","<p style=""font-size: 60px; font-family: BACS"">advYOkYL</p>","","","","","","","","",""
"html-keyboard-response","175","259854","0.0-12.0-0.5","6155e204cc071b306458dfff","650c16f0f2faf8d7a0d14c09","651c1daac42b120c3361d431","null","null","<p style=""font-size: 60px; font-family: BACS"">YObAYbBT</p>","","","","","","","","",""
"html-keyboard-response","176","260863","0.0-12.0-0.6","6155e204cc071b306458dfff","650c16f0f2faf8d7a0d14c09","651c1daac42b120c3361d431","null","null","<p style=""font-size: 60px; font-family: BACS"">ubALmkuvb</p>","","","","","","","","",""
"html-keyboard-response","177","261878","0.0-12.0-0.7","6155e204cc071b306458dfff","650c16f0f2faf8d7a0d14c09","651c1daac42b120c3361d431","null","null","<p style=""font-size: 60px; font-family: BACS"">kulZrAJu</p>","","","","","","","","",""
"html-keyboard-response","178","262890","0.0-12.0-0.8","6155e204cc071b306458dfff","650c16f0f2faf8d7a0d14c09","651c1daac42b120c3361d431","null","null","<p style=""font-size: 60px; font-family: BACS"">kZUbkuvb</p>","","","","","","","","",""
"html-keyboard-response","179","263892","0.0-12.0-0.9","6155e204cc071b306458dfff","650c16f0f2faf8d7a0d14c09","651c1daac42b120c3361d431","null","null","<p style=""font-size: 60px; font-family: BACS"">chAhYbBT</p>","","","","","","","","",""
"html-keyboard-response","180","264896","0.0-12.0-0.10","6155e204cc071b306458dfff","650c16f0f2faf8d7a0d14c09","651c1daac42b120c3361d431","null","null","<p style=""font-size: 60px; font-family: BACS"">hTtBbkKE</p>","","","","","","","","",""
"html-keyboard-response","181","265897","0.0-12.0-0.11","6155e204cc071b306458dfff","650c16f0f2faf8d7a0d14c09","651c1daac42b120c3361d431","null","null","<p style=""font-size: 60px; font-family: BACS"">rkYLkYL</p>","","","","","","","","",""
"html-keyboard-response","182","266897","0.0-12.0-0.12","6155e204cc071b306458dfff","650c16f0f2faf8d7a0d14c09","651c1daac42b120c3361d431","null","null","<p style=""font-size: 60px; font-family: BACS"">ktBdmhc</p>","","","","","","","","",""
"html-keyboard-response","183","267900","0.0-12.0-0.13","6155e204cc071b306458dfff","650c16f0f2faf8d7a0d14c09","651c1daac42b120c3361d431","null","null","<p style=""font-size: 60px; font-family: BACS"">GLYrAkuvb</p>","","","","","","","","",""
"html-keyboard-response","184","268902","0.0-12.0-0.14","6155e204cc071b306458dfff","650c16f0f2faf8d7a0d14c09","651c1daac42b120c3361d431","null","null","<p style=""font-size: 60px; font-family: BACS"">MDKPmhc</p>","","","","","","","","",""
"html-keyboard-response","185","269905","0.0-12.0-0.15","6155e204cc071b306458dfff","650c16f0f2faf8d7a0d14c09","651c1daac42b120c3361d431","null","null","<p style=""font-size: 60px; font-family: BACS"">KTDTBTRkY</p>","","","","","","","","",""
"html-keyboard-response","186","270911","0.0-12.0-0.16","6155e204cc071b306458dfff","650c16f0f2faf8d7a0d14c09","651c1daac42b120c3361d431","null","null","<p style=""font-size: 60px; font-family: BACS"">NJZlkuvb</p>","","","","","","","","",""
"html-keyboard-response","187","271926","0.0-12.0-0.17","6155e204cc071b306458dfff","650c16f0f2faf8d7a0d14c09","651c1daac42b120c3361d431","null","null","<p style=""font-size: 60px; font-family: BACS"">ubALmrAJu</p>","","","","","","","","",""
"html-keyboard-response","188","272938","0.0-12.0-0.18","6155e204cc071b306458dfff","650c16f0f2faf8d7a0d14c09","651c1daac42b120c3361d431","null","null","<p style=""font-size: 60px; font-family: BACS"">EMbDPTRkY</p>","","","","","","","","",""
"html-keyboard-response","189","273939","0.0-12.0-0.19","6155e204cc071b306458dfff","650c16f0f2faf8d7a0d14c09","651c1daac42b120c3361d431","null","null","<p style=""font-size: 60px; font-family: BACS"">YObAkKE</p>","","","","","","","","",""
"html-keyboard-response","190","274944","0.0-12.0-0.20","6155e204cc071b306458dfff","650c16f0f2faf8d7a0d14c09","651c1daac42b120c3361d431","null","null","<p style=""font-size: 60px; font-family: BACS"">rkYLGrub</p>","","","","","","","","",""
"html-keyboard-response","191","275956","0.0-12.0-0.21","6155e204cc071b306458dfff","650c16f0f2faf8d7a0d14c09","651c1daac42b120c3361d431","null","null","<p style=""font-size: 60px; font-family: BACS"">PctRCkKE</p>","","","","","","","","",""
"html-keyboard-response","192","276971","0.0-12.0-0.22","6155e204cc071b306458dfff","650c16f0f2faf8d7a0d14c09","651c1daac42b120c3361d431","null","null","<p style=""font-size: 60px; font-family: BACS"">MDKPDOk</p>","","","","","","","","",""
"html-keyboard-response","193","277984","0.0-12.0-0.23","6155e204cc071b306458dfff","650c16f0f2faf8d7a0d14c09","651c1daac42b120c3361d431","null","null","<p style=""font-size: 60px; font-family: BACS"">hTtBbTRkY</p>","","","","","","","","",""
"html-keyboard-response","194","278988","0.0-12.0-0.24","6155e204cc071b306458dfff","650c16f0f2faf8d7a0d14c09","651c1daac42b120c3361d431","null","null","<p style=""font-size: 60px; font-family: BACS"">kulZkuvb</p>","","","","","","","","",""
"html-keyboard-response","195","280000","0.0-12.0-0.25","6155e204cc071b306458dfff","650c16f0f2faf8d7a0d14c09","651c1daac42b120c3361d431","null","null","<p style=""font-size: 60px; font-family: BACS"">ktBdTRkY</p>","","","","","","","","",""
"html-keyboard-response","196","281014","0.0-12.0-0.26","6155e204cc071b306458dfff","650c16f0f2faf8d7a0d14c09","651c1daac42b120c3361d431","null","null","<p style=""font-size: 60px; font-family: BACS"">uvaUkuvb</p>","","","","","","","","",""
"html-keyboard-response","197","282015","0.0-12.0-0.27","6155e204cc071b306458dfff","650c16f0f2faf8d7a0d14c09","651c1daac42b120c3361d431","null","null","<p style=""font-size: 60px; font-family: BACS"">rkYLrAJu</p>","","","","","","","","",""
"html-keyboard-response","198","283018","0.0-12.0-0.28","6155e204cc071b306458dfff","650c16f0f2faf8d7a0d14c09","651c1daac42b120c3361d431","null","null","<p style=""font-size: 60px; font-family: BACS"">uvaUQvlZ</p>","","","","","","","","",""
"html-keyboard-response","199","284032","0.0-12.0-0.29","6155e204cc071b306458dfff","650c16f0f2faf8d7a0d14c09","651c1daac42b120c3361d431","null","null","<p style=""font-size: 60px; font-family: BACS"">UdumdrAJu</p>","","","","","","","","",""
"html-keyboard-response","200","285036","0.0-12.0-0.30","6155e204cc071b306458dfff","650c16f0f2faf8d7a0d14c09","651c1daac42b120c3361d431","null","null","<p style=""font-size: 60px; font-family: BACS"">KTDTBYbBT</p>","","","","","","","","",""
"html-keyboard-response","201","286043","0.0-12.0-0.31","6155e204cc071b306458dfff","650c16f0f2faf8d7a0d14c09","651c1daac42b120c3361d431","null","null","<p style=""font-size: 60px; font-family: BACS"">UdumdQvlZ</p>","","","","","","","","",""
"html-keyboard-response","202","287074","0.0-12.0-0.32","6155e204cc071b306458dfff","650c16f0f2faf8d7a0d14c09","651c1daac42b120c3361d431","null","null","<p style=""font-size: 60px; font-family: BACS"">ZvalvkYL</p>","","","","","","","","",""
"html-keyboard-response","203","288084","0.0-12.0-0.33","6155e204cc071b306458dfff","650c16f0f2faf8d7a0d14c09","651c1daac42b120c3361d431","null","null","<p style=""font-size: 60px; font-family: BACS"">hTtBbYbBT</p>","","","","","","","","",""
"html-keyboard-response","204","289098","0.0-12.0-0.34","6155e204cc071b306458dfff","650c16f0f2faf8d7a0d14c09","651c1daac42b120c3361d431","null","null","<p style=""font-size: 60px; font-family: BACS"">NJZlQvlZ</p>","","","","","","","","",""
"html-keyboard-response","205","290111","0.0-12.0-0.35","6155e204cc071b306458dfff","650c16f0f2faf8d7a0d14c09","651c1daac42b120c3361d431","null","null","<p style=""font-size: 60px; font-family: BACS"">KTDTBDOk</p>","","","","","","","","",""
"html-keyboard-response","206","291127","0.0-12.0-0.36","6155e204cc071b306458dfff","650c16f0f2faf8d7a0d14c09","651c1daac42b120c3361d431","null","null","<p style=""font-size: 60px; font-family: BACS"">chAhmhc</p>","","","","","","","","",""
"html-keyboard-response","207","292139","0.0-12.0-0.37","6155e204cc071b306458dfff","650c16f0f2faf8d7a0d14c09","651c1daac42b120c3361d431","null","null","<p style=""font-size: 60px; font-family: BACS"">rkYLQvlZ</p>","","","","","","","","",""
"html-keyboard-response","208","293139","0.0-12.0-0.38","6155e204cc071b306458dfff","650c16f0f2faf8d7a0d14c09","651c1daac42b120c3361d431","null","null","<p style=""font-size: 60px; font-family: BACS"">advYOrAJu</p>","","","","","","","","",""
"html-keyboard-response","209","294143","0.0-12.0-0.39","6155e204cc071b306458dfff","650c16f0f2faf8d7a0d14c09","651c1daac42b120c3361d431","null","null","<p style=""font-size: 60px; font-family: BACS"">Udumdkuvb</p>","","","","","","","","",""
"html-keyboard-response","210","295158","0.0-12.0-0.40","6155e204cc071b306458dfff","650c16f0f2faf8d7a0d14c09","651c1daac42b120c3361d431","null","null","<p style=""font-size: 60px; font-family: BACS"">MDKPkKE</p>","","","","","","","","",""
"html-keyboard-response","211","296160","0.0-12.0-0.41","6155e204cc071b306458dfff","650c16f0f2faf8d7a0d14c09","651c1daac42b120c3361d431","null","null","<p style=""font-size: 60px; font-family: BACS"">YObADOk</p>","","","","","","","","",""
"html-keyboard-response","212","297164","0.0-12.0-0.42","6155e204cc071b306458dfff","650c16f0f2faf8d7a0d14c09","651c1daac42b120c3361d431","null","null","<p style=""font-size: 60px; font-family: BACS"">PctRCYbBT</p>","","","","","","","","",""
"html-keyboard-response","213","298165","0.0-12.0-0.43","6155e204cc071b306458dfff","650c16f0f2faf8d7a0d14c09","651c1daac42b120c3361d431","null","null","<p style=""font-size: 60px; font-family: BACS"">COTKTRkY</p>","","","","","","","","",""
"html-keyboard-response","214","299179","0.0-12.0-0.44","6155e204cc071b306458dfff","650c16f0f2faf8d7a0d14c09","651c1daac42b120c3361d431","null","null","<p style=""font-size: 60px; font-family: BACS"">NJZlGrub</p>","","","","","","","","",""
"html-keyboard-response","215","300179","0.0-12.0-0.45","6155e204cc071b306458dfff","650c16f0f2faf8d7a0d14c09","651c1daac42b120c3361d431","null","null","<p style=""font-size: 60px; font-family: BACS"">ubALmkYL</p>","","","","","","","","",""
"html-keyboard-response","216","301195","0.0-12.0-0.46","6155e204cc071b306458dfff","650c16f0f2faf8d7a0d14c09","651c1daac42b120c3361d431","null","null","<p style=""font-size: 60px; font-family: BACS"">ZvalvQvlZ</p>","","","","","","","","",""
"html-keyboard-response","217","302204","0.0-12.0-0.47","6155e204cc071b306458dfff","650c16f0f2faf8d7a0d14c09","651c1daac42b120c3361d431","null","null","<p style=""font-size: 60px; font-family: BACS"">COTKDOk</p>","","","","","","","","",""
"html-keyboard-response","218","303206","0.0-12.0-0.48","6155e204cc071b306458dfff","650c16f0f2faf8d7a0d14c09","651c1daac42b120c3361d431","null","null","<p style=""font-size: 60px; font-family: BACS"">kZUbQvlZ</p>","","","","","","","","",""
"html-keyboard-response","219","304209","0.0-12.0-0.49","6155e204cc071b306458dfff","650c16f0f2faf8d7a0d14c09","651c1daac42b120c3361d431","null","null","<p style=""font-size: 60px; font-family: BACS"">COTKkKE</p>","","","","","","","","",""
"html-keyboard-response","220","305211","0.0-12.0-0.50","6155e204cc071b306458dfff","650c16f0f2faf8d7a0d14c09","651c1daac42b120c3361d431","null","null","<p style=""font-size: 60px; font-family: BACS"">ubALmQvlZ</p>","","","","","","","","",""
"html-keyboard-response","221","306223","0.0-12.0-0.51","6155e204cc071b306458dfff","650c16f0f2faf8d7a0d14c09","651c1daac42b120c3361d431","null","null","<p style=""font-size: 60px; font-family: BACS"">PctRCmhc</p>","","","","","","","","",""
"html-keyboard-response","222","307225","0.0-12.0-0.52","6155e204cc071b306458dfff","650c16f0f2faf8d7a0d14c09","651c1daac42b120c3361d431","null","null","<p style=""font-size: 60px; font-family: BACS"">hTtBbDOk</p>","","","","","","","","",""
"html-keyboard-response","223","308237","0.0-12.0-0.53","6155e204cc071b306458dfff","650c16f0f2faf8d7a0d14c09","651c1daac42b120c3361d431","null","null","<p style=""font-size: 60px; font-family: BACS"">GLYrAQvlZ</p>","","","","","","","","",""
"html-keyboard-response","224","309237","0.0-12.0-0.54","6155e204cc071b306458dfff","650c16f0f2faf8d7a0d14c09","651c1daac42b120c3361d431","null","null","<p style=""font-size: 60px; font-family: BACS"">YObAmhc</p>","","","","","","","","",""
"html-keyboard-response","225","310243","0.0-12.0-0.55","6155e204cc071b306458dfff","650c16f0f2faf8d7a0d14c09","651c1daac42b120c3361d431","null","null","<p style=""font-size: 60px; font-family: BACS"">uvaUkYL</p>","","","","","","","","",""
"html-keyboard-response","226","311255","0.0-12.0-0.56","6155e204cc071b306458dfff","650c16f0f2faf8d7a0d14c09","651c1daac42b120c3361d431","null","null","<p style=""font-size: 60px; font-family: BACS"">EMbDPmhc</p>","","","","","","","","",""
"html-keyboard-response","227","312267","0.0-12.0-0.57","6155e204cc071b306458dfff","650c16f0f2faf8d7a0d14c09","651c1daac42b120c3361d431","null","null","<p style=""font-size: 60px; font-family: BACS"">ZvalvGrub</p>","","","","","","","","",""
"html-keyboard-response","228","313268","0.0-12.0-0.58","6155e204cc071b306458dfff","650c16f0f2faf8d7a0d14c09","651c1daac42b120c3361d431","null","null","<p style=""font-size: 60px; font-family: BACS"">kcCRtkKE</p>","","","","","","","","",""
"html-keyboard-response","229","314271","0.0-12.0-0.59","6155e204cc071b306458dfff","650c16f0f2faf8d7a0d14c09","651c1daac42b120c3361d431","null","null","<p style=""font-size: 60px; font-family: BACS"">advYOGrub</p>","","","","","","","","",""
"html-keyboard-response","230","315286","0.0-12.0-0.60","6155e204cc071b306458dfff","650c16f0f2faf8d7a0d14c09","651c1daac42b120c3361d431","null","null","<p style=""font-size: 60px; font-family: BACS"">PctRCTRkY</p>","","","","","","","","",""
"html-keyboard-response","231","316301","0.0-12.0-0.61","6155e204cc071b306458dfff","650c16f0f2faf8d7a0d14c09","651c1daac42b120c3361d431","null","null","<p style=""font-size: 60px; font-family: BACS"">UdumdkYL</p>","","","","","","","","",""
"html-keyboard-response","232","317316","0.0-12.0-0.62","6155e204cc071b306458dfff","650c16f0f2faf8d7a0d14c09","651c1daac42b120c3361d431","null","null","<p style=""font-size: 60px; font-family: BACS"">ZvalvrAJu</p>","","","","","","","","",""
"html-keyboard-response","233","318319","0.0-12.0-0.63","6155e204cc071b306458dfff","650c16f0f2faf8d7a0d14c09","651c1daac42b120c3361d431","null","null","<p style=""font-size: 60px; font-family: BACS"">EMbDPkKE</p>","","","","","","","","",""
"html-keyboard-response","234","319329","0.0-12.0-0.64","6155e204cc071b306458dfff","650c16f0f2faf8d7a0d14c09","651c1daac42b120c3361d431","null","null","<p style=""font-size: 60px; font-family: BACS"">MDKPTRkY</p>","","","","","","","","",""
"html-keyboard-response","235","320344","0.0-12.0-0.65","6155e204cc071b306458dfff","650c16f0f2faf8d7a0d14c09","651c1daac42b120c3361d431","null","null","<p style=""font-size: 60px; font-family: BACS"">kZUbkYL</p>","","","","","","","","",""
"html-keyboard-response","236","321357","0.0-12.0-0.66","6155e204cc071b306458dfff","650c16f0f2faf8d7a0d14c09","651c1daac42b120c3361d431","null","null","<p style=""font-size: 60px; font-family: BACS"">GLYrArAJu</p>","","","","","","","","",""
"html-keyboard-response","237","322363","0.0-12.0-0.67","6155e204cc071b306458dfff","650c16f0f2faf8d7a0d14c09","651c1daac42b120c3361d431","null","null","<p style=""font-size: 60px; font-family: BACS"">KTDTBmhc</p>","","","","","","","","",""
"html-keyboard-response","238","323394","0.0-12.0-0.68","6155e204cc071b306458dfff","650c16f0f2faf8d7a0d14c09","651c1daac42b120c3361d431","null","null","<p style=""font-size: 60px; font-family: BACS"">advYOkuvb</p>","","","","","","","","",""
"html-keyboard-response","239","324403","0.0-12.0-0.69","6155e204cc071b306458dfff","650c16f0f2faf8d7a0d14c09","651c1daac42b120c3361d431","null","null","<p style=""font-size: 60px; font-family: BACS"">kcCRtDOk</p>","","","","","","","","",""
"html-keyboard-response","240","325416","0.0-12.0-0.70","6155e204cc071b306458dfff","650c16f0f2faf8d7a0d14c09","651c1daac42b120c3361d431","null","null","<p style=""font-size: 60px; font-family: BACS"">kulZGrub</p>","","","","","","","","",""
"html-keyboard-response","241","326429","0.0-12.0-0.71","6155e204cc071b306458dfff","650c16f0f2faf8d7a0d14c09","651c1daac42b120c3361d431","null","null","<p style=""font-size: 60px; font-family: BACS"">chAhDOk</p>","","","","","","","","",""
"html-keyboard-response","242","327441","0.0-12.0-0.72","6155e204cc071b306458dfff","650c16f0f2faf8d7a0d14c09","651c1daac42b120c3361d431","null","null","<p style=""font-size: 60px; font-family: BACS"">uvaUGrub</p>","","","","","","","","",""
"html-keyboard-response","243","328447","0.0-12.0-0.73","6155e204cc071b306458dfff","650c16f0f2faf8d7a0d14c09","651c1daac42b120c3361d431","null","null","<p style=""font-size: 60px; font-family: BACS"">kcCRtmhc</p>","","","","","","","","",""
"html-keyboard-response","244","329460","0.0-12.0-0.74","6155e204cc071b306458dfff","650c16f0f2faf8d7a0d14c09","651c1daac42b120c3361d431","null","null","<p style=""font-size: 60px; font-family: BACS"">EMbDPDOk</p>","","","","","","","","",""
"html-keyboard-response","245","330472","0.0-12.0-0.75","6155e204cc071b306458dfff","650c16f0f2faf8d7a0d14c09","651c1daac42b120c3361d431","null","null","<p style=""font-size: 60px; font-family: BACS"">chAhTRkY</p>","","","","","","","","",""
"html-keyboard-response","246","331477","0.0-12.0-0.76","6155e204cc071b306458dfff","650c16f0f2faf8d7a0d14c09","651c1daac42b120c3361d431","null","null","<p style=""font-size: 60px; font-family: BACS"">COTKYbBT</p>","","","","","","","","",""
"html-keyboard-response","247","332490","0.0-12.0-0.77","6155e204cc071b306458dfff","650c16f0f2faf8d7a0d14c09","651c1daac42b120c3361d431","null","null","<p style=""font-size: 60px; font-family: BACS"">NJZlrAJu</p>","","","","","","","","",""
"html-keyboard-response","248","333500","0.0-12.0-0.78","6155e204cc071b306458dfff","650c16f0f2faf8d7a0d14c09","651c1daac42b120c3361d431","null","null","<p style=""font-size: 60px; font-family: BACS"">kulZkYL</p>","","","","","","","","",""
"html-keyboard-response","249","334512","0.0-12.0-0.79","6155e204cc071b306458dfff","650c16f0f2faf8d7a0d14c09","651c1daac42b120c3361d431","null","null","<p style=""font-size: 60px; font-family: BACS"">kcCRtYbBT</p>","","","","","","","","",""
"html-keyboard-response","250","400871","0.0-13.0","6155e204cc071b306458dfff","650c16f0f2faf8d7a0d14c09","651c1daac42b120c3361d431","66357"," ","<p>Great, you've seen the third block of words. You may now take a short break.</p>
      <p>Press the spacebar when you're ready to continue.</p>","","","","","","","","",""
"html-keyboard-response","251","401878","0.0-14.0-0.0","6155e204cc071b306458dfff","650c16f0f2faf8d7a0d14c09","651c1daac42b120c3361d431","null","null","<p style=""font-size: 60px; font-family: BACS"">UdumdrAJu</p>","","","","","","","","",""
"html-keyboard-response","252","402878","0.0-14.0-0.1","6155e204cc071b306458dfff","650c16f0f2faf8d7a0d14c09","651c1daac42b120c3361d431","null","null","<p style=""font-size: 60px; font-family: BACS"">kcCRtYbBT</p>","","","","","","","","",""
"html-keyboard-response","253","403883","0.0-14.0-0.2","6155e204cc071b306458dfff","650c16f0f2faf8d7a0d14c09","651c1daac42b120c3361d431","null","null","<p style=""font-size: 60px; font-family: BACS"">rkYLrAJu</p>","","","","","","","","",""
"html-keyboard-response","254","404886","0.0-14.0-0.3","6155e204cc071b306458dfff","650c16f0f2faf8d7a0d14c09","651c1daac42b120c3361d431","null","null","<p style=""font-size: 60px; font-family: BACS"">ktBdmhc</p>","","","","","","","","",""
"html-keyboard-response","255","405901","0.0-14.0-0.4","6155e204cc071b306458dfff","650c16f0f2faf8d7a0d14c09","651c1daac42b120c3361d431","null","null","<p style=""font-size: 60px; font-family: BACS"">kulZkuvb</p>","","","","","","","","",""
"html-keyboard-response","256","406913","0.0-14.0-0.5","6155e204cc071b306458dfff","650c16f0f2faf8d7a0d14c09","651c1daac42b120c3361d431","null","null","<p style=""font-size: 60px; font-family: BACS"">MDKPTRkY</p>","","","","","","","","",""
"html-keyboard-response","257","407922","0.0-14.0-0.6","6155e204cc071b306458dfff","650c16f0f2faf8d7a0d14c09","651c1daac42b120c3361d431","null","null","<p style=""font-size: 60px; font-family: BACS"">kZUbGrub</p>","","","","","","","","",""
"html-keyboard-response","258","408930","0.0-14.0-0.7","6155e204cc071b306458dfff","650c16f0f2faf8d7a0d14c09","651c1daac42b120c3361d431","null","null","<p style=""font-size: 60px; font-family: BACS"">KTDTBYbBT</p>","","","","","","","","",""
"html-keyboard-response","259","409937","0.0-14.0-0.8","6155e204cc071b306458dfff","650c16f0f2faf8d7a0d14c09","651c1daac42b120c3361d431","null","null","<p style=""font-size: 60px; font-family: BACS"">NJZlGrub</p>","","","","","","","","",""
"html-keyboard-response","260","410940","0.0-14.0-0.9","6155e204cc071b306458dfff","650c16f0f2faf8d7a0d14c09","651c1daac42b120c3361d431","null","null","<p style=""font-size: 60px; font-family: BACS"">ktBdTRkY</p>","","","","","","","","",""
"html-keyboard-response","261","411942","0.0-14.0-0.10","6155e204cc071b306458dfff","650c16f0f2faf8d7a0d14c09","651c1daac42b120c3361d431","null","null","<p style=""font-size: 60px; font-family: BACS"">ubALmrAJu</p>","","","","","","","","",""
"html-keyboard-response","262","412943","0.0-14.0-0.11","6155e204cc071b306458dfff","650c16f0f2faf8d7a0d14c09","651c1daac42b120c3361d431","null","null","<p style=""font-size: 60px; font-family: BACS"">KTDTBDOk</p>","","","","","","","","",""
"html-keyboard-response","263","413945","0.0-14.0-0.12","6155e204cc071b306458dfff","650c16f0f2faf8d7a0d14c09","651c1daac42b120c3361d431","null","null","<p style=""font-size: 60px; font-family: BACS"">MDKPkKE</p>","","","","","","","","",""
"html-keyboard-response","264","414949","0.0-14.0-0.13","6155e204cc071b306458dfff","650c16f0f2faf8d7a0d14c09","651c1daac42b120c3361d431","null","null","<p style=""font-size: 60px; font-family: BACS"">PctRCTRkY</p>","","","","","","","","",""
"html-keyboard-response","265","415948","0.0-14.0-0.14","6155e204cc071b306458dfff","650c16f0f2faf8d7a0d14c09","651c1daac42b120c3361d431","null","null","<p style=""font-size: 60px; font-family: BACS"">ubALmkYL</p>","","","","","","","","",""
"html-keyboard-response","266","416950","0.0-14.0-0.15","6155e204cc071b306458dfff","650c16f0f2faf8d7a0d14c09","651c1daac42b120c3361d431","null","null","<p style=""font-size: 60px; font-family: BACS"">COTKYbBT</p>","","","","","","","","",""
"html-keyboard-response","267","417959","0.0-14.0-0.16","6155e204cc071b306458dfff","650c16f0f2faf8d7a0d14c09","651c1daac42b120c3361d431","null","null","<p style=""font-size: 60px; font-family: BACS"">kZUbkuvb</p>","","","","","","","","",""
"html-keyboard-response","268","418960","0.0-14.0-0.17","6155e204cc071b306458dfff","650c16f0f2faf8d7a0d14c09","651c1daac42b120c3361d431","null","null","<p style=""font-size: 60px; font-family: BACS"">KTDTBTRkY</p>","","","","","","","","",""
"html-keyboard-response","269","419974","0.0-14.0-0.18","6155e204cc071b306458dfff","650c16f0f2faf8d7a0d14c09","651c1daac42b120c3361d431","null","null","<p style=""font-size: 60px; font-family: BACS"">kcCRtmhc</p>","","","","","","","","",""
"html-keyboard-response","270","420988","0.0-14.0-0.19","6155e204cc071b306458dfff","650c16f0f2faf8d7a0d14c09","651c1daac42b120c3361d431","null","null","<p style=""font-size: 60px; font-family: BACS"">Udumdkuvb</p>","","","","","","","","",""
"html-keyboard-response","271","422016","0.0-14.0-0.20","6155e204cc071b306458dfff","650c16f0f2faf8d7a0d14c09","651c1daac42b120c3361d431","null","null","<p style=""font-size: 60px; font-family: BACS"">hTtBbYbBT</p>","","","","","","","","",""
"html-keyboard-response","272","423030","0.0-14.0-0.21","6155e204cc071b306458dfff","650c16f0f2faf8d7a0d14c09","651c1daac42b120c3361d431","null","null","<p style=""font-size: 60px; font-family: BACS"">COTKDOk</p>","","","","","","","","",""
"html-keyboard-response","273","424034","0.0-14.0-0.22","6155e204cc071b306458dfff","650c16f0f2faf8d7a0d14c09","651c1daac42b120c3361d431","null","null","<p style=""font-size: 60px; font-family: BACS"">uvaUkuvb</p>","","","","","","","","",""
"html-keyboard-response","274","425036","0.0-14.0-0.23","6155e204cc071b306458dfff","650c16f0f2faf8d7a0d14c09","651c1daac42b120c3361d431","null","null","<p style=""font-size: 60px; font-family: BACS"">EMbDPmhc</p>","","","","","","","","",""
"html-keyboard-response","275","426041","0.0-14.0-0.24","6155e204cc071b306458dfff","650c16f0f2faf8d7a0d14c09","651c1daac42b120c3361d431","null","null","<p style=""font-size: 60px; font-family: BACS"">rkYLQvlZ</p>","","","","","","","","",""
"html-keyboard-response","276","427044","0.0-14.0-0.25","6155e204cc071b306458dfff","650c16f0f2faf8d7a0d14c09","651c1daac42b120c3361d431","null","null","<p style=""font-size: 60px; font-family: BACS"">advYOkYL</p>","","","","","","","","",""
"html-keyboard-response","277","428049","0.0-14.0-0.26","6155e204cc071b306458dfff","650c16f0f2faf8d7a0d14c09","651c1daac42b120c3361d431","null","null","<p style=""font-size: 60px; font-family: BACS"">EMbDPDOk</p>","","","","","","","","",""
"html-keyboard-response","278","429051","0.0-14.0-0.27","6155e204cc071b306458dfff","650c16f0f2faf8d7a0d14c09","651c1daac42b120c3361d431","null","null","<p style=""font-size: 60px; font-family: BACS"">rkYLGrub</p>","","","","","","","","",""
"html-keyboard-response","279","430055","0.0-14.0-0.28","6155e204cc071b306458dfff","650c16f0f2faf8d7a0d14c09","651c1daac42b120c3361d431","null","null","<p style=""font-size: 60px; font-family: BACS"">ZvalvQvlZ</p>","","","","","","","","",""
"html-keyboard-response","280","431058","0.0-14.0-0.29","6155e204cc071b306458dfff","650c16f0f2faf8d7a0d14c09","651c1daac42b120c3361d431","null","null","<p style=""font-size: 60px; font-family: BACS"">chAhDOk</p>","","","","","","","","",""
"html-keyboard-response","281","432059","0.0-14.0-0.30","6155e204cc071b306458dfff","650c16f0f2faf8d7a0d14c09","651c1daac42b120c3361d431","null","null","<p style=""font-size: 60px; font-family: BACS"">kulZrAJu</p>","","","","","","","","",""
"html-keyboard-response","282","433068","0.0-14.0-0.31","6155e204cc071b306458dfff","650c16f0f2faf8d7a0d14c09","651c1daac42b120c3361d431","null","null","<p style=""font-size: 60px; font-family: BACS"">YObAmhc</p>","","","","","","","","",""
"html-keyboard-response","283","434079","0.0-14.0-0.32","6155e204cc071b306458dfff","650c16f0f2faf8d7a0d14c09","651c1daac42b120c3361d431","null","null","<p style=""font-size: 60px; font-family: BACS"">GLYrArAJu</p>","","","","","","","","",""
"html-keyboard-response","284","435091","0.0-14.0-0.33","6155e204cc071b306458dfff","650c16f0f2faf8d7a0d14c09","651c1daac42b120c3361d431","null","null","<p style=""font-size: 60px; font-family: BACS"">YObAYbBT</p>","","","","","","","","",""
"html-keyboard-response","285","436107","0.0-14.0-0.34","6155e204cc071b306458dfff","650c16f0f2faf8d7a0d14c09","651c1daac42b120c3361d431","null","null","<p style=""font-size: 60px; font-family: BACS"">UdumdkYL</p>","","","","","","","","",""
"html-keyboard-response","286","437118","0.0-14.0-0.35","6155e204cc071b306458dfff","650c16f0f2faf8d7a0d14c09","651c1daac42b120c3361d431","null","null","<p style=""font-size: 60px; font-family: BACS"">KTDTBmhc</p>","","","","","","","","",""
"html-keyboard-response","287","438133","0.0-14.0-0.36","6155e204cc071b306458dfff","650c16f0f2faf8d7a0d14c09","651c1daac42b120c3361d431","null","null","<p style=""font-size: 60px; font-family: BACS"">GLYrAGrub</p>","","","","","","","","",""
"html-keyboard-response","288","439148","0.0-14.0-0.37","6155e204cc071b306458dfff","650c16f0f2faf8d7a0d14c09","651c1daac42b120c3361d431","null","null","<p style=""font-size: 60px; font-family: BACS"">kZUbQvlZ</p>","","","","","","","","",""
"html-keyboard-response","289","440161","0.0-14.0-0.38","6155e204cc071b306458dfff","650c16f0f2faf8d7a0d14c09","651c1daac42b120c3361d431","null","null","<p style=""font-size: 60px; font-family: BACS"">uvaUkYL</p>","","","","","","","","",""
"html-keyboard-response","290","441166","0.0-14.0-0.39","6155e204cc071b306458dfff","650c16f0f2faf8d7a0d14c09","651c1daac42b120c3361d431","null","null","<p style=""font-size: 60px; font-family: BACS"">NJZlkuvb</p>","","","","","","","","",""
"html-keyboard-response","291","442196","0.0-14.0-0.40","6155e204cc071b306458dfff","650c16f0f2faf8d7a0d14c09","651c1daac42b120c3361d431","null","null","<p style=""font-size: 60px; font-family: BACS"">ktBdkKE</p>","","","","","","","","",""
"html-keyboard-response","292","443210","0.0-14.0-0.41","6155e204cc071b306458dfff","650c16f0f2faf8d7a0d14c09","651c1daac42b120c3361d431","null","null","<p style=""font-size: 60px; font-family: BACS"">YObADOk</p>","","","","","","","","",""
"html-keyboard-response","293","444224","0.0-14.0-0.42","6155e204cc071b306458dfff","650c16f0f2faf8d7a0d14c09","651c1daac42b120c3361d431","null","null","<p style=""font-size: 60px; font-family: BACS"">PctRCYbBT</p>","","","","","","","","",""
"html-keyboard-response","294","445226","0.0-14.0-0.43","6155e204cc071b306458dfff","650c16f0f2faf8d7a0d14c09","651c1daac42b120c3361d431","null","null","<p style=""font-size: 60px; font-family: BACS"">kZUbkYL</p>","","","","","","","","",""
"html-keyboard-response","295","446239","0.0-14.0-0.44","6155e204cc071b306458dfff","650c16f0f2faf8d7a0d14c09","651c1daac42b120c3361d431","null","null","<p style=""font-size: 60px; font-family: BACS"">MDKPmhc</p>","","","","","","","","",""
"html-keyboard-response","296","447240","0.0-14.0-0.45","6155e204cc071b306458dfff","650c16f0f2faf8d7a0d14c09","651c1daac42b120c3361d431","null","null","<p style=""font-size: 60px; font-family: BACS"">UdumdQvlZ</p>","","","","","","","","",""
"html-keyboard-response","297","448254","0.0-14.0-0.46","6155e204cc071b306458dfff","650c16f0f2faf8d7a0d14c09","651c1daac42b120c3361d431","null","null","<p style=""font-size: 60px; font-family: BACS"">chAhYbBT</p>","","","","","","","","",""
"html-keyboard-response","298","449259","0.0-14.0-0.47","6155e204cc071b306458dfff","650c16f0f2faf8d7a0d14c09","651c1daac42b120c3361d431","null","null","<p style=""font-size: 60px; font-family: BACS"">GLYrAQvlZ</p>","","","","","","","","",""
"html-keyboard-response","299","450259","0.0-14.0-0.48","6155e204cc071b306458dfff","650c16f0f2faf8d7a0d14c09","651c1daac42b120c3361d431","null","null","<p style=""font-size: 60px; font-family: BACS"">chAhTRkY</p>","","","","","","","","",""
"html-keyboard-response","300","451262","0.0-14.0-0.49","6155e204cc071b306458dfff","650c16f0f2faf8d7a0d14c09","651c1daac42b120c3361d431","null","null","<p style=""font-size: 60px; font-family: BACS"">NJZlQvlZ</p>","","","","","","","","",""
"html-keyboard-response","301","452273","0.0-14.0-0.50","6155e204cc071b306458dfff","650c16f0f2faf8d7a0d14c09","651c1daac42b120c3361d431","null","null","<p style=""font-size: 60px; font-family: BACS"">kcCRtDOk</p>","","","","","","","","",""
"html-keyboard-response","302","453288","0.0-14.0-0.51","6155e204cc071b306458dfff","650c16f0f2faf8d7a0d14c09","651c1daac42b120c3361d431","null","null","<p style=""font-size: 60px; font-family: BACS"">chAhmhc</p>","","","","","","","","",""
"html-keyboard-response","303","454290","0.0-14.0-0.52","6155e204cc071b306458dfff","650c16f0f2faf8d7a0d14c09","651c1daac42b120c3361d431","null","null","<p style=""font-size: 60px; font-family: BACS"">uvaUGrub</p>","","","","","","","","",""
"html-keyboard-response","304","455304","0.0-14.0-0.53","6155e204cc071b306458dfff","650c16f0f2faf8d7a0d14c09","651c1daac42b120c3361d431","null","null","<p style=""font-size: 60px; font-family: BACS"">PctRCmhc</p>","","","","","","","","",""
"html-keyboard-response","305","456308","0.0-14.0-0.54","6155e204cc071b306458dfff","650c16f0f2faf8d7a0d14c09","651c1daac42b120c3361d431","null","null","<p style=""font-size: 60px; font-family: BACS"">advYOGrub</p>","","","","","","","","",""
"html-keyboard-response","306","457310","0.0-14.0-0.55","6155e204cc071b306458dfff","650c16f0f2faf8d7a0d14c09","651c1daac42b120c3361d431","null","null","<p style=""font-size: 60px; font-family: BACS"">MDKPDOk</p>","","","","","","","","",""
"html-keyboard-response","307","458325","0.0-14.0-0.56","6155e204cc071b306458dfff","650c16f0f2faf8d7a0d14c09","651c1daac42b120c3361d431","null","null","<p style=""font-size: 60px; font-family: BACS"">kulZGrub</p>","","","","","","","","",""
"html-keyboard-response","308","459339","0.0-14.0-0.57","6155e204cc071b306458dfff","650c16f0f2faf8d7a0d14c09","651c1daac42b120c3361d431","null","null","<p style=""font-size: 60px; font-family: BACS"">EMbDPkKE</p>","","","","","","","","",""
"html-keyboard-response","309","460343","0.0-14.0-0.58","6155e204cc071b306458dfff","650c16f0f2faf8d7a0d14c09","651c1daac42b120c3361d431","null","null","<p style=""font-size: 60px; font-family: BACS"">kulZkYL</p>","","","","","","","","",""
"html-keyboard-response","310","461356","0.0-14.0-0.59","6155e204cc071b306458dfff","650c16f0f2faf8d7a0d14c09","651c1daac42b120c3361d431","null","null","<p style=""font-size: 60px; font-family: BACS"">NJZlrAJu</p>","","","","","","","","",""
"html-keyboard-response","311","462369","0.0-14.0-0.60","6155e204cc071b306458dfff","650c16f0f2faf8d7a0d14c09","651c1daac42b120c3361d431","null","null","<p style=""font-size: 60px; font-family: BACS"">advYOkuvb</p>","","","","","","","","",""
"html-keyboard-response","312","463383","0.0-14.0-0.61","6155e204cc071b306458dfff","650c16f0f2faf8d7a0d14c09","651c1daac42b120c3361d431","null","null","<p style=""font-size: 60px; font-family: BACS"">hTtBbTRkY</p>","","","","","","","","",""
"html-keyboard-response","313","464383","0.0-14.0-0.62","6155e204cc071b306458dfff","650c16f0f2faf8d7a0d14c09","651c1daac42b120c3361d431","null","null","<p style=""font-size: 60px; font-family: BACS"">ZvalvkYL</p>","","","","","","","","",""
"html-keyboard-response","314","465396","0.0-14.0-0.63","6155e204cc071b306458dfff","650c16f0f2faf8d7a0d14c09","651c1daac42b120c3361d431","null","null","<p style=""font-size: 60px; font-family: BACS"">PctRCkKE</p>","","","","","","","","",""
"html-keyboard-response","315","466409","0.0-14.0-0.64","6155e204cc071b306458dfff","650c16f0f2faf8d7a0d14c09","651c1daac42b120c3361d431","null","null","<p style=""font-size: 60px; font-family: BACS"">hTtBbDOk</p>","","","","","","","","",""
"html-keyboard-response","316","467424","0.0-14.0-0.65","6155e204cc071b306458dfff","650c16f0f2faf8d7a0d14c09","651c1daac42b120c3361d431","null","null","<p style=""font-size: 60px; font-family: BACS"">ZvalvGrub</p>","","","","","","","","",""
"html-keyboard-response","317","468434","0.0-14.0-0.66","6155e204cc071b306458dfff","650c16f0f2faf8d7a0d14c09","651c1daac42b120c3361d431","null","null","<p style=""font-size: 60px; font-family: BACS"">COTKTRkY</p>","","","","","","","","",""
"html-keyboard-response","318","469447","0.0-14.0-0.67","6155e204cc071b306458dfff","650c16f0f2faf8d7a0d14c09","651c1daac42b120c3361d431","null","null","<p style=""font-size: 60px; font-family: BACS"">GLYrAkuvb</p>","","","","","","","","",""
"html-keyboard-response","319","470456","0.0-14.0-0.68","6155e204cc071b306458dfff","650c16f0f2faf8d7a0d14c09","651c1daac42b120c3361d431","null","null","<p style=""font-size: 60px; font-family: BACS"">YObAkKE</p>","","","","","","","","",""
"html-keyboard-response","320","471460","0.0-14.0-0.69","6155e204cc071b306458dfff","650c16f0f2faf8d7a0d14c09","651c1daac42b120c3361d431","null","null","<p style=""font-size: 60px; font-family: BACS"">ubALmQvlZ</p>","","","","","","","","",""
"html-keyboard-response","321","472474","0.0-14.0-0.70","6155e204cc071b306458dfff","650c16f0f2faf8d7a0d14c09","651c1daac42b120c3361d431","null","null","<p style=""font-size: 60px; font-family: BACS"">ZvalvrAJu</p>","","","","","","","","",""
"html-keyboard-response","322","473477","0.0-14.0-0.71","6155e204cc071b306458dfff","650c16f0f2faf8d7a0d14c09","651c1daac42b120c3361d431","null","null","<p style=""font-size: 60px; font-family: BACS"">rkYLkYL</p>","","","","","","","","",""
"html-keyboard-response","323","474481","0.0-14.0-0.72","6155e204cc071b306458dfff","650c16f0f2faf8d7a0d14c09","651c1daac42b120c3361d431","null","null","<p style=""font-size: 60px; font-family: BACS"">EMbDPTRkY</p>","","","","","","","","",""
"html-keyboard-response","324","475494","0.0-14.0-0.73","6155e204cc071b306458dfff","650c16f0f2faf8d7a0d14c09","651c1daac42b120c3361d431","null","null","<p style=""font-size: 60px; font-family: BACS"">kcCRtkKE</p>","","","","","","","","",""
"html-keyboard-response","325","476495","0.0-14.0-0.74","6155e204cc071b306458dfff","650c16f0f2faf8d7a0d14c09","651c1daac42b120c3361d431","null","null","<p style=""font-size: 60px; font-family: BACS"">ktBdYbBT</p>","","","","","","","","",""
"html-keyboard-response","326","477509","0.0-14.0-0.75","6155e204cc071b306458dfff","650c16f0f2faf8d7a0d14c09","651c1daac42b120c3361d431","null","null","<p style=""font-size: 60px; font-family: BACS"">uvaUQvlZ</p>","","","","","","","","",""
"html-keyboard-response","327","478521","0.0-14.0-0.76","6155e204cc071b306458dfff","650c16f0f2faf8d7a0d14c09","651c1daac42b120c3361d431","null","null","<p style=""font-size: 60px; font-family: BACS"">advYOrAJu</p>","","","","","","","","",""
"html-keyboard-response","328","479530","0.0-14.0-0.77","6155e204cc071b306458dfff","650c16f0f2faf8d7a0d14c09","651c1daac42b120c3361d431","null","null","<p style=""font-size: 60px; font-family: BACS"">COTKkKE</p>","","","","","","","","",""
"html-keyboard-response","329","480535","0.0-14.0-0.78","6155e204cc071b306458dfff","650c16f0f2faf8d7a0d14c09","651c1daac42b120c3361d431","null","null","<p style=""font-size: 60px; font-family: BACS"">ubALmkuvb</p>","","","","","","","","",""
"html-keyboard-response","330","481536","0.0-14.0-0.79","6155e204cc071b306458dfff","650c16f0f2faf8d7a0d14c09","651c1daac42b120c3361d431","null","null","<p style=""font-size: 60px; font-family: BACS"">hTtBbkKE</p>","","","","","","","","",""
"html-keyboard-response","331","498521","0.0-15.0","6155e204cc071b306458dfff","650c16f0f2faf8d7a0d14c09","651c1daac42b120c3361d431","16985"," ","<p>Great, you've seen the fourth block of words. You may now take a short break.</p>
      <p>Press the spacebar when you're ready to continue.</p>","","","","","","","","",""
"html-keyboard-response","332","499533","0.0-16.0-0.0","6155e204cc071b306458dfff","650c16f0f2faf8d7a0d14c09","651c1daac42b120c3361d431","null","null","<p style=""font-size: 60px; font-family: BACS"">COTKYbBT</p>","","","","","","","","",""
"html-keyboard-response","333","500533","0.0-16.0-0.1","6155e204cc071b306458dfff","650c16f0f2faf8d7a0d14c09","651c1daac42b120c3361d431","null","null","<p style=""font-size: 60px; font-family: BACS"">COTKYbBT</p>","","","","","","","","",""
"html-keyboard-response","334","501546","0.0-16.0-0.2","6155e204cc071b306458dfff","650c16f0f2faf8d7a0d14c09","651c1daac42b120c3361d431","null","null","<p style=""font-size: 60px; font-family: BACS"">COTKYbBT</p>","","","","","","","","",""
"html-keyboard-response","335","502550","0.0-16.0-0.3","6155e204cc071b306458dfff","650c16f0f2faf8d7a0d14c09","651c1daac42b120c3361d431","null","null","<p style=""font-size: 60px; font-family: BACS"">COTKYbBT</p>","","","","","","","","",""
"html-keyboard-response","336","503555","0.0-16.0-0.4","6155e204cc071b306458dfff","650c16f0f2faf8d7a0d14c09","651c1daac42b120c3361d431","null","null","<p style=""font-size: 60px; font-family: BACS"">COTKYbBT</p>","","","","","","","","",""
"html-keyboard-response","337","504557","0.0-16.0-0.5","6155e204cc071b306458dfff","650c16f0f2faf8d7a0d14c09","651c1daac42b120c3361d431","null","null","<p style=""font-size: 60px; font-family: BACS"">COTKYbBT</p>","","","","","","","","",""
"html-keyboard-response","338","505564","0.0-16.0-0.6","6155e204cc071b306458dfff","650c16f0f2faf8d7a0d14c09","651c1daac42b120c3361d431","null","null","<p style=""font-size: 60px; font-family: BACS"">COTKYbBT</p>","","","","","","","","",""
"html-keyboard-response","339","506568","0.0-16.0-0.7","6155e204cc071b306458dfff","650c16f0f2faf8d7a0d14c09","651c1daac42b120c3361d431","null","null","<p style=""font-size: 60px; font-family: BACS"">COTKYbBT</p>","","","","","","","","",""
"html-keyboard-response","340","507568","0.0-16.0-0.8","6155e204cc071b306458dfff","650c16f0f2faf8d7a0d14c09","651c1daac42b120c3361d431","null","null","<p style=""font-size: 60px; font-family: BACS"">COTKYbBT</p>","","","","","","","","",""
"html-keyboard-response","341","508582","0.0-16.0-0.9","6155e204cc071b306458dfff","650c16f0f2faf8d7a0d14c09","651c1daac42b120c3361d431","null","null","<p style=""font-size: 60px; font-family: BACS"">COTKYbBT</p>","","","","","","","","",""
"html-keyboard-response","342","509583","0.0-16.0-0.10","6155e204cc071b306458dfff","650c16f0f2faf8d7a0d14c09","651c1daac42b120c3361d431","null","null","<p style=""font-size: 60px; font-family: BACS"">COTKYbBT</p>","","","","","","","","",""
"html-keyboard-response","343","510598","0.0-16.0-0.11","6155e204cc071b306458dfff","650c16f0f2faf8d7a0d14c09","651c1daac42b120c3361d431","null","null","<p style=""font-size: 60px; font-family: BACS"">COTKYbBT</p>","","","","","","","","",""
"html-keyboard-response","344","511598","0.0-16.0-0.12","6155e204cc071b306458dfff","650c16f0f2faf8d7a0d14c09","651c1daac42b120c3361d431","null","null","<p style=""font-size: 60px; font-family: BACS"">COTKYbBT</p>","","","","","","","","",""
"html-keyboard-response","345","512611","0.0-16.0-0.13","6155e204cc071b306458dfff","650c16f0f2faf8d7a0d14c09","651c1daac42b120c3361d431","null","null","<p style=""font-size: 60px; font-family: BACS"">COTKYbBT</p>","","","","","","","","",""
"html-keyboard-response","346","513611","0.0-16.0-0.14","6155e204cc071b306458dfff","650c16f0f2faf8d7a0d14c09","651c1daac42b120c3361d431","null","null","<p style=""font-size: 60px; font-family: BACS"">COTKYbBT</p>","","","","","","","","",""
"html-keyboard-response","347","514626","0.0-16.0-0.15","6155e204cc071b306458dfff","650c16f0f2faf8d7a0d14c09","651c1daac42b120c3361d431","null","null","<p style=""font-size: 60px; font-family: BACS"">COTKYbBT</p>","","","","","","","","",""
"html-keyboard-response","348","515640","0.0-16.0-0.16","6155e204cc071b306458dfff","650c16f0f2faf8d7a0d14c09","651c1daac42b120c3361d431","null","null","<p style=""font-size: 60px; font-family: BACS"">COTKYbBT</p>","","","","","","","","",""
"html-keyboard-response","349","516642","0.0-16.0-0.17","6155e204cc071b306458dfff","650c16f0f2faf8d7a0d14c09","651c1daac42b120c3361d431","null","null","<p style=""font-size: 60px; font-family: BACS"">COTKYbBT</p>","","","","","","","","",""
"html-keyboard-response","350","517654","0.0-16.0-0.18","6155e204cc071b306458dfff","650c16f0f2faf8d7a0d14c09","651c1daac42b120c3361d431","null","null","<p style=""font-size: 60px; font-family: BACS"">COTKYbBT</p>","","","","","","","","",""
"html-keyboard-response","351","518659","0.0-16.0-0.19","6155e204cc071b306458dfff","650c16f0f2faf8d7a0d14c09","651c1daac42b120c3361d431","null","null","<p style=""font-size: 60px; font-family: BACS"">COTKYbBT</p>","","","","","","","","",""
"html-keyboard-response","352","519672","0.0-16.0-0.20","6155e204cc071b306458dfff","650c16f0f2faf8d7a0d14c09","651c1daac42b120c3361d431","null","null","<p style=""font-size: 60px; font-family: BACS"">COTKYbBT</p>","","","","","","","","",""
"html-keyboard-response","353","520674","0.0-16.0-0.21","6155e204cc071b306458dfff","650c16f0f2faf8d7a0d14c09","651c1daac42b120c3361d431","null","null","<p style=""font-size: 60px; font-family: BACS"">COTKYbBT</p>","","","","","","","","",""
"html-keyboard-response","354","521676","0.0-16.0-0.22","6155e204cc071b306458dfff","650c16f0f2faf8d7a0d14c09","651c1daac42b120c3361d431","null","null","<p style=""font-size: 60px; font-family: BACS"">COTKYbBT</p>","","","","","","","","",""
"html-keyboard-response","355","522681","0.0-16.0-0.23","6155e204cc071b306458dfff","650c16f0f2faf8d7a0d14c09","651c1daac42b120c3361d431","null","null","<p style=""font-size: 60px; font-family: BACS"">COTKYbBT</p>","","","","","","","","",""
"html-keyboard-response","356","523683","0.0-16.0-0.24","6155e204cc071b306458dfff","650c16f0f2faf8d7a0d14c09","651c1daac42b120c3361d431","null","null","<p style=""font-size: 60px; font-family: BACS"">COTKYbBT</p>","","","","","","","","",""
"html-keyboard-response","357","524698","0.0-16.0-0.25","6155e204cc071b306458dfff","650c16f0f2faf8d7a0d14c09","651c1daac42b120c3361d431","null","null","<p style=""font-size: 60px; font-family: BACS"">COTKYbBT</p>","","","","","","","","",""
"html-keyboard-response","358","525728","0.0-16.0-0.26","6155e204cc071b306458dfff","650c16f0f2faf8d7a0d14c09","651c1daac42b120c3361d431","null","null","<p style=""font-size: 60px; font-family: BACS"">COTKYbBT</p>","","","","","","","","",""
"html-keyboard-response","359","526731","0.0-16.0-0.27","6155e204cc071b306458dfff","650c16f0f2faf8d7a0d14c09","651c1daac42b120c3361d431","null","null","<p style=""font-size: 60px; font-family: BACS"">COTKYbBT</p>","","","","","","","","",""
"html-keyboard-response","360","527744","0.0-16.0-0.28","6155e204cc071b306458dfff","650c16f0f2faf8d7a0d14c09","651c1daac42b120c3361d431","null","null","<p style=""font-size: 60px; font-family: BACS"">COTKYbBT</p>","","","","","","","","",""
"html-keyboard-response","361","528747","0.0-16.0-0.29","6155e204cc071b306458dfff","650c16f0f2faf8d7a0d14c09","651c1daac42b120c3361d431","null","null","<p style=""font-size: 60px; font-family: BACS"">COTKYbBT</p>","","","","","","","","",""
"html-keyboard-response","362","529760","0.0-16.0-0.30","6155e204cc071b306458dfff","650c16f0f2faf8d7a0d14c09","651c1daac42b120c3361d431","null","null","<p style=""font-size: 60px; font-family: BACS"">COTKYbBT</p>","","","","","","","","",""
"html-keyboard-response","363","530760","0.0-16.0-0.31","6155e204cc071b306458dfff","650c16f0f2faf8d7a0d14c09","651c1daac42b120c3361d431","null","null","<p style=""font-size: 60px; font-family: BACS"">COTKYbBT</p>","","","","","","","","",""
"html-keyboard-response","364","531769","0.0-16.0-0.32","6155e204cc071b306458dfff","650c16f0f2faf8d7a0d14c09","651c1daac42b120c3361d431","null","null","<p style=""font-size: 60px; font-family: BACS"">COTKYbBT</p>","","","","","","","","",""
"html-keyboard-response","365","532772","0.0-16.0-0.33","6155e204cc071b306458dfff","650c16f0f2faf8d7a0d14c09","651c1daac42b120c3361d431","null","null","<p style=""font-size: 60px; font-family: BACS"">COTKYbBT</p>","","","","","","","","",""
"html-keyboard-response","366","533786","0.0-16.0-0.34","6155e204cc071b306458dfff","650c16f0f2faf8d7a0d14c09","651c1daac42b120c3361d431","null","null","<p style=""font-size: 60px; font-family: BACS"">COTKYbBT</p>","","","","","","","","",""
"html-keyboard-response","367","534792","0.0-16.0-0.35","6155e204cc071b306458dfff","650c16f0f2faf8d7a0d14c09","651c1daac42b120c3361d431","null","null","<p style=""font-size: 60px; font-family: BACS"">COTKYbBT</p>","","","","","","","","",""
"html-keyboard-response","368","535803","0.0-16.0-0.36","6155e204cc071b306458dfff","650c16f0f2faf8d7a0d14c09","651c1daac42b120c3361d431","null","null","<p style=""font-size: 60px; font-family: BACS"">COTKYbBT</p>","","","","","","","","",""
"html-keyboard-response","369","536817","0.0-16.0-0.37","6155e204cc071b306458dfff","650c16f0f2faf8d7a0d14c09","651c1daac42b120c3361d431","null","null","<p style=""font-size: 60px; font-family: BACS"">COTKYbBT</p>","","","","","","","","",""
"html-keyboard-response","370","537832","0.0-16.0-0.38","6155e204cc071b306458dfff","650c16f0f2faf8d7a0d14c09","651c1daac42b120c3361d431","null","null","<p style=""font-size: 60px; font-family: BACS"">COTKYbBT</p>","","","","","","","","",""
"html-keyboard-response","371","538846","0.0-16.0-0.39","6155e204cc071b306458dfff","650c16f0f2faf8d7a0d14c09","651c1daac42b120c3361d431","null","null","<p style=""font-size: 60px; font-family: BACS"">COTKYbBT</p>","","","","","","","","",""
"html-keyboard-response","372","539858","0.0-16.0-0.40","6155e204cc071b306458dfff","650c16f0f2faf8d7a0d14c09","651c1daac42b120c3361d431","null","null","<p style=""font-size: 60px; font-family: BACS"">COTKYbBT</p>","","","","","","","","",""
"html-keyboard-response","373","540873","0.0-16.0-0.41","6155e204cc071b306458dfff","650c16f0f2faf8d7a0d14c09","651c1daac42b120c3361d431","null","null","<p style=""font-size: 60px; font-family: BACS"">COTKYbBT</p>","","","","","","","","",""
"html-keyboard-response","374","541888","0.0-16.0-0.42","6155e204cc071b306458dfff","650c16f0f2faf8d7a0d14c09","651c1daac42b120c3361d431","null","null","<p style=""font-size: 60px; font-family: BACS"">COTKYbBT</p>","","","","","","","","",""
"html-keyboard-response","375","542898","0.0-16.0-0.43","6155e204cc071b306458dfff","650c16f0f2faf8d7a0d14c09","651c1daac42b120c3361d431","null","null","<p style=""font-size: 60px; font-family: BACS"">COTKYbBT</p>","","","","","","","","",""
"html-keyboard-response","376","543911","0.0-16.0-0.44","6155e204cc071b306458dfff","650c16f0f2faf8d7a0d14c09","651c1daac42b120c3361d431","null","null","<p style=""font-size: 60px; font-family: BACS"">COTKYbBT</p>","","","","","","","","",""
"html-keyboard-response","377","544942","0.0-16.0-0.45","6155e204cc071b306458dfff","650c16f0f2faf8d7a0d14c09","651c1daac42b120c3361d431","null","null","<p style=""font-size: 60px; font-family: BACS"">COTKYbBT</p>","","","","","","","","",""
"html-keyboard-response","378","545945","0.0-16.0-0.46","6155e204cc071b306458dfff","650c16f0f2faf8d7a0d14c09","651c1daac42b120c3361d431","null","null","<p style=""font-size: 60px; font-family: BACS"">COTKYbBT</p>","","","","","","","","",""
"html-keyboard-response","379","546946","0.0-16.0-0.47","6155e204cc071b306458dfff","650c16f0f2faf8d7a0d14c09","651c1daac42b120c3361d431","null","null","<p style=""font-size: 60px; font-family: BACS"">COTKYbBT</p>","","","","","","","","",""
"html-keyboard-response","380","547949","0.0-16.0-0.48","6155e204cc071b306458dfff","650c16f0f2faf8d7a0d14c09","651c1daac42b120c3361d431","null","null","<p style=""font-size: 60px; font-family: BACS"">COTKYbBT</p>","","","","","","","","",""
"html-keyboard-response","381","548961","0.0-16.0-0.49","6155e204cc071b306458dfff","650c16f0f2faf8d7a0d14c09","651c1daac42b120c3361d431","null","null","<p style=""font-size: 60px; font-family: BACS"">COTKYbBT</p>","","","","","","","","",""
"html-keyboard-response","382","549971","0.0-16.0-0.50","6155e204cc071b306458dfff","650c16f0f2faf8d7a0d14c09","651c1daac42b120c3361d431","null","null","<p style=""font-size: 60px; font-family: BACS"">COTKYbBT</p>","","","","","","","","",""
"html-keyboard-response","383","550973","0.0-16.0-0.51","6155e204cc071b306458dfff","650c16f0f2faf8d7a0d14c09","651c1daac42b120c3361d431","null","null","<p style=""font-size: 60px; font-family: BACS"">COTKYbBT</p>","","","","","","","","",""
"html-keyboard-response","384","551988","0.0-16.0-0.52","6155e204cc071b306458dfff","650c16f0f2faf8d7a0d14c09","651c1daac42b120c3361d431","null","null","<p style=""font-size: 60px; font-family: BACS"">COTKYbBT</p>","","","","","","","","",""
"html-keyboard-response","385","552990","0.0-16.0-0.53","6155e204cc071b306458dfff","650c16f0f2faf8d7a0d14c09","651c1daac42b120c3361d431","null","null","<p style=""font-size: 60px; font-family: BACS"">COTKYbBT</p>","","","","","","","","",""
"html-keyboard-response","386","554003","0.0-16.0-0.54","6155e204cc071b306458dfff","650c16f0f2faf8d7a0d14c09","651c1daac42b120c3361d431","null","null","<p style=""font-size: 60px; font-family: BACS"">COTKYbBT</p>","","","","","","","","",""
"html-keyboard-response","387","555005","0.0-16.0-0.55","6155e204cc071b306458dfff","650c16f0f2faf8d7a0d14c09","651c1daac42b120c3361d431","null","null","<p style=""font-size: 60px; font-family: BACS"">COTKYbBT</p>","","","","","","","","",""
"html-keyboard-response","388","556020","0.0-16.0-0.56","6155e204cc071b306458dfff","650c16f0f2faf8d7a0d14c09","651c1daac42b120c3361d431","null","null","<p style=""font-size: 60px; font-family: BACS"">COTKYbBT</p>","","","","","","","","",""
"html-keyboard-response","389","557035","0.0-16.0-0.57","6155e204cc071b306458dfff","650c16f0f2faf8d7a0d14c09","651c1daac42b120c3361d431","null","null","<p style=""font-size: 60px; font-family: BACS"">COTKYbBT</p>","","","","","","","","",""
"html-keyboard-response","390","558035","0.0-16.0-0.58","6155e204cc071b306458dfff","650c16f0f2faf8d7a0d14c09","651c1daac42b120c3361d431","null","null","<p style=""font-size: 60px; font-family: BACS"">COTKYbBT</p>","","","","","","","","",""
"html-keyboard-response","391","559051","0.0-16.0-0.59","6155e204cc071b306458dfff","650c16f0f2faf8d7a0d14c09","651c1daac42b120c3361d431","null","null","<p style=""font-size: 60px; font-family: BACS"">COTKYbBT</p>","","","","","","","","",""
"html-keyboard-response","392","560065","0.0-16.0-0.60","6155e204cc071b306458dfff","650c16f0f2faf8d7a0d14c09","651c1daac42b120c3361d431","null","null","<p style=""font-size: 60px; font-family: BACS"">COTKYbBT</p>","","","","","","","","",""
"html-keyboard-response","393","561080","0.0-16.0-0.61","6155e204cc071b306458dfff","650c16f0f2faf8d7a0d14c09","651c1daac42b120c3361d431","null","null","<p style=""font-size: 60px; font-family: BACS"">COTKYbBT</p>","","","","","","","","",""
"html-keyboard-response","394","562091","0.0-16.0-0.62","6155e204cc071b306458dfff","650c16f0f2faf8d7a0d14c09","651c1daac42b120c3361d431","null","null","<p style=""font-size: 60px; font-family: BACS"">COTKYbBT</p>","","","","","","","","",""
"html-keyboard-response","395","563093","0.0-16.0-0.63","6155e204cc071b306458dfff","650c16f0f2faf8d7a0d14c09","651c1daac42b120c3361d431","null","null","<p style=""font-size: 60px; font-family: BACS"">COTKYbBT</p>","","","","","","","","",""
"html-keyboard-response","396","564096","0.0-16.0-0.64","6155e204cc071b306458dfff","650c16f0f2faf8d7a0d14c09","651c1daac42b120c3361d431","null","null","<p style=""font-size: 60px; font-family: BACS"">COTKYbBT</p>","","","","","","","","",""
"html-keyboard-response","397","565098","0.0-16.0-0.65","6155e204cc071b306458dfff","650c16f0f2faf8d7a0d14c09","651c1daac42b120c3361d431","null","null","<p style=""font-size: 60px; font-family: BACS"">COTKYbBT</p>","","","","","","","","",""
"html-keyboard-response","398","566098","0.0-16.0-0.66","6155e204cc071b306458dfff","650c16f0f2faf8d7a0d14c09","651c1daac42b120c3361d431","null","null","<p style=""font-size: 60px; font-family: BACS"">COTKYbBT</p>","","","","","","","","",""
