trial_type,trial_index,time_elapsed,internal_node_id,subject_id,study_id,session_id,rt,response,stimulus,success,item,task,correct_response,testing_condition,correct,target,confound,name,view_history
pavlovia,0,853,0.0-0.0,5ee623674afa60375e30eec3,650c16f0f2faf8d7a0d14c09,651c1b4f5d3c65ff5e59bba5,,,,,,,,,,,,,
survey-html-form,1,5244,0.0-1.0,5ee623674afa60375e30eec3,650c16f0f2faf8d7a0d14c09,651c1b4f5d3c65ff5e59bba5,4388,"{""ID"":""5ee623674afa60375e30eec3""}",,,,,,,,,,,
html-keyboard-response,2,10361,0.0-2.0,5ee623674afa60375e30eec3,650c16f0f2faf8d7a0d14c09,651c1b4f5d3c65ff5e59bba5,5116, ,"<p style=""font-size: 15px;"">Before beginning, we ask that you read the consent information and confirm your agreement to participate in the experiment.</p>
      <p style=""font-size: 15px;""> We ask that you remember that this is a research project and that your participation is entirely voluntary. You can stop your participation at any time, without needing to provide any explanation. The study we're asking you to participate in aims at examining how readers process written words. You will be engaged in a session of apprximately 20 minutes, followed by a brief questionnaire. You will have the opportunity to take a few breaks during the experiment. You will be paid £4 for your participation, corresponding to a rate of £8/hour. While this experiment looks at cognitive faculties, this experiment doesn't constitute clinical proof of eventual pathologies.</p>
      <p style=""font-size: 15px;"">All of the information collected thanks to yours and others' participation will be held in a secure password-protected server, and will not be shared with anyone not authorised to view it. Your personal information will be kept with an arbitrary participant ID. Thanks to this data anonymity process, any researcher analysing the data won't be able to track the information back to a specific participant. Therefore, this process will make identifying you impossibile, even when results from the study will be published in scientific reviews, presented at congresses, or at any other public forum. More generally, the collected data will be treated in accordance with the laws on privacy and conformity to the Legislative Degree n. 196 ""Code regarding the protection of personal data"" of the 30th of June 2003 and to the European Regulation 2016/670 (General Data Protection Regulation - GDPR). The Data Protection Officer is Avv. Valentina Carollo, who can be contacted at the following email addresses: <a href=""mailto:dpo@sissa.it"">dpo@sissa.it</a> or <a href=""mailto:rpd@sissa.it"">rpd@sissa.it</a> - PEC: <a href=""mailto:protocollo@pec.sissa.it"">protocollo@pec.sissa.it</a>.</p>
      <p style=""font-size: 15px;""> Before expressing your consent to participate, we would like to remind you again that in case you need explanations on any aspect of the experimental procedure, the researcher is at your disposition (<a href=""mailto:aliebelt@sissa.it"">aliebelt@sissa.it</a>, <a href=""mailto:davide.crepaldi@sissa.it"">davide.crepaldi@sissa.it</a>).</p>
      <p style=""font-size: 15px;"">If you would like to download the informed consent form, you can do so here: <a href=""BASL-Informed_Consent.pdf"" download>informed consent form</a>.</p>
      <p style=""font-size: 15px;"">We ask that you press the spacebar to proceed to the consent section.</p>",,,,,,,,,,
survey-html-form,3,30071,0.0-3.0,5ee623674afa60375e30eec3,650c16f0f2faf8d7a0d14c09,651c1b4f5d3c65ff5e59bba5,19703,"{""consent1"":""YES"",""consent2"":""YES"",""consent3"":""YES"",""consent4"":""YES"",""consent5"":""YES"",""consent6"":""YES""}",,,,,,,,,,,
fullscreen,4,35601,0.0-4.0,5ee623674afa60375e30eec3,650c16f0f2faf8d7a0d14c09,651c1b4f5d3c65ff5e59bba5,,,,TRUE,,,,,,,,,
html-keyboard-response,5,42300,0.0-5.0,5ee623674afa60375e30eec3,650c16f0f2faf8d7a0d14c09,651c1b4f5d3c65ff5e59bba5,6698, ,"<p>Welcome, and thank you very much for your time!</p>
      <p>In this experiment, you'll be a language expert who's been asked to take a look at words that Earth has received in its first communication with aliens. Your task, in this first part of the experiment, is to pay close attention to the words you'll be shown; later, world leaders will ask you questions on what you saw. The words will be shown to you quite quickly; it seems that the aliens were in a hurry :-)</p>
      <p>Press the spacebar to continue.<p>",,,,,,,,,,
html-keyboard-response,6,42352,0.0-6.0,5ee623674afa60375e30eec3,650c16f0f2faf8d7a0d14c09,651c1b4f5d3c65ff5e59bba5,null,null,"<p style=""font-size: 120px; font-family: BACS""> </p>",,,,,,,,,,
html-keyboard-response,7,91065,0.0-7.0,5ee623674afa60375e30eec3,650c16f0f2faf8d7a0d14c09,651c1b4f5d3c65ff5e59bba5,48713, ,"<p>Here is an example of the words you'll see:</p>
      <img src='esempio.png' height='400px'>
      <p>When you're ready to begin, press the spacebar.</p></div>",,,,,,,,,,
html-keyboard-response,8,92079,0.0-8.0-0.0,5ee623674afa60375e30eec3,650c16f0f2faf8d7a0d14c09,651c1b4f5d3c65ff5e59bba5,null,null,"<p style=""font-size: 60px; font-family: BACS"">OQarQOJlN</p>",,,,,,,,,,
html-keyboard-response,9,93096,0.0-8.0-0.1,5ee623674afa60375e30eec3,650c16f0f2faf8d7a0d14c09,651c1b4f5d3c65ff5e59bba5,null,null,"<p style=""font-size: 60px; font-family: BACS"">tdDdcPK</p>",,,,,,,,,,
html-keyboard-response,10,94098,0.0-8.0-0.2,5ee623674afa60375e30eec3,650c16f0f2faf8d7a0d14c09,651c1b4f5d3c65ff5e59bba5,null,null,"<p style=""font-size: 60px; font-family: BACS"">YlCPBlRE</p>",,,,,,,,,,
html-keyboard-response,11,95100,0.0-8.0-0.3,5ee623674afa60375e30eec3,650c16f0f2faf8d7a0d14c09,651c1b4f5d3c65ff5e59bba5,null,null,"<p style=""font-size: 60px; font-family: BACS"">hbmAOtM</p>",,,,,,,,,,
html-keyboard-response,12,96108,0.0-8.0-0.4,5ee623674afa60375e30eec3,650c16f0f2faf8d7a0d14c09,651c1b4f5d3c65ff5e59bba5,null,null,"<p style=""font-size: 60px; font-family: BACS"">OQarQGUOA</p>",,,,,,,,,,
html-keyboard-response,13,97123,0.0-8.0-0.5,5ee623674afa60375e30eec3,650c16f0f2faf8d7a0d14c09,651c1b4f5d3c65ff5e59bba5,null,null,"<p style=""font-size: 60px; font-family: BACS"">tdDdkDOm</p>",,,,,,,,,,
html-keyboard-response,14,98130,0.0-8.0-0.6,5ee623674afa60375e30eec3,650c16f0f2faf8d7a0d14c09,651c1b4f5d3c65ff5e59bba5,null,null,"<p style=""font-size: 60px; font-family: BACS"">uQkrdGUOA</p>",,,,,,,,,,
html-keyboard-response,15,99139,0.0-8.0-0.7,5ee623674afa60375e30eec3,650c16f0f2faf8d7a0d14c09,651c1b4f5d3c65ff5e59bba5,null,null,"<p style=""font-size: 60px; font-family: BACS"">PlEKlRE</p>",,,,,,,,,,
html-keyboard-response,16,100154,0.0-8.0-0.8,5ee623674afa60375e30eec3,650c16f0f2faf8d7a0d14c09,651c1b4f5d3c65ff5e59bba5,null,null,"<p style=""font-size: 60px; font-family: BACS"">hTtBbkDOm</p>",,,,,,,,,,
html-keyboard-response,17,101170,0.0-8.0-0.9,5ee623674afa60375e30eec3,650c16f0f2faf8d7a0d14c09,651c1b4f5d3c65ff5e59bba5,null,null,"<p style=""font-size: 60px; font-family: BACS"">hbmAEPBT</p>",,,,,,,,,,
html-keyboard-response,18,102185,0.0-8.0-0.10,5ee623674afa60375e30eec3,650c16f0f2faf8d7a0d14c09,651c1b4f5d3c65ff5e59bba5,null,null,"<p style=""font-size: 60px; font-family: BACS"">KTDTBOtM</p>",,,,,,,,,,
html-keyboard-response,19,103187,0.0-8.0-0.11,5ee623674afa60375e30eec3,650c16f0f2faf8d7a0d14c09,651c1b4f5d3c65ff5e59bba5,null,null,"<p style=""font-size: 60px; font-family: BACS"">OQarQYLU</p>",,,,,,,,,,
html-keyboard-response,20,104188,0.0-8.0-0.12,5ee623674afa60375e30eec3,650c16f0f2faf8d7a0d14c09,651c1b4f5d3c65ff5e59bba5,null,null,"<p style=""font-size: 60px; font-family: BACS"">uQkrdYaum</p>",,,,,,,,,,
html-keyboard-response,21,105190,0.0-8.0-0.13,5ee623674afa60375e30eec3,650c16f0f2faf8d7a0d14c09,651c1b4f5d3c65ff5e59bba5,null,null,"<p style=""font-size: 60px; font-family: BACS"">cuOJbYLU</p>",,,,,,,,,,
html-keyboard-response,22,106208,0.0-8.0-0.14,5ee623674afa60375e30eec3,650c16f0f2faf8d7a0d14c09,651c1b4f5d3c65ff5e59bba5,null,null,"<p style=""font-size: 60px; font-family: BACS"">AZlLNcrdY</p>",,,,,,,,,,
html-keyboard-response,23,107215,0.0-8.0-0.15,5ee623674afa60375e30eec3,650c16f0f2faf8d7a0d14c09,651c1b4f5d3c65ff5e59bba5,null,null,"<p style=""font-size: 60px; font-family: BACS"">OQarQYaum</p>",,,,,,,,,,
html-keyboard-response,24,108230,0.0-8.0-0.16,5ee623674afa60375e30eec3,650c16f0f2faf8d7a0d14c09,651c1b4f5d3c65ff5e59bba5,null,null,"<p style=""font-size: 60px; font-family: BACS"">AZlLNOJlN</p>",,,,,,,,,,
html-keyboard-response,25,109234,0.0-8.0-0.17,5ee623674afa60375e30eec3,650c16f0f2faf8d7a0d14c09,651c1b4f5d3c65ff5e59bba5,null,null,"<p style=""font-size: 60px; font-family: BACS"">PlEKcPK</p>",,,,,,,,,,
html-keyboard-response,26,110247,0.0-8.0-0.18,5ee623674afa60375e30eec3,650c16f0f2faf8d7a0d14c09,651c1b4f5d3c65ff5e59bba5,null,null,"<p style=""font-size: 60px; font-family: BACS"">hCktEPBT</p>",,,,,,,,,,
html-keyboard-response,27,111262,0.0-8.0-0.19,5ee623674afa60375e30eec3,650c16f0f2faf8d7a0d14c09,651c1b4f5d3c65ff5e59bba5,null,null,"<p style=""font-size: 60px; font-family: BACS"">cuOJbYaum</p>",,,,,,,,,,
html-keyboard-response,28,112263,0.0-8.0-0.20,5ee623674afa60375e30eec3,650c16f0f2faf8d7a0d14c09,651c1b4f5d3c65ff5e59bba5,null,null,"<p style=""font-size: 60px; font-family: BACS"">tdDdOtM</p>",,,,,,,,,,
html-keyboard-response,29,113277,0.0-8.0-0.21,5ee623674afa60375e30eec3,650c16f0f2faf8d7a0d14c09,651c1b4f5d3c65ff5e59bba5,null,null,"<p style=""font-size: 60px; font-family: BACS"">KTDTBkDOm</p>",,,,,,,,,,
html-keyboard-response,30,114279,0.0-8.0-0.22,5ee623674afa60375e30eec3,650c16f0f2faf8d7a0d14c09,651c1b4f5d3c65ff5e59bba5,null,null,"<p style=""font-size: 60px; font-family: BACS"">YlCPBEPBT</p>",,,,,,,,,,
html-keyboard-response,31,115282,0.0-8.0-0.23,5ee623674afa60375e30eec3,650c16f0f2faf8d7a0d14c09,651c1b4f5d3c65ff5e59bba5,null,null,"<p style=""font-size: 60px; font-family: BACS"">mbZlYLU</p>",,,,,,,,,,
html-keyboard-response,32,116299,0.0-8.0-0.24,5ee623674afa60375e30eec3,650c16f0f2faf8d7a0d14c09,651c1b4f5d3c65ff5e59bba5,null,null,"<p style=""font-size: 60px; font-family: BACS"">dRhtOtM</p>",,,,,,,,,,
html-keyboard-response,33,117307,0.0-8.0-0.25,5ee623674afa60375e30eec3,650c16f0f2faf8d7a0d14c09,651c1b4f5d3c65ff5e59bba5,null,null,"<p style=""font-size: 60px; font-family: BACS"">lZcuYaum</p>",,,,,,,,,,
html-keyboard-response,34,118325,0.0-8.0-0.26,5ee623674afa60375e30eec3,650c16f0f2faf8d7a0d14c09,651c1b4f5d3c65ff5e59bba5,null,null,"<p style=""font-size: 60px; font-family: BACS"">hCktOtM</p>",,,,,,,,,,
html-keyboard-response,35,119339,0.0-8.0-0.27,5ee623674afa60375e30eec3,650c16f0f2faf8d7a0d14c09,651c1b4f5d3c65ff5e59bba5,null,null,"<p style=""font-size: 60px; font-family: BACS"">mLdkZOJlN</p>",,,,,,,,,,
html-keyboard-response,36,120355,0.0-8.0-0.28,5ee623674afa60375e30eec3,650c16f0f2faf8d7a0d14c09,651c1b4f5d3c65ff5e59bba5,null,null,"<p style=""font-size: 60px; font-family: BACS"">dRhtEPBT</p>",,,,,,,,,,
html-keyboard-response,37,121371,0.0-8.0-0.29,5ee623674afa60375e30eec3,650c16f0f2faf8d7a0d14c09,651c1b4f5d3c65ff5e59bba5,null,null,"<p style=""font-size: 60px; font-family: BACS"">hbmAkDOm</p>",,,,,,,,,,
html-keyboard-response,38,122384,0.0-8.0-0.30,5ee623674afa60375e30eec3,650c16f0f2faf8d7a0d14c09,651c1b4f5d3c65ff5e59bba5,null,null,"<p style=""font-size: 60px; font-family: BACS"">DBlhlRE</p>",,,,,,,,,,
html-keyboard-response,39,123387,0.0-8.0-0.31,5ee623674afa60375e30eec3,650c16f0f2faf8d7a0d14c09,651c1b4f5d3c65ff5e59bba5,null,null,"<p style=""font-size: 60px; font-family: BACS"">YlCPBcPK</p>",,,,,,,,,,
html-keyboard-response,40,124400,0.0-8.0-0.32,5ee623674afa60375e30eec3,650c16f0f2faf8d7a0d14c09,651c1b4f5d3c65ff5e59bba5,null,null,"<p style=""font-size: 60px; font-family: BACS"">lZcucrdY</p>",,,,,,,,,,
html-keyboard-response,41,125403,0.0-8.0-0.33,5ee623674afa60375e30eec3,650c16f0f2faf8d7a0d14c09,651c1b4f5d3c65ff5e59bba5,null,null,"<p style=""font-size: 60px; font-family: BACS"">DBlhkDOm</p>",,,,,,,,,,
html-keyboard-response,42,126406,0.0-8.0-0.34,5ee623674afa60375e30eec3,650c16f0f2faf8d7a0d14c09,651c1b4f5d3c65ff5e59bba5,null,null,"<p style=""font-size: 60px; font-family: BACS"">hTtBblRE</p>",,,,,,,,,,
html-keyboard-response,43,127408,0.0-8.0-0.35,5ee623674afa60375e30eec3,650c16f0f2faf8d7a0d14c09,651c1b4f5d3c65ff5e59bba5,null,null,"<p style=""font-size: 60px; font-family: BACS"">uQkrdYLU</p>",,,,,,,,,,
html-keyboard-response,44,128415,0.0-8.0-0.36,5ee623674afa60375e30eec3,650c16f0f2faf8d7a0d14c09,651c1b4f5d3c65ff5e59bba5,null,null,"<p style=""font-size: 60px; font-family: BACS"">hbmAcPK</p>",,,,,,,,,,
html-keyboard-response,45,129431,0.0-8.0-0.37,5ee623674afa60375e30eec3,650c16f0f2faf8d7a0d14c09,651c1b4f5d3c65ff5e59bba5,null,null,"<p style=""font-size: 60px; font-family: BACS"">cuOJbOJlN</p>",,,,,,,,,,
html-keyboard-response,46,130447,0.0-8.0-0.38,5ee623674afa60375e30eec3,650c16f0f2faf8d7a0d14c09,651c1b4f5d3c65ff5e59bba5,null,null,"<p style=""font-size: 60px; font-family: BACS"">mLdkZcrdY</p>",,,,,,,,,,
html-keyboard-response,47,131463,0.0-8.0-0.39,5ee623674afa60375e30eec3,650c16f0f2faf8d7a0d14c09,651c1b4f5d3c65ff5e59bba5,null,null,"<p style=""font-size: 60px; font-family: BACS"">LQurYaum</p>",,,,,,,,,,
html-keyboard-response,48,132476,0.0-8.0-0.40,5ee623674afa60375e30eec3,650c16f0f2faf8d7a0d14c09,651c1b4f5d3c65ff5e59bba5,null,null,"<p style=""font-size: 60px; font-family: BACS"">KTDTBcPK</p>",,,,,,,,,,
html-keyboard-response,49,133492,0.0-8.0-0.41,5ee623674afa60375e30eec3,650c16f0f2faf8d7a0d14c09,651c1b4f5d3c65ff5e59bba5,null,null,"<p style=""font-size: 60px; font-family: BACS"">mbZlOJlN</p>",,,,,,,,,,
html-keyboard-response,50,134495,0.0-8.0-0.42,5ee623674afa60375e30eec3,650c16f0f2faf8d7a0d14c09,651c1b4f5d3c65ff5e59bba5,null,null,"<p style=""font-size: 60px; font-family: BACS"">DBlhOtM</p>",,,,,,,,,,
html-keyboard-response,51,135510,0.0-8.0-0.43,5ee623674afa60375e30eec3,650c16f0f2faf8d7a0d14c09,651c1b4f5d3c65ff5e59bba5,null,null,"<p style=""font-size: 60px; font-family: BACS"">dRhtcPK</p>",,,,,,,,,,
html-keyboard-response,52,136512,0.0-8.0-0.44,5ee623674afa60375e30eec3,650c16f0f2faf8d7a0d14c09,651c1b4f5d3c65ff5e59bba5,null,null,"<p style=""font-size: 60px; font-family: BACS"">PlEKkDOm</p>",,,,,,,,,,
html-keyboard-response,53,137515,0.0-8.0-0.45,5ee623674afa60375e30eec3,650c16f0f2faf8d7a0d14c09,651c1b4f5d3c65ff5e59bba5,null,null,"<p style=""font-size: 60px; font-family: BACS"">dRhtlRE</p>",,,,,,,,,,
html-keyboard-response,54,138532,0.0-8.0-0.46,5ee623674afa60375e30eec3,650c16f0f2faf8d7a0d14c09,651c1b4f5d3c65ff5e59bba5,null,null,"<p style=""font-size: 60px; font-family: BACS"">ObOQlYLU</p>",,,,,,,,,,
html-keyboard-response,55,139541,0.0-8.0-0.47,5ee623674afa60375e30eec3,650c16f0f2faf8d7a0d14c09,651c1b4f5d3c65ff5e59bba5,null,null,"<p style=""font-size: 60px; font-family: BACS"">AZlLNGUOA</p>",,,,,,,,,,
html-keyboard-response,56,140554,0.0-8.0-0.48,5ee623674afa60375e30eec3,650c16f0f2faf8d7a0d14c09,651c1b4f5d3c65ff5e59bba5,null,null,"<p style=""font-size: 60px; font-family: BACS"">tdDdEPBT</p>",,,,,,,,,,
html-keyboard-response,57,141556,0.0-8.0-0.49,5ee623674afa60375e30eec3,650c16f0f2faf8d7a0d14c09,651c1b4f5d3c65ff5e59bba5,null,null,"<p style=""font-size: 60px; font-family: BACS"">hCktlRE</p>",,,,,,,,,,
html-keyboard-response,58,142570,0.0-8.0-0.50,5ee623674afa60375e30eec3,650c16f0f2faf8d7a0d14c09,651c1b4f5d3c65ff5e59bba5,null,null,"<p style=""font-size: 60px; font-family: BACS"">AbkaGUOA</p>",,,,,,,,,,
html-keyboard-response,59,143584,0.0-8.0-0.51,5ee623674afa60375e30eec3,650c16f0f2faf8d7a0d14c09,651c1b4f5d3c65ff5e59bba5,null,null,"<p style=""font-size: 60px; font-family: BACS"">TAdhMcPK</p>",,,,,,,,,,
html-keyboard-response,60,144601,0.0-8.0-0.52,5ee623674afa60375e30eec3,650c16f0f2faf8d7a0d14c09,651c1b4f5d3c65ff5e59bba5,null,null,"<p style=""font-size: 60px; font-family: BACS"">AbkaOJlN</p>",,,,,,,,,,
html-keyboard-response,61,145618,0.0-8.0-0.53,5ee623674afa60375e30eec3,650c16f0f2faf8d7a0d14c09,651c1b4f5d3c65ff5e59bba5,null,null,"<p style=""font-size: 60px; font-family: BACS"">KTDTBlRE</p>",,,,,,,,,,
html-keyboard-response,62,146633,0.0-8.0-0.54,5ee623674afa60375e30eec3,650c16f0f2faf8d7a0d14c09,651c1b4f5d3c65ff5e59bba5,null,null,"<p style=""font-size: 60px; font-family: BACS"">YlCPBkDOm</p>",,,,,,,,,,
html-keyboard-response,63,147636,0.0-8.0-0.55,5ee623674afa60375e30eec3,650c16f0f2faf8d7a0d14c09,651c1b4f5d3c65ff5e59bba5,null,null,"<p style=""font-size: 60px; font-family: BACS"">DBlhEPBT</p>",,,,,,,,,,
html-keyboard-response,64,148639,0.0-8.0-0.56,5ee623674afa60375e30eec3,650c16f0f2faf8d7a0d14c09,651c1b4f5d3c65ff5e59bba5,null,null,"<p style=""font-size: 60px; font-family: BACS"">AbkaYaum</p>",,,,,,,,,,
html-keyboard-response,65,149647,0.0-8.0-0.57,5ee623674afa60375e30eec3,650c16f0f2faf8d7a0d14c09,651c1b4f5d3c65ff5e59bba5,null,null,"<p style=""font-size: 60px; font-family: BACS"">LQurcrdY</p>",,,,,,,,,,
html-keyboard-response,66,150663,0.0-8.0-0.58,5ee623674afa60375e30eec3,650c16f0f2faf8d7a0d14c09,651c1b4f5d3c65ff5e59bba5,null,null,"<p style=""font-size: 60px; font-family: BACS"">lZcuYLU</p>",,,,,,,,,,
html-keyboard-response,67,151679,0.0-8.0-0.59,5ee623674afa60375e30eec3,650c16f0f2faf8d7a0d14c09,651c1b4f5d3c65ff5e59bba5,null,null,"<p style=""font-size: 60px; font-family: BACS"">ObOQlYaum</p>",,,,,,,,,,
html-keyboard-response,68,152694,0.0-8.0-0.60,5ee623674afa60375e30eec3,650c16f0f2faf8d7a0d14c09,651c1b4f5d3c65ff5e59bba5,null,null,"<p style=""font-size: 60px; font-family: BACS"">uQkrdcrdY</p>",,,,,,,,,,
html-keyboard-response,69,153710,0.0-8.0-0.61,5ee623674afa60375e30eec3,650c16f0f2faf8d7a0d14c09,651c1b4f5d3c65ff5e59bba5,null,null,"<p style=""font-size: 60px; font-family: BACS"">hTtBbEPBT</p>",,,,,,,,,,
html-keyboard-response,70,154724,0.0-8.0-0.62,5ee623674afa60375e30eec3,650c16f0f2faf8d7a0d14c09,651c1b4f5d3c65ff5e59bba5,null,null,"<p style=""font-size: 60px; font-family: BACS"">ObOQlGUOA</p>",,,,,,,,,,
html-keyboard-response,71,155726,0.0-8.0-0.63,5ee623674afa60375e30eec3,650c16f0f2faf8d7a0d14c09,651c1b4f5d3c65ff5e59bba5,null,null,"<p style=""font-size: 60px; font-family: BACS"">hCktcPK</p>",,,,,,,,,,
html-keyboard-response,72,156742,0.0-8.0-0.64,5ee623674afa60375e30eec3,650c16f0f2faf8d7a0d14c09,651c1b4f5d3c65ff5e59bba5,null,null,"<p style=""font-size: 60px; font-family: BACS"">TAdhMlRE</p>",,,,,,,,,,
html-keyboard-response,73,157758,0.0-8.0-0.65,5ee623674afa60375e30eec3,650c16f0f2faf8d7a0d14c09,651c1b4f5d3c65ff5e59bba5,null,null,"<p style=""font-size: 60px; font-family: BACS"">hTtBbOtM</p>",,,,,,,,,,
html-keyboard-response,74,158774,0.0-8.0-0.66,5ee623674afa60375e30eec3,650c16f0f2faf8d7a0d14c09,651c1b4f5d3c65ff5e59bba5,null,null,"<p style=""font-size: 60px; font-family: BACS"">LQurYLU</p>",,,,,,,,,,
html-keyboard-response,75,159779,0.0-8.0-0.67,5ee623674afa60375e30eec3,650c16f0f2faf8d7a0d14c09,651c1b4f5d3c65ff5e59bba5,null,null,"<p style=""font-size: 60px; font-family: BACS"">mLdkZYaum</p>",,,,,,,,,,
html-keyboard-response,76,160798,0.0-8.0-0.68,5ee623674afa60375e30eec3,650c16f0f2faf8d7a0d14c09,651c1b4f5d3c65ff5e59bba5,null,null,"<p style=""font-size: 60px; font-family: BACS"">PlEKEPBT</p>",,,,,,,,,,
html-keyboard-response,77,161806,0.0-8.0-0.69,5ee623674afa60375e30eec3,650c16f0f2faf8d7a0d14c09,651c1b4f5d3c65ff5e59bba5,null,null,"<p style=""font-size: 60px; font-family: BACS"">TAdhMOtM</p>",,,,,,,,,,
html-keyboard-response,78,162819,0.0-8.0-0.70,5ee623674afa60375e30eec3,650c16f0f2faf8d7a0d14c09,651c1b4f5d3c65ff5e59bba5,null,null,"<p style=""font-size: 60px; font-family: BACS"">lZcuGUOA</p>",,,,,,,,,,
html-keyboard-response,79,163820,0.0-8.0-0.71,5ee623674afa60375e30eec3,650c16f0f2faf8d7a0d14c09,651c1b4f5d3c65ff5e59bba5,null,null,"<p style=""font-size: 60px; font-family: BACS"">ObOQlOJlN</p>",,,,,,,,,,
html-keyboard-response,80,164835,0.0-8.0-0.72,5ee623674afa60375e30eec3,650c16f0f2faf8d7a0d14c09,651c1b4f5d3c65ff5e59bba5,null,null,"<p style=""font-size: 60px; font-family: BACS"">AbkacrdY</p>",,,,,,,,,,
html-keyboard-response,81,165849,0.0-8.0-0.73,5ee623674afa60375e30eec3,650c16f0f2faf8d7a0d14c09,651c1b4f5d3c65ff5e59bba5,null,null,"<p style=""font-size: 60px; font-family: BACS"">mbZlGUOA</p>",,,,,,,,,,
html-keyboard-response,82,166864,0.0-8.0-0.74,5ee623674afa60375e30eec3,650c16f0f2faf8d7a0d14c09,651c1b4f5d3c65ff5e59bba5,null,null,"<p style=""font-size: 60px; font-family: BACS"">LQurOJlN</p>",,,,,,,,,,
html-keyboard-response,83,167867,0.0-8.0-0.75,5ee623674afa60375e30eec3,650c16f0f2faf8d7a0d14c09,651c1b4f5d3c65ff5e59bba5,null,null,"<p style=""font-size: 60px; font-family: BACS"">mLdkZGUOA</p>",,,,,,,,,,
html-keyboard-response,84,168882,0.0-8.0-0.76,5ee623674afa60375e30eec3,650c16f0f2faf8d7a0d14c09,651c1b4f5d3c65ff5e59bba5,null,null,"<p style=""font-size: 60px; font-family: BACS"">mbZlcrdY</p>",,,,,,,,,,
html-keyboard-response,85,169885,0.0-8.0-0.77,5ee623674afa60375e30eec3,650c16f0f2faf8d7a0d14c09,651c1b4f5d3c65ff5e59bba5,null,null,"<p style=""font-size: 60px; font-family: BACS"">AZlLNYLU</p>",,,,,,,,,,
html-keyboard-response,86,170888,0.0-8.0-0.78,5ee623674afa60375e30eec3,650c16f0f2faf8d7a0d14c09,651c1b4f5d3c65ff5e59bba5,null,null,"<p style=""font-size: 60px; font-family: BACS"">cuOJbcrdY</p>",,,,,,,,,,
html-keyboard-response,87,171894,0.0-8.0-0.79,5ee623674afa60375e30eec3,650c16f0f2faf8d7a0d14c09,651c1b4f5d3c65ff5e59bba5,null,null,"<p style=""font-size: 60px; font-family: BACS"">TAdhMkDOm</p>",,,,,,,,,,
html-keyboard-response,88,285595,0.0-9.0,5ee623674afa60375e30eec3,650c16f0f2faf8d7a0d14c09,651c1b4f5d3c65ff5e59bba5,113704, ,"<p>Great, you've seen the first block of words. You may now take a short break.</p>
      <p>Press the spacebar when you're ready to continue.</p>",,,,,,,,,,
html-keyboard-response,89,286599,0.0-10.0-0.0,5ee623674afa60375e30eec3,650c16f0f2faf8d7a0d14c09,651c1b4f5d3c65ff5e59bba5,null,null,"<p style=""font-size: 60px; font-family: BACS"">KTDTBkDOm</p>",,,,,,,,,,
html-keyboard-response,90,287613,0.0-10.0-0.1,5ee623674afa60375e30eec3,650c16f0f2faf8d7a0d14c09,651c1b4f5d3c65ff5e59bba5,null,null,"<p style=""font-size: 60px; font-family: BACS"">hbmAOtM</p>",,,,,,,,,,
html-keyboard-response,91,288616,0.0-10.0-0.2,5ee623674afa60375e30eec3,650c16f0f2faf8d7a0d14c09,651c1b4f5d3c65ff5e59bba5,null,null,"<p style=""font-size: 60px; font-family: BACS"">lZcuGUOA</p>",,,,,,,,,,
html-keyboard-response,92,289619,0.0-10.0-0.3,5ee623674afa60375e30eec3,650c16f0f2faf8d7a0d14c09,651c1b4f5d3c65ff5e59bba5,null,null,"<p style=""font-size: 60px; font-family: BACS"">AZlLNOJlN</p>",,,,,,,,,,
html-keyboard-response,93,290636,0.0-10.0-0.4,5ee623674afa60375e30eec3,650c16f0f2faf8d7a0d14c09,651c1b4f5d3c65ff5e59bba5,null,null,"<p style=""font-size: 60px; font-family: BACS"">KTDTBcPK</p>",,,,,,,,,,
html-keyboard-response,94,291644,0.0-10.0-0.5,5ee623674afa60375e30eec3,650c16f0f2faf8d7a0d14c09,651c1b4f5d3c65ff5e59bba5,null,null,"<p style=""font-size: 60px; font-family: BACS"">DBlhEPBT</p>",,,,,,,,,,
html-keyboard-response,95,292658,0.0-10.0-0.6,5ee623674afa60375e30eec3,650c16f0f2faf8d7a0d14c09,651c1b4f5d3c65ff5e59bba5,null,null,"<p style=""font-size: 60px; font-family: BACS"">cuOJbOJlN</p>",,,,,,,,,,
html-keyboard-response,96,293664,0.0-10.0-0.7,5ee623674afa60375e30eec3,650c16f0f2faf8d7a0d14c09,651c1b4f5d3c65ff5e59bba5,null,null,"<p style=""font-size: 60px; font-family: BACS"">uQkrdYLU</p>",,,,,,,,,,
html-keyboard-response,97,294667,0.0-10.0-0.8,5ee623674afa60375e30eec3,650c16f0f2faf8d7a0d14c09,651c1b4f5d3c65ff5e59bba5,null,null,"<p style=""font-size: 60px; font-family: BACS"">AZlLNcrdY</p>",,,,,,,,,,
html-keyboard-response,98,295673,0.0-10.0-0.9,5ee623674afa60375e30eec3,650c16f0f2faf8d7a0d14c09,651c1b4f5d3c65ff5e59bba5,null,null,"<p style=""font-size: 60px; font-family: BACS"">PlEKcPK</p>",,,,,,,,,,
html-keyboard-response,99,296689,0.0-10.0-0.10,5ee623674afa60375e30eec3,650c16f0f2faf8d7a0d14c09,651c1b4f5d3c65ff5e59bba5,null,null,"<p style=""font-size: 60px; font-family: BACS"">tdDdOtM</p>",,,,,,,,,,
html-keyboard-response,100,297704,0.0-10.0-0.11,5ee623674afa60375e30eec3,650c16f0f2faf8d7a0d14c09,651c1b4f5d3c65ff5e59bba5,null,null,"<p style=""font-size: 60px; font-family: BACS"">AbkaYaum</p>",,,,,,,,,,
html-keyboard-response,101,298715,0.0-10.0-0.12,5ee623674afa60375e30eec3,650c16f0f2faf8d7a0d14c09,651c1b4f5d3c65ff5e59bba5,null,null,"<p style=""font-size: 60px; font-family: BACS"">lZcuYLU</p>",,,,,,,,,,
html-keyboard-response,102,299725,0.0-10.0-0.13,5ee623674afa60375e30eec3,650c16f0f2faf8d7a0d14c09,651c1b4f5d3c65ff5e59bba5,null,null,"<p style=""font-size: 60px; font-family: BACS"">LQurOJlN</p>",,,,,,,,,,
html-keyboard-response,103,300735,0.0-10.0-0.14,5ee623674afa60375e30eec3,650c16f0f2faf8d7a0d14c09,651c1b4f5d3c65ff5e59bba5,null,null,"<p style=""font-size: 60px; font-family: BACS"">TAdhMcPK</p>",,,,,,,,,,
html-keyboard-response,104,301737,0.0-10.0-0.15,5ee623674afa60375e30eec3,650c16f0f2faf8d7a0d14c09,651c1b4f5d3c65ff5e59bba5,null,null,"<p style=""font-size: 60px; font-family: BACS"">dRhtlRE</p>",,,,,,,,,,
html-keyboard-response,105,302750,0.0-10.0-0.16,5ee623674afa60375e30eec3,650c16f0f2faf8d7a0d14c09,651c1b4f5d3c65ff5e59bba5,null,null,"<p style=""font-size: 60px; font-family: BACS"">hCktcPK</p>",,,,,,,,,,
html-keyboard-response,106,303766,0.0-10.0-0.17,5ee623674afa60375e30eec3,650c16f0f2faf8d7a0d14c09,651c1b4f5d3c65ff5e59bba5,null,null,"<p style=""font-size: 60px; font-family: BACS"">LQurYaum</p>",,,,,,,,,,
html-keyboard-response,107,304783,0.0-10.0-0.18,5ee623674afa60375e30eec3,650c16f0f2faf8d7a0d14c09,651c1b4f5d3c65ff5e59bba5,null,null,"<p style=""font-size: 60px; font-family: BACS"">mbZlcrdY</p>",,,,,,,,,,
html-keyboard-response,108,305798,0.0-10.0-0.19,5ee623674afa60375e30eec3,650c16f0f2faf8d7a0d14c09,651c1b4f5d3c65ff5e59bba5,null,null,"<p style=""font-size: 60px; font-family: BACS"">mLdkZOJlN</p>",,,,,,,,,,
html-keyboard-response,109,306812,0.0-10.0-0.20,5ee623674afa60375e30eec3,650c16f0f2faf8d7a0d14c09,651c1b4f5d3c65ff5e59bba5,null,null,"<p style=""font-size: 60px; font-family: BACS"">AZlLNGUOA</p>",,,,,,,,,,
html-keyboard-response,110,307815,0.0-10.0-0.21,5ee623674afa60375e30eec3,650c16f0f2faf8d7a0d14c09,651c1b4f5d3c65ff5e59bba5,null,null,"<p style=""font-size: 60px; font-family: BACS"">uQkrdYaum</p>",,,,,,,,,,
html-keyboard-response,111,308822,0.0-10.0-0.22,5ee623674afa60375e30eec3,650c16f0f2faf8d7a0d14c09,651c1b4f5d3c65ff5e59bba5,null,null,"<p style=""font-size: 60px; font-family: BACS"">TAdhMkDOm</p>",,,,,,,,,,
html-keyboard-response,112,309830,0.0-10.0-0.23,5ee623674afa60375e30eec3,650c16f0f2faf8d7a0d14c09,651c1b4f5d3c65ff5e59bba5,null,null,"<p style=""font-size: 60px; font-family: BACS"">YlCPBEPBT</p>",,,,,,,,,,
html-keyboard-response,113,310833,0.0-10.0-0.24,5ee623674afa60375e30eec3,650c16f0f2faf8d7a0d14c09,651c1b4f5d3c65ff5e59bba5,null,null,"<p style=""font-size: 60px; font-family: BACS"">OQarQOJlN</p>",,,,,,,,,,
html-keyboard-response,114,311851,0.0-10.0-0.25,5ee623674afa60375e30eec3,650c16f0f2faf8d7a0d14c09,651c1b4f5d3c65ff5e59bba5,null,null,"<p style=""font-size: 60px; font-family: BACS"">hTtBbEPBT</p>",,,,,,,,,,
html-keyboard-response,115,312860,0.0-10.0-0.26,5ee623674afa60375e30eec3,650c16f0f2faf8d7a0d14c09,651c1b4f5d3c65ff5e59bba5,null,null,"<p style=""font-size: 60px; font-family: BACS"">hbmAcPK</p>",,,,,,,,,,
html-keyboard-response,116,313875,0.0-10.0-0.27,5ee623674afa60375e30eec3,650c16f0f2faf8d7a0d14c09,651c1b4f5d3c65ff5e59bba5,null,null,"<p style=""font-size: 60px; font-family: BACS"">LQurYLU</p>",,,,,,,,,,
html-keyboard-response,117,314890,0.0-10.0-0.28,5ee623674afa60375e30eec3,650c16f0f2faf8d7a0d14c09,651c1b4f5d3c65ff5e59bba5,null,null,"<p style=""font-size: 60px; font-family: BACS"">lZcucrdY</p>",,,,,,,,,,
html-keyboard-response,118,315906,0.0-10.0-0.29,5ee623674afa60375e30eec3,650c16f0f2faf8d7a0d14c09,651c1b4f5d3c65ff5e59bba5,null,null,"<p style=""font-size: 60px; font-family: BACS"">ObOQlYLU</p>",,,,,,,,,,
html-keyboard-response,119,316922,0.0-10.0-0.30,5ee623674afa60375e30eec3,650c16f0f2faf8d7a0d14c09,651c1b4f5d3c65ff5e59bba5,null,null,"<p style=""font-size: 60px; font-family: BACS"">DBlhkDOm</p>",,,,,,,,,,
html-keyboard-response,120,317936,0.0-10.0-0.31,5ee623674afa60375e30eec3,650c16f0f2faf8d7a0d14c09,651c1b4f5d3c65ff5e59bba5,null,null,"<p style=""font-size: 60px; font-family: BACS"">KTDTBOtM</p>",,,,,,,,,,
html-keyboard-response,121,318938,0.0-10.0-0.32,5ee623674afa60375e30eec3,650c16f0f2faf8d7a0d14c09,651c1b4f5d3c65ff5e59bba5,null,null,"<p style=""font-size: 60px; font-family: BACS"">hCktEPBT</p>",,,,,,,,,,
html-keyboard-response,122,319953,0.0-10.0-0.33,5ee623674afa60375e30eec3,650c16f0f2faf8d7a0d14c09,651c1b4f5d3c65ff5e59bba5,null,null,"<p style=""font-size: 60px; font-family: BACS"">mLdkZGUOA</p>",,,,,,,,,,
html-keyboard-response,123,320970,0.0-10.0-0.34,5ee623674afa60375e30eec3,650c16f0f2faf8d7a0d14c09,651c1b4f5d3c65ff5e59bba5,null,null,"<p style=""font-size: 60px; font-family: BACS"">ObOQlOJlN</p>",,,,,,,,,,
html-keyboard-response,124,321974,0.0-10.0-0.35,5ee623674afa60375e30eec3,650c16f0f2faf8d7a0d14c09,651c1b4f5d3c65ff5e59bba5,null,null,"<p style=""font-size: 60px; font-family: BACS"">cuOJbYaum</p>",,,,,,,,,,
html-keyboard-response,125,322991,0.0-10.0-0.36,5ee623674afa60375e30eec3,650c16f0f2faf8d7a0d14c09,651c1b4f5d3c65ff5e59bba5,null,null,"<p style=""font-size: 60px; font-family: BACS"">mbZlOJlN</p>",,,,,,,,,,
html-keyboard-response,126,323999,0.0-10.0-0.37,5ee623674afa60375e30eec3,650c16f0f2faf8d7a0d14c09,651c1b4f5d3c65ff5e59bba5,null,null,"<p style=""font-size: 60px; font-family: BACS"">mLdkZcrdY</p>",,,,,,,,,,
html-keyboard-response,127,325015,0.0-10.0-0.38,5ee623674afa60375e30eec3,650c16f0f2faf8d7a0d14c09,651c1b4f5d3c65ff5e59bba5,null,null,"<p style=""font-size: 60px; font-family: BACS"">ObOQlGUOA</p>",,,,,,,,,,
html-keyboard-response,128,326016,0.0-10.0-0.39,5ee623674afa60375e30eec3,650c16f0f2faf8d7a0d14c09,651c1b4f5d3c65ff5e59bba5,null,null,"<p style=""font-size: 60px; font-family: BACS"">LQurcrdY</p>",,,,,,,,,,
html-keyboard-response,129,327030,0.0-10.0-0.40,5ee623674afa60375e30eec3,650c16f0f2faf8d7a0d14c09,651c1b4f5d3c65ff5e59bba5,null,null,"<p style=""font-size: 60px; font-family: BACS"">OQarQYLU</p>",,,,,,,,,,
html-keyboard-response,130,328045,0.0-10.0-0.41,5ee623674afa60375e30eec3,650c16f0f2faf8d7a0d14c09,651c1b4f5d3c65ff5e59bba5,null,null,"<p style=""font-size: 60px; font-family: BACS"">uQkrdcrdY</p>",,,,,,,,,,
html-keyboard-response,131,329062,0.0-10.0-0.42,5ee623674afa60375e30eec3,650c16f0f2faf8d7a0d14c09,651c1b4f5d3c65ff5e59bba5,null,null,"<p style=""font-size: 60px; font-family: BACS"">tdDdcPK</p>",,,,,,,,,,
html-keyboard-response,132,330078,0.0-10.0-0.43,5ee623674afa60375e30eec3,650c16f0f2faf8d7a0d14c09,651c1b4f5d3c65ff5e59bba5,null,null,"<p style=""font-size: 60px; font-family: BACS"">AZlLNYLU</p>",,,,,,,,,,
html-keyboard-response,133,331094,0.0-10.0-0.44,5ee623674afa60375e30eec3,650c16f0f2faf8d7a0d14c09,651c1b4f5d3c65ff5e59bba5,null,null,"<p style=""font-size: 60px; font-family: BACS"">PlEKlRE</p>",,,,,,,,,,
html-keyboard-response,134,332095,0.0-10.0-0.45,5ee623674afa60375e30eec3,650c16f0f2faf8d7a0d14c09,651c1b4f5d3c65ff5e59bba5,null,null,"<p style=""font-size: 60px; font-family: BACS"">mLdkZYaum</p>",,,,,,,,,,
html-keyboard-response,135,333098,0.0-10.0-0.46,5ee623674afa60375e30eec3,650c16f0f2faf8d7a0d14c09,651c1b4f5d3c65ff5e59bba5,null,null,"<p style=""font-size: 60px; font-family: BACS"">YlCPBlRE</p>",,,,,,,,,,
html-keyboard-response,136,334100,0.0-10.0-0.47,5ee623674afa60375e30eec3,650c16f0f2faf8d7a0d14c09,651c1b4f5d3c65ff5e59bba5,null,null,"<p style=""font-size: 60px; font-family: BACS"">tdDdEPBT</p>",,,,,,,,,,
html-keyboard-response,137,335107,0.0-10.0-0.48,5ee623674afa60375e30eec3,650c16f0f2faf8d7a0d14c09,651c1b4f5d3c65ff5e59bba5,null,null,"<p style=""font-size: 60px; font-family: BACS"">hCktOtM</p>",,,,,,,,,,
html-keyboard-response,138,336123,0.0-10.0-0.49,5ee623674afa60375e30eec3,650c16f0f2faf8d7a0d14c09,651c1b4f5d3c65ff5e59bba5,null,null,"<p style=""font-size: 60px; font-family: BACS"">hbmAEPBT</p>",,,,,,,,,,
html-keyboard-response,139,337138,0.0-10.0-0.50,5ee623674afa60375e30eec3,650c16f0f2faf8d7a0d14c09,651c1b4f5d3c65ff5e59bba5,null,null,"<p style=""font-size: 60px; font-family: BACS"">cuOJbcrdY</p>",,,,,,,,,,
html-keyboard-response,140,338154,0.0-10.0-0.51,5ee623674afa60375e30eec3,650c16f0f2faf8d7a0d14c09,651c1b4f5d3c65ff5e59bba5,null,null,"<p style=""font-size: 60px; font-family: BACS"">DBlhlRE</p>",,,,,,,,,,
html-keyboard-response,141,339168,0.0-10.0-0.52,5ee623674afa60375e30eec3,650c16f0f2faf8d7a0d14c09,651c1b4f5d3c65ff5e59bba5,null,null,"<p style=""font-size: 60px; font-family: BACS"">AbkaOJlN</p>",,,,,,,,,,
html-keyboard-response,142,340184,0.0-10.0-0.53,5ee623674afa60375e30eec3,650c16f0f2faf8d7a0d14c09,651c1b4f5d3c65ff5e59bba5,null,null,"<p style=""font-size: 60px; font-family: BACS"">hTtBbOtM</p>",,,,,,,,,,
html-keyboard-response,143,341187,0.0-10.0-0.54,5ee623674afa60375e30eec3,650c16f0f2faf8d7a0d14c09,651c1b4f5d3c65ff5e59bba5,null,null,"<p style=""font-size: 60px; font-family: BACS"">ObOQlYaum</p>",,,,,,,,,,
html-keyboard-response,144,342201,0.0-10.0-0.55,5ee623674afa60375e30eec3,650c16f0f2faf8d7a0d14c09,651c1b4f5d3c65ff5e59bba5,null,null,"<p style=""font-size: 60px; font-family: BACS"">hCktlRE</p>",,,,,,,,,,
html-keyboard-response,145,343204,0.0-10.0-0.56,5ee623674afa60375e30eec3,650c16f0f2faf8d7a0d14c09,651c1b4f5d3c65ff5e59bba5,null,null,"<p style=""font-size: 60px; font-family: BACS"">tdDdkDOm</p>",,,,,,,,,,
html-keyboard-response,146,344221,0.0-10.0-0.57,5ee623674afa60375e30eec3,650c16f0f2faf8d7a0d14c09,651c1b4f5d3c65ff5e59bba5,null,null,"<p style=""font-size: 60px; font-family: BACS"">dRhtOtM</p>",,,,,,,,,,
html-keyboard-response,147,345225,0.0-10.0-0.58,5ee623674afa60375e30eec3,650c16f0f2faf8d7a0d14c09,651c1b4f5d3c65ff5e59bba5,null,null,"<p style=""font-size: 60px; font-family: BACS"">mbZlGUOA</p>",,,,,,,,,,
html-keyboard-response,148,346236,0.0-10.0-0.59,5ee623674afa60375e30eec3,650c16f0f2faf8d7a0d14c09,651c1b4f5d3c65ff5e59bba5,null,null,"<p style=""font-size: 60px; font-family: BACS"">dRhtcPK</p>",,,,,,,,,,
html-keyboard-response,149,347252,0.0-10.0-0.60,5ee623674afa60375e30eec3,650c16f0f2faf8d7a0d14c09,651c1b4f5d3c65ff5e59bba5,null,null,"<p style=""font-size: 60px; font-family: BACS"">OQarQYaum</p>",,,,,,,,,,
html-keyboard-response,150,348267,0.0-10.0-0.61,5ee623674afa60375e30eec3,650c16f0f2faf8d7a0d14c09,651c1b4f5d3c65ff5e59bba5,null,null,"<p style=""font-size: 60px; font-family: BACS"">uQkrdGUOA</p>",,,,,,,,,,
html-keyboard-response,151,349283,0.0-10.0-0.62,5ee623674afa60375e30eec3,650c16f0f2faf8d7a0d14c09,651c1b4f5d3c65ff5e59bba5,null,null,"<p style=""font-size: 60px; font-family: BACS"">mbZlYLU</p>",,,,,,,,,,
html-keyboard-response,152,350298,0.0-10.0-0.63,5ee623674afa60375e30eec3,650c16f0f2faf8d7a0d14c09,651c1b4f5d3c65ff5e59bba5,null,null,"<p style=""font-size: 60px; font-family: BACS"">DBlhOtM</p>",,,,,,,,,,
html-keyboard-response,153,351316,0.0-10.0-0.64,5ee623674afa60375e30eec3,650c16f0f2faf8d7a0d14c09,651c1b4f5d3c65ff5e59bba5,null,null,"<p style=""font-size: 60px; font-family: BACS"">YlCPBkDOm</p>",,,,,,,,,,
html-keyboard-response,154,352330,0.0-10.0-0.65,5ee623674afa60375e30eec3,650c16f0f2faf8d7a0d14c09,651c1b4f5d3c65ff5e59bba5,null,null,"<p style=""font-size: 60px; font-family: BACS"">AbkacrdY</p>",,,,,,,,,,
html-keyboard-response,155,353347,0.0-10.0-0.66,5ee623674afa60375e30eec3,650c16f0f2faf8d7a0d14c09,651c1b4f5d3c65ff5e59bba5,null,null,"<p style=""font-size: 60px; font-family: BACS"">OQarQGUOA</p>",,,,,,,,,,
html-keyboard-response,156,354349,0.0-10.0-0.67,5ee623674afa60375e30eec3,650c16f0f2faf8d7a0d14c09,651c1b4f5d3c65ff5e59bba5,null,null,"<p style=""font-size: 60px; font-family: BACS"">TAdhMlRE</p>",,,,,,,,,,
html-keyboard-response,157,355352,0.0-10.0-0.68,5ee623674afa60375e30eec3,650c16f0f2faf8d7a0d14c09,651c1b4f5d3c65ff5e59bba5,null,null,"<p style=""font-size: 60px; font-family: BACS"">YlCPBcPK</p>",,,,,,,,,,
html-keyboard-response,158,356370,0.0-10.0-0.69,5ee623674afa60375e30eec3,650c16f0f2faf8d7a0d14c09,651c1b4f5d3c65ff5e59bba5,null,null,"<p style=""font-size: 60px; font-family: BACS"">dRhtEPBT</p>",,,,,,,,,,
html-keyboard-response,159,357378,0.0-10.0-0.70,5ee623674afa60375e30eec3,650c16f0f2faf8d7a0d14c09,651c1b4f5d3c65ff5e59bba5,null,null,"<p style=""font-size: 60px; font-family: BACS"">AbkaGUOA</p>",,,,,,,,,,
html-keyboard-response,160,358393,0.0-10.0-0.71,5ee623674afa60375e30eec3,650c16f0f2faf8d7a0d14c09,651c1b4f5d3c65ff5e59bba5,null,null,"<p style=""font-size: 60px; font-family: BACS"">lZcuYaum</p>",,,,,,,,,,
html-keyboard-response,161,359409,0.0-10.0-0.72,5ee623674afa60375e30eec3,650c16f0f2faf8d7a0d14c09,651c1b4f5d3c65ff5e59bba5,null,null,"<p style=""font-size: 60px; font-family: BACS"">hbmAkDOm</p>",,,,,,,,,,
html-keyboard-response,162,360424,0.0-10.0-0.73,5ee623674afa60375e30eec3,650c16f0f2faf8d7a0d14c09,651c1b4f5d3c65ff5e59bba5,null,null,"<p style=""font-size: 60px; font-family: BACS"">KTDTBlRE</p>",,,,,,,,,,
html-keyboard-response,163,361440,0.0-10.0-0.74,5ee623674afa60375e30eec3,650c16f0f2faf8d7a0d14c09,651c1b4f5d3c65ff5e59bba5,null,null,"<p style=""font-size: 60px; font-family: BACS"">hTtBbkDOm</p>",,,,,,,,,,
html-keyboard-response,164,362457,0.0-10.0-0.75,5ee623674afa60375e30eec3,650c16f0f2faf8d7a0d14c09,651c1b4f5d3c65ff5e59bba5,null,null,"<p style=""font-size: 60px; font-family: BACS"">cuOJbYLU</p>",,,,,,,,,,
html-keyboard-response,165,363470,0.0-10.0-0.76,5ee623674afa60375e30eec3,650c16f0f2faf8d7a0d14c09,651c1b4f5d3c65ff5e59bba5,null,null,"<p style=""font-size: 60px; font-family: BACS"">hTtBblRE</p>",,,,,,,,,,
html-keyboard-response,166,364473,0.0-10.0-0.77,5ee623674afa60375e30eec3,650c16f0f2faf8d7a0d14c09,651c1b4f5d3c65ff5e59bba5,null,null,"<p style=""font-size: 60px; font-family: BACS"">PlEKEPBT</p>",,,,,,,,,,
html-keyboard-response,167,365488,0.0-10.0-0.78,5ee623674afa60375e30eec3,650c16f0f2faf8d7a0d14c09,651c1b4f5d3c65ff5e59bba5,null,null,"<p style=""font-size: 60px; font-family: BACS"">TAdhMOtM</p>",,,,,,,,,,
html-keyboard-response,168,366492,0.0-10.0-0.79,5ee623674afa60375e30eec3,650c16f0f2faf8d7a0d14c09,651c1b4f5d3c65ff5e59bba5,null,null,"<p style=""font-size: 60px; font-family: BACS"">PlEKkDOm</p>",,,,,,,,,,
html-keyboard-response,169,396623,0.0-11.0,5ee623674afa60375e30eec3,650c16f0f2faf8d7a0d14c09,651c1b4f5d3c65ff5e59bba5,30129, ,"<p>Great, you've seen the second block of words. You may now take a short break.</p>
      <p>Press the spacebar when you're ready to continue.</p>",,,,,,,,,,
html-keyboard-response,170,397629,0.0-12.0-0.0,5ee623674afa60375e30eec3,650c16f0f2faf8d7a0d14c09,651c1b4f5d3c65ff5e59bba5,null,null,"<p style=""font-size: 60px; font-family: BACS"">ObOQlOJlN</p>",,,,,,,,,,
html-keyboard-response,171,398643,0.0-12.0-0.1,5ee623674afa60375e30eec3,650c16f0f2faf8d7a0d14c09,651c1b4f5d3c65ff5e59bba5,null,null,"<p style=""font-size: 60px; font-family: BACS"">PlEKEPBT</p>",,,,,,,,,,
html-keyboard-response,172,399659,0.0-12.0-0.2,5ee623674afa60375e30eec3,650c16f0f2faf8d7a0d14c09,651c1b4f5d3c65ff5e59bba5,null,null,"<p style=""font-size: 60px; font-family: BACS"">DBlhkDOm</p>",,,,,,,,,,
html-keyboard-response,173,400673,0.0-12.0-0.3,5ee623674afa60375e30eec3,650c16f0f2faf8d7a0d14c09,651c1b4f5d3c65ff5e59bba5,null,null,"<p style=""font-size: 60px; font-family: BACS"">mbZlYLU</p>",,,,,,,,,,
html-keyboard-response,174,401689,0.0-12.0-0.4,5ee623674afa60375e30eec3,650c16f0f2faf8d7a0d14c09,651c1b4f5d3c65ff5e59bba5,null,null,"<p style=""font-size: 60px; font-family: BACS"">hTtBbkDOm</p>",,,,,,,,,,
html-keyboard-response,175,402706,0.0-12.0-0.5,5ee623674afa60375e30eec3,650c16f0f2faf8d7a0d14c09,651c1b4f5d3c65ff5e59bba5,null,null,"<p style=""font-size: 60px; font-family: BACS"">YlCPBlRE</p>",,,,,,,,,,
html-keyboard-response,176,403723,0.0-12.0-0.6,5ee623674afa60375e30eec3,650c16f0f2faf8d7a0d14c09,651c1b4f5d3c65ff5e59bba5,null,null,"<p style=""font-size: 60px; font-family: BACS"">OQarQGUOA</p>",,,,,,,,,,
html-keyboard-response,177,404738,0.0-12.0-0.7,5ee623674afa60375e30eec3,650c16f0f2faf8d7a0d14c09,651c1b4f5d3c65ff5e59bba5,null,null,"<p style=""font-size: 60px; font-family: BACS"">uQkrdYaum</p>",,,,,,,,,,
html-keyboard-response,178,405742,0.0-12.0-0.8,5ee623674afa60375e30eec3,650c16f0f2faf8d7a0d14c09,651c1b4f5d3c65ff5e59bba5,null,null,"<p style=""font-size: 60px; font-family: BACS"">dRhtOtM</p>",,,,,,,,,,
html-keyboard-response,179,406744,0.0-12.0-0.9,5ee623674afa60375e30eec3,650c16f0f2faf8d7a0d14c09,651c1b4f5d3c65ff5e59bba5,null,null,"<p style=""font-size: 60px; font-family: BACS"">mbZlOJlN</p>",,,,,,,,,,
html-keyboard-response,180,407753,0.0-12.0-0.10,5ee623674afa60375e30eec3,650c16f0f2faf8d7a0d14c09,651c1b4f5d3c65ff5e59bba5,null,null,"<p style=""font-size: 60px; font-family: BACS"">TAdhMlRE</p>",,,,,,,,,,
html-keyboard-response,181,408768,0.0-12.0-0.11,5ee623674afa60375e30eec3,650c16f0f2faf8d7a0d14c09,651c1b4f5d3c65ff5e59bba5,null,null,"<p style=""font-size: 60px; font-family: BACS"">AbkacrdY</p>",,,,,,,,,,
html-keyboard-response,182,409784,0.0-12.0-0.12,5ee623674afa60375e30eec3,650c16f0f2faf8d7a0d14c09,651c1b4f5d3c65ff5e59bba5,null,null,"<p style=""font-size: 60px; font-family: BACS"">lZcuGUOA</p>",,,,,,,,,,
html-keyboard-response,183,410799,0.0-12.0-0.13,5ee623674afa60375e30eec3,650c16f0f2faf8d7a0d14c09,651c1b4f5d3c65ff5e59bba5,null,null,"<p style=""font-size: 60px; font-family: BACS"">mLdkZcrdY</p>",,,,,,,,,,
html-keyboard-response,184,411815,0.0-12.0-0.14,5ee623674afa60375e30eec3,650c16f0f2faf8d7a0d14c09,651c1b4f5d3c65ff5e59bba5,null,null,"<p style=""font-size: 60px; font-family: BACS"">YlCPBEPBT</p>",,,,,,,,,,
html-keyboard-response,185,412829,0.0-12.0-0.15,5ee623674afa60375e30eec3,650c16f0f2faf8d7a0d14c09,651c1b4f5d3c65ff5e59bba5,null,null,"<p style=""font-size: 60px; font-family: BACS"">hCktlRE</p>",,,,,,,,,,
html-keyboard-response,186,413832,0.0-12.0-0.16,5ee623674afa60375e30eec3,650c16f0f2faf8d7a0d14c09,651c1b4f5d3c65ff5e59bba5,null,null,"<p style=""font-size: 60px; font-family: BACS"">YlCPBcPK</p>",,,,,,,,,,
html-keyboard-response,187,414847,0.0-12.0-0.17,5ee623674afa60375e30eec3,650c16f0f2faf8d7a0d14c09,651c1b4f5d3c65ff5e59bba5,null,null,"<p style=""font-size: 60px; font-family: BACS"">hbmAkDOm</p>",,,,,,,,,,
html-keyboard-response,188,415864,0.0-12.0-0.18,5ee623674afa60375e30eec3,650c16f0f2faf8d7a0d14c09,651c1b4f5d3c65ff5e59bba5,null,null,"<p style=""font-size: 60px; font-family: BACS"">lZcucrdY</p>",,,,,,,,,,
html-keyboard-response,189,416865,0.0-12.0-0.19,5ee623674afa60375e30eec3,650c16f0f2faf8d7a0d14c09,651c1b4f5d3c65ff5e59bba5,null,null,"<p style=""font-size: 60px; font-family: BACS"">TAdhMkDOm</p>",,,,,,,,,,
html-keyboard-response,190,417868,0.0-12.0-0.20,5ee623674afa60375e30eec3,650c16f0f2faf8d7a0d14c09,651c1b4f5d3c65ff5e59bba5,null,null,"<p style=""font-size: 60px; font-family: BACS"">AbkaYaum</p>",,,,,,,,,,
html-keyboard-response,191,418886,0.0-12.0-0.21,5ee623674afa60375e30eec3,650c16f0f2faf8d7a0d14c09,651c1b4f5d3c65ff5e59bba5,null,null,"<p style=""font-size: 60px; font-family: BACS"">lZcuYLU</p>",,,,,,,,,,
html-keyboard-response,192,419899,0.0-12.0-0.22,5ee623674afa60375e30eec3,650c16f0f2faf8d7a0d14c09,651c1b4f5d3c65ff5e59bba5,null,null,"<p style=""font-size: 60px; font-family: BACS"">hTtBbOtM</p>",,,,,,,,,,
html-keyboard-response,193,420908,0.0-12.0-0.23,5ee623674afa60375e30eec3,650c16f0f2faf8d7a0d14c09,651c1b4f5d3c65ff5e59bba5,null,null,"<p style=""font-size: 60px; font-family: BACS"">LQurcrdY</p>",,,,,,,,,,
html-keyboard-response,194,421924,0.0-12.0-0.24,5ee623674afa60375e30eec3,650c16f0f2faf8d7a0d14c09,651c1b4f5d3c65ff5e59bba5,null,null,"<p style=""font-size: 60px; font-family: BACS"">DBlhOtM</p>",,,,,,,,,,
html-keyboard-response,195,422939,0.0-12.0-0.25,5ee623674afa60375e30eec3,650c16f0f2faf8d7a0d14c09,651c1b4f5d3c65ff5e59bba5,null,null,"<p style=""font-size: 60px; font-family: BACS"">KTDTBcPK</p>",,,,,,,,,,
html-keyboard-response,196,423954,0.0-12.0-0.26,5ee623674afa60375e30eec3,650c16f0f2faf8d7a0d14c09,651c1b4f5d3c65ff5e59bba5,null,null,"<p style=""font-size: 60px; font-family: BACS"">AZlLNOJlN</p>",,,,,,,,,,
html-keyboard-response,197,424959,0.0-12.0-0.27,5ee623674afa60375e30eec3,650c16f0f2faf8d7a0d14c09,651c1b4f5d3c65ff5e59bba5,null,null,"<p style=""font-size: 60px; font-family: BACS"">DBlhlRE</p>",,,,,,,,,,
html-keyboard-response,198,425970,0.0-12.0-0.28,5ee623674afa60375e30eec3,650c16f0f2faf8d7a0d14c09,651c1b4f5d3c65ff5e59bba5,null,null,"<p style=""font-size: 60px; font-family: BACS"">uQkrdGUOA</p>",,,,,,,,,,
html-keyboard-response,199,426987,0.0-12.0-0.29,5ee623674afa60375e30eec3,650c16f0f2faf8d7a0d14c09,651c1b4f5d3c65ff5e59bba5,null,null,"<p style=""font-size: 60px; font-family: BACS"">AbkaOJlN</p>",,,,,,,,,,
html-keyboard-response,200,427990,0.0-12.0-0.30,5ee623674afa60375e30eec3,650c16f0f2faf8d7a0d14c09,651c1b4f5d3c65ff5e59bba5,null,null,"<p style=""font-size: 60px; font-family: BACS"">OQarQYaum</p>",,,,,,,,,,
html-keyboard-response,201,428992,0.0-12.0-0.31,5ee623674afa60375e30eec3,650c16f0f2faf8d7a0d14c09,651c1b4f5d3c65ff5e59bba5,null,null,"<p style=""font-size: 60px; font-family: BACS"">KTDTBkDOm</p>",,,,,,,,,,
html-keyboard-response,202,430002,0.0-12.0-0.32,5ee623674afa60375e30eec3,650c16f0f2faf8d7a0d14c09,651c1b4f5d3c65ff5e59bba5,null,null,"<p style=""font-size: 60px; font-family: BACS"">hTtBblRE</p>",,,,,,,,,,
html-keyboard-response,203,431017,0.0-12.0-0.33,5ee623674afa60375e30eec3,650c16f0f2faf8d7a0d14c09,651c1b4f5d3c65ff5e59bba5,null,null,"<p style=""font-size: 60px; font-family: BACS"">cuOJbYaum</p>",,,,,,,,,,
html-keyboard-response,204,432032,0.0-12.0-0.34,5ee623674afa60375e30eec3,650c16f0f2faf8d7a0d14c09,651c1b4f5d3c65ff5e59bba5,null,null,"<p style=""font-size: 60px; font-family: BACS"">YlCPBkDOm</p>",,,,,,,,,,
html-keyboard-response,205,433048,0.0-12.0-0.35,5ee623674afa60375e30eec3,650c16f0f2faf8d7a0d14c09,651c1b4f5d3c65ff5e59bba5,null,null,"<p style=""font-size: 60px; font-family: BACS"">hbmAEPBT</p>",,,,,,,,,,
html-keyboard-response,206,434061,0.0-12.0-0.36,5ee623674afa60375e30eec3,650c16f0f2faf8d7a0d14c09,651c1b4f5d3c65ff5e59bba5,null,null,"<p style=""font-size: 60px; font-family: BACS"">cuOJbOJlN</p>",,,,,,,,,,
html-keyboard-response,207,435064,0.0-12.0-0.37,5ee623674afa60375e30eec3,650c16f0f2faf8d7a0d14c09,651c1b4f5d3c65ff5e59bba5,null,null,"<p style=""font-size: 60px; font-family: BACS"">TAdhMOtM</p>",,,,,,,,,,
html-keyboard-response,208,436079,0.0-12.0-0.38,5ee623674afa60375e30eec3,650c16f0f2faf8d7a0d14c09,651c1b4f5d3c65ff5e59bba5,null,null,"<p style=""font-size: 60px; font-family: BACS"">hCktEPBT</p>",,,,,,,,,,
html-keyboard-response,209,437094,0.0-12.0-0.39,5ee623674afa60375e30eec3,650c16f0f2faf8d7a0d14c09,651c1b4f5d3c65ff5e59bba5,null,null,"<p style=""font-size: 60px; font-family: BACS"">uQkrdcrdY</p>",,,,,,,,,,
html-keyboard-response,210,438096,0.0-12.0-0.40,5ee623674afa60375e30eec3,650c16f0f2faf8d7a0d14c09,651c1b4f5d3c65ff5e59bba5,null,null,"<p style=""font-size: 60px; font-family: BACS"">hbmAcPK</p>",,,,,,,,,,
html-keyboard-response,211,439114,0.0-12.0-0.41,5ee623674afa60375e30eec3,650c16f0f2faf8d7a0d14c09,651c1b4f5d3c65ff5e59bba5,null,null,"<p style=""font-size: 60px; font-family: BACS"">tdDdEPBT</p>",,,,,,,,,,
html-keyboard-response,212,440117,0.0-12.0-0.42,5ee623674afa60375e30eec3,650c16f0f2faf8d7a0d14c09,651c1b4f5d3c65ff5e59bba5,null,null,"<p style=""font-size: 60px; font-family: BACS"">LQurYLU</p>",,,,,,,,,,
html-keyboard-response,213,441126,0.0-12.0-0.43,5ee623674afa60375e30eec3,650c16f0f2faf8d7a0d14c09,651c1b4f5d3c65ff5e59bba5,null,null,"<p style=""font-size: 60px; font-family: BACS"">KTDTBOtM</p>",,,,,,,,,,
html-keyboard-response,214,442141,0.0-12.0-0.44,5ee623674afa60375e30eec3,650c16f0f2faf8d7a0d14c09,651c1b4f5d3c65ff5e59bba5,null,null,"<p style=""font-size: 60px; font-family: BACS"">hCktcPK</p>",,,,,,,,,,
html-keyboard-response,215,443157,0.0-12.0-0.45,5ee623674afa60375e30eec3,650c16f0f2faf8d7a0d14c09,651c1b4f5d3c65ff5e59bba5,null,null,"<p style=""font-size: 60px; font-family: BACS"">dRhtEPBT</p>",,,,,,,,,,
html-keyboard-response,216,444172,0.0-12.0-0.46,5ee623674afa60375e30eec3,650c16f0f2faf8d7a0d14c09,651c1b4f5d3c65ff5e59bba5,null,null,"<p style=""font-size: 60px; font-family: BACS"">TAdhMcPK</p>",,,,,,,,,,
html-keyboard-response,217,445188,0.0-12.0-0.47,5ee623674afa60375e30eec3,650c16f0f2faf8d7a0d14c09,651c1b4f5d3c65ff5e59bba5,null,null,"<p style=""font-size: 60px; font-family: BACS"">dRhtlRE</p>",,,,,,,,,,
html-keyboard-response,218,446202,0.0-12.0-0.48,5ee623674afa60375e30eec3,650c16f0f2faf8d7a0d14c09,651c1b4f5d3c65ff5e59bba5,null,null,"<p style=""font-size: 60px; font-family: BACS"">LQurYaum</p>",,,,,,,,,,
html-keyboard-response,219,447204,0.0-12.0-0.49,5ee623674afa60375e30eec3,650c16f0f2faf8d7a0d14c09,651c1b4f5d3c65ff5e59bba5,null,null,"<p style=""font-size: 60px; font-family: BACS"">uQkrdYLU</p>",,,,,,,,,,
html-keyboard-response,220,448219,0.0-12.0-0.50,5ee623674afa60375e30eec3,650c16f0f2faf8d7a0d14c09,651c1b4f5d3c65ff5e59bba5,null,null,"<p style=""font-size: 60px; font-family: BACS"">mbZlGUOA</p>",,,,,,,,,,
html-keyboard-response,221,449235,0.0-12.0-0.51,5ee623674afa60375e30eec3,650c16f0f2faf8d7a0d14c09,651c1b4f5d3c65ff5e59bba5,null,null,"<p style=""font-size: 60px; font-family: BACS"">OQarQYLU</p>",,,,,,,,,,
html-keyboard-response,222,450239,0.0-12.0-0.52,5ee623674afa60375e30eec3,650c16f0f2faf8d7a0d14c09,651c1b4f5d3c65ff5e59bba5,null,null,"<p style=""font-size: 60px; font-family: BACS"">mLdkZGUOA</p>",,,,,,,,,,
html-keyboard-response,223,451257,0.0-12.0-0.53,5ee623674afa60375e30eec3,650c16f0f2faf8d7a0d14c09,651c1b4f5d3c65ff5e59bba5,null,null,"<p style=""font-size: 60px; font-family: BACS"">PlEKlRE</p>",,,,,,,,,,
html-keyboard-response,224,452265,0.0-12.0-0.54,5ee623674afa60375e30eec3,650c16f0f2faf8d7a0d14c09,651c1b4f5d3c65ff5e59bba5,null,null,"<p style=""font-size: 60px; font-family: BACS"">ObOQlYaum</p>",,,,,,,,,,
html-keyboard-response,225,453280,0.0-12.0-0.55,5ee623674afa60375e30eec3,650c16f0f2faf8d7a0d14c09,651c1b4f5d3c65ff5e59bba5,null,null,"<p style=""font-size: 60px; font-family: BACS"">tdDdkDOm</p>",,,,,,,,,,
html-keyboard-response,226,454297,0.0-12.0-0.56,5ee623674afa60375e30eec3,650c16f0f2faf8d7a0d14c09,651c1b4f5d3c65ff5e59bba5,null,null,"<p style=""font-size: 60px; font-family: BACS"">hbmAOtM</p>",,,,,,,,,,
html-keyboard-response,227,455313,0.0-12.0-0.57,5ee623674afa60375e30eec3,650c16f0f2faf8d7a0d14c09,651c1b4f5d3c65ff5e59bba5,null,null,"<p style=""font-size: 60px; font-family: BACS"">LQurOJlN</p>",,,,,,,,,,
html-keyboard-response,228,456329,0.0-12.0-0.58,5ee623674afa60375e30eec3,650c16f0f2faf8d7a0d14c09,651c1b4f5d3c65ff5e59bba5,null,null,"<p style=""font-size: 60px; font-family: BACS"">lZcuYaum</p>",,,,,,,,,,
html-keyboard-response,229,457360,0.0-12.0-0.59,5ee623674afa60375e30eec3,650c16f0f2faf8d7a0d14c09,651c1b4f5d3c65ff5e59bba5,null,null,"<p style=""font-size: 60px; font-family: BACS"">DBlhEPBT</p>",,,,,,,,,,
html-keyboard-response,230,458362,0.0-12.0-0.60,5ee623674afa60375e30eec3,650c16f0f2faf8d7a0d14c09,651c1b4f5d3c65ff5e59bba5,null,null,"<p style=""font-size: 60px; font-family: BACS"">AZlLNcrdY</p>",,,,,,,,,,
html-keyboard-response,231,459375,0.0-12.0-0.61,5ee623674afa60375e30eec3,650c16f0f2faf8d7a0d14c09,651c1b4f5d3c65ff5e59bba5,null,null,"<p style=""font-size: 60px; font-family: BACS"">hCktOtM</p>",,,,,,,,,,
html-keyboard-response,232,460382,0.0-12.0-0.62,5ee623674afa60375e30eec3,650c16f0f2faf8d7a0d14c09,651c1b4f5d3c65ff5e59bba5,null,null,"<p style=""font-size: 60px; font-family: BACS"">ObOQlGUOA</p>",,,,,,,,,,
html-keyboard-response,233,461395,0.0-12.0-0.63,5ee623674afa60375e30eec3,650c16f0f2faf8d7a0d14c09,651c1b4f5d3c65ff5e59bba5,null,null,"<p style=""font-size: 60px; font-family: BACS"">PlEKkDOm</p>",,,,,,,,,,
html-keyboard-response,234,462397,0.0-12.0-0.64,5ee623674afa60375e30eec3,650c16f0f2faf8d7a0d14c09,651c1b4f5d3c65ff5e59bba5,null,null,"<p style=""font-size: 60px; font-family: BACS"">cuOJbcrdY</p>",,,,,,,,,,
html-keyboard-response,235,463407,0.0-12.0-0.65,5ee623674afa60375e30eec3,650c16f0f2faf8d7a0d14c09,651c1b4f5d3c65ff5e59bba5,null,null,"<p style=""font-size: 60px; font-family: BACS"">ObOQlYLU</p>",,,,,,,,,,
html-keyboard-response,236,464423,0.0-12.0-0.66,5ee623674afa60375e30eec3,650c16f0f2faf8d7a0d14c09,651c1b4f5d3c65ff5e59bba5,null,null,"<p style=""font-size: 60px; font-family: BACS"">mLdkZOJlN</p>",,,,,,,,,,
html-keyboard-response,237,465438,0.0-12.0-0.67,5ee623674afa60375e30eec3,650c16f0f2faf8d7a0d14c09,651c1b4f5d3c65ff5e59bba5,null,null,"<p style=""font-size: 60px; font-family: BACS"">AZlLNYLU</p>",,,,,,,,,,
html-keyboard-response,238,466455,0.0-12.0-0.68,5ee623674afa60375e30eec3,650c16f0f2faf8d7a0d14c09,651c1b4f5d3c65ff5e59bba5,null,null,"<p style=""font-size: 60px; font-family: BACS"">dRhtcPK</p>",,,,,,,,,,
html-keyboard-response,239,467469,0.0-12.0-0.69,5ee623674afa60375e30eec3,650c16f0f2faf8d7a0d14c09,651c1b4f5d3c65ff5e59bba5,null,null,"<p style=""font-size: 60px; font-family: BACS"">cuOJbYLU</p>",,,,,,,,,,
html-keyboard-response,240,468483,0.0-12.0-0.70,5ee623674afa60375e30eec3,650c16f0f2faf8d7a0d14c09,651c1b4f5d3c65ff5e59bba5,null,null,"<p style=""font-size: 60px; font-family: BACS"">OQarQOJlN</p>",,,,,,,,,,
html-keyboard-response,241,469485,0.0-12.0-0.71,5ee623674afa60375e30eec3,650c16f0f2faf8d7a0d14c09,651c1b4f5d3c65ff5e59bba5,null,null,"<p style=""font-size: 60px; font-family: BACS"">hTtBbEPBT</p>",,,,,,,,,,
html-keyboard-response,242,470501,0.0-12.0-0.72,5ee623674afa60375e30eec3,650c16f0f2faf8d7a0d14c09,651c1b4f5d3c65ff5e59bba5,null,null,"<p style=""font-size: 60px; font-family: BACS"">AbkaGUOA</p>",,,,,,,,,,
html-keyboard-response,243,471517,0.0-12.0-0.73,5ee623674afa60375e30eec3,650c16f0f2faf8d7a0d14c09,651c1b4f5d3c65ff5e59bba5,null,null,"<p style=""font-size: 60px; font-family: BACS"">mLdkZYaum</p>",,,,,,,,,,
html-keyboard-response,244,472520,0.0-12.0-0.74,5ee623674afa60375e30eec3,650c16f0f2faf8d7a0d14c09,651c1b4f5d3c65ff5e59bba5,null,null,"<p style=""font-size: 60px; font-family: BACS"">AZlLNGUOA</p>",,,,,,,,,,
html-keyboard-response,245,473522,0.0-12.0-0.75,5ee623674afa60375e30eec3,650c16f0f2faf8d7a0d14c09,651c1b4f5d3c65ff5e59bba5,null,null,"<p style=""font-size: 60px; font-family: BACS"">PlEKcPK</p>",,,,,,,,,,
html-keyboard-response,246,474530,0.0-12.0-0.76,5ee623674afa60375e30eec3,650c16f0f2faf8d7a0d14c09,651c1b4f5d3c65ff5e59bba5,null,null,"<p style=""font-size: 60px; font-family: BACS"">KTDTBlRE</p>",,,,,,,,,,
html-keyboard-response,247,475546,0.0-12.0-0.77,5ee623674afa60375e30eec3,650c16f0f2faf8d7a0d14c09,651c1b4f5d3c65ff5e59bba5,null,null,"<p style=""font-size: 60px; font-family: BACS"">tdDdOtM</p>",,,,,,,,,,
html-keyboard-response,248,476561,0.0-12.0-0.78,5ee623674afa60375e30eec3,650c16f0f2faf8d7a0d14c09,651c1b4f5d3c65ff5e59bba5,null,null,"<p style=""font-size: 60px; font-family: BACS"">mbZlcrdY</p>",,,,,,,,,,
html-keyboard-response,249,477578,0.0-12.0-0.79,5ee623674afa60375e30eec3,650c16f0f2faf8d7a0d14c09,651c1b4f5d3c65ff5e59bba5,null,null,"<p style=""font-size: 60px; font-family: BACS"">tdDdcPK</p>",,,,,,,,,,
html-keyboard-response,250,557660,0.0-13.0,5ee623674afa60375e30eec3,650c16f0f2faf8d7a0d14c09,651c1b4f5d3c65ff5e59bba5,80089, ,"<p>Great, you've seen the third block of words. You may now take a short break.</p>
      <p>Press the spacebar when you're ready to continue.</p>",,,,,,,,,,
html-keyboard-response,251,558670,0.0-14.0-0.0,5ee623674afa60375e30eec3,650c16f0f2faf8d7a0d14c09,651c1b4f5d3c65ff5e59bba5,null,null,"<p style=""font-size: 60px; font-family: BACS"">uQkrdcrdY</p>",,,,,,,,,,
html-keyboard-response,252,559686,0.0-14.0-0.1,5ee623674afa60375e30eec3,650c16f0f2faf8d7a0d14c09,651c1b4f5d3c65ff5e59bba5,null,null,"<p style=""font-size: 60px; font-family: BACS"">DBlhOtM</p>",,,,,,,,,,
html-keyboard-response,253,560700,0.0-14.0-0.2,5ee623674afa60375e30eec3,650c16f0f2faf8d7a0d14c09,651c1b4f5d3c65ff5e59bba5,null,null,"<p style=""font-size: 60px; font-family: BACS"">tdDdkDOm</p>",,,,,,,,,,
html-keyboard-response,254,561702,0.0-14.0-0.3,5ee623674afa60375e30eec3,650c16f0f2faf8d7a0d14c09,651c1b4f5d3c65ff5e59bba5,null,null,"<p style=""font-size: 60px; font-family: BACS"">PlEKlRE</p>",,,,,,,,,,
html-keyboard-response,255,562717,0.0-14.0-0.4,5ee623674afa60375e30eec3,650c16f0f2faf8d7a0d14c09,651c1b4f5d3c65ff5e59bba5,null,null,"<p style=""font-size: 60px; font-family: BACS"">uQkrdYLU</p>",,,,,,,,,,
html-keyboard-response,256,563732,0.0-14.0-0.5,5ee623674afa60375e30eec3,650c16f0f2faf8d7a0d14c09,651c1b4f5d3c65ff5e59bba5,null,null,"<p style=""font-size: 60px; font-family: BACS"">cuOJbcrdY</p>",,,,,,,,,,
html-keyboard-response,257,564737,0.0-14.0-0.6,5ee623674afa60375e30eec3,650c16f0f2faf8d7a0d14c09,651c1b4f5d3c65ff5e59bba5,null,null,"<p style=""font-size: 60px; font-family: BACS"">KTDTBlRE</p>",,,,,,,,,,
html-keyboard-response,258,565739,0.0-14.0-0.7,5ee623674afa60375e30eec3,650c16f0f2faf8d7a0d14c09,651c1b4f5d3c65ff5e59bba5,null,null,"<p style=""font-size: 60px; font-family: BACS"">hTtBbkDOm</p>",,,,,,,,,,
html-keyboard-response,259,566745,0.0-14.0-0.8,5ee623674afa60375e30eec3,650c16f0f2faf8d7a0d14c09,651c1b4f5d3c65ff5e59bba5,null,null,"<p style=""font-size: 60px; font-family: BACS"">lZcuYLU</p>",,,,,,,,,,
html-keyboard-response,260,567761,0.0-14.0-0.9,5ee623674afa60375e30eec3,650c16f0f2faf8d7a0d14c09,651c1b4f5d3c65ff5e59bba5,null,null,"<p style=""font-size: 60px; font-family: BACS"">AZlLNcrdY</p>",,,,,,,,,,
html-keyboard-response,261,568793,0.0-14.0-0.10,5ee623674afa60375e30eec3,650c16f0f2faf8d7a0d14c09,651c1b4f5d3c65ff5e59bba5,null,null,"<p style=""font-size: 60px; font-family: BACS"">hCktOtM</p>",,,,,,,,,,
html-keyboard-response,262,569795,0.0-14.0-0.11,5ee623674afa60375e30eec3,650c16f0f2faf8d7a0d14c09,651c1b4f5d3c65ff5e59bba5,null,null,"<p style=""font-size: 60px; font-family: BACS"">OQarQYaum</p>",,,,,,,,,,
html-keyboard-response,263,570810,0.0-14.0-0.12,5ee623674afa60375e30eec3,650c16f0f2faf8d7a0d14c09,651c1b4f5d3c65ff5e59bba5,null,null,"<p style=""font-size: 60px; font-family: BACS"">AbkaOJlN</p>",,,,,,,,,,
html-keyboard-response,264,571825,0.0-14.0-0.13,5ee623674afa60375e30eec3,650c16f0f2faf8d7a0d14c09,651c1b4f5d3c65ff5e59bba5,null,null,"<p style=""font-size: 60px; font-family: BACS"">hbmAkDOm</p>",,,,,,,,,,
html-keyboard-response,265,572826,0.0-14.0-0.14,5ee623674afa60375e30eec3,650c16f0f2faf8d7a0d14c09,651c1b4f5d3c65ff5e59bba5,null,null,"<p style=""font-size: 60px; font-family: BACS"">ObOQlYaum</p>",,,,,,,,,,
html-keyboard-response,266,573841,0.0-14.0-0.15,5ee623674afa60375e30eec3,650c16f0f2faf8d7a0d14c09,651c1b4f5d3c65ff5e59bba5,null,null,"<p style=""font-size: 60px; font-family: BACS"">mLdkZOJlN</p>",,,,,,,,,,
html-keyboard-response,267,574857,0.0-14.0-0.16,5ee623674afa60375e30eec3,650c16f0f2faf8d7a0d14c09,651c1b4f5d3c65ff5e59bba5,null,null,"<p style=""font-size: 60px; font-family: BACS"">KTDTBcPK</p>",,,,,,,,,,
html-keyboard-response,268,575859,0.0-14.0-0.17,5ee623674afa60375e30eec3,650c16f0f2faf8d7a0d14c09,651c1b4f5d3c65ff5e59bba5,null,null,"<p style=""font-size: 60px; font-family: BACS"">mbZlcrdY</p>",,,,,,,,,,
html-keyboard-response,269,576864,0.0-14.0-0.18,5ee623674afa60375e30eec3,650c16f0f2faf8d7a0d14c09,651c1b4f5d3c65ff5e59bba5,null,null,"<p style=""font-size: 60px; font-family: BACS"">AZlLNGUOA</p>",,,,,,,,,,
html-keyboard-response,270,577871,0.0-14.0-0.19,5ee623674afa60375e30eec3,650c16f0f2faf8d7a0d14c09,651c1b4f5d3c65ff5e59bba5,null,null,"<p style=""font-size: 60px; font-family: BACS"">OQarQOJlN</p>",,,,,,,,,,
html-keyboard-response,271,578879,0.0-14.0-0.20,5ee623674afa60375e30eec3,650c16f0f2faf8d7a0d14c09,651c1b4f5d3c65ff5e59bba5,null,null,"<p style=""font-size: 60px; font-family: BACS"">TAdhMcPK</p>",,,,,,,,,,
html-keyboard-response,272,579885,0.0-14.0-0.21,5ee623674afa60375e30eec3,650c16f0f2faf8d7a0d14c09,651c1b4f5d3c65ff5e59bba5,null,null,"<p style=""font-size: 60px; font-family: BACS"">LQurOJlN</p>",,,,,,,,,,
html-keyboard-response,273,580901,0.0-14.0-0.22,5ee623674afa60375e30eec3,650c16f0f2faf8d7a0d14c09,651c1b4f5d3c65ff5e59bba5,null,null,"<p style=""font-size: 60px; font-family: BACS"">cuOJbYaum</p>",,,,,,,,,,
html-keyboard-response,274,581917,0.0-14.0-0.23,5ee623674afa60375e30eec3,650c16f0f2faf8d7a0d14c09,651c1b4f5d3c65ff5e59bba5,null,null,"<p style=""font-size: 60px; font-family: BACS"">hTtBbOtM</p>",,,,,,,,,,
html-keyboard-response,275,582932,0.0-14.0-0.24,5ee623674afa60375e30eec3,650c16f0f2faf8d7a0d14c09,651c1b4f5d3c65ff5e59bba5,null,null,"<p style=""font-size: 60px; font-family: BACS"">AZlLNYLU</p>",,,,,,,,,,
html-keyboard-response,276,583933,0.0-14.0-0.25,5ee623674afa60375e30eec3,650c16f0f2faf8d7a0d14c09,651c1b4f5d3c65ff5e59bba5,null,null,"<p style=""font-size: 60px; font-family: BACS"">mLdkZYaum</p>",,,,,,,,,,
html-keyboard-response,277,584948,0.0-14.0-0.26,5ee623674afa60375e30eec3,650c16f0f2faf8d7a0d14c09,651c1b4f5d3c65ff5e59bba5,null,null,"<p style=""font-size: 60px; font-family: BACS"">tdDdEPBT</p>",,,,,,,,,,
html-keyboard-response,278,585950,0.0-14.0-0.27,5ee623674afa60375e30eec3,650c16f0f2faf8d7a0d14c09,651c1b4f5d3c65ff5e59bba5,null,null,"<p style=""font-size: 60px; font-family: BACS"">dRhtlRE</p>",,,,,,,,,,
html-keyboard-response,279,586953,0.0-14.0-0.28,5ee623674afa60375e30eec3,650c16f0f2faf8d7a0d14c09,651c1b4f5d3c65ff5e59bba5,null,null,"<p style=""font-size: 60px; font-family: BACS"">LQurYLU</p>",,,,,,,,,,
html-keyboard-response,280,587955,0.0-14.0-0.29,5ee623674afa60375e30eec3,650c16f0f2faf8d7a0d14c09,651c1b4f5d3c65ff5e59bba5,null,null,"<p style=""font-size: 60px; font-family: BACS"">DBlhkDOm</p>",,,,,,,,,,
html-keyboard-response,281,588963,0.0-14.0-0.30,5ee623674afa60375e30eec3,650c16f0f2faf8d7a0d14c09,651c1b4f5d3c65ff5e59bba5,null,null,"<p style=""font-size: 60px; font-family: BACS"">tdDdcPK</p>",,,,,,,,,,
html-keyboard-response,282,589977,0.0-14.0-0.31,5ee623674afa60375e30eec3,650c16f0f2faf8d7a0d14c09,651c1b4f5d3c65ff5e59bba5,null,null,"<p style=""font-size: 60px; font-family: BACS"">ObOQlGUOA</p>",,,,,,,,,,
html-keyboard-response,283,590993,0.0-14.0-0.32,5ee623674afa60375e30eec3,650c16f0f2faf8d7a0d14c09,651c1b4f5d3c65ff5e59bba5,null,null,"<p style=""font-size: 60px; font-family: BACS"">hCktlRE</p>",,,,,,,,,,
html-keyboard-response,284,592008,0.0-14.0-0.33,5ee623674afa60375e30eec3,650c16f0f2faf8d7a0d14c09,651c1b4f5d3c65ff5e59bba5,null,null,"<p style=""font-size: 60px; font-family: BACS"">hbmAOtM</p>",,,,,,,,,,
html-keyboard-response,285,593022,0.0-14.0-0.34,5ee623674afa60375e30eec3,650c16f0f2faf8d7a0d14c09,651c1b4f5d3c65ff5e59bba5,null,null,"<p style=""font-size: 60px; font-family: BACS"">PlEKcPK</p>",,,,,,,,,,
html-keyboard-response,286,594025,0.0-14.0-0.35,5ee623674afa60375e30eec3,650c16f0f2faf8d7a0d14c09,651c1b4f5d3c65ff5e59bba5,null,null,"<p style=""font-size: 60px; font-family: BACS"">dRhtEPBT</p>",,,,,,,,,,
html-keyboard-response,287,595040,0.0-14.0-0.36,5ee623674afa60375e30eec3,650c16f0f2faf8d7a0d14c09,651c1b4f5d3c65ff5e59bba5,null,null,"<p style=""font-size: 60px; font-family: BACS"">cuOJbYLU</p>",,,,,,,,,,
html-keyboard-response,288,596056,0.0-14.0-0.37,5ee623674afa60375e30eec3,650c16f0f2faf8d7a0d14c09,651c1b4f5d3c65ff5e59bba5,null,null,"<p style=""font-size: 60px; font-family: BACS"">hTtBbEPBT</p>",,,,,,,,,,
html-keyboard-response,289,597059,0.0-14.0-0.38,5ee623674afa60375e30eec3,650c16f0f2faf8d7a0d14c09,651c1b4f5d3c65ff5e59bba5,null,null,"<p style=""font-size: 60px; font-family: BACS"">uQkrdGUOA</p>",,,,,,,,,,
html-keyboard-response,290,598062,0.0-14.0-0.39,5ee623674afa60375e30eec3,650c16f0f2faf8d7a0d14c09,651c1b4f5d3c65ff5e59bba5,null,null,"<p style=""font-size: 60px; font-family: BACS"">hbmAEPBT</p>",,,,,,,,,,
html-keyboard-response,291,599071,0.0-14.0-0.40,5ee623674afa60375e30eec3,650c16f0f2faf8d7a0d14c09,651c1b4f5d3c65ff5e59bba5,null,null,"<p style=""font-size: 60px; font-family: BACS"">TAdhMOtM</p>",,,,,,,,,,
html-keyboard-response,292,600086,0.0-14.0-0.41,5ee623674afa60375e30eec3,650c16f0f2faf8d7a0d14c09,651c1b4f5d3c65ff5e59bba5,null,null,"<p style=""font-size: 60px; font-family: BACS"">AbkaYaum</p>",,,,,,,,,,
html-keyboard-response,293,601102,0.0-14.0-0.42,5ee623674afa60375e30eec3,650c16f0f2faf8d7a0d14c09,651c1b4f5d3c65ff5e59bba5,null,null,"<p style=""font-size: 60px; font-family: BACS"">mbZlYLU</p>",,,,,,,,,,
html-keyboard-response,294,602117,0.0-14.0-0.43,5ee623674afa60375e30eec3,650c16f0f2faf8d7a0d14c09,651c1b4f5d3c65ff5e59bba5,null,null,"<p style=""font-size: 60px; font-family: BACS"">DBlhEPBT</p>",,,,,,,,,,
html-keyboard-response,295,603132,0.0-14.0-0.44,5ee623674afa60375e30eec3,650c16f0f2faf8d7a0d14c09,651c1b4f5d3c65ff5e59bba5,null,null,"<p style=""font-size: 60px; font-family: BACS"">ObOQlOJlN</p>",,,,,,,,,,
html-keyboard-response,296,604147,0.0-14.0-0.45,5ee623674afa60375e30eec3,650c16f0f2faf8d7a0d14c09,651c1b4f5d3c65ff5e59bba5,null,null,"<p style=""font-size: 60px; font-family: BACS"">lZcuGUOA</p>",,,,,,,,,,
html-keyboard-response,297,605151,0.0-14.0-0.46,5ee623674afa60375e30eec3,650c16f0f2faf8d7a0d14c09,651c1b4f5d3c65ff5e59bba5,null,null,"<p style=""font-size: 60px; font-family: BACS"">hTtBblRE</p>",,,,,,,,,,
html-keyboard-response,298,606163,0.0-14.0-0.47,5ee623674afa60375e30eec3,650c16f0f2faf8d7a0d14c09,651c1b4f5d3c65ff5e59bba5,null,null,"<p style=""font-size: 60px; font-family: BACS"">AbkaGUOA</p>",,,,,,,,,,
html-keyboard-response,299,607165,0.0-14.0-0.48,5ee623674afa60375e30eec3,650c16f0f2faf8d7a0d14c09,651c1b4f5d3c65ff5e59bba5,null,null,"<p style=""font-size: 60px; font-family: BACS"">PlEKkDOm</p>",,,,,,,,,,
html-keyboard-response,300,608167,0.0-14.0-0.49,5ee623674afa60375e30eec3,650c16f0f2faf8d7a0d14c09,651c1b4f5d3c65ff5e59bba5,null,null,"<p style=""font-size: 60px; font-family: BACS"">uQkrdYaum</p>",,,,,,,,,,
html-keyboard-response,301,609170,0.0-14.0-0.50,5ee623674afa60375e30eec3,650c16f0f2faf8d7a0d14c09,651c1b4f5d3c65ff5e59bba5,null,null,"<p style=""font-size: 60px; font-family: BACS"">KTDTBkDOm</p>",,,,,,,,,,
html-keyboard-response,302,610178,0.0-14.0-0.51,5ee623674afa60375e30eec3,650c16f0f2faf8d7a0d14c09,651c1b4f5d3c65ff5e59bba5,null,null,"<p style=""font-size: 60px; font-family: BACS"">hCktcPK</p>",,,,,,,,,,
html-keyboard-response,303,611193,0.0-14.0-0.52,5ee623674afa60375e30eec3,650c16f0f2faf8d7a0d14c09,651c1b4f5d3c65ff5e59bba5,null,null,"<p style=""font-size: 60px; font-family: BACS"">mbZlGUOA</p>",,,,,,,,,,
html-keyboard-response,304,612210,0.0-14.0-0.53,5ee623674afa60375e30eec3,650c16f0f2faf8d7a0d14c09,651c1b4f5d3c65ff5e59bba5,null,null,"<p style=""font-size: 60px; font-family: BACS"">KTDTBOtM</p>",,,,,,,,,,
html-keyboard-response,305,613225,0.0-14.0-0.54,5ee623674afa60375e30eec3,650c16f0f2faf8d7a0d14c09,651c1b4f5d3c65ff5e59bba5,null,null,"<p style=""font-size: 60px; font-family: BACS"">TAdhMkDOm</p>",,,,,,,,,,
html-keyboard-response,306,614239,0.0-14.0-0.55,5ee623674afa60375e30eec3,650c16f0f2faf8d7a0d14c09,651c1b4f5d3c65ff5e59bba5,null,null,"<p style=""font-size: 60px; font-family: BACS"">YlCPBEPBT</p>",,,,,,,,,,
html-keyboard-response,307,615256,0.0-14.0-0.56,5ee623674afa60375e30eec3,650c16f0f2faf8d7a0d14c09,651c1b4f5d3c65ff5e59bba5,null,null,"<p style=""font-size: 60px; font-family: BACS"">dRhtOtM</p>",,,,,,,,,,
html-keyboard-response,308,616273,0.0-14.0-0.57,5ee623674afa60375e30eec3,650c16f0f2faf8d7a0d14c09,651c1b4f5d3c65ff5e59bba5,null,null,"<p style=""font-size: 60px; font-family: BACS"">mLdkZGUOA</p>",,,,,,,,,,
html-keyboard-response,309,617286,0.0-14.0-0.58,5ee623674afa60375e30eec3,650c16f0f2faf8d7a0d14c09,651c1b4f5d3c65ff5e59bba5,null,null,"<p style=""font-size: 60px; font-family: BACS"">mbZlOJlN</p>",,,,,,,,,,
html-keyboard-response,310,618298,0.0-14.0-0.59,5ee623674afa60375e30eec3,650c16f0f2faf8d7a0d14c09,651c1b4f5d3c65ff5e59bba5,null,null,"<p style=""font-size: 60px; font-family: BACS"">ObOQlYLU</p>",,,,,,,,,,
html-keyboard-response,311,619301,0.0-14.0-0.60,5ee623674afa60375e30eec3,650c16f0f2faf8d7a0d14c09,651c1b4f5d3c65ff5e59bba5,null,null,"<p style=""font-size: 60px; font-family: BACS"">OQarQGUOA</p>",,,,,,,,,,
html-keyboard-response,312,620303,0.0-14.0-0.61,5ee623674afa60375e30eec3,650c16f0f2faf8d7a0d14c09,651c1b4f5d3c65ff5e59bba5,null,null,"<p style=""font-size: 60px; font-family: BACS"">dRhtcPK</p>",,,,,,,,,,
html-keyboard-response,313,621311,0.0-14.0-0.62,5ee623674afa60375e30eec3,650c16f0f2faf8d7a0d14c09,651c1b4f5d3c65ff5e59bba5,null,null,"<p style=""font-size: 60px; font-family: BACS"">AbkacrdY</p>",,,,,,,,,,
html-keyboard-response,314,622326,0.0-14.0-0.63,5ee623674afa60375e30eec3,650c16f0f2faf8d7a0d14c09,651c1b4f5d3c65ff5e59bba5,null,null,"<p style=""font-size: 60px; font-family: BACS"">hbmAcPK</p>",,,,,,,,,,
html-keyboard-response,315,623342,0.0-14.0-0.64,5ee623674afa60375e30eec3,650c16f0f2faf8d7a0d14c09,651c1b4f5d3c65ff5e59bba5,null,null,"<p style=""font-size: 60px; font-family: BACS"">lZcuYaum</p>",,,,,,,,,,
html-keyboard-response,316,624357,0.0-14.0-0.65,5ee623674afa60375e30eec3,650c16f0f2faf8d7a0d14c09,651c1b4f5d3c65ff5e59bba5,null,null,"<p style=""font-size: 60px; font-family: BACS"">YlCPBcPK</p>",,,,,,,,,,
html-keyboard-response,317,625371,0.0-14.0-0.66,5ee623674afa60375e30eec3,650c16f0f2faf8d7a0d14c09,651c1b4f5d3c65ff5e59bba5,null,null,"<p style=""font-size: 60px; font-family: BACS"">cuOJbOJlN</p>",,,,,,,,,,
html-keyboard-response,318,626373,0.0-14.0-0.67,5ee623674afa60375e30eec3,650c16f0f2faf8d7a0d14c09,651c1b4f5d3c65ff5e59bba5,null,null,"<p style=""font-size: 60px; font-family: BACS"">tdDdOtM</p>",,,,,,,,,,
html-keyboard-response,319,627389,0.0-14.0-0.68,5ee623674afa60375e30eec3,650c16f0f2faf8d7a0d14c09,651c1b4f5d3c65ff5e59bba5,null,null,"<p style=""font-size: 60px; font-family: BACS"">mLdkZcrdY</p>",,,,,,,,,,
html-keyboard-response,320,628404,0.0-14.0-0.69,5ee623674afa60375e30eec3,650c16f0f2faf8d7a0d14c09,651c1b4f5d3c65ff5e59bba5,null,null,"<p style=""font-size: 60px; font-family: BACS"">hCktEPBT</p>",,,,,,,,,,
html-keyboard-response,321,629411,0.0-14.0-0.70,5ee623674afa60375e30eec3,650c16f0f2faf8d7a0d14c09,651c1b4f5d3c65ff5e59bba5,null,null,"<p style=""font-size: 60px; font-family: BACS"">YlCPBkDOm</p>",,,,,,,,,,
html-keyboard-response,322,630425,0.0-14.0-0.71,5ee623674afa60375e30eec3,650c16f0f2faf8d7a0d14c09,651c1b4f5d3c65ff5e59bba5,null,null,"<p style=""font-size: 60px; font-family: BACS"">TAdhMlRE</p>",,,,,,,,,,
html-keyboard-response,323,631443,0.0-14.0-0.72,5ee623674afa60375e30eec3,650c16f0f2faf8d7a0d14c09,651c1b4f5d3c65ff5e59bba5,null,null,"<p style=""font-size: 60px; font-family: BACS"">LQurYaum</p>",,,,,,,,,,
html-keyboard-response,324,632450,0.0-14.0-0.73,5ee623674afa60375e30eec3,650c16f0f2faf8d7a0d14c09,651c1b4f5d3c65ff5e59bba5,null,null,"<p style=""font-size: 60px; font-family: BACS"">lZcucrdY</p>",,,,,,,,,,
html-keyboard-response,325,633452,0.0-14.0-0.74,5ee623674afa60375e30eec3,650c16f0f2faf8d7a0d14c09,651c1b4f5d3c65ff5e59bba5,null,null,"<p style=""font-size: 60px; font-family: BACS"">OQarQYLU</p>",,,,,,,,,,
html-keyboard-response,326,634466,0.0-14.0-0.75,5ee623674afa60375e30eec3,650c16f0f2faf8d7a0d14c09,651c1b4f5d3c65ff5e59bba5,null,null,"<p style=""font-size: 60px; font-family: BACS"">AZlLNOJlN</p>",,,,,,,,,,
html-keyboard-response,327,635481,0.0-14.0-0.76,5ee623674afa60375e30eec3,650c16f0f2faf8d7a0d14c09,651c1b4f5d3c65ff5e59bba5,null,null,"<p style=""font-size: 60px; font-family: BACS"">LQurcrdY</p>",,,,,,,,,,
html-keyboard-response,328,636497,0.0-14.0-0.77,5ee623674afa60375e30eec3,650c16f0f2faf8d7a0d14c09,651c1b4f5d3c65ff5e59bba5,null,null,"<p style=""font-size: 60px; font-family: BACS"">YlCPBlRE</p>",,,,,,,,,,
html-keyboard-response,329,637514,0.0-14.0-0.78,5ee623674afa60375e30eec3,650c16f0f2faf8d7a0d14c09,651c1b4f5d3c65ff5e59bba5,null,null,"<p style=""font-size: 60px; font-family: BACS"">PlEKEPBT</p>",,,,,,,,,,
html-keyboard-response,330,638530,0.0-14.0-0.79,5ee623674afa60375e30eec3,650c16f0f2faf8d7a0d14c09,651c1b4f5d3c65ff5e59bba5,null,null,"<p style=""font-size: 60px; font-family: BACS"">DBlhlRE</p>",,,,,,,,,,
html-keyboard-response,331,669199,0.0-15.0,5ee623674afa60375e30eec3,650c16f0f2faf8d7a0d14c09,651c1b4f5d3c65ff5e59bba5,30668, ,"<p>Great, you've seen the fourth block of words. You may now take a short break.</p>
      <p>Press the spacebar when you're ready to continue.</p>",,,,,,,,,,
html-keyboard-response,332,670206,0.0-16.0-0.0,5ee623674afa60375e30eec3,650c16f0f2faf8d7a0d14c09,651c1b4f5d3c65ff5e59bba5,null,null,"<p style=""font-size: 60px; font-family: BACS"">TAdhMkDOm</p>",,,,,,,,,,
html-keyboard-response,333,671211,0.0-16.0-0.1,5ee623674afa60375e30eec3,650c16f0f2faf8d7a0d14c09,651c1b4f5d3c65ff5e59bba5,null,null,"<p style=""font-size: 60px; font-family: BACS"">TAdhMkDOm</p>",,,,,,,,,,
html-keyboard-response,334,672217,0.0-16.0-0.2,5ee623674afa60375e30eec3,650c16f0f2faf8d7a0d14c09,651c1b4f5d3c65ff5e59bba5,null,null,"<p style=""font-size: 60px; font-family: BACS"">TAdhMkDOm</p>",,,,,,,,,,
html-keyboard-response,335,673218,0.0-16.0-0.3,5ee623674afa60375e30eec3,650c16f0f2faf8d7a0d14c09,651c1b4f5d3c65ff5e59bba5,null,null,"<p style=""font-size: 60px; font-family: BACS"">TAdhMkDOm</p>",,,,,,,,,,
html-keyboard-response,336,674234,0.0-16.0-0.4,5ee623674afa60375e30eec3,650c16f0f2faf8d7a0d14c09,651c1b4f5d3c65ff5e59bba5,null,null,"<p style=""font-size: 60px; font-family: BACS"">TAdhMkDOm</p>",,,,,,,,,,
html-keyboard-response,337,675250,0.0-16.0-0.5,5ee623674afa60375e30eec3,650c16f0f2faf8d7a0d14c09,651c1b4f5d3c65ff5e59bba5,null,null,"<p style=""font-size: 60px; font-family: BACS"">TAdhMkDOm</p>",,,,,,,,,,
html-keyboard-response,338,676264,0.0-16.0-0.6,5ee623674afa60375e30eec3,650c16f0f2faf8d7a0d14c09,651c1b4f5d3c65ff5e59bba5,null,null,"<p style=""font-size: 60px; font-family: BACS"">TAdhMkDOm</p>",,,,,,,,,,
html-keyboard-response,339,677266,0.0-16.0-0.7,5ee623674afa60375e30eec3,650c16f0f2faf8d7a0d14c09,651c1b4f5d3c65ff5e59bba5,null,null,"<p style=""font-size: 60px; font-family: BACS"">TAdhMkDOm</p>",,,,,,,,,,
html-keyboard-response,340,678280,0.0-16.0-0.8,5ee623674afa60375e30eec3,650c16f0f2faf8d7a0d14c09,651c1b4f5d3c65ff5e59bba5,null,null,"<p style=""font-size: 60px; font-family: BACS"">TAdhMkDOm</p>",,,,,,,,,,
html-keyboard-response,341,679295,0.0-16.0-0.9,5ee623674afa60375e30eec3,650c16f0f2faf8d7a0d14c09,651c1b4f5d3c65ff5e59bba5,null,null,"<p style=""font-size: 60px; font-family: BACS"">TAdhMkDOm</p>",,,,,,,,,,
html-keyboard-response,342,680297,0.0-16.0-0.10,5ee623674afa60375e30eec3,650c16f0f2faf8d7a0d14c09,651c1b4f5d3c65ff5e59bba5,null,null,"<p style=""font-size: 60px; font-family: BACS"">TAdhMkDOm</p>",,,,,,,,,,
html-keyboard-response,343,681300,0.0-16.0-0.11,5ee623674afa60375e30eec3,650c16f0f2faf8d7a0d14c09,651c1b4f5d3c65ff5e59bba5,null,null,"<p style=""font-size: 60px; font-family: BACS"">TAdhMkDOm</p>",,,,,,,,,,
html-keyboard-response,344,682317,0.0-16.0-0.12,5ee623674afa60375e30eec3,650c16f0f2faf8d7a0d14c09,651c1b4f5d3c65ff5e59bba5,null,null,"<p style=""font-size: 60px; font-family: BACS"">TAdhMkDOm</p>",,,,,,,,,,
html-keyboard-response,345,683326,0.0-16.0-0.13,5ee623674afa60375e30eec3,650c16f0f2faf8d7a0d14c09,651c1b4f5d3c65ff5e59bba5,null,null,"<p style=""font-size: 60px; font-family: BACS"">TAdhMkDOm</p>",,,,,,,,,,
html-keyboard-response,346,684341,0.0-16.0-0.14,5ee623674afa60375e30eec3,650c16f0f2faf8d7a0d14c09,651c1b4f5d3c65ff5e59bba5,null,null,"<p style=""font-size: 60px; font-family: BACS"">TAdhMkDOm</p>",,,,,,,,,,
html-keyboard-response,347,685358,0.0-16.0-0.15,5ee623674afa60375e30eec3,650c16f0f2faf8d7a0d14c09,651c1b4f5d3c65ff5e59bba5,null,null,"<p style=""font-size: 60px; font-family: BACS"">TAdhMkDOm</p>",,,,,,,,,,
html-keyboard-response,348,686374,0.0-16.0-0.16,5ee623674afa60375e30eec3,650c16f0f2faf8d7a0d14c09,651c1b4f5d3c65ff5e59bba5,null,null,"<p style=""font-size: 60px; font-family: BACS"">TAdhMkDOm</p>",,,,,,,,,,
html-keyboard-response,349,687387,0.0-16.0-0.17,5ee623674afa60375e30eec3,650c16f0f2faf8d7a0d14c09,651c1b4f5d3c65ff5e59bba5,null,null,"<p style=""font-size: 60px; font-family: BACS"">TAdhMkDOm</p>",,,,,,,,,,
html-keyboard-response,350,688404,0.0-16.0-0.18,5ee623674afa60375e30eec3,650c16f0f2faf8d7a0d14c09,651c1b4f5d3c65ff5e59bba5,null,null,"<p style=""font-size: 60px; font-family: BACS"">TAdhMkDOm</p>",,,,,,,,,,
html-keyboard-response,351,689421,0.0-16.0-0.19,5ee623674afa60375e30eec3,650c16f0f2faf8d7a0d14c09,651c1b4f5d3c65ff5e59bba5,null,null,"<p style=""font-size: 60px; font-family: BACS"">TAdhMkDOm</p>",,,,,,,,,,
html-keyboard-response,352,690436,0.0-16.0-0.20,5ee623674afa60375e30eec3,650c16f0f2faf8d7a0d14c09,651c1b4f5d3c65ff5e59bba5,null,null,"<p style=""font-size: 60px; font-family: BACS"">TAdhMkDOm</p>",,,,,,,,,,
html-keyboard-response,353,691452,0.0-16.0-0.21,5ee623674afa60375e30eec3,650c16f0f2faf8d7a0d14c09,651c1b4f5d3c65ff5e59bba5,null,null,"<p style=""font-size: 60px; font-family: BACS"">TAdhMkDOm</p>",,,,,,,,,,
html-keyboard-response,354,692456,0.0-16.0-0.22,5ee623674afa60375e30eec3,650c16f0f2faf8d7a0d14c09,651c1b4f5d3c65ff5e59bba5,null,null,"<p style=""font-size: 60px; font-family: BACS"">TAdhMkDOm</p>",,,,,,,,,,
html-keyboard-response,355,693458,0.0-16.0-0.23,5ee623674afa60375e30eec3,650c16f0f2faf8d7a0d14c09,651c1b4f5d3c65ff5e59bba5,null,null,"<p style=""font-size: 60px; font-family: BACS"">TAdhMkDOm</p>",,,,,,,,,,
html-keyboard-response,356,694467,0.0-16.0-0.24,5ee623674afa60375e30eec3,650c16f0f2faf8d7a0d14c09,651c1b4f5d3c65ff5e59bba5,null,null,"<p style=""font-size: 60px; font-family: BACS"">TAdhMkDOm</p>",,,,,,,,,,
html-keyboard-response,357,695483,0.0-16.0-0.25,5ee623674afa60375e30eec3,650c16f0f2faf8d7a0d14c09,651c1b4f5d3c65ff5e59bba5,null,null,"<p style=""font-size: 60px; font-family: BACS"">TAdhMkDOm</p>",,,,,,,,,,
html-keyboard-response,358,696498,0.0-16.0-0.26,5ee623674afa60375e30eec3,650c16f0f2faf8d7a0d14c09,651c1b4f5d3c65ff5e59bba5,null,null,"<p style=""font-size: 60px; font-family: BACS"">TAdhMkDOm</p>",,,,,,,,,,
html-keyboard-response,359,697514,0.0-16.0-0.27,5ee623674afa60375e30eec3,650c16f0f2faf8d7a0d14c09,651c1b4f5d3c65ff5e59bba5,null,null,"<p style=""font-size: 60px; font-family: BACS"">TAdhMkDOm</p>",,,,,,,,,,
html-keyboard-response,360,698527,0.0-16.0-0.28,5ee623674afa60375e30eec3,650c16f0f2faf8d7a0d14c09,651c1b4f5d3c65ff5e59bba5,null,null,"<p style=""font-size: 60px; font-family: BACS"">TAdhMkDOm</p>",,,,,,,,,,
html-keyboard-response,361,699544,0.0-16.0-0.29,5ee623674afa60375e30eec3,650c16f0f2faf8d7a0d14c09,651c1b4f5d3c65ff5e59bba5,null,null,"<p style=""font-size: 60px; font-family: BACS"">TAdhMkDOm</p>",,,,,,,,,,
html-keyboard-response,362,700561,0.0-16.0-0.30,5ee623674afa60375e30eec3,650c16f0f2faf8d7a0d14c09,651c1b4f5d3c65ff5e59bba5,null,null,"<p style=""font-size: 60px; font-family: BACS"">TAdhMkDOm</p>",,,,,,,,,,
html-keyboard-response,363,701577,0.0-16.0-0.31,5ee623674afa60375e30eec3,650c16f0f2faf8d7a0d14c09,651c1b4f5d3c65ff5e59bba5,null,null,"<p style=""font-size: 60px; font-family: BACS"">TAdhMkDOm</p>",,,,,,,,,,
html-keyboard-response,364,702593,0.0-16.0-0.32,5ee623674afa60375e30eec3,650c16f0f2faf8d7a0d14c09,651c1b4f5d3c65ff5e59bba5,null,null,"<p style=""font-size: 60px; font-family: BACS"">TAdhMkDOm</p>",,,,,,,,,,
html-keyboard-response,365,703598,0.0-16.0-0.33,5ee623674afa60375e30eec3,650c16f0f2faf8d7a0d14c09,651c1b4f5d3c65ff5e59bba5,null,null,"<p style=""font-size: 60px; font-family: BACS"">TAdhMkDOm</p>",,,,,,,,,,
html-keyboard-response,366,704600,0.0-16.0-0.34,5ee623674afa60375e30eec3,650c16f0f2faf8d7a0d14c09,651c1b4f5d3c65ff5e59bba5,null,null,"<p style=""font-size: 60px; font-family: BACS"">TAdhMkDOm</p>",,,,,,,,,,
html-keyboard-response,367,705616,0.0-16.0-0.35,5ee623674afa60375e30eec3,650c16f0f2faf8d7a0d14c09,651c1b4f5d3c65ff5e59bba5,null,null,"<p style=""font-size: 60px; font-family: BACS"">TAdhMkDOm</p>",,,,,,,,,,
html-keyboard-response,368,706625,0.0-16.0-0.36,5ee623674afa60375e30eec3,650c16f0f2faf8d7a0d14c09,651c1b4f5d3c65ff5e59bba5,null,null,"<p style=""font-size: 60px; font-family: BACS"">TAdhMkDOm</p>",,,,,,,,,,
html-keyboard-response,369,707638,0.0-16.0-0.37,5ee623674afa60375e30eec3,650c16f0f2faf8d7a0d14c09,651c1b4f5d3c65ff5e59bba5,null,null,"<p style=""font-size: 60px; font-family: BACS"">TAdhMkDOm</p>",,,,,,,,,,
html-keyboard-response,370,708655,0.0-16.0-0.38,5ee623674afa60375e30eec3,650c16f0f2faf8d7a0d14c09,651c1b4f5d3c65ff5e59bba5,null,null,"<p style=""font-size: 60px; font-family: BACS"">TAdhMkDOm</p>",,,,,,,,,,
html-keyboard-response,371,709670,0.0-16.0-0.39,5ee623674afa60375e30eec3,650c16f0f2faf8d7a0d14c09,651c1b4f5d3c65ff5e59bba5,null,null,"<p style=""font-size: 60px; font-family: BACS"">TAdhMkDOm</p>",,,,,,,,,,
html-keyboard-response,372,710687,0.0-16.0-0.40,5ee623674afa60375e30eec3,650c16f0f2faf8d7a0d14c09,651c1b4f5d3c65ff5e59bba5,null,null,"<p style=""font-size: 60px; font-family: BACS"">TAdhMkDOm</p>",,,,,,,,,,
html-keyboard-response,373,711702,0.0-16.0-0.41,5ee623674afa60375e30eec3,650c16f0f2faf8d7a0d14c09,651c1b4f5d3c65ff5e59bba5,null,null,"<p style=""font-size: 60px; font-family: BACS"">TAdhMkDOm</p>",,,,,,,,,,
html-keyboard-response,374,712718,0.0-16.0-0.42,5ee623674afa60375e30eec3,650c16f0f2faf8d7a0d14c09,651c1b4f5d3c65ff5e59bba5,null,null,"<p style=""font-size: 60px; font-family: BACS"">TAdhMkDOm</p>",,,,,,,,,,
html-keyboard-response,375,713733,0.0-16.0-0.43,5ee623674afa60375e30eec3,650c16f0f2faf8d7a0d14c09,651c1b4f5d3c65ff5e59bba5,null,null,"<p style=""font-size: 60px; font-family: BACS"">TAdhMkDOm</p>",,,,,,,,,,
html-keyboard-response,376,714735,0.0-16.0-0.44,5ee623674afa60375e30eec3,650c16f0f2faf8d7a0d14c09,651c1b4f5d3c65ff5e59bba5,null,null,"<p style=""font-size: 60px; font-family: BACS"">TAdhMkDOm</p>",,,,,,,,,,
html-keyboard-response,377,715740,0.0-16.0-0.45,5ee623674afa60375e30eec3,650c16f0f2faf8d7a0d14c09,651c1b4f5d3c65ff5e59bba5,null,null,"<p style=""font-size: 60px; font-family: BACS"">TAdhMkDOm</p>",,,,,,,,,,
html-keyboard-response,378,716757,0.0-16.0-0.46,5ee623674afa60375e30eec3,650c16f0f2faf8d7a0d14c09,651c1b4f5d3c65ff5e59bba5,null,null,"<p style=""font-size: 60px; font-family: BACS"">TAdhMkDOm</p>",,,,,,,,,,
html-keyboard-response,379,717765,0.0-16.0-0.47,5ee623674afa60375e30eec3,650c16f0f2faf8d7a0d14c09,651c1b4f5d3c65ff5e59bba5,null,null,"<p style=""font-size: 60px; font-family: BACS"">TAdhMkDOm</p>",,,,,,,,,,
html-keyboard-response,380,718780,0.0-16.0-0.48,5ee623674afa60375e30eec3,650c16f0f2faf8d7a0d14c09,651c1b4f5d3c65ff5e59bba5,null,null,"<p style=""font-size: 60px; font-family: BACS"">TAdhMkDOm</p>",,,,,,,,,,
html-keyboard-response,381,719796,0.0-16.0-0.49,5ee623674afa60375e30eec3,650c16f0f2faf8d7a0d14c09,651c1b4f5d3c65ff5e59bba5,null,null,"<p style=""font-size: 60px; font-family: BACS"">TAdhMkDOm</p>",,,,,,,,,,
html-keyboard-response,382,720811,0.0-16.0-0.50,5ee623674afa60375e30eec3,650c16f0f2faf8d7a0d14c09,651c1b4f5d3c65ff5e59bba5,null,null,"<p style=""font-size: 60px; font-family: BACS"">TAdhMkDOm</p>",,,,,,,,,,
html-keyboard-response,383,721827,0.0-16.0-0.51,5ee623674afa60375e30eec3,650c16f0f2faf8d7a0d14c09,651c1b4f5d3c65ff5e59bba5,null,null,"<p style=""font-size: 60px; font-family: BACS"">TAdhMkDOm</p>",,,,,,,,,,
html-keyboard-response,384,722843,0.0-16.0-0.52,5ee623674afa60375e30eec3,650c16f0f2faf8d7a0d14c09,651c1b4f5d3c65ff5e59bba5,null,null,"<p style=""font-size: 60px; font-family: BACS"">TAdhMkDOm</p>",,,,,,,,,,
html-keyboard-response,385,723859,0.0-16.0-0.53,5ee623674afa60375e30eec3,650c16f0f2faf8d7a0d14c09,651c1b4f5d3c65ff5e59bba5,null,null,"<p style=""font-size: 60px; font-family: BACS"">TAdhMkDOm</p>",,,,,,,,,,
html-keyboard-response,386,724874,0.0-16.0-0.54,5ee623674afa60375e30eec3,650c16f0f2faf8d7a0d14c09,651c1b4f5d3c65ff5e59bba5,null,null,"<p style=""font-size: 60px; font-family: BACS"">TAdhMkDOm</p>",,,,,,,,,,
html-keyboard-response,387,725891,0.0-16.0-0.55,5ee623674afa60375e30eec3,650c16f0f2faf8d7a0d14c09,651c1b4f5d3c65ff5e59bba5,null,null,"<p style=""font-size: 60px; font-family: BACS"">TAdhMkDOm</p>",,,,,,,,,,
html-keyboard-response,388,726895,0.0-16.0-0.56,5ee623674afa60375e30eec3,650c16f0f2faf8d7a0d14c09,651c1b4f5d3c65ff5e59bba5,null,null,"<p style=""font-size: 60px; font-family: BACS"">TAdhMkDOm</p>",,,,,,,,,,
html-keyboard-response,389,727913,0.0-16.0-0.57,5ee623674afa60375e30eec3,650c16f0f2faf8d7a0d14c09,651c1b4f5d3c65ff5e59bba5,null,null,"<p style=""font-size: 60px; font-family: BACS"">TAdhMkDOm</p>",,,,,,,,,,
html-keyboard-response,390,728919,0.0-16.0-0.58,5ee623674afa60375e30eec3,650c16f0f2faf8d7a0d14c09,651c1b4f5d3c65ff5e59bba5,null,null,"<p style=""font-size: 60px; font-family: BACS"">TAdhMkDOm</p>",,,,,,,,,,
html-keyboard-response,391,729936,0.0-16.0-0.59,5ee623674afa60375e30eec3,650c16f0f2faf8d7a0d14c09,651c1b4f5d3c65ff5e59bba5,null,null,"<p style=""font-size: 60px; font-family: BACS"">TAdhMkDOm</p>",,,,,,,,,,
html-keyboard-response,392,730938,0.0-16.0-0.60,5ee623674afa60375e30eec3,650c16f0f2faf8d7a0d14c09,651c1b4f5d3c65ff5e59bba5,null,null,"<p style=""font-size: 60px; font-family: BACS"">TAdhMkDOm</p>",,,,,,,,,,
html-keyboard-response,393,731952,0.0-16.0-0.61,5ee623674afa60375e30eec3,650c16f0f2faf8d7a0d14c09,651c1b4f5d3c65ff5e59bba5,null,null,"<p style=""font-size: 60px; font-family: BACS"">TAdhMkDOm</p>",,,,,,,,,,
html-keyboard-response,394,732966,0.0-16.0-0.62,5ee623674afa60375e30eec3,650c16f0f2faf8d7a0d14c09,651c1b4f5d3c65ff5e59bba5,null,null,"<p style=""font-size: 60px; font-family: BACS"">TAdhMkDOm</p>",,,,,,,,,,
html-keyboard-response,395,733982,0.0-16.0-0.63,5ee623674afa60375e30eec3,650c16f0f2faf8d7a0d14c09,651c1b4f5d3c65ff5e59bba5,null,null,"<p style=""font-size: 60px; font-family: BACS"">TAdhMkDOm</p>",,,,,,,,,,
html-keyboard-response,396,734984,0.0-16.0-0.64,5ee623674afa60375e30eec3,650c16f0f2faf8d7a0d14c09,651c1b4f5d3c65ff5e59bba5,null,null,"<p style=""font-size: 60px; font-family: BACS"">TAdhMkDOm</p>",,,,,,,,,,
html-keyboard-response,397,735998,0.0-16.0-0.65,5ee623674afa60375e30eec3,650c16f0f2faf8d7a0d14c09,651c1b4f5d3c65ff5e59bba5,null,null,"<p style=""font-size: 60px; font-family: BACS"">TAdhMkDOm</p>",,,,,,,,,,
html-keyboard-response,398,737002,0.0-16.0-0.66,5ee623674afa60375e30eec3,650c16f0f2faf8d7a0d14c09,651c1b4f5d3c65ff5e59bba5,null,null,"<p style=""font-size: 60px; font-family: BACS"">TAdhMkDOm</p>",,,,,,,,,,
html-keyboard-response,399,738004,0.0-16.0-0.67,5ee623674afa60375e30eec3,650c16f0f2faf8d7a0d14c09,651c1b4f5d3c65ff5e59bba5,null,null,"<p style=""font-size: 60px; font-family: BACS"">TAdhMkDOm</p>",,,,,,,,,,
html-keyboard-response,400,739021,0.0-16.0-0.68,5ee623674afa60375e30eec3,650c16f0f2faf8d7a0d14c09,651c1b4f5d3c65ff5e59bba5,null,null,"<p style=""font-size: 60px; font-family: BACS"">TAdhMkDOm</p>",,,,,,,,,,
html-keyboard-response,401,740029,0.0-16.0-0.69,5ee623674afa60375e30eec3,650c16f0f2faf8d7a0d14c09,651c1b4f5d3c65ff5e59bba5,null,null,"<p style=""font-size: 60px; font-family: BACS"">TAdhMkDOm</p>",,,,,,,,,,
html-keyboard-response,402,741045,0.0-16.0-0.70,5ee623674afa60375e30eec3,650c16f0f2faf8d7a0d14c09,651c1b4f5d3c65ff5e59bba5,null,null,"<p style=""font-size: 60px; font-family: BACS"">TAdhMkDOm</p>",,,,,,,,,,
html-keyboard-response,403,742061,0.0-16.0-0.71,5ee623674afa60375e30eec3,650c16f0f2faf8d7a0d14c09,651c1b4f5d3c65ff5e59bba5,null,null,"<p style=""font-size: 60px; font-family: BACS"">TAdhMkDOm</p>",,,,,,,,,,
html-keyboard-response,404,743077,0.0-16.0-0.72,5ee623674afa60375e30eec3,650c16f0f2faf8d7a0d14c09,651c1b4f5d3c65ff5e59bba5,null,null,"<p style=""font-size: 60px; font-family: BACS"">TAdhMkDOm</p>",,,,,,,,,,
html-keyboard-response,405,744091,0.0-16.0-0.73,5ee623674afa60375e30eec3,650c16f0f2faf8d7a0d14c09,651c1b4f5d3c65ff5e59bba5,null,null,"<p style=""font-size: 60px; font-family: BACS"">TAdhMkDOm</p>",,,,,,,,,,
html-keyboard-response,406,745108,0.0-16.0-0.74,5ee623674afa60375e30eec3,650c16f0f2faf8d7a0d14c09,651c1b4f5d3c65ff5e59bba5,null,null,"<p style=""font-size: 60px; font-family: BACS"">TAdhMkDOm</p>",,,,,,,,,,
html-keyboard-response,407,746124,0.0-16.0-0.75,5ee623674afa60375e30eec3,650c16f0f2faf8d7a0d14c09,651c1b4f5d3c65ff5e59bba5,null,null,"<p style=""font-size: 60px; font-family: BACS"">TAdhMkDOm</p>",,,,,,,,,,
html-keyboard-response,408,747126,0.0-16.0-0.76,5ee623674afa60375e30eec3,650c16f0f2faf8d7a0d14c09,651c1b4f5d3c65ff5e59bba5,null,null,"<p style=""font-size: 60px; font-family: BACS"">TAdhMkDOm</p>",,,,,,,,,,
html-keyboard-response,409,748141,0.0-16.0-0.77,5ee623674afa60375e30eec3,650c16f0f2faf8d7a0d14c09,651c1b4f5d3c65ff5e59bba5,null,null,"<p style=""font-size: 60px; font-family: BACS"">TAdhMkDOm</p>",,,,,,,,,,
html-keyboard-response,410,749145,0.0-16.0-0.78,5ee623674afa60375e30eec3,650c16f0f2faf8d7a0d14c09,651c1b4f5d3c65ff5e59bba5,null,null,"<p style=""font-size: 60px; font-family: BACS"">TAdhMkDOm</p>",,,,,,,,,,
html-keyboard-response,411,750147,0.0-16.0-0.79,5ee623674afa60375e30eec3,650c16f0f2faf8d7a0d14c09,651c1b4f5d3c65ff5e59bba5,null,null,"<p style=""font-size: 60px; font-family: BACS"">TAdhMkDOm</p>",,,,,,,,,,
html-keyboard-response,412,795348,0.0-17.0,5ee623674afa60375e30eec3,650c16f0f2faf8d7a0d14c09,651c1b4f5d3c65ff5e59bba5,45199, ,"<p>Great, you've seen the fifth block of words. You may now take a short break.</p>
      <p>Press the spacebar when you're ready to continue.</p>",,,,,,,,,,
html-keyboard-response,413,796353,0.0-18.0-0.0,5ee623674afa60375e30eec3,650c16f0f2faf8d7a0d14c09,651c1b4f5d3c65ff5e59bba5,null,null,"<p style=""font-size: 60px; font-family: BACS"">tdDdcPK</p>",,,,,,,,,,
html-keyboard-response,414,797357,0.0-18.0-0.1,5ee623674afa60375e30eec3,650c16f0f2faf8d7a0d14c09,651c1b4f5d3c65ff5e59bba5,null,null,"<p style=""font-size: 60px; font-family: BACS"">lZcuYLU</p>",,,,,,,,,,
html-keyboard-response,415,798364,0.0-18.0-0.2,5ee623674afa60375e30eec3,650c16f0f2faf8d7a0d14c09,651c1b4f5d3c65ff5e59bba5,null,null,"<p style=""font-size: 60px; font-family: BACS"">PlEKlRE</p>",,,,,,,,,,
html-keyboard-response,416,799381,0.0-18.0-0.3,5ee623674afa60375e30eec3,650c16f0f2faf8d7a0d14c09,651c1b4f5d3c65ff5e59bba5,null,null,"<p style=""font-size: 60px; font-family: BACS"">OQarQYLU</p>",,,,,,,,,,
html-keyboard-response,417,800396,0.0-18.0-0.4,5ee623674afa60375e30eec3,650c16f0f2faf8d7a0d14c09,651c1b4f5d3c65ff5e59bba5,null,null,"<p style=""font-size: 60px; font-family: BACS"">uQkrdYaum</p>",,,,,,,,,,
html-keyboard-response,418,801412,0.0-18.0-0.5,5ee623674afa60375e30eec3,650c16f0f2faf8d7a0d14c09,651c1b4f5d3c65ff5e59bba5,null,null,"<p style=""font-size: 60px; font-family: BACS"">dRhtlRE</p>",,,,,,,,,,
html-keyboard-response,419,802428,0.0-18.0-0.6,5ee623674afa60375e30eec3,650c16f0f2faf8d7a0d14c09,651c1b4f5d3c65ff5e59bba5,null,null,"<p style=""font-size: 60px; font-family: BACS"">hTtBbOtM</p>",,,,,,,,,,
html-keyboard-response,420,803442,0.0-18.0-0.7,5ee623674afa60375e30eec3,650c16f0f2faf8d7a0d14c09,651c1b4f5d3c65ff5e59bba5,null,null,"<p style=""font-size: 60px; font-family: BACS"">cuOJbYaum</p>",,,,,,,,,,
html-keyboard-response,421,804459,0.0-18.0-0.8,5ee623674afa60375e30eec3,650c16f0f2faf8d7a0d14c09,651c1b4f5d3c65ff5e59bba5,null,null,"<p style=""font-size: 60px; font-family: BACS"">lZcuGUOA</p>",,,,,,,,,,
html-keyboard-response,422,805476,0.0-18.0-0.9,5ee623674afa60375e30eec3,650c16f0f2faf8d7a0d14c09,651c1b4f5d3c65ff5e59bba5,null,null,"<p style=""font-size: 60px; font-family: BACS"">dRhtEPBT</p>",,,,,,,,,,
html-keyboard-response,423,806491,0.0-18.0-0.10,5ee623674afa60375e30eec3,650c16f0f2faf8d7a0d14c09,651c1b4f5d3c65ff5e59bba5,null,null,"<p style=""font-size: 60px; font-family: BACS"">AZlLNOJlN</p>",,,,,,,,,,
html-keyboard-response,424,807494,0.0-18.0-0.11,5ee623674afa60375e30eec3,650c16f0f2faf8d7a0d14c09,651c1b4f5d3c65ff5e59bba5,null,null,"<p style=""font-size: 60px; font-family: BACS"">TAdhMkDOm</p>",,,,,,,,,,
html-keyboard-response,425,808496,0.0-18.0-0.12,5ee623674afa60375e30eec3,650c16f0f2faf8d7a0d14c09,651c1b4f5d3c65ff5e59bba5,null,null,"<p style=""font-size: 60px; font-family: BACS"">mbZlYLU</p>",,,,,,,,,,
html-keyboard-response,426,809514,0.0-18.0-0.13,5ee623674afa60375e30eec3,650c16f0f2faf8d7a0d14c09,651c1b4f5d3c65ff5e59bba5,null,null,"<p style=""font-size: 60px; font-family: BACS"">ObOQlGUOA</p>",,,,,,,,,,
html-keyboard-response,427,810523,0.0-18.0-0.14,5ee623674afa60375e30eec3,650c16f0f2faf8d7a0d14c09,651c1b4f5d3c65ff5e59bba5,null,null,"<p style=""font-size: 60px; font-family: BACS"">LQurOJlN</p>",,,,,,,,,,
html-keyboard-response,428,811537,0.0-18.0-0.15,5ee623674afa60375e30eec3,650c16f0f2faf8d7a0d14c09,651c1b4f5d3c65ff5e59bba5,null,null,"<p style=""font-size: 60px; font-family: BACS"">dRhtOtM</p>",,,,,,,,,,
html-keyboard-response,429,812553,0.0-18.0-0.16,5ee623674afa60375e30eec3,650c16f0f2faf8d7a0d14c09,651c1b4f5d3c65ff5e59bba5,null,null,"<p style=""font-size: 60px; font-family: BACS"">mLdkZcrdY</p>",,,,,,,,,,
html-keyboard-response,430,813568,0.0-18.0-0.17,5ee623674afa60375e30eec3,650c16f0f2faf8d7a0d14c09,651c1b4f5d3c65ff5e59bba5,null,null,"<p style=""font-size: 60px; font-family: BACS"">OQarQOJlN</p>",,,,,,,,,,
html-keyboard-response,431,814583,0.0-18.0-0.18,5ee623674afa60375e30eec3,650c16f0f2faf8d7a0d14c09,651c1b4f5d3c65ff5e59bba5,null,null,"<p style=""font-size: 60px; font-family: BACS"">ObOQlYLU</p>",,,,,,,,,,
html-keyboard-response,432,815600,0.0-18.0-0.19,5ee623674afa60375e30eec3,650c16f0f2faf8d7a0d14c09,651c1b4f5d3c65ff5e59bba5,null,null,"<p style=""font-size: 60px; font-family: BACS"">tdDdkDOm</p>",,,,,,,,,,
html-keyboard-response,433,816616,0.0-18.0-0.20,5ee623674afa60375e30eec3,650c16f0f2faf8d7a0d14c09,651c1b4f5d3c65ff5e59bba5,null,null,"<p style=""font-size: 60px; font-family: BACS"">OQarQGUOA</p>",,,,,,,,,,
html-keyboard-response,434,817631,0.0-18.0-0.21,5ee623674afa60375e30eec3,650c16f0f2faf8d7a0d14c09,651c1b4f5d3c65ff5e59bba5,null,null,"<p style=""font-size: 60px; font-family: BACS"">hCktEPBT</p>",,,,,,,,,,
html-keyboard-response,435,818633,0.0-18.0-0.22,5ee623674afa60375e30eec3,650c16f0f2faf8d7a0d14c09,651c1b4f5d3c65ff5e59bba5,null,null,"<p style=""font-size: 60px; font-family: BACS"">KTDTBkDOm</p>",,,,,,,,,,
html-keyboard-response,436,819635,0.0-18.0-0.23,5ee623674afa60375e30eec3,650c16f0f2faf8d7a0d14c09,651c1b4f5d3c65ff5e59bba5,null,null,"<p style=""font-size: 60px; font-family: BACS"">hbmAOtM</p>",,,,,,,,,,
html-keyboard-response,437,820638,0.0-18.0-0.24,5ee623674afa60375e30eec3,650c16f0f2faf8d7a0d14c09,651c1b4f5d3c65ff5e59bba5,null,null,"<p style=""font-size: 60px; font-family: BACS"">mLdkZGUOA</p>",,,,,,,,,,
html-keyboard-response,438,821647,0.0-18.0-0.25,5ee623674afa60375e30eec3,650c16f0f2faf8d7a0d14c09,651c1b4f5d3c65ff5e59bba5,null,null,"<p style=""font-size: 60px; font-family: BACS"">DBlhEPBT</p>",,,,,,,,,,
html-keyboard-response,439,822661,0.0-18.0-0.26,5ee623674afa60375e30eec3,650c16f0f2faf8d7a0d14c09,651c1b4f5d3c65ff5e59bba5,null,null,"<p style=""font-size: 60px; font-family: BACS"">hCktOtM</p>",,,,,,,,,,
html-keyboard-response,440,823678,0.0-18.0-0.27,5ee623674afa60375e30eec3,650c16f0f2faf8d7a0d14c09,651c1b4f5d3c65ff5e59bba5,null,null,"<p style=""font-size: 60px; font-family: BACS"">AZlLNGUOA</p>",,,,,,,,,,
html-keyboard-response,441,824693,0.0-18.0-0.28,5ee623674afa60375e30eec3,650c16f0f2faf8d7a0d14c09,651c1b4f5d3c65ff5e59bba5,null,null,"<p style=""font-size: 60px; font-family: BACS"">ObOQlOJlN</p>",,,,,,,,,,
html-keyboard-response,442,825707,0.0-18.0-0.29,5ee623674afa60375e30eec3,650c16f0f2faf8d7a0d14c09,651c1b4f5d3c65ff5e59bba5,null,null,"<p style=""font-size: 60px; font-family: BACS"">PlEKEPBT</p>",,,,,,,,,,
html-keyboard-response,443,826724,0.0-18.0-0.30,5ee623674afa60375e30eec3,650c16f0f2faf8d7a0d14c09,651c1b4f5d3c65ff5e59bba5,null,null,"<p style=""font-size: 60px; font-family: BACS"">uQkrdGUOA</p>",,,,,,,,,,
html-keyboard-response,444,827740,0.0-18.0-0.31,5ee623674afa60375e30eec3,650c16f0f2faf8d7a0d14c09,651c1b4f5d3c65ff5e59bba5,null,null,"<p style=""font-size: 60px; font-family: BACS"">TAdhMOtM</p>",,,,,,,,,,
html-keyboard-response,445,828756,0.0-18.0-0.32,5ee623674afa60375e30eec3,650c16f0f2faf8d7a0d14c09,651c1b4f5d3c65ff5e59bba5,null,null,"<p style=""font-size: 60px; font-family: BACS"">hTtBblRE</p>",,,,,,,,,,
html-keyboard-response,446,829758,0.0-18.0-0.33,5ee623674afa60375e30eec3,650c16f0f2faf8d7a0d14c09,651c1b4f5d3c65ff5e59bba5,null,null,"<p style=""font-size: 60px; font-family: BACS"">YlCPBEPBT</p>",,,,,,,,,,
html-keyboard-response,447,830761,0.0-18.0-0.34,5ee623674afa60375e30eec3,650c16f0f2faf8d7a0d14c09,651c1b4f5d3c65ff5e59bba5,null,null,"<p style=""font-size: 60px; font-family: BACS"">KTDTBOtM</p>",,,,,,,,,,
html-keyboard-response,448,831779,0.0-18.0-0.35,5ee623674afa60375e30eec3,650c16f0f2faf8d7a0d14c09,651c1b4f5d3c65ff5e59bba5,null,null,"<p style=""font-size: 60px; font-family: BACS"">AZlLNcrdY</p>",,,,,,,,,,
html-keyboard-response,449,832787,0.0-18.0-0.36,5ee623674afa60375e30eec3,650c16f0f2faf8d7a0d14c09,651c1b4f5d3c65ff5e59bba5,null,null,"<p style=""font-size: 60px; font-family: BACS"">mbZlGUOA</p>",,,,,,,,,,
html-keyboard-response,450,833802,0.0-18.0-0.37,5ee623674afa60375e30eec3,650c16f0f2faf8d7a0d14c09,651c1b4f5d3c65ff5e59bba5,null,null,"<p style=""font-size: 60px; font-family: BACS"">ObOQlYaum</p>",,,,,,,,,,
html-keyboard-response,451,834819,0.0-18.0-0.38,5ee623674afa60375e30eec3,650c16f0f2faf8d7a0d14c09,651c1b4f5d3c65ff5e59bba5,null,null,"<p style=""font-size: 60px; font-family: BACS"">hbmAkDOm</p>",,,,,,,,,,
html-keyboard-response,452,835826,0.0-18.0-0.39,5ee623674afa60375e30eec3,650c16f0f2faf8d7a0d14c09,651c1b4f5d3c65ff5e59bba5,null,null,"<p style=""font-size: 60px; font-family: BACS"">AbkaOJlN</p>",,,,,,,,,,
html-keyboard-response,453,836832,0.0-18.0-0.40,5ee623674afa60375e30eec3,650c16f0f2faf8d7a0d14c09,651c1b4f5d3c65ff5e59bba5,null,null,"<p style=""font-size: 60px; font-family: BACS"">TAdhMcPK</p>",,,,,,,,,,
html-keyboard-response,454,837848,0.0-18.0-0.41,5ee623674afa60375e30eec3,650c16f0f2faf8d7a0d14c09,651c1b4f5d3c65ff5e59bba5,null,null,"<p style=""font-size: 60px; font-family: BACS"">hTtBbEPBT</p>",,,,,,,,,,
html-keyboard-response,455,838864,0.0-18.0-0.42,5ee623674afa60375e30eec3,650c16f0f2faf8d7a0d14c09,651c1b4f5d3c65ff5e59bba5,null,null,"<p style=""font-size: 60px; font-family: BACS"">AZlLNYLU</p>",,,,,,,,,,
html-keyboard-response,456,839881,0.0-18.0-0.43,5ee623674afa60375e30eec3,650c16f0f2faf8d7a0d14c09,651c1b4f5d3c65ff5e59bba5,null,null,"<p style=""font-size: 60px; font-family: BACS"">tdDdEPBT</p>",,,,,,,,,,
html-keyboard-response,457,840888,0.0-18.0-0.44,5ee623674afa60375e30eec3,650c16f0f2faf8d7a0d14c09,651c1b4f5d3c65ff5e59bba5,null,null,"<p style=""font-size: 60px; font-family: BACS"">uQkrdcrdY</p>",,,,,,,,,,
html-keyboard-response,458,841901,0.0-18.0-0.45,5ee623674afa60375e30eec3,650c16f0f2faf8d7a0d14c09,651c1b4f5d3c65ff5e59bba5,null,null,"<p style=""font-size: 60px; font-family: BACS"">cuOJbYLU</p>",,,,,,,,,,
html-keyboard-response,459,842904,0.0-18.0-0.46,5ee623674afa60375e30eec3,650c16f0f2faf8d7a0d14c09,651c1b4f5d3c65ff5e59bba5,null,null,"<p style=""font-size: 60px; font-family: BACS"">hCktcPK</p>",,,,,,,,,,
html-keyboard-response,460,843911,0.0-18.0-0.47,5ee623674afa60375e30eec3,650c16f0f2faf8d7a0d14c09,651c1b4f5d3c65ff5e59bba5,null,null,"<p style=""font-size: 60px; font-family: BACS"">OQarQYaum</p>",,,,,,,,,,
html-keyboard-response,461,844919,0.0-18.0-0.48,5ee623674afa60375e30eec3,650c16f0f2faf8d7a0d14c09,651c1b4f5d3c65ff5e59bba5,null,null,"<p style=""font-size: 60px; font-family: BACS"">mbZlcrdY</p>",,,,,,,,,,
html-keyboard-response,462,845925,0.0-18.0-0.49,5ee623674afa60375e30eec3,650c16f0f2faf8d7a0d14c09,651c1b4f5d3c65ff5e59bba5,null,null,"<p style=""font-size: 60px; font-family: BACS"">dRhtcPK</p>",,,,,,,,,,
html-keyboard-response,463,846940,0.0-18.0-0.50,5ee623674afa60375e30eec3,650c16f0f2faf8d7a0d14c09,651c1b4f5d3c65ff5e59bba5,null,null,"<p style=""font-size: 60px; font-family: BACS"">lZcucrdY</p>",,,,,,,,,,
html-keyboard-response,464,847955,0.0-18.0-0.51,5ee623674afa60375e30eec3,650c16f0f2faf8d7a0d14c09,651c1b4f5d3c65ff5e59bba5,null,null,"<p style=""font-size: 60px; font-family: BACS"">hCktlRE</p>",,,,,,,,,,
