"trial_type","trial_index","time_elapsed","internal_node_id","subject_id","study_id","session_id","rt","response","stimulus","success","item","task","correct_response","testing_condition","correct","target","confound","name"
"pavlovia","0","849","0.0-0.0","60645fe61129208791535d15","650c16f0f2faf8d7a0d14c09","651c1e6dd592a4ed0df535ba","","","","","","","","","","","",""
"survey-html-form","1","19482","0.0-1.0","60645fe61129208791535d15","650c16f0f2faf8d7a0d14c09","651c1e6dd592a4ed0df535ba","18630","{""ID"":""60645fe61129208791535d15""}","","","","","","","","","",""
"html-keyboard-response","2","26613","0.0-2.0","60645fe61129208791535d15","650c16f0f2faf8d7a0d14c09","651c1e6dd592a4ed0df535ba","7122"," ","<p style=""font-size: 15px;"">Before beginning, we ask that you read the consent information and confirm your agreement to participate in the experiment.</p>
      <p style=""font-size: 15px;""> We ask that you remember that this is a research project and that your participation is entirely voluntary. You can stop your participation at any time, without needing to provide any explanation. The study we're asking you to participate in aims at examining how readers process written words. You will be engaged in a session of apprximately 20 minutes, followed by a brief questionnaire. You will have the opportunity to take a few breaks during the experiment. You will be paid £4 for your participation, corresponding to a rate of £8/hour. While this experiment looks at cognitive faculties, this experiment doesn't constitute clinical proof of eventual pathologies.</p>
      <p style=""font-size: 15px;"">All of the information collected thanks to yours and others' participation will be held in a secure password-protected server, and will not be shared with anyone not authorised to view it. Your personal information will be kept with an arbitrary participant ID. Thanks to this data anonymity process, any researcher analysing the data won't be able to track the information back to a specific participant. Therefore, this process will make identifying you impossibile, even when results from the study will be published in scientific reviews, presented at congresses, or at any other public forum. More generally, the collected data will be treated in accordance with the laws on privacy and conformity to the Legislative Degree n. 196 ""Code regarding the protection of personal data"" of the 30th of June 2003 and to the European Regulation 2016/670 (General Data Protection Regulation - GDPR). The Data Protection Officer is Avv. Valentina Carollo, who can be contacted at the following email addresses: <a href=""mailto:dpo@sissa.it"">dpo@sissa.it</a> or <a href=""mailto:rpd@sissa.it"">rpd@sissa.it</a> - PEC: <a href=""mailto:protocollo@pec.sissa.it"">protocollo@pec.sissa.it</a>.</p>
      <p style=""font-size: 15px;""> Before expressing your consent to participate, we would like to remind you again that in case you need explanations on any aspect of the experimental procedure, the researcher is at your disposition (<a href=""mailto:aliebelt@sissa.it"">aliebelt@sissa.it</a>, <a href=""mailto:davide.crepaldi@sissa.it"">davide.crepaldi@sissa.it</a>).</p>
      <p style=""font-size: 15px;"">If you would like to download the informed consent form, you can do so here: <a href=""BASL-Informed_Consent.pdf"" download>informed consent form</a>.</p>
      <p style=""font-size: 15px;"">We ask that you press the spacebar to proceed to the consent section.</p>","","","","","","","","",""
"survey-html-form","3","39860","0.0-3.0","60645fe61129208791535d15","650c16f0f2faf8d7a0d14c09","651c1e6dd592a4ed0df535ba","13246","{""consent1"":""YES"",""consent2"":""YES"",""consent3"":""YES"",""consent4"":""YES"",""consent5"":""YES"",""consent6"":""YES""}","","","","","","","","","",""
"fullscreen","4","44984","0.0-4.0","60645fe61129208791535d15","650c16f0f2faf8d7a0d14c09","651c1e6dd592a4ed0df535ba","","","","true","","","","","","","",""
"html-keyboard-response","5","62014","0.0-5.0","60645fe61129208791535d15","650c16f0f2faf8d7a0d14c09","651c1e6dd592a4ed0df535ba","17024"," ","<p>Welcome, and thank you very much for your time!</p>
      <p>In this experiment, you'll be a language expert who's been asked to take a look at words that Earth has received in its first communication with aliens. Your task, in this first part of the experiment, is to pay close attention to the words you'll be shown; later, world leaders will ask you questions on what you saw. The words will be shown to you quite quickly; it seems that the aliens were in a hurry :-)</p>
      <p>Press the spacebar to continue.<p>","","","","","","","","",""
"html-keyboard-response","6","62070","0.0-6.0","60645fe61129208791535d15","650c16f0f2faf8d7a0d14c09","651c1e6dd592a4ed0df535ba","null","null","<p style=""font-size: 120px; font-family: BACS""> </p>","","","","","","","","",""
"html-keyboard-response","7","65734","0.0-7.0","60645fe61129208791535d15","650c16f0f2faf8d7a0d14c09","651c1e6dd592a4ed0df535ba","3663"," ","<p>Here is an example of the words you'll see:</p>
      <img src='esempio.png' height='400px'>
      <p>When you're ready to begin, press the spacebar.</p></div>","","","","","","","","",""
"html-keyboard-response","8","66745","0.0-8.0-0.0","60645fe61129208791535d15","650c16f0f2faf8d7a0d14c09","651c1e6dd592a4ed0df535ba","null","null","<p style=""font-size: 60px; font-family: BACS"">NvYJOcZJ</p>","","","","","","","","",""
"html-keyboard-response","9","67761","0.0-8.0-0.1","60645fe61129208791535d15","650c16f0f2faf8d7a0d14c09","651c1e6dd592a4ed0df535ba","null","null","<p style=""font-size: 60px; font-family: BACS"">hmKPMcPK</p>","","","","","","","","",""
"html-keyboard-response","10","68769","0.0-8.0-0.2","60645fe61129208791535d15","650c16f0f2faf8d7a0d14c09","651c1e6dd592a4ed0df535ba","null","null","<p style=""font-size: 60px; font-family: BACS"">PlEKDOAK</p>","","","","","","","","",""
"html-keyboard-response","11","69771","0.0-8.0-0.3","60645fe61129208791535d15","650c16f0f2faf8d7a0d14c09","651c1e6dd592a4ed0df535ba","null","null","<p style=""font-size: 60px; font-family: BACS"">kGlUOcZJ</p>","","","","","","","","",""
"html-keyboard-response","12","70788","0.0-8.0-0.4","60645fe61129208791535d15","650c16f0f2faf8d7a0d14c09","651c1e6dd592a4ed0df535ba","null","null","<p style=""font-size: 60px; font-family: BACS"">MTdYPED</p>","","","","","","","","",""
"html-keyboard-response","13","71797","0.0-8.0-0.5","60645fe61129208791535d15","650c16f0f2faf8d7a0d14c09","651c1e6dd592a4ed0df535ba","null","null","<p style=""font-size: 60px; font-family: BACS"">hTDdcPK</p>","","","","","","","","",""
"html-keyboard-response","14","72811","0.0-8.0-0.6","60645fe61129208791535d15","650c16f0f2faf8d7a0d14c09","651c1e6dd592a4ed0df535ba","null","null","<p style=""font-size: 60px; font-family: BACS"">vYLUOcZJ</p>","","","","","","","","",""
"html-keyboard-response","15","73826","0.0-8.0-0.7","60645fe61129208791535d15","650c16f0f2faf8d7a0d14c09","651c1e6dd592a4ed0df535ba","null","null","<p style=""font-size: 60px; font-family: BACS"">hTDdPED</p>","","","","","","","","",""
"html-keyboard-response","16","74831","0.0-8.0-0.8","60645fe61129208791535d15","650c16f0f2faf8d7a0d14c09","651c1e6dd592a4ed0df535ba","null","null","<p style=""font-size: 60px; font-family: BACS"">vJabQvlZ</p>","","","","","","","","",""
"html-keyboard-response","17","75834","0.0-8.0-0.9","60645fe61129208791535d15","650c16f0f2faf8d7a0d14c09","651c1e6dd592a4ed0df535ba","null","null","<p style=""font-size: 60px; font-family: BACS"">hmKPMPED</p>","","","","","","","","",""
"html-keyboard-response","18","76839","0.0-8.0-0.10","60645fe61129208791535d15","650c16f0f2faf8d7a0d14c09","651c1e6dd592a4ed0df535ba","null","null","<p style=""font-size: 60px; font-family: BACS"">vYLUGUa</p>","","","","","","","","",""
"html-keyboard-response","19","77850","0.0-8.0-0.11","60645fe61129208791535d15","650c16f0f2faf8d7a0d14c09","651c1e6dd592a4ed0df535ba","null","null","<p style=""font-size: 60px; font-family: BACS"">RtRhcPK</p>","","","","","","","","",""
"html-keyboard-response","20","78852","0.0-8.0-0.12","60645fe61129208791535d15","650c16f0f2faf8d7a0d14c09","651c1e6dd592a4ed0df535ba","null","null","<p style=""font-size: 60px; font-family: BACS"">NvYJGUa</p>","","","","","","","","",""
"html-keyboard-response","21","79862","0.0-8.0-0.13","60645fe61129208791535d15","650c16f0f2faf8d7a0d14c09","651c1e6dd592a4ed0df535ba","null","null","<p style=""font-size: 60px; font-family: BACS"">hmKPMDOAK</p>","","","","","","","","",""
"html-keyboard-response","22","80865","0.0-8.0-0.14","60645fe61129208791535d15","650c16f0f2faf8d7a0d14c09","651c1e6dd592a4ed0df535ba","null","null","<p style=""font-size: 60px; font-family: BACS"">hTDdbRC</p>","","","","","","","","",""
"html-keyboard-response","23","81880","0.0-8.0-0.15","60645fe61129208791535d15","650c16f0f2faf8d7a0d14c09","651c1e6dd592a4ed0df535ba","null","null","<p style=""font-size: 60px; font-family: BACS"">tcYbdDOAK</p>","","","","","","","","",""
"html-keyboard-response","24","82884","0.0-8.0-0.16","60645fe61129208791535d15","650c16f0f2faf8d7a0d14c09","651c1e6dd592a4ed0df535ba","null","null","<p style=""font-size: 60px; font-family: BACS"">PEkhAbRC</p>","","","","","","","","",""
"html-keyboard-response","25","83888","0.0-8.0-0.17","60645fe61129208791535d15","650c16f0f2faf8d7a0d14c09","651c1e6dd592a4ed0df535ba","null","null","<p style=""font-size: 60px; font-family: BACS"">tcYbdPED</p>","","","","","","","","",""
"html-keyboard-response","26","84899","0.0-8.0-0.18","60645fe61129208791535d15","650c16f0f2faf8d7a0d14c09","651c1e6dd592a4ed0df535ba","null","null","<p style=""font-size: 60px; font-family: BACS"">LdrbvYZJO</p>","","","","","","","","",""
"html-keyboard-response","27","85915","0.0-8.0-0.19","60645fe61129208791535d15","650c16f0f2faf8d7a0d14c09","651c1e6dd592a4ed0df535ba","null","null","<p style=""font-size: 60px; font-family: BACS"">dvNvAOJlN</p>","","","","","","","","",""
"html-keyboard-response","28","86929","0.0-8.0-0.20","60645fe61129208791535d15","650c16f0f2faf8d7a0d14c09","651c1e6dd592a4ed0df535ba","null","null","<p style=""font-size: 60px; font-family: BACS"">LdrbvQvlZ</p>","","","","","","","","",""
"html-keyboard-response","29","87935","0.0-8.0-0.21","60645fe61129208791535d15","650c16f0f2faf8d7a0d14c09","651c1e6dd592a4ed0df535ba","null","null","<p style=""font-size: 60px; font-family: BACS"">NvYJYZJO</p>","","","","","","","","",""
"html-keyboard-response","30","88943","0.0-8.0-0.22","60645fe61129208791535d15","650c16f0f2faf8d7a0d14c09","651c1e6dd592a4ed0df535ba","null","null","<p style=""font-size: 60px; font-family: BACS"">PEkhAcPK</p>","","","","","","","","",""
"html-keyboard-response","31","89955","0.0-8.0-0.23","60645fe61129208791535d15","650c16f0f2faf8d7a0d14c09","651c1e6dd592a4ed0df535ba","null","null","<p style=""font-size: 60px; font-family: BACS"">GQrcOcZJ</p>","","","","","","","","",""
"html-keyboard-response","32","90959","0.0-8.0-0.24","60645fe61129208791535d15","650c16f0f2faf8d7a0d14c09","651c1e6dd592a4ed0df535ba","null","null","<p style=""font-size: 60px; font-family: BACS"">PEkhATbk</p>","","","","","","","","",""
"html-keyboard-response","33","91976","0.0-8.0-0.25","60645fe61129208791535d15","650c16f0f2faf8d7a0d14c09","651c1e6dd592a4ed0df535ba","null","null","<p style=""font-size: 60px; font-family: BACS"">KABAcPK</p>","","","","","","","","",""
"html-keyboard-response","34","92980","0.0-8.0-0.26","60645fe61129208791535d15","650c16f0f2faf8d7a0d14c09","651c1e6dd592a4ed0df535ba","null","null","<p style=""font-size: 60px; font-family: BACS"">GQrcQvlZ</p>","","","","","","","","",""
"html-keyboard-response","35","93991","0.0-8.0-0.27","60645fe61129208791535d15","650c16f0f2faf8d7a0d14c09","651c1e6dd592a4ed0df535ba","null","null","<p style=""font-size: 60px; font-family: BACS"">PlEKbRC</p>","","","","","","","","",""
"html-keyboard-response","36","95000","0.0-8.0-0.28","60645fe61129208791535d15","650c16f0f2faf8d7a0d14c09","651c1e6dd592a4ed0df535ba","null","null","<p style=""font-size: 60px; font-family: BACS"">kGlUYZJO</p>","","","","","","","","",""
"html-keyboard-response","37","96015","0.0-8.0-0.29","60645fe61129208791535d15","650c16f0f2faf8d7a0d14c09","651c1e6dd592a4ed0df535ba","null","null","<p style=""font-size: 60px; font-family: BACS"">ZNLOvOcZJ</p>","","","","","","","","",""
"html-keyboard-response","38","97030","0.0-8.0-0.30","60645fe61129208791535d15","650c16f0f2faf8d7a0d14c09","651c1e6dd592a4ed0df535ba","null","null","<p style=""font-size: 60px; font-family: BACS"">dCtMAbRC</p>","","","","","","","","",""
"html-keyboard-response","39","98035","0.0-8.0-0.31","60645fe61129208791535d15","650c16f0f2faf8d7a0d14c09","651c1e6dd592a4ed0df535ba","null","null","<p style=""font-size: 60px; font-family: BACS"">rkYLOJlN</p>","","","","","","","","",""
"html-keyboard-response","40","99047","0.0-8.0-0.32","60645fe61129208791535d15","650c16f0f2faf8d7a0d14c09","651c1e6dd592a4ed0df535ba","null","null","<p style=""font-size: 60px; font-family: BACS"">vJabYZJO</p>","","","","","","","","",""
"html-keyboard-response","41","100061","0.0-8.0-0.33","60645fe61129208791535d15","650c16f0f2faf8d7a0d14c09","651c1e6dd592a4ed0df535ba","null","null","<p style=""font-size: 60px; font-family: BACS"">dCtMATbk</p>","","","","","","","","",""
"html-keyboard-response","42","101063","0.0-8.0-0.34","60645fe61129208791535d15","650c16f0f2faf8d7a0d14c09","651c1e6dd592a4ed0df535ba","null","null","<p style=""font-size: 60px; font-family: BACS"">vJabOcZJ</p>","","","","","","","","",""
"html-keyboard-response","43","102072","0.0-8.0-0.35","60645fe61129208791535d15","650c16f0f2faf8d7a0d14c09","651c1e6dd592a4ed0df535ba","null","null","<p style=""font-size: 60px; font-family: BACS"">GLYrAYZJO</p>","","","","","","","","",""
"html-keyboard-response","44","103086","0.0-8.0-0.36","60645fe61129208791535d15","650c16f0f2faf8d7a0d14c09","651c1e6dd592a4ed0df535ba","null","null","<p style=""font-size: 60px; font-family: BACS"">lBKtDOAK</p>","","","","","","","","",""
"html-keyboard-response","45","104099","0.0-8.0-0.37","60645fe61129208791535d15","650c16f0f2faf8d7a0d14c09","651c1e6dd592a4ed0df535ba","null","null","<p style=""font-size: 60px; font-family: BACS"">hTDdTbk</p>","","","","","","","","",""
"html-keyboard-response","46","105103","0.0-8.0-0.38","60645fe61129208791535d15","650c16f0f2faf8d7a0d14c09","651c1e6dd592a4ed0df535ba","null","null","<p style=""font-size: 60px; font-family: BACS"">dvNvAYZJO</p>","","","","","","","","",""
"html-keyboard-response","47","106110","0.0-8.0-0.39","60645fe61129208791535d15","650c16f0f2faf8d7a0d14c09","651c1e6dd592a4ed0df535ba","null","null","<p style=""font-size: 60px; font-family: BACS"">GLYrAOcZJ</p>","","","","","","","","",""
"html-keyboard-response","48","107118","0.0-8.0-0.40","60645fe61129208791535d15","650c16f0f2faf8d7a0d14c09","651c1e6dd592a4ed0df535ba","null","null","<p style=""font-size: 60px; font-family: BACS"">ZNLOvQvlZ</p>","","","","","","","","",""
"html-keyboard-response","49","108129","0.0-8.0-0.41","60645fe61129208791535d15","650c16f0f2faf8d7a0d14c09","651c1e6dd592a4ed0df535ba","null","null","<p style=""font-size: 60px; font-family: BACS"">PlEKcPK</p>","","","","","","","","",""
"html-keyboard-response","50","109144","0.0-8.0-0.42","60645fe61129208791535d15","650c16f0f2faf8d7a0d14c09","651c1e6dd592a4ed0df535ba","null","null","<p style=""font-size: 60px; font-family: BACS"">MTdYTbk</p>","","","","","","","","",""
"html-keyboard-response","51","110153","0.0-8.0-0.43","60645fe61129208791535d15","650c16f0f2faf8d7a0d14c09","651c1e6dd592a4ed0df535ba","null","null","<p style=""font-size: 60px; font-family: BACS"">hmKPMbRC</p>","","","","","","","","",""
"html-keyboard-response","52","111166","0.0-8.0-0.44","60645fe61129208791535d15","650c16f0f2faf8d7a0d14c09","651c1e6dd592a4ed0df535ba","null","null","<p style=""font-size: 60px; font-family: BACS"">vYLUOJlN</p>","","","","","","","","",""
"html-keyboard-response","53","112181","0.0-8.0-0.45","60645fe61129208791535d15","650c16f0f2faf8d7a0d14c09","651c1e6dd592a4ed0df535ba","null","null","<p style=""font-size: 60px; font-family: BACS"">tcYbdTbk</p>","","","","","","","","",""
"html-keyboard-response","54","113192","0.0-8.0-0.46","60645fe61129208791535d15","650c16f0f2faf8d7a0d14c09","651c1e6dd592a4ed0df535ba","null","null","<p style=""font-size: 60px; font-family: BACS"">GLYrAQvlZ</p>","","","","","","","","",""
"html-keyboard-response","55","114203","0.0-8.0-0.47","60645fe61129208791535d15","650c16f0f2faf8d7a0d14c09","651c1e6dd592a4ed0df535ba","null","null","<p style=""font-size: 60px; font-family: BACS"">RtRhbRC</p>","","","","","","","","",""
"html-keyboard-response","56","115213","0.0-8.0-0.48","60645fe61129208791535d15","650c16f0f2faf8d7a0d14c09","651c1e6dd592a4ed0df535ba","null","null","<p style=""font-size: 60px; font-family: BACS"">rkYLYZJO</p>","","","","","","","","",""
"html-keyboard-response","57","116217","0.0-8.0-0.49","60645fe61129208791535d15","650c16f0f2faf8d7a0d14c09","651c1e6dd592a4ed0df535ba","null","null","<p style=""font-size: 60px; font-family: BACS"">vYLUQvlZ</p>","","","","","","","","",""
"html-keyboard-response","58","117227","0.0-8.0-0.50","60645fe61129208791535d15","650c16f0f2faf8d7a0d14c09","651c1e6dd592a4ed0df535ba","null","null","<p style=""font-size: 60px; font-family: BACS"">LdrbvOJlN</p>","","","","","","","","",""
"html-keyboard-response","59","118232","0.0-8.0-0.51","60645fe61129208791535d15","650c16f0f2faf8d7a0d14c09","651c1e6dd592a4ed0df535ba","null","null","<p style=""font-size: 60px; font-family: BACS"">NvYJQvlZ</p>","","","","","","","","",""
"html-keyboard-response","60","119238","0.0-8.0-0.52","60645fe61129208791535d15","650c16f0f2faf8d7a0d14c09","651c1e6dd592a4ed0df535ba","null","null","<p style=""font-size: 60px; font-family: BACS"">LdrbvGUa</p>","","","","","","","","",""
"html-keyboard-response","61","120252","0.0-8.0-0.53","60645fe61129208791535d15","650c16f0f2faf8d7a0d14c09","651c1e6dd592a4ed0df535ba","null","null","<p style=""font-size: 60px; font-family: BACS"">RtRhPED</p>","","","","","","","","",""
"html-keyboard-response","62","121254","0.0-8.0-0.54","60645fe61129208791535d15","650c16f0f2faf8d7a0d14c09","651c1e6dd592a4ed0df535ba","null","null","<p style=""font-size: 60px; font-family: BACS"">MTdYDOAK</p>","","","","","","","","",""
"html-keyboard-response","63","122259","0.0-8.0-0.55","60645fe61129208791535d15","650c16f0f2faf8d7a0d14c09","651c1e6dd592a4ed0df535ba","null","null","<p style=""font-size: 60px; font-family: BACS"">vJabOJlN</p>","","","","","","","","",""
"html-keyboard-response","64","123273","0.0-8.0-0.56","60645fe61129208791535d15","650c16f0f2faf8d7a0d14c09","651c1e6dd592a4ed0df535ba","null","null","<p style=""font-size: 60px; font-family: BACS"">lBKtcPK</p>","","","","","","","","",""
"html-keyboard-response","65","124275","0.0-8.0-0.57","60645fe61129208791535d15","650c16f0f2faf8d7a0d14c09","651c1e6dd592a4ed0df535ba","null","null","<p style=""font-size: 60px; font-family: BACS"">GLYrAGUa</p>","","","","","","","","",""
"html-keyboard-response","66","125284","0.0-8.0-0.58","60645fe61129208791535d15","650c16f0f2faf8d7a0d14c09","651c1e6dd592a4ed0df535ba","null","null","<p style=""font-size: 60px; font-family: BACS"">PlEKTbk</p>","","","","","","","","",""
"html-keyboard-response","67","126285","0.0-8.0-0.59","60645fe61129208791535d15","650c16f0f2faf8d7a0d14c09","651c1e6dd592a4ed0df535ba","null","null","<p style=""font-size: 60px; font-family: BACS"">rkYLGUa</p>","","","","","","","","",""
"html-keyboard-response","68","127298","0.0-8.0-0.60","60645fe61129208791535d15","650c16f0f2faf8d7a0d14c09","651c1e6dd592a4ed0df535ba","null","null","<p style=""font-size: 60px; font-family: BACS"">tcYbdcPK</p>","","","","","","","","",""
"html-keyboard-response","69","128302","0.0-8.0-0.61","60645fe61129208791535d15","650c16f0f2faf8d7a0d14c09","651c1e6dd592a4ed0df535ba","null","null","<p style=""font-size: 60px; font-family: BACS"">dvNvAQvlZ</p>","","","","","","","","",""
"html-keyboard-response","70","129318","0.0-8.0-0.62","60645fe61129208791535d15","650c16f0f2faf8d7a0d14c09","651c1e6dd592a4ed0df535ba","null","null","<p style=""font-size: 60px; font-family: BACS"">PEkhADOAK</p>","","","","","","","","",""
"html-keyboard-response","71","130319","0.0-8.0-0.63","60645fe61129208791535d15","650c16f0f2faf8d7a0d14c09","651c1e6dd592a4ed0df535ba","null","null","<p style=""font-size: 60px; font-family: BACS"">kGlUGUa</p>","","","","","","","","",""
"html-keyboard-response","72","131324","0.0-8.0-0.64","60645fe61129208791535d15","650c16f0f2faf8d7a0d14c09","651c1e6dd592a4ed0df535ba","null","null","<p style=""font-size: 60px; font-family: BACS"">ZNLOvOJlN</p>","","","","","","","","",""
"html-keyboard-response","73","132329","0.0-8.0-0.65","60645fe61129208791535d15","650c16f0f2faf8d7a0d14c09","651c1e6dd592a4ed0df535ba","null","null","<p style=""font-size: 60px; font-family: BACS"">KABADOAK</p>","","","","","","","","",""
"html-keyboard-response","74","133336","0.0-8.0-0.66","60645fe61129208791535d15","650c16f0f2faf8d7a0d14c09","651c1e6dd592a4ed0df535ba","null","null","<p style=""font-size: 60px; font-family: BACS"">ZNLOvYZJO</p>","","","","","","","","",""
"html-keyboard-response","75","134345","0.0-8.0-0.67","60645fe61129208791535d15","650c16f0f2faf8d7a0d14c09","651c1e6dd592a4ed0df535ba","null","null","<p style=""font-size: 60px; font-family: BACS"">rkYLOcZJ</p>","","","","","","","","",""
"html-keyboard-response","76","135362","0.0-8.0-0.68","60645fe61129208791535d15","650c16f0f2faf8d7a0d14c09","651c1e6dd592a4ed0df535ba","null","null","<p style=""font-size: 60px; font-family: BACS"">MTdYbRC</p>","","","","","","","","",""
"html-keyboard-response","77","136365","0.0-8.0-0.69","60645fe61129208791535d15","650c16f0f2faf8d7a0d14c09","651c1e6dd592a4ed0df535ba","null","null","<p style=""font-size: 60px; font-family: BACS"">GQrcOJlN</p>","","","","","","","","",""
"html-keyboard-response","78","137369","0.0-8.0-0.70","60645fe61129208791535d15","650c16f0f2faf8d7a0d14c09","651c1e6dd592a4ed0df535ba","null","null","<p style=""font-size: 60px; font-family: BACS"">KABAPED</p>","","","","","","","","",""
"html-keyboard-response","79","138379","0.0-8.0-0.71","60645fe61129208791535d15","650c16f0f2faf8d7a0d14c09","651c1e6dd592a4ed0df535ba","null","null","<p style=""font-size: 60px; font-family: BACS"">RtRhTbk</p>","","","","","","","","",""
"html-keyboard-response","80","139389","0.0-8.0-0.72","60645fe61129208791535d15","650c16f0f2faf8d7a0d14c09","651c1e6dd592a4ed0df535ba","null","null","<p style=""font-size: 60px; font-family: BACS"">lBKtbRC</p>","","","","","","","","",""
"html-keyboard-response","81","140404","0.0-8.0-0.73","60645fe61129208791535d15","650c16f0f2faf8d7a0d14c09","651c1e6dd592a4ed0df535ba","null","null","<p style=""font-size: 60px; font-family: BACS"">kGlUOJlN</p>","","","","","","","","",""
"html-keyboard-response","82","141407","0.0-8.0-0.74","60645fe61129208791535d15","650c16f0f2faf8d7a0d14c09","651c1e6dd592a4ed0df535ba","null","null","<p style=""font-size: 60px; font-family: BACS"">dCtMAPED</p>","","","","","","","","",""
"html-keyboard-response","83","142416","0.0-8.0-0.75","60645fe61129208791535d15","650c16f0f2faf8d7a0d14c09","651c1e6dd592a4ed0df535ba","null","null","<p style=""font-size: 60px; font-family: BACS"">KABATbk</p>","","","","","","","","",""
"html-keyboard-response","84","143427","0.0-8.0-0.76","60645fe61129208791535d15","650c16f0f2faf8d7a0d14c09","651c1e6dd592a4ed0df535ba","null","null","<p style=""font-size: 60px; font-family: BACS"">dCtMADOAK</p>","","","","","","","","",""
"html-keyboard-response","85","144438","0.0-8.0-0.77","60645fe61129208791535d15","650c16f0f2faf8d7a0d14c09","651c1e6dd592a4ed0df535ba","null","null","<p style=""font-size: 60px; font-family: BACS"">dvNvAGUa</p>","","","","","","","","",""
"html-keyboard-response","86","145447","0.0-8.0-0.78","60645fe61129208791535d15","650c16f0f2faf8d7a0d14c09","651c1e6dd592a4ed0df535ba","null","null","<p style=""font-size: 60px; font-family: BACS"">lBKtPED</p>","","","","","","","","",""
"html-keyboard-response","87","146465","0.0-8.0-0.79","60645fe61129208791535d15","650c16f0f2faf8d7a0d14c09","651c1e6dd592a4ed0df535ba","null","null","<p style=""font-size: 60px; font-family: BACS"">GQrcGUa</p>","","","","","","","","",""
"html-keyboard-response","88","153714","0.0-9.0","60645fe61129208791535d15","650c16f0f2faf8d7a0d14c09","651c1e6dd592a4ed0df535ba","7249"," ","<p>Great, you've seen the first block of words. You may now take a short break.</p>
      <p>Press the spacebar when you're ready to continue.</p>","","","","","","","","",""
"html-keyboard-response","89","154728","0.0-10.0-0.0","60645fe61129208791535d15","650c16f0f2faf8d7a0d14c09","651c1e6dd592a4ed0df535ba","null","null","<p style=""font-size: 60px; font-family: BACS"">rkYLOcZJ</p>","","","","","","","","",""
"html-keyboard-response","90","155736","0.0-10.0-0.1","60645fe61129208791535d15","650c16f0f2faf8d7a0d14c09","651c1e6dd592a4ed0df535ba","null","null","<p style=""font-size: 60px; font-family: BACS"">KABAcPK</p>","","","","","","","","",""
"html-keyboard-response","91","156748","0.0-10.0-0.2","60645fe61129208791535d15","650c16f0f2faf8d7a0d14c09","651c1e6dd592a4ed0df535ba","null","null","<p style=""font-size: 60px; font-family: BACS"">vJabYZJO</p>","","","","","","","","",""
"html-keyboard-response","92","157751","0.0-10.0-0.3","60645fe61129208791535d15","650c16f0f2faf8d7a0d14c09","651c1e6dd592a4ed0df535ba","null","null","<p style=""font-size: 60px; font-family: BACS"">MTdYbRC</p>","","","","","","","","",""
"html-keyboard-response","93","158762","0.0-10.0-0.4","60645fe61129208791535d15","650c16f0f2faf8d7a0d14c09","651c1e6dd592a4ed0df535ba","null","null","<p style=""font-size: 60px; font-family: BACS"">hTDdTbk</p>","","","","","","","","",""
"html-keyboard-response","94","159763","0.0-10.0-0.5","60645fe61129208791535d15","650c16f0f2faf8d7a0d14c09","651c1e6dd592a4ed0df535ba","null","null","<p style=""font-size: 60px; font-family: BACS"">tcYbdDOAK</p>","","","","","","","","",""
"html-keyboard-response","95","160767","0.0-10.0-0.6","60645fe61129208791535d15","650c16f0f2faf8d7a0d14c09","651c1e6dd592a4ed0df535ba","null","null","<p style=""font-size: 60px; font-family: BACS"">GLYrAYZJO</p>","","","","","","","","",""
"html-keyboard-response","96","161772","0.0-10.0-0.7","60645fe61129208791535d15","650c16f0f2faf8d7a0d14c09","651c1e6dd592a4ed0df535ba","null","null","<p style=""font-size: 60px; font-family: BACS"">kGlUOJlN</p>","","","","","","","","",""
"html-keyboard-response","97","162777","0.0-10.0-0.8","60645fe61129208791535d15","650c16f0f2faf8d7a0d14c09","651c1e6dd592a4ed0df535ba","null","null","<p style=""font-size: 60px; font-family: BACS"">RtRhTbk</p>","","","","","","","","",""
"html-keyboard-response","98","163787","0.0-10.0-0.9","60645fe61129208791535d15","650c16f0f2faf8d7a0d14c09","651c1e6dd592a4ed0df535ba","null","null","<p style=""font-size: 60px; font-family: BACS"">lBKtbRC</p>","","","","","","","","",""
"html-keyboard-response","99","164794","0.0-10.0-0.10","60645fe61129208791535d15","650c16f0f2faf8d7a0d14c09","651c1e6dd592a4ed0df535ba","null","null","<p style=""font-size: 60px; font-family: BACS"">NvYJQvlZ</p>","","","","","","","","",""
"html-keyboard-response","100","165802","0.0-10.0-0.11","60645fe61129208791535d15","650c16f0f2faf8d7a0d14c09","651c1e6dd592a4ed0df535ba","null","null","<p style=""font-size: 60px; font-family: BACS"">rkYLYZJO</p>","","","","","","","","",""
"html-keyboard-response","101","166809","0.0-10.0-0.12","60645fe61129208791535d15","650c16f0f2faf8d7a0d14c09","651c1e6dd592a4ed0df535ba","null","null","<p style=""font-size: 60px; font-family: BACS"">PEkhAcPK</p>","","","","","","","","",""
"html-keyboard-response","102","167814","0.0-10.0-0.13","60645fe61129208791535d15","650c16f0f2faf8d7a0d14c09","651c1e6dd592a4ed0df535ba","null","null","<p style=""font-size: 60px; font-family: BACS"">hmKPMPED</p>","","","","","","","","",""
"html-keyboard-response","103","168828","0.0-10.0-0.14","60645fe61129208791535d15","650c16f0f2faf8d7a0d14c09","651c1e6dd592a4ed0df535ba","null","null","<p style=""font-size: 60px; font-family: BACS"">dvNvAQvlZ</p>","","","","","","","","",""
"html-keyboard-response","104","169839","0.0-10.0-0.15","60645fe61129208791535d15","650c16f0f2faf8d7a0d14c09","651c1e6dd592a4ed0df535ba","null","null","<p style=""font-size: 60px; font-family: BACS"">MTdYPED</p>","","","","","","","","",""
"html-keyboard-response","105","170853","0.0-10.0-0.16","60645fe61129208791535d15","650c16f0f2faf8d7a0d14c09","651c1e6dd592a4ed0df535ba","null","null","<p style=""font-size: 60px; font-family: BACS"">LdrbvQvlZ</p>","","","","","","","","",""
"html-keyboard-response","106","171856","0.0-10.0-0.17","60645fe61129208791535d15","650c16f0f2faf8d7a0d14c09","651c1e6dd592a4ed0df535ba","null","null","<p style=""font-size: 60px; font-family: BACS"">kGlUOcZJ</p>","","","","","","","","",""
"html-keyboard-response","107","172868","0.0-10.0-0.18","60645fe61129208791535d15","650c16f0f2faf8d7a0d14c09","651c1e6dd592a4ed0df535ba","null","null","<p style=""font-size: 60px; font-family: BACS"">GQrcGUa</p>","","","","","","","","",""
"html-keyboard-response","108","173881","0.0-10.0-0.19","60645fe61129208791535d15","650c16f0f2faf8d7a0d14c09","651c1e6dd592a4ed0df535ba","null","null","<p style=""font-size: 60px; font-family: BACS"">vJabOJlN</p>","","","","","","","","",""
"html-keyboard-response","109","174883","0.0-10.0-0.20","60645fe61129208791535d15","650c16f0f2faf8d7a0d14c09","651c1e6dd592a4ed0df535ba","null","null","<p style=""font-size: 60px; font-family: BACS"">hTDdPED</p>","","","","","","","","",""
"html-keyboard-response","110","175885","0.0-10.0-0.21","60645fe61129208791535d15","650c16f0f2faf8d7a0d14c09","651c1e6dd592a4ed0df535ba","null","null","<p style=""font-size: 60px; font-family: BACS"">ZNLOvOJlN</p>","","","","","","","","",""
"html-keyboard-response","111","176891","0.0-10.0-0.22","60645fe61129208791535d15","650c16f0f2faf8d7a0d14c09","651c1e6dd592a4ed0df535ba","null","null","<p style=""font-size: 60px; font-family: BACS"">hmKPMbRC</p>","","","","","","","","",""
"html-keyboard-response","112","177900","0.0-10.0-0.23","60645fe61129208791535d15","650c16f0f2faf8d7a0d14c09","651c1e6dd592a4ed0df535ba","null","null","<p style=""font-size: 60px; font-family: BACS"">LdrbvGUa</p>","","","","","","","","",""
"html-keyboard-response","113","178910","0.0-10.0-0.24","60645fe61129208791535d15","650c16f0f2faf8d7a0d14c09","651c1e6dd592a4ed0df535ba","null","null","<p style=""font-size: 60px; font-family: BACS"">dCtMADOAK</p>","","","","","","","","",""
"html-keyboard-response","114","179915","0.0-10.0-0.25","60645fe61129208791535d15","650c16f0f2faf8d7a0d14c09","651c1e6dd592a4ed0df535ba","null","null","<p style=""font-size: 60px; font-family: BACS"">RtRhcPK</p>","","","","","","","","",""
"html-keyboard-response","115","180922","0.0-10.0-0.26","60645fe61129208791535d15","650c16f0f2faf8d7a0d14c09","651c1e6dd592a4ed0df535ba","null","null","<p style=""font-size: 60px; font-family: BACS"">vJabQvlZ</p>","","","","","","","","",""
"html-keyboard-response","116","181928","0.0-10.0-0.27","60645fe61129208791535d15","650c16f0f2faf8d7a0d14c09","651c1e6dd592a4ed0df535ba","null","null","<p style=""font-size: 60px; font-family: BACS"">PEkhATbk</p>","","","","","","","","",""
"html-keyboard-response","117","182930","0.0-10.0-0.28","60645fe61129208791535d15","650c16f0f2faf8d7a0d14c09","651c1e6dd592a4ed0df535ba","null","null","<p style=""font-size: 60px; font-family: BACS"">KABAPED</p>","","","","","","","","",""
"html-keyboard-response","118","183943","0.0-10.0-0.29","60645fe61129208791535d15","650c16f0f2faf8d7a0d14c09","651c1e6dd592a4ed0df535ba","null","null","<p style=""font-size: 60px; font-family: BACS"">lBKtcPK</p>","","","","","","","","",""
"html-keyboard-response","119","184955","0.0-10.0-0.30","60645fe61129208791535d15","650c16f0f2faf8d7a0d14c09","651c1e6dd592a4ed0df535ba","null","null","<p style=""font-size: 60px; font-family: BACS"">tcYbdPED</p>","","","","","","","","",""
"html-keyboard-response","120","185960","0.0-10.0-0.31","60645fe61129208791535d15","650c16f0f2faf8d7a0d14c09","651c1e6dd592a4ed0df535ba","null","null","<p style=""font-size: 60px; font-family: BACS"">GLYrAQvlZ</p>","","","","","","","","",""
"html-keyboard-response","121","186961","0.0-10.0-0.32","60645fe61129208791535d15","650c16f0f2faf8d7a0d14c09","651c1e6dd592a4ed0df535ba","null","null","<p style=""font-size: 60px; font-family: BACS"">PlEKDOAK</p>","","","","","","","","",""
"html-keyboard-response","122","187966","0.0-10.0-0.33","60645fe61129208791535d15","650c16f0f2faf8d7a0d14c09","651c1e6dd592a4ed0df535ba","null","null","<p style=""font-size: 60px; font-family: BACS"">lBKtPED</p>","","","","","","","","",""
"html-keyboard-response","123","188973","0.0-10.0-0.34","60645fe61129208791535d15","650c16f0f2faf8d7a0d14c09","651c1e6dd592a4ed0df535ba","null","null","<p style=""font-size: 60px; font-family: BACS"">dvNvAGUa</p>","","","","","","","","",""
"html-keyboard-response","124","189977","0.0-10.0-0.35","60645fe61129208791535d15","650c16f0f2faf8d7a0d14c09","651c1e6dd592a4ed0df535ba","null","null","<p style=""font-size: 60px; font-family: BACS"">ZNLOvQvlZ</p>","","","","","","","","",""
"html-keyboard-response","125","190994","0.0-10.0-0.36","60645fe61129208791535d15","650c16f0f2faf8d7a0d14c09","651c1e6dd592a4ed0df535ba","null","null","<p style=""font-size: 60px; font-family: BACS"">LdrbvOJlN</p>","","","","","","","","",""
"html-keyboard-response","126","191996","0.0-10.0-0.37","60645fe61129208791535d15","650c16f0f2faf8d7a0d14c09","651c1e6dd592a4ed0df535ba","null","null","<p style=""font-size: 60px; font-family: BACS"">MTdYDOAK</p>","","","","","","","","",""
"html-keyboard-response","127","193008","0.0-10.0-0.38","60645fe61129208791535d15","650c16f0f2faf8d7a0d14c09","651c1e6dd592a4ed0df535ba","null","null","<p style=""font-size: 60px; font-family: BACS"">GQrcQvlZ</p>","","","","","","","","",""
"html-keyboard-response","128","194016","0.0-10.0-0.39","60645fe61129208791535d15","650c16f0f2faf8d7a0d14c09","651c1e6dd592a4ed0df535ba","null","null","<p style=""font-size: 60px; font-family: BACS"">MTdYTbk</p>","","","","","","","","",""
"html-keyboard-response","129","195028","0.0-10.0-0.40","60645fe61129208791535d15","650c16f0f2faf8d7a0d14c09","651c1e6dd592a4ed0df535ba","null","null","<p style=""font-size: 60px; font-family: BACS"">tcYbdcPK</p>","","","","","","","","",""
"html-keyboard-response","130","196041","0.0-10.0-0.41","60645fe61129208791535d15","650c16f0f2faf8d7a0d14c09","651c1e6dd592a4ed0df535ba","null","null","<p style=""font-size: 60px; font-family: BACS"">dvNvAYZJO</p>","","","","","","","","",""
"html-keyboard-response","131","197050","0.0-10.0-0.42","60645fe61129208791535d15","650c16f0f2faf8d7a0d14c09","651c1e6dd592a4ed0df535ba","null","null","<p style=""font-size: 60px; font-family: BACS"">RtRhPED</p>","","","","","","","","",""
"html-keyboard-response","132","198067","0.0-10.0-0.43","60645fe61129208791535d15","650c16f0f2faf8d7a0d14c09","651c1e6dd592a4ed0df535ba","null","null","<p style=""font-size: 60px; font-family: BACS"">PlEKTbk</p>","","","","","","","","",""
"html-keyboard-response","133","199089","0.0-10.0-0.44","60645fe61129208791535d15","650c16f0f2faf8d7a0d14c09","651c1e6dd592a4ed0df535ba","null","null","<p style=""font-size: 60px; font-family: BACS"">GLYrAGUa</p>","","","","","","","","",""
"html-keyboard-response","134","200100","0.0-10.0-0.45","60645fe61129208791535d15","650c16f0f2faf8d7a0d14c09","651c1e6dd592a4ed0df535ba","null","null","<p style=""font-size: 60px; font-family: BACS"">ZNLOvOcZJ</p>","","","","","","","","",""
"html-keyboard-response","135","201102","0.0-10.0-0.46","60645fe61129208791535d15","650c16f0f2faf8d7a0d14c09","651c1e6dd592a4ed0df535ba","null","null","<p style=""font-size: 60px; font-family: BACS"">vYLUOJlN</p>","","","","","","","","",""
"html-keyboard-response","136","202109","0.0-10.0-0.47","60645fe61129208791535d15","650c16f0f2faf8d7a0d14c09","651c1e6dd592a4ed0df535ba","null","null","<p style=""font-size: 60px; font-family: BACS"">KABATbk</p>","","","","","","","","",""
"html-keyboard-response","137","203119","0.0-10.0-0.48","60645fe61129208791535d15","650c16f0f2faf8d7a0d14c09","651c1e6dd592a4ed0df535ba","null","null","<p style=""font-size: 60px; font-family: BACS"">kGlUYZJO</p>","","","","","","","","",""
"html-keyboard-response","138","204122","0.0-10.0-0.49","60645fe61129208791535d15","650c16f0f2faf8d7a0d14c09","651c1e6dd592a4ed0df535ba","null","null","<p style=""font-size: 60px; font-family: BACS"">NvYJOcZJ</p>","","","","","","","","",""
"html-keyboard-response","139","205129","0.0-10.0-0.50","60645fe61129208791535d15","650c16f0f2faf8d7a0d14c09","651c1e6dd592a4ed0df535ba","null","null","<p style=""font-size: 60px; font-family: BACS"">rkYLOJlN</p>","","","","","","","","",""
"html-keyboard-response","140","206133","0.0-10.0-0.51","60645fe61129208791535d15","650c16f0f2faf8d7a0d14c09","651c1e6dd592a4ed0df535ba","null","null","<p style=""font-size: 60px; font-family: BACS"">NvYJGUa</p>","","","","","","","","",""
"html-keyboard-response","141","207147","0.0-10.0-0.52","60645fe61129208791535d15","650c16f0f2faf8d7a0d14c09","651c1e6dd592a4ed0df535ba","null","null","<p style=""font-size: 60px; font-family: BACS"">GQrcOJlN</p>","","","","","","","","",""
"html-keyboard-response","142","208162","0.0-10.0-0.53","60645fe61129208791535d15","650c16f0f2faf8d7a0d14c09","651c1e6dd592a4ed0df535ba","null","null","<p style=""font-size: 60px; font-family: BACS"">PEkhAbRC</p>","","","","","","","","",""
"html-keyboard-response","143","209174","0.0-10.0-0.54","60645fe61129208791535d15","650c16f0f2faf8d7a0d14c09","651c1e6dd592a4ed0df535ba","null","null","<p style=""font-size: 60px; font-family: BACS"">tcYbdTbk</p>","","","","","","","","",""
"html-keyboard-response","144","210190","0.0-10.0-0.55","60645fe61129208791535d15","650c16f0f2faf8d7a0d14c09","651c1e6dd592a4ed0df535ba","null","null","<p style=""font-size: 60px; font-family: BACS"">lBKtDOAK</p>","","","","","","","","",""
"html-keyboard-response","145","211202","0.0-10.0-0.56","60645fe61129208791535d15","650c16f0f2faf8d7a0d14c09","651c1e6dd592a4ed0df535ba","null","null","<p style=""font-size: 60px; font-family: BACS"">hTDdbRC</p>","","","","","","","","",""
"html-keyboard-response","146","212213","0.0-10.0-0.57","60645fe61129208791535d15","650c16f0f2faf8d7a0d14c09","651c1e6dd592a4ed0df535ba","null","null","<p style=""font-size: 60px; font-family: BACS"">PEkhADOAK</p>","","","","","","","","",""
"html-keyboard-response","147","213221","0.0-10.0-0.58","60645fe61129208791535d15","650c16f0f2faf8d7a0d14c09","651c1e6dd592a4ed0df535ba","null","null","<p style=""font-size: 60px; font-family: BACS"">NvYJYZJO</p>","","","","","","","","",""
"html-keyboard-response","148","214225","0.0-10.0-0.59","60645fe61129208791535d15","650c16f0f2faf8d7a0d14c09","651c1e6dd592a4ed0df535ba","null","null","<p style=""font-size: 60px; font-family: BACS"">RtRhbRC</p>","","","","","","","","",""
"html-keyboard-response","149","215228","0.0-10.0-0.60","60645fe61129208791535d15","650c16f0f2faf8d7a0d14c09","651c1e6dd592a4ed0df535ba","null","null","<p style=""font-size: 60px; font-family: BACS"">hmKPMcPK</p>","","","","","","","","",""
"html-keyboard-response","150","216242","0.0-10.0-0.61","60645fe61129208791535d15","650c16f0f2faf8d7a0d14c09","651c1e6dd592a4ed0df535ba","null","null","<p style=""font-size: 60px; font-family: BACS"">dvNvAOJlN</p>","","","","","","","","",""
"html-keyboard-response","151","217254","0.0-10.0-0.62","60645fe61129208791535d15","650c16f0f2faf8d7a0d14c09","651c1e6dd592a4ed0df535ba","null","null","<p style=""font-size: 60px; font-family: BACS"">KABADOAK</p>","","","","","","","","",""
"html-keyboard-response","152","218261","0.0-10.0-0.63","60645fe61129208791535d15","650c16f0f2faf8d7a0d14c09","651c1e6dd592a4ed0df535ba","null","null","<p style=""font-size: 60px; font-family: BACS"">PlEKcPK</p>","","","","","","","","",""
"html-keyboard-response","153","219270","0.0-10.0-0.64","60645fe61129208791535d15","650c16f0f2faf8d7a0d14c09","651c1e6dd592a4ed0df535ba","null","null","<p style=""font-size: 60px; font-family: BACS"">dCtMAbRC</p>","","","","","","","","",""
"html-keyboard-response","154","220284","0.0-10.0-0.65","60645fe61129208791535d15","650c16f0f2faf8d7a0d14c09","651c1e6dd592a4ed0df535ba","null","null","<p style=""font-size: 60px; font-family: BACS"">kGlUGUa</p>","","","","","","","","",""
"html-keyboard-response","155","221300","0.0-10.0-0.66","60645fe61129208791535d15","650c16f0f2faf8d7a0d14c09","651c1e6dd592a4ed0df535ba","null","null","<p style=""font-size: 60px; font-family: BACS"">ZNLOvYZJO</p>","","","","","","","","",""
"html-keyboard-response","156","222315","0.0-10.0-0.67","60645fe61129208791535d15","650c16f0f2faf8d7a0d14c09","651c1e6dd592a4ed0df535ba","null","null","<p style=""font-size: 60px; font-family: BACS"">dCtMATbk</p>","","","","","","","","",""
"html-keyboard-response","157","223324","0.0-10.0-0.68","60645fe61129208791535d15","650c16f0f2faf8d7a0d14c09","651c1e6dd592a4ed0df535ba","null","null","<p style=""font-size: 60px; font-family: BACS"">vJabOcZJ</p>","","","","","","","","",""
"html-keyboard-response","158","224337","0.0-10.0-0.69","60645fe61129208791535d15","650c16f0f2faf8d7a0d14c09","651c1e6dd592a4ed0df535ba","null","null","<p style=""font-size: 60px; font-family: BACS"">PlEKbRC</p>","","","","","","","","",""
"html-keyboard-response","159","225341","0.0-10.0-0.70","60645fe61129208791535d15","650c16f0f2faf8d7a0d14c09","651c1e6dd592a4ed0df535ba","null","null","<p style=""font-size: 60px; font-family: BACS"">hTDdcPK</p>","","","","","","","","",""
"html-keyboard-response","160","226346","0.0-10.0-0.71","60645fe61129208791535d15","650c16f0f2faf8d7a0d14c09","651c1e6dd592a4ed0df535ba","null","null","<p style=""font-size: 60px; font-family: BACS"">vYLUQvlZ</p>","","","","","","","","",""
"html-keyboard-response","161","227360","0.0-10.0-0.72","60645fe61129208791535d15","650c16f0f2faf8d7a0d14c09","651c1e6dd592a4ed0df535ba","null","null","<p style=""font-size: 60px; font-family: BACS"">GQrcOcZJ</p>","","","","","","","","",""
"html-keyboard-response","162","228371","0.0-10.0-0.73","60645fe61129208791535d15","650c16f0f2faf8d7a0d14c09","651c1e6dd592a4ed0df535ba","null","null","<p style=""font-size: 60px; font-family: BACS"">rkYLGUa</p>","","","","","","","","",""
"html-keyboard-response","163","229381","0.0-10.0-0.74","60645fe61129208791535d15","650c16f0f2faf8d7a0d14c09","651c1e6dd592a4ed0df535ba","null","null","<p style=""font-size: 60px; font-family: BACS"">hmKPMDOAK</p>","","","","","","","","",""
"html-keyboard-response","164","230390","0.0-10.0-0.75","60645fe61129208791535d15","650c16f0f2faf8d7a0d14c09","651c1e6dd592a4ed0df535ba","null","null","<p style=""font-size: 60px; font-family: BACS"">vYLUGUa</p>","","","","","","","","",""
"html-keyboard-response","165","231407","0.0-10.0-0.76","60645fe61129208791535d15","650c16f0f2faf8d7a0d14c09","651c1e6dd592a4ed0df535ba","null","null","<p style=""font-size: 60px; font-family: BACS"">dCtMAPED</p>","","","","","","","","",""
"html-keyboard-response","166","232420","0.0-10.0-0.77","60645fe61129208791535d15","650c16f0f2faf8d7a0d14c09","651c1e6dd592a4ed0df535ba","null","null","<p style=""font-size: 60px; font-family: BACS"">vYLUOcZJ</p>","","","","","","","","",""
"html-keyboard-response","167","233431","0.0-10.0-0.78","60645fe61129208791535d15","650c16f0f2faf8d7a0d14c09","651c1e6dd592a4ed0df535ba","null","null","<p style=""font-size: 60px; font-family: BACS"">LdrbvYZJO</p>","","","","","","","","",""
"html-keyboard-response","168","234436","0.0-10.0-0.79","60645fe61129208791535d15","650c16f0f2faf8d7a0d14c09","651c1e6dd592a4ed0df535ba","null","null","<p style=""font-size: 60px; font-family: BACS"">GLYrAOcZJ</p>","","","","","","","","",""
"html-keyboard-response","169","240665","0.0-11.0","60645fe61129208791535d15","650c16f0f2faf8d7a0d14c09","651c1e6dd592a4ed0df535ba","6228"," ","<p>Great, you've seen the second block of words. You may now take a short break.</p>
      <p>Press the spacebar when you're ready to continue.</p>","","","","","","","","",""
"html-keyboard-response","170","241679","0.0-12.0-0.0","60645fe61129208791535d15","650c16f0f2faf8d7a0d14c09","651c1e6dd592a4ed0df535ba","null","null","<p style=""font-size: 60px; font-family: BACS"">vJabOJlN</p>","","","","","","","","",""
"html-keyboard-response","171","242689","0.0-12.0-0.1","60645fe61129208791535d15","650c16f0f2faf8d7a0d14c09","651c1e6dd592a4ed0df535ba","null","null","<p style=""font-size: 60px; font-family: BACS"">PEkhATbk</p>","","","","","","","","",""
"html-keyboard-response","172","243695","0.0-12.0-0.2","60645fe61129208791535d15","650c16f0f2faf8d7a0d14c09","651c1e6dd592a4ed0df535ba","null","null","<p style=""font-size: 60px; font-family: BACS"">tcYbdDOAK</p>","","","","","","","","",""
"html-keyboard-response","173","244706","0.0-12.0-0.3","60645fe61129208791535d15","650c16f0f2faf8d7a0d14c09","651c1e6dd592a4ed0df535ba","null","null","<p style=""font-size: 60px; font-family: BACS"">PlEKbRC</p>","","","","","","","","",""
"html-keyboard-response","174","245714","0.0-12.0-0.4","60645fe61129208791535d15","650c16f0f2faf8d7a0d14c09","651c1e6dd592a4ed0df535ba","null","null","<p style=""font-size: 60px; font-family: BACS"">RtRhPED</p>","","","","","","","","",""
"html-keyboard-response","175","246717","0.0-12.0-0.5","60645fe61129208791535d15","650c16f0f2faf8d7a0d14c09","651c1e6dd592a4ed0df535ba","null","null","<p style=""font-size: 60px; font-family: BACS"">dvNvAGUa</p>","","","","","","","","",""
"html-keyboard-response","176","247719","0.0-12.0-0.6","60645fe61129208791535d15","650c16f0f2faf8d7a0d14c09","651c1e6dd592a4ed0df535ba","null","null","<p style=""font-size: 60px; font-family: BACS"">GQrcQvlZ</p>","","","","","","","","",""
"html-keyboard-response","177","248721","0.0-12.0-0.7","60645fe61129208791535d15","650c16f0f2faf8d7a0d14c09","651c1e6dd592a4ed0df535ba","null","null","<p style=""font-size: 60px; font-family: BACS"">dvNvAYZJO</p>","","","","","","","","",""
"html-keyboard-response","178","249732","0.0-12.0-0.8","60645fe61129208791535d15","650c16f0f2faf8d7a0d14c09","651c1e6dd592a4ed0df535ba","null","null","<p style=""font-size: 60px; font-family: BACS"">GLYrAOcZJ</p>","","","","","","","","",""
"html-keyboard-response","179","250742","0.0-12.0-0.9","60645fe61129208791535d15","650c16f0f2faf8d7a0d14c09","651c1e6dd592a4ed0df535ba","null","null","<p style=""font-size: 60px; font-family: BACS"">LdrbvQvlZ</p>","","","","","","","","",""
"html-keyboard-response","180","251749","0.0-12.0-0.10","60645fe61129208791535d15","650c16f0f2faf8d7a0d14c09","651c1e6dd592a4ed0df535ba","null","null","<p style=""font-size: 60px; font-family: BACS"">lBKtcPK</p>","","","","","","","","",""
"html-keyboard-response","181","252754","0.0-12.0-0.11","60645fe61129208791535d15","650c16f0f2faf8d7a0d14c09","651c1e6dd592a4ed0df535ba","null","null","<p style=""font-size: 60px; font-family: BACS"">PEkhADOAK</p>","","","","","","","","",""
"html-keyboard-response","182","253763","0.0-12.0-0.12","60645fe61129208791535d15","650c16f0f2faf8d7a0d14c09","651c1e6dd592a4ed0df535ba","null","null","<p style=""font-size: 60px; font-family: BACS"">vJabQvlZ</p>","","","","","","","","",""
"html-keyboard-response","183","254775","0.0-12.0-0.13","60645fe61129208791535d15","650c16f0f2faf8d7a0d14c09","651c1e6dd592a4ed0df535ba","null","null","<p style=""font-size: 60px; font-family: BACS"">hmKPMcPK</p>","","","","","","","","",""
"html-keyboard-response","184","255782","0.0-12.0-0.14","60645fe61129208791535d15","650c16f0f2faf8d7a0d14c09","651c1e6dd592a4ed0df535ba","null","null","<p style=""font-size: 60px; font-family: BACS"">GLYrAQvlZ</p>","","","","","","","","",""
"html-keyboard-response","185","256791","0.0-12.0-0.15","60645fe61129208791535d15","650c16f0f2faf8d7a0d14c09","651c1e6dd592a4ed0df535ba","null","null","<p style=""font-size: 60px; font-family: BACS"">GQrcOJlN</p>","","","","","","","","",""
"html-keyboard-response","186","257799","0.0-12.0-0.16","60645fe61129208791535d15","650c16f0f2faf8d7a0d14c09","651c1e6dd592a4ed0df535ba","null","null","<p style=""font-size: 60px; font-family: BACS"">rkYLOcZJ</p>","","","","","","","","",""
"html-keyboard-response","187","258815","0.0-12.0-0.17","60645fe61129208791535d15","650c16f0f2faf8d7a0d14c09","651c1e6dd592a4ed0df535ba","null","null","<p style=""font-size: 60px; font-family: BACS"">kGlUOJlN</p>","","","","","","","","",""
"html-keyboard-response","188","259819","0.0-12.0-0.18","60645fe61129208791535d15","650c16f0f2faf8d7a0d14c09","651c1e6dd592a4ed0df535ba","null","null","<p style=""font-size: 60px; font-family: BACS"">lBKtbRC</p>","","","","","","","","",""
"html-keyboard-response","189","260830","0.0-12.0-0.19","60645fe61129208791535d15","650c16f0f2faf8d7a0d14c09","651c1e6dd592a4ed0df535ba","null","null","<p style=""font-size: 60px; font-family: BACS"">dvNvAOJlN</p>","","","","","","","","",""
"html-keyboard-response","190","261837","0.0-12.0-0.20","60645fe61129208791535d15","650c16f0f2faf8d7a0d14c09","651c1e6dd592a4ed0df535ba","null","null","<p style=""font-size: 60px; font-family: BACS"">vYLUQvlZ</p>","","","","","","","","",""
"html-keyboard-response","191","262846","0.0-12.0-0.21","60645fe61129208791535d15","650c16f0f2faf8d7a0d14c09","651c1e6dd592a4ed0df535ba","null","null","<p style=""font-size: 60px; font-family: BACS"">tcYbdcPK</p>","","","","","","","","",""
"html-keyboard-response","192","263858","0.0-12.0-0.22","60645fe61129208791535d15","650c16f0f2faf8d7a0d14c09","651c1e6dd592a4ed0df535ba","null","null","<p style=""font-size: 60px; font-family: BACS"">kGlUYZJO</p>","","","","","","","","",""
"html-keyboard-response","193","264870","0.0-12.0-0.23","60645fe61129208791535d15","650c16f0f2faf8d7a0d14c09","651c1e6dd592a4ed0df535ba","null","null","<p style=""font-size: 60px; font-family: BACS"">GLYrAGUa</p>","","","","","","","","",""
"html-keyboard-response","194","265879","0.0-12.0-0.24","60645fe61129208791535d15","650c16f0f2faf8d7a0d14c09","651c1e6dd592a4ed0df535ba","null","null","<p style=""font-size: 60px; font-family: BACS"">PEkhAbRC</p>","","","","","","","","",""
"html-keyboard-response","195","266881","0.0-12.0-0.25","60645fe61129208791535d15","650c16f0f2faf8d7a0d14c09","651c1e6dd592a4ed0df535ba","null","null","<p style=""font-size: 60px; font-family: BACS"">ZNLOvOJlN</p>","","","","","","","","",""
"html-keyboard-response","196","267884","0.0-12.0-0.26","60645fe61129208791535d15","650c16f0f2faf8d7a0d14c09","651c1e6dd592a4ed0df535ba","null","null","<p style=""font-size: 60px; font-family: BACS"">lBKtDOAK</p>","","","","","","","","",""
"html-keyboard-response","197","268886","0.0-12.0-0.27","60645fe61129208791535d15","650c16f0f2faf8d7a0d14c09","651c1e6dd592a4ed0df535ba","null","null","<p style=""font-size: 60px; font-family: BACS"">GLYrAYZJO</p>","","","","","","","","",""
"html-keyboard-response","198","269894","0.0-12.0-0.28","60645fe61129208791535d15","650c16f0f2faf8d7a0d14c09","651c1e6dd592a4ed0df535ba","null","null","<p style=""font-size: 60px; font-family: BACS"">KABATbk</p>","","","","","","","","",""
"html-keyboard-response","199","270896","0.0-12.0-0.29","60645fe61129208791535d15","650c16f0f2faf8d7a0d14c09","651c1e6dd592a4ed0df535ba","null","null","<p style=""font-size: 60px; font-family: BACS"">dCtMAPED</p>","","","","","","","","",""
"html-keyboard-response","200","271899","0.0-12.0-0.30","60645fe61129208791535d15","650c16f0f2faf8d7a0d14c09","651c1e6dd592a4ed0df535ba","null","null","<p style=""font-size: 60px; font-family: BACS"">kGlUGUa</p>","","","","","","","","",""
"html-keyboard-response","201","272905","0.0-12.0-0.31","60645fe61129208791535d15","650c16f0f2faf8d7a0d14c09","651c1e6dd592a4ed0df535ba","null","null","<p style=""font-size: 60px; font-family: BACS"">MTdYPED</p>","","","","","","","","",""
"html-keyboard-response","202","273918","0.0-12.0-0.32","60645fe61129208791535d15","650c16f0f2faf8d7a0d14c09","651c1e6dd592a4ed0df535ba","null","null","<p style=""font-size: 60px; font-family: BACS"">ZNLOvOcZJ</p>","","","","","","","","",""
"html-keyboard-response","203","274923","0.0-12.0-0.33","60645fe61129208791535d15","650c16f0f2faf8d7a0d14c09","651c1e6dd592a4ed0df535ba","null","null","<p style=""font-size: 60px; font-family: BACS"">dCtMAbRC</p>","","","","","","","","",""
"html-keyboard-response","204","275938","0.0-12.0-0.34","60645fe61129208791535d15","650c16f0f2faf8d7a0d14c09","651c1e6dd592a4ed0df535ba","null","null","<p style=""font-size: 60px; font-family: BACS"">vJabYZJO</p>","","","","","","","","",""
"html-keyboard-response","205","276950","0.0-12.0-0.35","60645fe61129208791535d15","650c16f0f2faf8d7a0d14c09","651c1e6dd592a4ed0df535ba","null","null","<p style=""font-size: 60px; font-family: BACS"">dCtMATbk</p>","","","","","","","","",""
"html-keyboard-response","206","277958","0.0-12.0-0.36","60645fe61129208791535d15","650c16f0f2faf8d7a0d14c09","651c1e6dd592a4ed0df535ba","null","null","<p style=""font-size: 60px; font-family: BACS"">LdrbvGUa</p>","","","","","","","","",""
"html-keyboard-response","207","278975","0.0-12.0-0.37","60645fe61129208791535d15","650c16f0f2faf8d7a0d14c09","651c1e6dd592a4ed0df535ba","null","null","<p style=""font-size: 60px; font-family: BACS"">hTDdbRC</p>","","","","","","","","",""
"html-keyboard-response","208","279977","0.0-12.0-0.38","60645fe61129208791535d15","650c16f0f2faf8d7a0d14c09","651c1e6dd592a4ed0df535ba","null","null","<p style=""font-size: 60px; font-family: BACS"">vJabOcZJ</p>","","","","","","","","",""
"html-keyboard-response","209","280991","0.0-12.0-0.39","60645fe61129208791535d15","650c16f0f2faf8d7a0d14c09","651c1e6dd592a4ed0df535ba","null","null","<p style=""font-size: 60px; font-family: BACS"">LdrbvYZJO</p>","","","","","","","","",""
"html-keyboard-response","210","281999","0.0-12.0-0.40","60645fe61129208791535d15","650c16f0f2faf8d7a0d14c09","651c1e6dd592a4ed0df535ba","null","null","<p style=""font-size: 60px; font-family: BACS"">PEkhAcPK</p>","","","","","","","","",""
"html-keyboard-response","211","283001","0.0-12.0-0.41","60645fe61129208791535d15","650c16f0f2faf8d7a0d14c09","651c1e6dd592a4ed0df535ba","null","null","<p style=""font-size: 60px; font-family: BACS"">hmKPMPED</p>","","","","","","","","",""
"html-keyboard-response","212","284007","0.0-12.0-0.42","60645fe61129208791535d15","650c16f0f2faf8d7a0d14c09","651c1e6dd592a4ed0df535ba","null","null","<p style=""font-size: 60px; font-family: BACS"">PlEKTbk</p>","","","","","","","","",""
"html-keyboard-response","213","285013","0.0-12.0-0.43","60645fe61129208791535d15","650c16f0f2faf8d7a0d14c09","651c1e6dd592a4ed0df535ba","null","null","<p style=""font-size: 60px; font-family: BACS"">GQrcOcZJ</p>","","","","","","","","",""
"html-keyboard-response","214","286019","0.0-12.0-0.44","60645fe61129208791535d15","650c16f0f2faf8d7a0d14c09","651c1e6dd592a4ed0df535ba","null","null","<p style=""font-size: 60px; font-family: BACS"">PlEKcPK</p>","","","","","","","","",""
"html-keyboard-response","215","287028","0.0-12.0-0.45","60645fe61129208791535d15","650c16f0f2faf8d7a0d14c09","651c1e6dd592a4ed0df535ba","null","null","<p style=""font-size: 60px; font-family: BACS"">RtRhTbk</p>","","","","","","","","",""
"html-keyboard-response","216","288043","0.0-12.0-0.46","60645fe61129208791535d15","650c16f0f2faf8d7a0d14c09","651c1e6dd592a4ed0df535ba","null","null","<p style=""font-size: 60px; font-family: BACS"">vYLUGUa</p>","","","","","","","","",""
"html-keyboard-response","217","289047","0.0-12.0-0.47","60645fe61129208791535d15","650c16f0f2faf8d7a0d14c09","651c1e6dd592a4ed0df535ba","null","null","<p style=""font-size: 60px; font-family: BACS"">hTDdcPK</p>","","","","","","","","",""
"html-keyboard-response","218","290054","0.0-12.0-0.48","60645fe61129208791535d15","650c16f0f2faf8d7a0d14c09","651c1e6dd592a4ed0df535ba","null","null","<p style=""font-size: 60px; font-family: BACS"">rkYLGUa</p>","","","","","","","","",""
"html-keyboard-response","219","291063","0.0-12.0-0.49","60645fe61129208791535d15","650c16f0f2faf8d7a0d14c09","651c1e6dd592a4ed0df535ba","null","null","<p style=""font-size: 60px; font-family: BACS"">kGlUOcZJ</p>","","","","","","","","",""
"html-keyboard-response","220","292070","0.0-12.0-0.50","60645fe61129208791535d15","650c16f0f2faf8d7a0d14c09","651c1e6dd592a4ed0df535ba","null","null","<p style=""font-size: 60px; font-family: BACS"">LdrbvOJlN</p>","","","","","","","","",""
"html-keyboard-response","221","293078","0.0-12.0-0.51","60645fe61129208791535d15","650c16f0f2faf8d7a0d14c09","651c1e6dd592a4ed0df535ba","null","null","<p style=""font-size: 60px; font-family: BACS"">vYLUOcZJ</p>","","","","","","","","",""
"html-keyboard-response","222","294087","0.0-12.0-0.52","60645fe61129208791535d15","650c16f0f2faf8d7a0d14c09","651c1e6dd592a4ed0df535ba","null","null","<p style=""font-size: 60px; font-family: BACS"">MTdYDOAK</p>","","","","","","","","",""
"html-keyboard-response","223","295098","0.0-12.0-0.53","60645fe61129208791535d15","650c16f0f2faf8d7a0d14c09","651c1e6dd592a4ed0df535ba","null","null","<p style=""font-size: 60px; font-family: BACS"">RtRhcPK</p>","","","","","","","","",""
"html-keyboard-response","224","296106","0.0-12.0-0.54","60645fe61129208791535d15","650c16f0f2faf8d7a0d14c09","651c1e6dd592a4ed0df535ba","null","null","<p style=""font-size: 60px; font-family: BACS"">hTDdTbk</p>","","","","","","","","",""
"html-keyboard-response","225","297120","0.0-12.0-0.55","60645fe61129208791535d15","650c16f0f2faf8d7a0d14c09","651c1e6dd592a4ed0df535ba","null","null","<p style=""font-size: 60px; font-family: BACS"">rkYLYZJO</p>","","","","","","","","",""
"html-keyboard-response","226","298137","0.0-12.0-0.56","60645fe61129208791535d15","650c16f0f2faf8d7a0d14c09","651c1e6dd592a4ed0df535ba","null","null","<p style=""font-size: 60px; font-family: BACS"">KABAPED</p>","","","","","","","","",""
"html-keyboard-response","227","299151","0.0-12.0-0.57","60645fe61129208791535d15","650c16f0f2faf8d7a0d14c09","651c1e6dd592a4ed0df535ba","null","null","<p style=""font-size: 60px; font-family: BACS"">NvYJOcZJ</p>","","","","","","","","",""
"html-keyboard-response","228","300154","0.0-12.0-0.58","60645fe61129208791535d15","650c16f0f2faf8d7a0d14c09","651c1e6dd592a4ed0df535ba","null","null","<p style=""font-size: 60px; font-family: BACS"">GQrcGUa</p>","","","","","","","","",""
"html-keyboard-response","229","301169","0.0-12.0-0.59","60645fe61129208791535d15","650c16f0f2faf8d7a0d14c09","651c1e6dd592a4ed0df535ba","null","null","<p style=""font-size: 60px; font-family: BACS"">MTdYTbk</p>","","","","","","","","",""
"html-keyboard-response","230","302181","0.0-12.0-0.60","60645fe61129208791535d15","650c16f0f2faf8d7a0d14c09","651c1e6dd592a4ed0df535ba","null","null","<p style=""font-size: 60px; font-family: BACS"">dCtMADOAK</p>","","","","","","","","",""
"html-keyboard-response","231","303186","0.0-12.0-0.61","60645fe61129208791535d15","650c16f0f2faf8d7a0d14c09","651c1e6dd592a4ed0df535ba","null","null","<p style=""font-size: 60px; font-family: BACS"">vYLUOJlN</p>","","","","","","","","",""
"html-keyboard-response","232","304196","0.0-12.0-0.62","60645fe61129208791535d15","650c16f0f2faf8d7a0d14c09","651c1e6dd592a4ed0df535ba","null","null","<p style=""font-size: 60px; font-family: BACS"">ZNLOvQvlZ</p>","","","","","","","","",""
"html-keyboard-response","233","305205","0.0-12.0-0.63","60645fe61129208791535d15","650c16f0f2faf8d7a0d14c09","651c1e6dd592a4ed0df535ba","null","null","<p style=""font-size: 60px; font-family: BACS"">hmKPMbRC</p>","","","","","","","","",""
"html-keyboard-response","234","306214","0.0-12.0-0.64","60645fe61129208791535d15","650c16f0f2faf8d7a0d14c09","651c1e6dd592a4ed0df535ba","null","null","<p style=""font-size: 60px; font-family: BACS"">KABADOAK</p>","","","","","","","","",""
"html-keyboard-response","235","307229","0.0-12.0-0.65","60645fe61129208791535d15","650c16f0f2faf8d7a0d14c09","651c1e6dd592a4ed0df535ba","null","null","<p style=""font-size: 60px; font-family: BACS"">NvYJGUa</p>","","","","","","","","",""
"html-keyboard-response","236","308233","0.0-12.0-0.66","60645fe61129208791535d15","650c16f0f2faf8d7a0d14c09","651c1e6dd592a4ed0df535ba","null","null","<p style=""font-size: 60px; font-family: BACS"">dvNvAQvlZ</p>","","","","","","","","",""
"html-keyboard-response","237","309247","0.0-12.0-0.67","60645fe61129208791535d15","650c16f0f2faf8d7a0d14c09","651c1e6dd592a4ed0df535ba","null","null","<p style=""font-size: 60px; font-family: BACS"">tcYbdTbk</p>","","","","","","","","",""
"html-keyboard-response","238","310253","0.0-12.0-0.68","60645fe61129208791535d15","650c16f0f2faf8d7a0d14c09","651c1e6dd592a4ed0df535ba","null","null","<p style=""font-size: 60px; font-family: BACS"">NvYJQvlZ</p>","","","","","","","","",""
"html-keyboard-response","239","311266","0.0-12.0-0.69","60645fe61129208791535d15","650c16f0f2faf8d7a0d14c09","651c1e6dd592a4ed0df535ba","null","null","<p style=""font-size: 60px; font-family: BACS"">RtRhbRC</p>","","","","","","","","",""
"html-keyboard-response","240","312273","0.0-12.0-0.70","60645fe61129208791535d15","650c16f0f2faf8d7a0d14c09","651c1e6dd592a4ed0df535ba","null","null","<p style=""font-size: 60px; font-family: BACS"">hTDdPED</p>","","","","","","","","",""
"html-keyboard-response","241","313276","0.0-12.0-0.71","60645fe61129208791535d15","650c16f0f2faf8d7a0d14c09","651c1e6dd592a4ed0df535ba","null","null","<p style=""font-size: 60px; font-family: BACS"">rkYLOJlN</p>","","","","","","","","",""
"html-keyboard-response","242","314286","0.0-12.0-0.72","60645fe61129208791535d15","650c16f0f2faf8d7a0d14c09","651c1e6dd592a4ed0df535ba","null","null","<p style=""font-size: 60px; font-family: BACS"">PlEKDOAK</p>","","","","","","","","",""
"html-keyboard-response","243","315287","0.0-12.0-0.73","60645fe61129208791535d15","650c16f0f2faf8d7a0d14c09","651c1e6dd592a4ed0df535ba","null","null","<p style=""font-size: 60px; font-family: BACS"">KABAcPK</p>","","","","","","","","",""
"html-keyboard-response","244","316300","0.0-12.0-0.74","60645fe61129208791535d15","650c16f0f2faf8d7a0d14c09","651c1e6dd592a4ed0df535ba","null","null","<p style=""font-size: 60px; font-family: BACS"">NvYJYZJO</p>","","","","","","","","",""
"html-keyboard-response","245","317311","0.0-12.0-0.75","60645fe61129208791535d15","650c16f0f2faf8d7a0d14c09","651c1e6dd592a4ed0df535ba","null","null","<p style=""font-size: 60px; font-family: BACS"">lBKtPED</p>","","","","","","","","",""
"html-keyboard-response","246","318313","0.0-12.0-0.76","60645fe61129208791535d15","650c16f0f2faf8d7a0d14c09","651c1e6dd592a4ed0df535ba","null","null","<p style=""font-size: 60px; font-family: BACS"">MTdYbRC</p>","","","","","","","","",""
"html-keyboard-response","247","319325","0.0-12.0-0.77","60645fe61129208791535d15","650c16f0f2faf8d7a0d14c09","651c1e6dd592a4ed0df535ba","null","null","<p style=""font-size: 60px; font-family: BACS"">hmKPMDOAK</p>","","","","","","","","",""
"html-keyboard-response","248","320342","0.0-12.0-0.78","60645fe61129208791535d15","650c16f0f2faf8d7a0d14c09","651c1e6dd592a4ed0df535ba","null","null","<p style=""font-size: 60px; font-family: BACS"">ZNLOvYZJO</p>","","","","","","","","",""
"html-keyboard-response","249","321349","0.0-12.0-0.79","60645fe61129208791535d15","650c16f0f2faf8d7a0d14c09","651c1e6dd592a4ed0df535ba","null","null","<p style=""font-size: 60px; font-family: BACS"">tcYbdPED</p>","","","","","","","","",""
"html-keyboard-response","250","334150","0.0-13.0","60645fe61129208791535d15","650c16f0f2faf8d7a0d14c09","651c1e6dd592a4ed0df535ba","12800"," ","<p>Great, you've seen the third block of words. You may now take a short break.</p>
      <p>Press the spacebar when you're ready to continue.</p>","","","","","","","","",""
"html-keyboard-response","251","335165","0.0-14.0-0.0","60645fe61129208791535d15","650c16f0f2faf8d7a0d14c09","651c1e6dd592a4ed0df535ba","null","null","<p style=""font-size: 60px; font-family: BACS"">tcYbdcPK</p>","","","","","","","","",""
"html-keyboard-response","252","336170","0.0-14.0-0.1","60645fe61129208791535d15","650c16f0f2faf8d7a0d14c09","651c1e6dd592a4ed0df535ba","null","null","<p style=""font-size: 60px; font-family: BACS"">GLYrAQvlZ</p>","","","","","","","","",""
"html-keyboard-response","253","337178","0.0-14.0-0.2","60645fe61129208791535d15","650c16f0f2faf8d7a0d14c09","651c1e6dd592a4ed0df535ba","null","null","<p style=""font-size: 60px; font-family: BACS"">NvYJYZJO</p>","","","","","","","","",""
"html-keyboard-response","254","338190","0.0-14.0-0.3","60645fe61129208791535d15","650c16f0f2faf8d7a0d14c09","651c1e6dd592a4ed0df535ba","null","null","<p style=""font-size: 60px; font-family: BACS"">PEkhAbRC</p>","","","","","","","","",""
"html-keyboard-response","255","339192","0.0-14.0-0.4","60645fe61129208791535d15","650c16f0f2faf8d7a0d14c09","651c1e6dd592a4ed0df535ba","null","null","<p style=""font-size: 60px; font-family: BACS"">LdrbvYZJO</p>","","","","","","","","",""
"html-keyboard-response","256","340206","0.0-14.0-0.5","60645fe61129208791535d15","650c16f0f2faf8d7a0d14c09","651c1e6dd592a4ed0df535ba","null","null","<p style=""font-size: 60px; font-family: BACS"">vYLUOcZJ</p>","","","","","","","","",""
"html-keyboard-response","257","341218","0.0-14.0-0.6","60645fe61129208791535d15","650c16f0f2faf8d7a0d14c09","651c1e6dd592a4ed0df535ba","null","null","<p style=""font-size: 60px; font-family: BACS"">PlEKDOAK</p>","","","","","","","","",""
"html-keyboard-response","258","342220","0.0-14.0-0.7","60645fe61129208791535d15","650c16f0f2faf8d7a0d14c09","651c1e6dd592a4ed0df535ba","null","null","<p style=""font-size: 60px; font-family: BACS"">NvYJQvlZ</p>","","","","","","","","",""
"html-keyboard-response","259","343223","0.0-14.0-0.8","60645fe61129208791535d15","650c16f0f2faf8d7a0d14c09","651c1e6dd592a4ed0df535ba","null","null","<p style=""font-size: 60px; font-family: BACS"">lBKtbRC</p>","","","","","","","","",""
"html-keyboard-response","260","344232","0.0-14.0-0.9","60645fe61129208791535d15","650c16f0f2faf8d7a0d14c09","651c1e6dd592a4ed0df535ba","null","null","<p style=""font-size: 60px; font-family: BACS"">rkYLGUa</p>","","","","","","","","",""
"html-keyboard-response","261","345234","0.0-14.0-0.10","60645fe61129208791535d15","650c16f0f2faf8d7a0d14c09","651c1e6dd592a4ed0df535ba","null","null","<p style=""font-size: 60px; font-family: BACS"">PlEKbRC</p>","","","","","","","","",""
"html-keyboard-response","262","346250","0.0-14.0-0.11","60645fe61129208791535d15","650c16f0f2faf8d7a0d14c09","651c1e6dd592a4ed0df535ba","null","null","<p style=""font-size: 60px; font-family: BACS"">ZNLOvOJlN</p>","","","","","","","","",""
"html-keyboard-response","263","347251","0.0-14.0-0.12","60645fe61129208791535d15","650c16f0f2faf8d7a0d14c09","651c1e6dd592a4ed0df535ba","null","null","<p style=""font-size: 60px; font-family: BACS"">KABADOAK</p>","","","","","","","","",""
"html-keyboard-response","264","348266","0.0-14.0-0.13","60645fe61129208791535d15","650c16f0f2faf8d7a0d14c09","651c1e6dd592a4ed0df535ba","null","null","<p style=""font-size: 60px; font-family: BACS"">hmKPMbRC</p>","","","","","","","","",""
"html-keyboard-response","265","349274","0.0-14.0-0.14","60645fe61129208791535d15","650c16f0f2faf8d7a0d14c09","651c1e6dd592a4ed0df535ba","null","null","<p style=""font-size: 60px; font-family: BACS"">GQrcOcZJ</p>","","","","","","","","",""
"html-keyboard-response","266","350279","0.0-14.0-0.15","60645fe61129208791535d15","650c16f0f2faf8d7a0d14c09","651c1e6dd592a4ed0df535ba","null","null","<p style=""font-size: 60px; font-family: BACS"">KABAcPK</p>","","","","","","","","",""
"html-keyboard-response","267","351291","0.0-14.0-0.16","60645fe61129208791535d15","650c16f0f2faf8d7a0d14c09","651c1e6dd592a4ed0df535ba","null","null","<p style=""font-size: 60px; font-family: BACS"">RtRhbRC</p>","","","","","","","","",""
"html-keyboard-response","268","352293","0.0-14.0-0.17","60645fe61129208791535d15","650c16f0f2faf8d7a0d14c09","651c1e6dd592a4ed0df535ba","null","null","<p style=""font-size: 60px; font-family: BACS"">hTDdPED</p>","","","","","","","","",""
"html-keyboard-response","269","353298","0.0-14.0-0.18","60645fe61129208791535d15","650c16f0f2faf8d7a0d14c09","651c1e6dd592a4ed0df535ba","null","null","<p style=""font-size: 60px; font-family: BACS"">kGlUOcZJ</p>","","","","","","","","",""
"html-keyboard-response","270","354303","0.0-14.0-0.19","60645fe61129208791535d15","650c16f0f2faf8d7a0d14c09","651c1e6dd592a4ed0df535ba","null","null","<p style=""font-size: 60px; font-family: BACS"">hmKPMPED</p>","","","","","","","","",""
"html-keyboard-response","271","355314","0.0-14.0-0.20","60645fe61129208791535d15","650c16f0f2faf8d7a0d14c09","651c1e6dd592a4ed0df535ba","null","null","<p style=""font-size: 60px; font-family: BACS"">ZNLOvQvlZ</p>","","","","","","","","",""
"html-keyboard-response","272","356326","0.0-14.0-0.21","60645fe61129208791535d15","650c16f0f2faf8d7a0d14c09","651c1e6dd592a4ed0df535ba","null","null","<p style=""font-size: 60px; font-family: BACS"">kGlUYZJO</p>","","","","","","","","",""
"html-keyboard-response","273","357328","0.0-14.0-0.22","60645fe61129208791535d15","650c16f0f2faf8d7a0d14c09","651c1e6dd592a4ed0df535ba","null","null","<p style=""font-size: 60px; font-family: BACS"">vJabOJlN</p>","","","","","","","","",""
"html-keyboard-response","274","358339","0.0-14.0-0.23","60645fe61129208791535d15","650c16f0f2faf8d7a0d14c09","651c1e6dd592a4ed0df535ba","null","null","<p style=""font-size: 60px; font-family: BACS"">MTdYbRC</p>","","","","","","","","",""
"html-keyboard-response","275","359341","0.0-14.0-0.24","60645fe61129208791535d15","650c16f0f2faf8d7a0d14c09","651c1e6dd592a4ed0df535ba","null","null","<p style=""font-size: 60px; font-family: BACS"">LdrbvOJlN</p>","","","","","","","","",""
"html-keyboard-response","276","360356","0.0-14.0-0.25","60645fe61129208791535d15","650c16f0f2faf8d7a0d14c09","651c1e6dd592a4ed0df535ba","null","null","<p style=""font-size: 60px; font-family: BACS"">GQrcQvlZ</p>","","","","","","","","",""
"html-keyboard-response","277","361365","0.0-14.0-0.26","60645fe61129208791535d15","650c16f0f2faf8d7a0d14c09","651c1e6dd592a4ed0df535ba","null","null","<p style=""font-size: 60px; font-family: BACS"">MTdYDOAK</p>","","","","","","","","",""
"html-keyboard-response","278","362372","0.0-14.0-0.27","60645fe61129208791535d15","650c16f0f2faf8d7a0d14c09","651c1e6dd592a4ed0df535ba","null","null","<p style=""font-size: 60px; font-family: BACS"">KABAPED</p>","","","","","","","","",""
"html-keyboard-response","279","363382","0.0-14.0-0.28","60645fe61129208791535d15","650c16f0f2faf8d7a0d14c09","651c1e6dd592a4ed0df535ba","null","null","<p style=""font-size: 60px; font-family: BACS"">PlEKcPK</p>","","","","","","","","",""
"html-keyboard-response","280","364399","0.0-14.0-0.29","60645fe61129208791535d15","650c16f0f2faf8d7a0d14c09","651c1e6dd592a4ed0df535ba","null","null","<p style=""font-size: 60px; font-family: BACS"">rkYLOcZJ</p>","","","","","","","","",""
"html-keyboard-response","281","365404","0.0-14.0-0.30","60645fe61129208791535d15","650c16f0f2faf8d7a0d14c09","651c1e6dd592a4ed0df535ba","null","null","<p style=""font-size: 60px; font-family: BACS"">dCtMAbRC</p>","","","","","","","","",""
"html-keyboard-response","282","366406","0.0-14.0-0.31","60645fe61129208791535d15","650c16f0f2faf8d7a0d14c09","651c1e6dd592a4ed0df535ba","null","null","<p style=""font-size: 60px; font-family: BACS"">vJabYZJO</p>","","","","","","","","",""
"html-keyboard-response","283","367412","0.0-14.0-0.32","60645fe61129208791535d15","650c16f0f2faf8d7a0d14c09","651c1e6dd592a4ed0df535ba","null","null","<p style=""font-size: 60px; font-family: BACS"">LdrbvQvlZ</p>","","","","","","","","",""
"html-keyboard-response","284","368417","0.0-14.0-0.33","60645fe61129208791535d15","650c16f0f2faf8d7a0d14c09","651c1e6dd592a4ed0df535ba","null","null","<p style=""font-size: 60px; font-family: BACS"">dvNvAOJlN</p>","","","","","","","","",""
"html-keyboard-response","285","369420","0.0-14.0-0.34","60645fe61129208791535d15","650c16f0f2faf8d7a0d14c09","651c1e6dd592a4ed0df535ba","null","null","<p style=""font-size: 60px; font-family: BACS"">tcYbdDOAK</p>","","","","","","","","",""
"html-keyboard-response","286","370422","0.0-14.0-0.35","60645fe61129208791535d15","650c16f0f2faf8d7a0d14c09","651c1e6dd592a4ed0df535ba","null","null","<p style=""font-size: 60px; font-family: BACS"">PlEKTbk</p>","","","","","","","","",""
"html-keyboard-response","287","371431","0.0-14.0-0.36","60645fe61129208791535d15","650c16f0f2faf8d7a0d14c09","651c1e6dd592a4ed0df535ba","null","null","<p style=""font-size: 60px; font-family: BACS"">vJabOcZJ</p>","","","","","","","","",""
"html-keyboard-response","288","372440","0.0-14.0-0.37","60645fe61129208791535d15","650c16f0f2faf8d7a0d14c09","651c1e6dd592a4ed0df535ba","null","null","<p style=""font-size: 60px; font-family: BACS"">MTdYTbk</p>","","","","","","","","",""
"html-keyboard-response","289","373442","0.0-14.0-0.38","60645fe61129208791535d15","650c16f0f2faf8d7a0d14c09","651c1e6dd592a4ed0df535ba","null","null","<p style=""font-size: 60px; font-family: BACS"">dvNvAYZJO</p>","","","","","","","","",""
"html-keyboard-response","290","374454","0.0-14.0-0.39","60645fe61129208791535d15","650c16f0f2faf8d7a0d14c09","651c1e6dd592a4ed0df535ba","null","null","<p style=""font-size: 60px; font-family: BACS"">hmKPMDOAK</p>","","","","","","","","",""
"html-keyboard-response","291","375460","0.0-14.0-0.40","60645fe61129208791535d15","650c16f0f2faf8d7a0d14c09","651c1e6dd592a4ed0df535ba","null","null","<p style=""font-size: 60px; font-family: BACS"">rkYLYZJO</p>","","","","","","","","",""
"html-keyboard-response","292","376468","0.0-14.0-0.41","60645fe61129208791535d15","650c16f0f2faf8d7a0d14c09","651c1e6dd592a4ed0df535ba","null","null","<p style=""font-size: 60px; font-family: BACS"">kGlUGUa</p>","","","","","","","","",""
"html-keyboard-response","293","377482","0.0-14.0-0.42","60645fe61129208791535d15","650c16f0f2faf8d7a0d14c09","651c1e6dd592a4ed0df535ba","null","null","<p style=""font-size: 60px; font-family: BACS"">rkYLOJlN</p>","","","","","","","","",""
"html-keyboard-response","294","378492","0.0-14.0-0.43","60645fe61129208791535d15","650c16f0f2faf8d7a0d14c09","651c1e6dd592a4ed0df535ba","null","null","<p style=""font-size: 60px; font-family: BACS"">lBKtDOAK</p>","","","","","","","","",""
"html-keyboard-response","295","379503","0.0-14.0-0.44","60645fe61129208791535d15","650c16f0f2faf8d7a0d14c09","651c1e6dd592a4ed0df535ba","null","null","<p style=""font-size: 60px; font-family: BACS"">tcYbdTbk</p>","","","","","","","","",""
"html-keyboard-response","296","380504","0.0-14.0-0.45","60645fe61129208791535d15","650c16f0f2faf8d7a0d14c09","651c1e6dd592a4ed0df535ba","null","null","<p style=""font-size: 60px; font-family: BACS"">dCtMAPED</p>","","","","","","","","",""
"html-keyboard-response","297","381515","0.0-14.0-0.46","60645fe61129208791535d15","650c16f0f2faf8d7a0d14c09","651c1e6dd592a4ed0df535ba","null","null","<p style=""font-size: 60px; font-family: BACS"">LdrbvGUa</p>","","","","","","","","",""
"html-keyboard-response","298","382528","0.0-14.0-0.47","60645fe61129208791535d15","650c16f0f2faf8d7a0d14c09","651c1e6dd592a4ed0df535ba","null","null","<p style=""font-size: 60px; font-family: BACS"">dCtMADOAK</p>","","","","","","","","",""
"html-keyboard-response","299","383535","0.0-14.0-0.48","60645fe61129208791535d15","650c16f0f2faf8d7a0d14c09","651c1e6dd592a4ed0df535ba","null","null","<p style=""font-size: 60px; font-family: BACS"">PEkhAcPK</p>","","","","","","","","",""
"html-keyboard-response","300","384544","0.0-14.0-0.49","60645fe61129208791535d15","650c16f0f2faf8d7a0d14c09","651c1e6dd592a4ed0df535ba","null","null","<p style=""font-size: 60px; font-family: BACS"">tcYbdPED</p>","","","","","","","","",""
"html-keyboard-response","301","385553","0.0-14.0-0.50","60645fe61129208791535d15","650c16f0f2faf8d7a0d14c09","651c1e6dd592a4ed0df535ba","null","null","<p style=""font-size: 60px; font-family: BACS"">dCtMATbk</p>","","","","","","","","",""
"html-keyboard-response","302","386565","0.0-14.0-0.51","60645fe61129208791535d15","650c16f0f2faf8d7a0d14c09","651c1e6dd592a4ed0df535ba","null","null","<p style=""font-size: 60px; font-family: BACS"">vJabQvlZ</p>","","","","","","","","",""
"html-keyboard-response","303","387574","0.0-14.0-0.52","60645fe61129208791535d15","650c16f0f2faf8d7a0d14c09","651c1e6dd592a4ed0df535ba","null","null","<p style=""font-size: 60px; font-family: BACS"">ZNLOvYZJO</p>","","","","","","","","",""
"html-keyboard-response","304","388584","0.0-14.0-0.53","60645fe61129208791535d15","650c16f0f2faf8d7a0d14c09","651c1e6dd592a4ed0df535ba","null","null","<p style=""font-size: 60px; font-family: BACS"">PEkhADOAK</p>","","","","","","","","",""
"html-keyboard-response","305","389597","0.0-14.0-0.54","60645fe61129208791535d15","650c16f0f2faf8d7a0d14c09","651c1e6dd592a4ed0df535ba","null","null","<p style=""font-size: 60px; font-family: BACS"">NvYJOcZJ</p>","","","","","","","","",""
"html-keyboard-response","306","390605","0.0-14.0-0.55","60645fe61129208791535d15","650c16f0f2faf8d7a0d14c09","651c1e6dd592a4ed0df535ba","null","null","<p style=""font-size: 60px; font-family: BACS"">hTDdTbk</p>","","","","","","","","",""
"html-keyboard-response","307","391618","0.0-14.0-0.56","60645fe61129208791535d15","650c16f0f2faf8d7a0d14c09","651c1e6dd592a4ed0df535ba","null","null","<p style=""font-size: 60px; font-family: BACS"">lBKtcPK</p>","","","","","","","","",""
"html-keyboard-response","308","392622","0.0-14.0-0.57","60645fe61129208791535d15","650c16f0f2faf8d7a0d14c09","651c1e6dd592a4ed0df535ba","null","null","<p style=""font-size: 60px; font-family: BACS"">vYLUOJlN</p>","","","","","","","","",""
"html-keyboard-response","309","393628","0.0-14.0-0.58","60645fe61129208791535d15","650c16f0f2faf8d7a0d14c09","651c1e6dd592a4ed0df535ba","null","null","<p style=""font-size: 60px; font-family: BACS"">dvNvAQvlZ</p>","","","","","","","","",""
"html-keyboard-response","310","394633","0.0-14.0-0.59","60645fe61129208791535d15","650c16f0f2faf8d7a0d14c09","651c1e6dd592a4ed0df535ba","null","null","<p style=""font-size: 60px; font-family: BACS"">PEkhATbk</p>","","","","","","","","",""
"html-keyboard-response","311","395638","0.0-14.0-0.60","60645fe61129208791535d15","650c16f0f2faf8d7a0d14c09","651c1e6dd592a4ed0df535ba","null","null","<p style=""font-size: 60px; font-family: BACS"">GLYrAYZJO</p>","","","","","","","","",""
"html-keyboard-response","312","396647","0.0-14.0-0.61","60645fe61129208791535d15","650c16f0f2faf8d7a0d14c09","651c1e6dd592a4ed0df535ba","null","null","<p style=""font-size: 60px; font-family: BACS"">NvYJGUa</p>","","","","","","","","",""
"html-keyboard-response","313","397648","0.0-14.0-0.62","60645fe61129208791535d15","650c16f0f2faf8d7a0d14c09","651c1e6dd592a4ed0df535ba","null","null","<p style=""font-size: 60px; font-family: BACS"">GLYrAOcZJ</p>","","","","","","","","",""
"html-keyboard-response","314","398650","0.0-14.0-0.63","60645fe61129208791535d15","650c16f0f2faf8d7a0d14c09","651c1e6dd592a4ed0df535ba","null","null","<p style=""font-size: 60px; font-family: BACS"">hTDdcPK</p>","","","","","","","","",""
"html-keyboard-response","315","399654","0.0-14.0-0.64","60645fe61129208791535d15","650c16f0f2faf8d7a0d14c09","651c1e6dd592a4ed0df535ba","null","null","<p style=""font-size: 60px; font-family: BACS"">GQrcOJlN</p>","","","","","","","","",""
"html-keyboard-response","316","400665","0.0-14.0-0.65","60645fe61129208791535d15","650c16f0f2faf8d7a0d14c09","651c1e6dd592a4ed0df535ba","null","null","<p style=""font-size: 60px; font-family: BACS"">ZNLOvOcZJ</p>","","","","","","","","",""
"html-keyboard-response","317","401672","0.0-14.0-0.66","60645fe61129208791535d15","650c16f0f2faf8d7a0d14c09","651c1e6dd592a4ed0df535ba","null","null","<p style=""font-size: 60px; font-family: BACS"">RtRhcPK</p>","","","","","","","","",""
"html-keyboard-response","318","402683","0.0-14.0-0.67","60645fe61129208791535d15","650c16f0f2faf8d7a0d14c09","651c1e6dd592a4ed0df535ba","null","null","<p style=""font-size: 60px; font-family: BACS"">KABATbk</p>","","","","","","","","",""
"html-keyboard-response","319","403697","0.0-14.0-0.68","60645fe61129208791535d15","650c16f0f2faf8d7a0d14c09","651c1e6dd592a4ed0df535ba","null","null","<p style=""font-size: 60px; font-family: BACS"">hTDdbRC</p>","","","","","","","","",""
"html-keyboard-response","320","404702","0.0-14.0-0.69","60645fe61129208791535d15","650c16f0f2faf8d7a0d14c09","651c1e6dd592a4ed0df535ba","null","null","<p style=""font-size: 60px; font-family: BACS"">MTdYPED</p>","","","","","","","","",""
"html-keyboard-response","321","405706","0.0-14.0-0.70","60645fe61129208791535d15","650c16f0f2faf8d7a0d14c09","651c1e6dd592a4ed0df535ba","null","null","<p style=""font-size: 60px; font-family: BACS"">RtRhTbk</p>","","","","","","","","",""
"html-keyboard-response","322","406715","0.0-14.0-0.71","60645fe61129208791535d15","650c16f0f2faf8d7a0d14c09","651c1e6dd592a4ed0df535ba","null","null","<p style=""font-size: 60px; font-family: BACS"">vYLUGUa</p>","","","","","","","","",""
"html-keyboard-response","323","407727","0.0-14.0-0.72","60645fe61129208791535d15","650c16f0f2faf8d7a0d14c09","651c1e6dd592a4ed0df535ba","null","null","<p style=""font-size: 60px; font-family: BACS"">hmKPMcPK</p>","","","","","","","","",""
"html-keyboard-response","324","408734","0.0-14.0-0.73","60645fe61129208791535d15","650c16f0f2faf8d7a0d14c09","651c1e6dd592a4ed0df535ba","null","null","<p style=""font-size: 60px; font-family: BACS"">GLYrAGUa</p>","","","","","","","","",""
"html-keyboard-response","325","409747","0.0-14.0-0.74","60645fe61129208791535d15","650c16f0f2faf8d7a0d14c09","651c1e6dd592a4ed0df535ba","null","null","<p style=""font-size: 60px; font-family: BACS"">kGlUOJlN</p>","","","","","","","","",""
"html-keyboard-response","326","410763","0.0-14.0-0.75","60645fe61129208791535d15","650c16f0f2faf8d7a0d14c09","651c1e6dd592a4ed0df535ba","null","null","<p style=""font-size: 60px; font-family: BACS"">lBKtPED</p>","","","","","","","","",""
"html-keyboard-response","327","411775","0.0-14.0-0.76","60645fe61129208791535d15","650c16f0f2faf8d7a0d14c09","651c1e6dd592a4ed0df535ba","null","null","<p style=""font-size: 60px; font-family: BACS"">vYLUQvlZ</p>","","","","","","","","",""
"html-keyboard-response","328","412782","0.0-14.0-0.77","60645fe61129208791535d15","650c16f0f2faf8d7a0d14c09","651c1e6dd592a4ed0df535ba","null","null","<p style=""font-size: 60px; font-family: BACS"">dvNvAGUa</p>","","","","","","","","",""
"html-keyboard-response","329","413798","0.0-14.0-0.78","60645fe61129208791535d15","650c16f0f2faf8d7a0d14c09","651c1e6dd592a4ed0df535ba","null","null","<p style=""font-size: 60px; font-family: BACS"">RtRhPED</p>","","","","","","","","",""
"html-keyboard-response","330","414800","0.0-14.0-0.79","60645fe61129208791535d15","650c16f0f2faf8d7a0d14c09","651c1e6dd592a4ed0df535ba","null","null","<p style=""font-size: 60px; font-family: BACS"">GQrcGUa</p>","","","","","","","","",""
"html-keyboard-response","331","462717","0.0-15.0","60645fe61129208791535d15","650c16f0f2faf8d7a0d14c09","651c1e6dd592a4ed0df535ba","47916"," ","<p>Great, you've seen the fourth block of words. You may now take a short break.</p>
      <p>Press the spacebar when you're ready to continue.</p>","","","","","","","","",""
"html-keyboard-response","332","463718","0.0-16.0-0.0","60645fe61129208791535d15","650c16f0f2faf8d7a0d14c09","651c1e6dd592a4ed0df535ba","null","null","<p style=""font-size: 60px; font-family: BACS"">GQrcGUa</p>","","","","","","","","",""
"html-keyboard-response","333","464719","0.0-16.0-0.1","60645fe61129208791535d15","650c16f0f2faf8d7a0d14c09","651c1e6dd592a4ed0df535ba","null","null","<p style=""font-size: 60px; font-family: BACS"">GQrcGUa</p>","","","","","","","","",""
"html-keyboard-response","334","465723","0.0-16.0-0.2","60645fe61129208791535d15","650c16f0f2faf8d7a0d14c09","651c1e6dd592a4ed0df535ba","null","null","<p style=""font-size: 60px; font-family: BACS"">GQrcGUa</p>","","","","","","","","",""
"html-keyboard-response","335","466730","0.0-16.0-0.3","60645fe61129208791535d15","650c16f0f2faf8d7a0d14c09","651c1e6dd592a4ed0df535ba","null","null","<p style=""font-size: 60px; font-family: BACS"">GQrcGUa</p>","","","","","","","","",""
"html-keyboard-response","336","467743","0.0-16.0-0.4","60645fe61129208791535d15","650c16f0f2faf8d7a0d14c09","651c1e6dd592a4ed0df535ba","null","null","<p style=""font-size: 60px; font-family: BACS"">GQrcGUa</p>","","","","","","","","",""
"html-keyboard-response","337","468746","0.0-16.0-0.5","60645fe61129208791535d15","650c16f0f2faf8d7a0d14c09","651c1e6dd592a4ed0df535ba","null","null","<p style=""font-size: 60px; font-family: BACS"">GQrcGUa</p>","","","","","","","","",""
"html-keyboard-response","338","469758","0.0-16.0-0.6","60645fe61129208791535d15","650c16f0f2faf8d7a0d14c09","651c1e6dd592a4ed0df535ba","null","null","<p style=""font-size: 60px; font-family: BACS"">GQrcGUa</p>","","","","","","","","",""
"html-keyboard-response","339","470772","0.0-16.0-0.7","60645fe61129208791535d15","650c16f0f2faf8d7a0d14c09","651c1e6dd592a4ed0df535ba","null","null","<p style=""font-size: 60px; font-family: BACS"">GQrcGUa</p>","","","","","","","","",""
"html-keyboard-response","340","471783","0.0-16.0-0.8","60645fe61129208791535d15","650c16f0f2faf8d7a0d14c09","651c1e6dd592a4ed0df535ba","null","null","<p style=""font-size: 60px; font-family: BACS"">GQrcGUa</p>","","","","","","","","",""
"html-keyboard-response","341","472786","0.0-16.0-0.9","60645fe61129208791535d15","650c16f0f2faf8d7a0d14c09","651c1e6dd592a4ed0df535ba","null","null","<p style=""font-size: 60px; font-family: BACS"">GQrcGUa</p>","","","","","","","","",""
"html-keyboard-response","342","473800","0.0-16.0-0.10","60645fe61129208791535d15","650c16f0f2faf8d7a0d14c09","651c1e6dd592a4ed0df535ba","null","null","<p style=""font-size: 60px; font-family: BACS"">GQrcGUa</p>","","","","","","","","",""
"html-keyboard-response","343","474813","0.0-16.0-0.11","60645fe61129208791535d15","650c16f0f2faf8d7a0d14c09","651c1e6dd592a4ed0df535ba","null","null","<p style=""font-size: 60px; font-family: BACS"">GQrcGUa</p>","","","","","","","","",""
"html-keyboard-response","344","475815","0.0-16.0-0.12","60645fe61129208791535d15","650c16f0f2faf8d7a0d14c09","651c1e6dd592a4ed0df535ba","null","null","<p style=""font-size: 60px; font-family: BACS"">GQrcGUa</p>","","","","","","","","",""
"html-keyboard-response","345","476819","0.0-16.0-0.13","60645fe61129208791535d15","650c16f0f2faf8d7a0d14c09","651c1e6dd592a4ed0df535ba","null","null","<p style=""font-size: 60px; font-family: BACS"">GQrcGUa</p>","","","","","","","","",""
"html-keyboard-response","346","477826","0.0-16.0-0.14","60645fe61129208791535d15","650c16f0f2faf8d7a0d14c09","651c1e6dd592a4ed0df535ba","null","null","<p style=""font-size: 60px; font-family: BACS"">GQrcGUa</p>","","","","","","","","",""
"html-keyboard-response","347","478837","0.0-16.0-0.15","60645fe61129208791535d15","650c16f0f2faf8d7a0d14c09","651c1e6dd592a4ed0df535ba","null","null","<p style=""font-size: 60px; font-family: BACS"">GQrcGUa</p>","","","","","","","","",""
"html-keyboard-response","348","479852","0.0-16.0-0.16","60645fe61129208791535d15","650c16f0f2faf8d7a0d14c09","651c1e6dd592a4ed0df535ba","null","null","<p style=""font-size: 60px; font-family: BACS"">GQrcGUa</p>","","","","","","","","",""
"html-keyboard-response","349","480856","0.0-16.0-0.17","60645fe61129208791535d15","650c16f0f2faf8d7a0d14c09","651c1e6dd592a4ed0df535ba","null","null","<p style=""font-size: 60px; font-family: BACS"">GQrcGUa</p>","","","","","","","","",""
"html-keyboard-response","350","481868","0.0-16.0-0.18","60645fe61129208791535d15","650c16f0f2faf8d7a0d14c09","651c1e6dd592a4ed0df535ba","null","null","<p style=""font-size: 60px; font-family: BACS"">GQrcGUa</p>","","","","","","","","",""
"html-keyboard-response","351","482885","0.0-16.0-0.19","60645fe61129208791535d15","650c16f0f2faf8d7a0d14c09","651c1e6dd592a4ed0df535ba","null","null","<p style=""font-size: 60px; font-family: BACS"">GQrcGUa</p>","","","","","","","","",""
"html-keyboard-response","352","483896","0.0-16.0-0.20","60645fe61129208791535d15","650c16f0f2faf8d7a0d14c09","651c1e6dd592a4ed0df535ba","null","null","<p style=""font-size: 60px; font-family: BACS"">GQrcGUa</p>","","","","","","","","",""
"html-keyboard-response","353","484910","0.0-16.0-0.21","60645fe61129208791535d15","650c16f0f2faf8d7a0d14c09","651c1e6dd592a4ed0df535ba","null","null","<p style=""font-size: 60px; font-family: BACS"">GQrcGUa</p>","","","","","","","","",""
"html-keyboard-response","354","485915","0.0-16.0-0.22","60645fe61129208791535d15","650c16f0f2faf8d7a0d14c09","651c1e6dd592a4ed0df535ba","null","null","<p style=""font-size: 60px; font-family: BACS"">GQrcGUa</p>","","","","","","","","",""
"html-keyboard-response","355","486930","0.0-16.0-0.23","60645fe61129208791535d15","650c16f0f2faf8d7a0d14c09","651c1e6dd592a4ed0df535ba","null","null","<p style=""font-size: 60px; font-family: BACS"">GQrcGUa</p>","","","","","","","","",""
"html-keyboard-response","356","487934","0.0-16.0-0.24","60645fe61129208791535d15","650c16f0f2faf8d7a0d14c09","651c1e6dd592a4ed0df535ba","null","null","<p style=""font-size: 60px; font-family: BACS"">GQrcGUa</p>","","","","","","","","",""
"html-keyboard-response","357","488941","0.0-16.0-0.25","60645fe61129208791535d15","650c16f0f2faf8d7a0d14c09","651c1e6dd592a4ed0df535ba","null","null","<p style=""font-size: 60px; font-family: BACS"">GQrcGUa</p>","","","","","","","","",""
"html-keyboard-response","358","489949","0.0-16.0-0.26","60645fe61129208791535d15","650c16f0f2faf8d7a0d14c09","651c1e6dd592a4ed0df535ba","null","null","<p style=""font-size: 60px; font-family: BACS"">GQrcGUa</p>","","","","","","","","",""
"html-keyboard-response","359","490958","0.0-16.0-0.27","60645fe61129208791535d15","650c16f0f2faf8d7a0d14c09","651c1e6dd592a4ed0df535ba","null","null","<p style=""font-size: 60px; font-family: BACS"">GQrcGUa</p>","","","","","","","","",""
"html-keyboard-response","360","491966","0.0-16.0-0.28","60645fe61129208791535d15","650c16f0f2faf8d7a0d14c09","651c1e6dd592a4ed0df535ba","null","null","<p style=""font-size: 60px; font-family: BACS"">GQrcGUa</p>","","","","","","","","",""
"html-keyboard-response","361","492970","0.0-16.0-0.29","60645fe61129208791535d15","650c16f0f2faf8d7a0d14c09","651c1e6dd592a4ed0df535ba","null","null","<p style=""font-size: 60px; font-family: BACS"">GQrcGUa</p>","","","","","","","","",""
"html-keyboard-response","362","493980","0.0-16.0-0.30","60645fe61129208791535d15","650c16f0f2faf8d7a0d14c09","651c1e6dd592a4ed0df535ba","null","null","<p style=""font-size: 60px; font-family: BACS"">GQrcGUa</p>","","","","","","","","",""
"html-keyboard-response","363","494996","0.0-16.0-0.31","60645fe61129208791535d15","650c16f0f2faf8d7a0d14c09","651c1e6dd592a4ed0df535ba","null","null","<p style=""font-size: 60px; font-family: BACS"">GQrcGUa</p>","","","","","","","","",""
"html-keyboard-response","364","496009","0.0-16.0-0.32","60645fe61129208791535d15","650c16f0f2faf8d7a0d14c09","651c1e6dd592a4ed0df535ba","null","null","<p style=""font-size: 60px; font-family: BACS"">GQrcGUa</p>","","","","","","","","",""
"html-keyboard-response","365","497025","0.0-16.0-0.33","60645fe61129208791535d15","650c16f0f2faf8d7a0d14c09","651c1e6dd592a4ed0df535ba","null","null","<p style=""font-size: 60px; font-family: BACS"">GQrcGUa</p>","","","","","","","","",""
"html-keyboard-response","366","498029","0.0-16.0-0.34","60645fe61129208791535d15","650c16f0f2faf8d7a0d14c09","651c1e6dd592a4ed0df535ba","null","null","<p style=""font-size: 60px; font-family: BACS"">GQrcGUa</p>","","","","","","","","",""
"html-keyboard-response","367","499043","0.0-16.0-0.35","60645fe61129208791535d15","650c16f0f2faf8d7a0d14c09","651c1e6dd592a4ed0df535ba","null","null","<p style=""font-size: 60px; font-family: BACS"">GQrcGUa</p>","","","","","","","","",""
"html-keyboard-response","368","500052","0.0-16.0-0.36","60645fe61129208791535d15","650c16f0f2faf8d7a0d14c09","651c1e6dd592a4ed0df535ba","null","null","<p style=""font-size: 60px; font-family: BACS"">GQrcGUa</p>","","","","","","","","",""
"html-keyboard-response","369","501055","0.0-16.0-0.37","60645fe61129208791535d15","650c16f0f2faf8d7a0d14c09","651c1e6dd592a4ed0df535ba","null","null","<p style=""font-size: 60px; font-family: BACS"">GQrcGUa</p>","","","","","","","","",""
"html-keyboard-response","370","502072","0.0-16.0-0.38","60645fe61129208791535d15","650c16f0f2faf8d7a0d14c09","651c1e6dd592a4ed0df535ba","null","null","<p style=""font-size: 60px; font-family: BACS"">GQrcGUa</p>","","","","","","","","",""
"html-keyboard-response","371","503086","0.0-16.0-0.39","60645fe61129208791535d15","650c16f0f2faf8d7a0d14c09","651c1e6dd592a4ed0df535ba","null","null","<p style=""font-size: 60px; font-family: BACS"">GQrcGUa</p>","","","","","","","","",""
"html-keyboard-response","372","504097","0.0-16.0-0.40","60645fe61129208791535d15","650c16f0f2faf8d7a0d14c09","651c1e6dd592a4ed0df535ba","null","null","<p style=""font-size: 60px; font-family: BACS"">GQrcGUa</p>","","","","","","","","",""
"html-keyboard-response","373","505101","0.0-16.0-0.41","60645fe61129208791535d15","650c16f0f2faf8d7a0d14c09","651c1e6dd592a4ed0df535ba","null","null","<p style=""font-size: 60px; font-family: BACS"">GQrcGUa</p>","","","","","","","","",""
"html-keyboard-response","374","506116","0.0-16.0-0.42","60645fe61129208791535d15","650c16f0f2faf8d7a0d14c09","651c1e6dd592a4ed0df535ba","null","null","<p style=""font-size: 60px; font-family: BACS"">GQrcGUa</p>","","","","","","","","",""
"html-keyboard-response","375","507125","0.0-16.0-0.43","60645fe61129208791535d15","650c16f0f2faf8d7a0d14c09","651c1e6dd592a4ed0df535ba","null","null","<p style=""font-size: 60px; font-family: BACS"">GQrcGUa</p>","","","","","","","","",""
"html-keyboard-response","376","508143","0.0-16.0-0.44","60645fe61129208791535d15","650c16f0f2faf8d7a0d14c09","651c1e6dd592a4ed0df535ba","null","null","<p style=""font-size: 60px; font-family: BACS"">GQrcGUa</p>","","","","","","","","",""
"html-keyboard-response","377","509145","0.0-16.0-0.45","60645fe61129208791535d15","650c16f0f2faf8d7a0d14c09","651c1e6dd592a4ed0df535ba","null","null","<p style=""font-size: 60px; font-family: BACS"">GQrcGUa</p>","","","","","","","","",""
"html-keyboard-response","378","510156","0.0-16.0-0.46","60645fe61129208791535d15","650c16f0f2faf8d7a0d14c09","651c1e6dd592a4ed0df535ba","null","null","<p style=""font-size: 60px; font-family: BACS"">GQrcGUa</p>","","","","","","","","",""
"html-keyboard-response","379","511160","0.0-16.0-0.47","60645fe61129208791535d15","650c16f0f2faf8d7a0d14c09","651c1e6dd592a4ed0df535ba","null","null","<p style=""font-size: 60px; font-family: BACS"">GQrcGUa</p>","","","","","","","","",""
"html-keyboard-response","380","512162","0.0-16.0-0.48","60645fe61129208791535d15","650c16f0f2faf8d7a0d14c09","651c1e6dd592a4ed0df535ba","null","null","<p style=""font-size: 60px; font-family: BACS"">GQrcGUa</p>","","","","","","","","",""
"html-keyboard-response","381","513166","0.0-16.0-0.49","60645fe61129208791535d15","650c16f0f2faf8d7a0d14c09","651c1e6dd592a4ed0df535ba","null","null","<p style=""font-size: 60px; font-family: BACS"">GQrcGUa</p>","","","","","","","","",""
"html-keyboard-response","382","514175","0.0-16.0-0.50","60645fe61129208791535d15","650c16f0f2faf8d7a0d14c09","651c1e6dd592a4ed0df535ba","null","null","<p style=""font-size: 60px; font-family: BACS"">GQrcGUa</p>","","","","","","","","",""
"html-keyboard-response","383","515187","0.0-16.0-0.51","60645fe61129208791535d15","650c16f0f2faf8d7a0d14c09","651c1e6dd592a4ed0df535ba","null","null","<p style=""font-size: 60px; font-family: BACS"">GQrcGUa</p>","","","","","","","","",""
"html-keyboard-response","384","516198","0.0-16.0-0.52","60645fe61129208791535d15","650c16f0f2faf8d7a0d14c09","651c1e6dd592a4ed0df535ba","null","null","<p style=""font-size: 60px; font-family: BACS"">GQrcGUa</p>","","","","","","","","",""
"html-keyboard-response","385","517200","0.0-16.0-0.53","60645fe61129208791535d15","650c16f0f2faf8d7a0d14c09","651c1e6dd592a4ed0df535ba","null","null","<p style=""font-size: 60px; font-family: BACS"">GQrcGUa</p>","","","","","","","","",""
"html-keyboard-response","386","518216","0.0-16.0-0.54","60645fe61129208791535d15","650c16f0f2faf8d7a0d14c09","651c1e6dd592a4ed0df535ba","null","null","<p style=""font-size: 60px; font-family: BACS"">GQrcGUa</p>","","","","","","","","",""
"html-keyboard-response","387","519222","0.0-16.0-0.55","60645fe61129208791535d15","650c16f0f2faf8d7a0d14c09","651c1e6dd592a4ed0df535ba","null","null","<p style=""font-size: 60px; font-family: BACS"">GQrcGUa</p>","","","","","","","","",""
"html-keyboard-response","388","520228","0.0-16.0-0.56","60645fe61129208791535d15","650c16f0f2faf8d7a0d14c09","651c1e6dd592a4ed0df535ba","null","null","<p style=""font-size: 60px; font-family: BACS"">GQrcGUa</p>","","","","","","","","",""
"html-keyboard-response","389","521244","0.0-16.0-0.57","60645fe61129208791535d15","650c16f0f2faf8d7a0d14c09","651c1e6dd592a4ed0df535ba","null","null","<p style=""font-size: 60px; font-family: BACS"">GQrcGUa</p>","","","","","","","","",""
"html-keyboard-response","390","522261","0.0-16.0-0.58","60645fe61129208791535d15","650c16f0f2faf8d7a0d14c09","651c1e6dd592a4ed0df535ba","null","null","<p style=""font-size: 60px; font-family: BACS"">GQrcGUa</p>","","","","","","","","",""
"html-keyboard-response","391","523273","0.0-16.0-0.59","60645fe61129208791535d15","650c16f0f2faf8d7a0d14c09","651c1e6dd592a4ed0df535ba","null","null","<p style=""font-size: 60px; font-family: BACS"">GQrcGUa</p>","","","","","","","","",""
"html-keyboard-response","392","524285","0.0-16.0-0.60","60645fe61129208791535d15","650c16f0f2faf8d7a0d14c09","651c1e6dd592a4ed0df535ba","null","null","<p style=""font-size: 60px; font-family: BACS"">GQrcGUa</p>","","","","","","","","",""
"html-keyboard-response","393","525287","0.0-16.0-0.61","60645fe61129208791535d15","650c16f0f2faf8d7a0d14c09","651c1e6dd592a4ed0df535ba","null","null","<p style=""font-size: 60px; font-family: BACS"">GQrcGUa</p>","","","","","","","","",""
"html-keyboard-response","394","526291","0.0-16.0-0.62","60645fe61129208791535d15","650c16f0f2faf8d7a0d14c09","651c1e6dd592a4ed0df535ba","null","null","<p style=""font-size: 60px; font-family: BACS"">GQrcGUa</p>","","","","","","","","",""
"html-keyboard-response","395","527302","0.0-16.0-0.63","60645fe61129208791535d15","650c16f0f2faf8d7a0d14c09","651c1e6dd592a4ed0df535ba","null","null","<p style=""font-size: 60px; font-family: BACS"">GQrcGUa</p>","","","","","","","","",""
"html-keyboard-response","396","528305","0.0-16.0-0.64","60645fe61129208791535d15","650c16f0f2faf8d7a0d14c09","651c1e6dd592a4ed0df535ba","null","null","<p style=""font-size: 60px; font-family: BACS"">GQrcGUa</p>","","","","","","","","",""
"html-keyboard-response","397","529311","0.0-16.0-0.65","60645fe61129208791535d15","650c16f0f2faf8d7a0d14c09","651c1e6dd592a4ed0df535ba","null","null","<p style=""font-size: 60px; font-family: BACS"">GQrcGUa</p>","","","","","","","","",""
"html-keyboard-response","398","530315","0.0-16.0-0.66","60645fe61129208791535d15","650c16f0f2faf8d7a0d14c09","651c1e6dd592a4ed0df535ba","null","null","<p style=""font-size: 60px; font-family: BACS"">GQrcGUa</p>","","","","","","","","",""
