"trial_type","trial_index","time_elapsed","internal_node_id","subject_id","study_id","session_id","rt","response","stimulus","success","item","task","correct_response","testing_condition","correct","target","confound","name","view_history"
"pavlovia","0","2068","0.0-0.0","617142c2a843eef6f8f148b6","650c16f0f2faf8d7a0d14c09","651c1ce0265b91536d98427e","","","","","","","","","","","","",""
"survey-html-form","1","14076","0.0-1.0","617142c2a843eef6f8f148b6","650c16f0f2faf8d7a0d14c09","651c1ce0265b91536d98427e","12004","{""ID"":""617142c2a843eef6f8f148b6""}","","","","","","","","","","",""
"html-keyboard-response","2","45709","0.0-2.0","617142c2a843eef6f8f148b6","650c16f0f2faf8d7a0d14c09","651c1ce0265b91536d98427e","31625"," ","<p style=""font-size: 15px;"">Before beginning, we ask that you read the consent information and confirm your agreement to participate in the experiment.</p>
      <p style=""font-size: 15px;""> We ask that you remember that this is a research project and that your participation is entirely voluntary. You can stop your participation at any time, without needing to provide any explanation. The study we're asking you to participate in aims at examining how readers process written words. You will be engaged in a session of apprximately 20 minutes, followed by a brief questionnaire. You will have the opportunity to take a few breaks during the experiment. You will be paid £4 for your participation, corresponding to a rate of £8/hour. While this experiment looks at cognitive faculties, this experiment doesn't constitute clinical proof of eventual pathologies.</p>
      <p style=""font-size: 15px;"">All of the information collected thanks to yours and others' participation will be held in a secure password-protected server, and will not be shared with anyone not authorised to view it. Your personal information will be kept with an arbitrary participant ID. Thanks to this data anonymity process, any researcher analysing the data won't be able to track the information back to a specific participant. Therefore, this process will make identifying you impossibile, even when results from the study will be published in scientific reviews, presented at congresses, or at any other public forum. More generally, the collected data will be treated in accordance with the laws on privacy and conformity to the Legislative Degree n. 196 ""Code regarding the protection of personal data"" of the 30th of June 2003 and to the European Regulation 2016/670 (General Data Protection Regulation - GDPR). The Data Protection Officer is Avv. Valentina Carollo, who can be contacted at the following email addresses: <a href=""mailto:dpo@sissa.it"">dpo@sissa.it</a> or <a href=""mailto:rpd@sissa.it"">rpd@sissa.it</a> - PEC: <a href=""mailto:protocollo@pec.sissa.it"">protocollo@pec.sissa.it</a>.</p>
      <p style=""font-size: 15px;""> Before expressing your consent to participate, we would like to remind you again that in case you need explanations on any aspect of the experimental procedure, the researcher is at your disposition (<a href=""mailto:aliebelt@sissa.it"">aliebelt@sissa.it</a>, <a href=""mailto:davide.crepaldi@sissa.it"">davide.crepaldi@sissa.it</a>).</p>
      <p style=""font-size: 15px;"">If you would like to download the informed consent form, you can do so here: <a href=""BASL-Informed_Consent.pdf"" download>informed consent form</a>.</p>
      <p style=""font-size: 15px;"">We ask that you press the spacebar to proceed to the consent section.</p>","","","","","","","","","",""
"survey-html-form","3","74404","0.0-3.0","617142c2a843eef6f8f148b6","650c16f0f2faf8d7a0d14c09","651c1ce0265b91536d98427e","28686","{""consent1"":""YES"",""consent2"":""YES"",""consent3"":""YES"",""consent4"":""YES"",""consent5"":""YES"",""consent6"":""YES""}","","","","","","","","","","",""
"fullscreen","4","82351","0.0-4.0","617142c2a843eef6f8f148b6","650c16f0f2faf8d7a0d14c09","651c1ce0265b91536d98427e","","","","true","","","","","","","","",""
"html-keyboard-response","5","97900","0.0-5.0","617142c2a843eef6f8f148b6","650c16f0f2faf8d7a0d14c09","651c1ce0265b91536d98427e","15541"," ","<p>Welcome, and thank you very much for your time!</p>
      <p>In this experiment, you'll be a language expert who's been asked to take a look at words that Earth has received in its first communication with aliens. Your task, in this first part of the experiment, is to pay close attention to the words you'll be shown; later, world leaders will ask you questions on what you saw. The words will be shown to you quite quickly; it seems that the aliens were in a hurry :-)</p>
      <p>Press the spacebar to continue.<p>","","","","","","","","","",""
"html-keyboard-response","6","97956","0.0-6.0","617142c2a843eef6f8f148b6","650c16f0f2faf8d7a0d14c09","651c1ce0265b91536d98427e","null","null","<p style=""font-size: 120px; font-family: BACS""> </p>","","","","","","","","","",""
"html-keyboard-response","7","143020","0.0-7.0","617142c2a843eef6f8f148b6","650c16f0f2faf8d7a0d14c09","651c1ce0265b91536d98427e","45062"," ","<p>Here is an example of the words you'll see:</p>
      <img src='esempio.png' height='400px'>
      <p>When you're ready to begin, press the spacebar.</p></div>","","","","","","","","","",""
"html-keyboard-response","8","144032","0.0-8.0-0.0","617142c2a843eef6f8f148b6","650c16f0f2faf8d7a0d14c09","651c1ce0265b91536d98427e","null","null","<p style=""font-size: 60px; font-family: BACS"">vkYGluUY</p>","","","","","","","","","",""
"html-keyboard-response","9","145052","0.0-8.0-0.1","617142c2a843eef6f8f148b6","650c16f0f2faf8d7a0d14c09","651c1ce0265b91536d98427e","null","null","<p style=""font-size: 60px; font-family: BACS"">OMlTbAMO</p>","","","","","","","","","",""
"html-keyboard-response","10","146070","0.0-8.0-0.2","617142c2a843eef6f8f148b6","650c16f0f2faf8d7a0d14c09","651c1ce0265b91536d98427e","null","null","<p style=""font-size: 60px; font-family: BACS"">vkYGlrULv</p>","","","","","","","","","",""
"html-keyboard-response","11","147084","0.0-8.0-0.3","617142c2a843eef6f8f148b6","650c16f0f2faf8d7a0d14c09","651c1ce0265b91536d98427e","null","null","<p style=""font-size: 60px; font-family: BACS"">UdbdrNlZ</p>","","","","","","","","","",""
"html-keyboard-response","12","148099","0.0-8.0-0.4","617142c2a843eef6f8f148b6","650c16f0f2faf8d7a0d14c09","651c1ce0265b91536d98427e","null","null","<p style=""font-size: 60px; font-family: BACS"">CkBOPmAM</p>","","","","","","","","","",""
"html-keyboard-response","13","149105","0.0-8.0-0.5","617142c2a843eef6f8f148b6","650c16f0f2faf8d7a0d14c09","651c1ce0265b91536d98427e","null","null","<p style=""font-size: 60px; font-family: BACS"">ckLALOJNk</p>","","","","","","","","","",""
"html-keyboard-response","14","150123","0.0-8.0-0.6","617142c2a843eef6f8f148b6","650c16f0f2faf8d7a0d14c09","651c1ce0265b91536d98427e","null","null","<p style=""font-size: 60px; font-family: BACS"">TDKhbAMO</p>","","","","","","","","","",""
"html-keyboard-response","15","151135","0.0-8.0-0.7","617142c2a843eef6f8f148b6","650c16f0f2faf8d7a0d14c09","651c1ce0265b91536d98427e","null","null","<p style=""font-size: 60px; font-family: BACS"">YUNkZuUY</p>","","","","","","","","","",""
"html-keyboard-response","16","152153","0.0-8.0-0.8","617142c2a843eef6f8f148b6","650c16f0f2faf8d7a0d14c09","651c1ce0265b91536d98427e","null","null","<p style=""font-size: 60px; font-family: BACS"">hbkdmAM</p>","","","","","","","","","",""
"html-keyboard-response","17","153170","0.0-8.0-0.9","617142c2a843eef6f8f148b6","650c16f0f2faf8d7a0d14c09","651c1ce0265b91536d98427e","null","null","<p style=""font-size: 60px; font-family: BACS"">UdbduUY</p>","","","","","","","","","",""
"html-keyboard-response","18","154190","0.0-8.0-0.10","617142c2a843eef6f8f148b6","650c16f0f2faf8d7a0d14c09","651c1ce0265b91536d98427e","null","null","<p style=""font-size: 60px; font-family: BACS"">OdYPbAMO</p>","","","","","","","","","",""
"html-keyboard-response","19","155204","0.0-8.0-0.11","617142c2a843eef6f8f148b6","650c16f0f2faf8d7a0d14c09","651c1ce0265b91536d98427e","null","null","<p style=""font-size: 60px; font-family: BACS"">UJkGrULv</p>","","","","","","","","","",""
"html-keyboard-response","20","156222","0.0-8.0-0.12","617142c2a843eef6f8f148b6","650c16f0f2faf8d7a0d14c09","651c1ce0265b91536d98427e","null","null","<p style=""font-size: 60px; font-family: BACS"">JvaAcYUv</p>","","","","","","","","","",""
"html-keyboard-response","21","157239","0.0-8.0-0.13","617142c2a843eef6f8f148b6","650c16f0f2faf8d7a0d14c09","651c1ce0265b91536d98427e","null","null","<p style=""font-size: 60px; font-family: BACS"">OdYPOBT</p>","","","","","","","","","",""
"html-keyboard-response","22","158254","0.0-8.0-0.14","617142c2a843eef6f8f148b6","650c16f0f2faf8d7a0d14c09","651c1ce0265b91536d98427e","null","null","<p style=""font-size: 60px; font-family: BACS"">JvaAOJNk</p>","","","","","","","","","",""
"html-keyboard-response","23","159272","0.0-8.0-0.15","617142c2a843eef6f8f148b6","650c16f0f2faf8d7a0d14c09","651c1ce0265b91536d98427e","null","null","<p style=""font-size: 60px; font-family: BACS"">GLluAcYUv</p>","","","","","","","","","",""
"html-keyboard-response","24","160290","0.0-8.0-0.16","617142c2a843eef6f8f148b6","650c16f0f2faf8d7a0d14c09","651c1ce0265b91536d98427e","null","null","<p style=""font-size: 60px; font-family: BACS"">YUNkZrULv</p>","","","","","","","","","",""
"html-keyboard-response","25","161303","0.0-8.0-0.17","617142c2a843eef6f8f148b6","650c16f0f2faf8d7a0d14c09","651c1ce0265b91536d98427e","null","null","<p style=""font-size: 60px; font-family: BACS"">DhMtBCD</p>","","","","","","","","","",""
"html-keyboard-response","26","162321","0.0-8.0-0.18","617142c2a843eef6f8f148b6","650c16f0f2faf8d7a0d14c09","651c1ce0265b91536d98427e","null","null","<p style=""font-size: 60px; font-family: BACS"">lAOKMAPEM</p>","","","","","","","","","",""
"html-keyboard-response","27","163340","0.0-8.0-0.19","617142c2a843eef6f8f148b6","650c16f0f2faf8d7a0d14c09","651c1ce0265b91536d98427e","null","null","<p style=""font-size: 60px; font-family: BACS"">dmZvmuUY</p>","","","","","","","","","",""
"html-keyboard-response","28","164362","0.0-8.0-0.20","617142c2a843eef6f8f148b6","650c16f0f2faf8d7a0d14c09","651c1ce0265b91536d98427e","null","null","<p style=""font-size: 60px; font-family: BACS"">TDKhBCD</p>","","","","","","","","","",""
"html-keyboard-response","29","165376","0.0-8.0-0.21","617142c2a843eef6f8f148b6","650c16f0f2faf8d7a0d14c09","651c1ce0265b91536d98427e","null","null","<p style=""font-size: 60px; font-family: BACS"">OMlTAPEM</p>","","","","","","","","","",""
"html-keyboard-response","30","166393","0.0-8.0-0.22","617142c2a843eef6f8f148b6","650c16f0f2faf8d7a0d14c09","651c1ce0265b91536d98427e","null","null","<p style=""font-size: 60px; font-family: BACS"">lAOKMBCD</p>","","","","","","","","","",""
"html-keyboard-response","31","167411","0.0-8.0-0.23","617142c2a843eef6f8f148b6","650c16f0f2faf8d7a0d14c09","651c1ce0265b91536d98427e","null","null","<p style=""font-size: 60px; font-family: BACS"">CkBOPAPEM</p>","","","","","","","","","",""
"html-keyboard-response","32","168426","0.0-8.0-0.24","617142c2a843eef6f8f148b6","650c16f0f2faf8d7a0d14c09","651c1ce0265b91536d98427e","null","null","<p style=""font-size: 60px; font-family: BACS"">OMlTOBT</p>","","","","","","","","","",""
"html-keyboard-response","33","169444","0.0-8.0-0.25","617142c2a843eef6f8f148b6","650c16f0f2faf8d7a0d14c09","651c1ce0265b91536d98427e","null","null","<p style=""font-size: 60px; font-family: BACS"">JvaArULv</p>","","","","","","","","","",""
"html-keyboard-response","34","170461","0.0-8.0-0.26","617142c2a843eef6f8f148b6","650c16f0f2faf8d7a0d14c09","651c1ce0265b91536d98427e","null","null","<p style=""font-size: 60px; font-family: BACS"">TDKhmAM</p>","","","","","","","","","",""
"html-keyboard-response","35","171478","0.0-8.0-0.27","617142c2a843eef6f8f148b6","650c16f0f2faf8d7a0d14c09","651c1ce0265b91536d98427e","null","null","<p style=""font-size: 60px; font-family: BACS"">CkBOPOBT</p>","","","","","","","","","",""
"html-keyboard-response","36","172496","0.0-8.0-0.28","617142c2a843eef6f8f148b6","650c16f0f2faf8d7a0d14c09","651c1ce0265b91536d98427e","null","null","<p style=""font-size: 60px; font-family: BACS"">TAdhMmAM</p>","","","","","","","","","",""
"html-keyboard-response","37","173516","0.0-8.0-0.29","617142c2a843eef6f8f148b6","650c16f0f2faf8d7a0d14c09","651c1ce0265b91536d98427e","null","null","<p style=""font-size: 60px; font-family: BACS"">DhMtAPEM</p>","","","","","","","","","",""
"html-keyboard-response","38","174530","0.0-8.0-0.30","617142c2a843eef6f8f148b6","650c16f0f2faf8d7a0d14c09","651c1ce0265b91536d98427e","null","null","<p style=""font-size: 60px; font-family: BACS"">JAdLmcYUv</p>","","","","","","","","","",""
"html-keyboard-response","39","175549","0.0-8.0-0.31","617142c2a843eef6f8f148b6","650c16f0f2faf8d7a0d14c09","651c1ce0265b91536d98427e","null","null","<p style=""font-size: 60px; font-family: BACS"">dmZvmrNlZ</p>","","","","","","","","","",""
"html-keyboard-response","40","176566","0.0-8.0-0.32","617142c2a843eef6f8f148b6","650c16f0f2faf8d7a0d14c09","651c1ce0265b91536d98427e","null","null","<p style=""font-size: 60px; font-family: BACS"">kKRCOBT</p>","","","","","","","","","",""
"html-keyboard-response","41","177581","0.0-8.0-0.33","617142c2a843eef6f8f148b6","650c16f0f2faf8d7a0d14c09","651c1ce0265b91536d98427e","null","null","<p style=""font-size: 60px; font-family: BACS"">vkYGlrNlZ</p>","","","","","","","","","",""
"html-keyboard-response","42","178599","0.0-8.0-0.34","617142c2a843eef6f8f148b6","650c16f0f2faf8d7a0d14c09","651c1ce0265b91536d98427e","null","null","<p style=""font-size: 60px; font-family: BACS"">OdYPBCD</p>","","","","","","","","","",""
"html-keyboard-response","43","179615","0.0-8.0-0.35","617142c2a843eef6f8f148b6","650c16f0f2faf8d7a0d14c09","651c1ce0265b91536d98427e","null","null","<p style=""font-size: 60px; font-family: BACS"">lAOKMOBT</p>","","","","","","","","","",""
"html-keyboard-response","44","180635","0.0-8.0-0.36","617142c2a843eef6f8f148b6","650c16f0f2faf8d7a0d14c09","651c1ce0265b91536d98427e","null","null","<p style=""font-size: 60px; font-family: BACS"">kulZOJNk</p>","","","","","","","","","",""
"html-keyboard-response","45","181651","0.0-8.0-0.37","617142c2a843eef6f8f148b6","650c16f0f2faf8d7a0d14c09","651c1ce0265b91536d98427e","null","null","<p style=""font-size: 60px; font-family: BACS"">kKRCmAM</p>","","","","","","","","","",""
"html-keyboard-response","46","182670","0.0-8.0-0.38","617142c2a843eef6f8f148b6","650c16f0f2faf8d7a0d14c09","651c1ce0265b91536d98427e","null","null","<p style=""font-size: 60px; font-family: BACS"">TAdhMbAMO</p>","","","","","","","","","",""
"html-keyboard-response","47","183684","0.0-8.0-0.39","617142c2a843eef6f8f148b6","650c16f0f2faf8d7a0d14c09","651c1ce0265b91536d98427e","null","null","<p style=""font-size: 60px; font-family: BACS"">OMlTBCD</p>","","","","","","","","","",""
"html-keyboard-response","48","184701","0.0-8.0-0.40","617142c2a843eef6f8f148b6","650c16f0f2faf8d7a0d14c09","651c1ce0265b91536d98427e","null","null","<p style=""font-size: 60px; font-family: BACS"">CkBOPbAMO</p>","","","","","","","","","",""
"html-keyboard-response","49","185718","0.0-8.0-0.41","617142c2a843eef6f8f148b6","650c16f0f2faf8d7a0d14c09","651c1ce0265b91536d98427e","null","null","<p style=""font-size: 60px; font-family: BACS"">TDKhAPEM</p>","","","","","","","","","",""
"html-keyboard-response","50","186736","0.0-8.0-0.42","617142c2a843eef6f8f148b6","650c16f0f2faf8d7a0d14c09","651c1ce0265b91536d98427e","null","null","<p style=""font-size: 60px; font-family: BACS"">UJkGOJNk</p>","","","","","","","","","",""
"html-keyboard-response","51","187753","0.0-8.0-0.43","617142c2a843eef6f8f148b6","650c16f0f2faf8d7a0d14c09","651c1ce0265b91536d98427e","null","null","<p style=""font-size: 60px; font-family: BACS"">TKDkBCD</p>","","","","","","","","","",""
"html-keyboard-response","52","188766","0.0-8.0-0.44","617142c2a843eef6f8f148b6","650c16f0f2faf8d7a0d14c09","651c1ce0265b91536d98427e","null","null","<p style=""font-size: 60px; font-family: BACS"">UJkGrNlZ</p>","","","","","","","","","",""
"html-keyboard-response","53","189772","0.0-8.0-0.45","617142c2a843eef6f8f148b6","650c16f0f2faf8d7a0d14c09","651c1ce0265b91536d98427e","null","null","<p style=""font-size: 60px; font-family: BACS"">dmZvmOJNk</p>","","","","","","","","","",""
"html-keyboard-response","54","190791","0.0-8.0-0.46","617142c2a843eef6f8f148b6","650c16f0f2faf8d7a0d14c09","651c1ce0265b91536d98427e","null","null","<p style=""font-size: 60px; font-family: BACS"">GLluAuUY</p>","","","","","","","","","",""
"html-keyboard-response","55","191804","0.0-8.0-0.47","617142c2a843eef6f8f148b6","650c16f0f2faf8d7a0d14c09","651c1ce0265b91536d98427e","null","null","<p style=""font-size: 60px; font-family: BACS"">dmZvmcYUv</p>","","","","","","","","","",""
"html-keyboard-response","56","192822","0.0-8.0-0.48","617142c2a843eef6f8f148b6","650c16f0f2faf8d7a0d14c09","651c1ce0265b91536d98427e","null","null","<p style=""font-size: 60px; font-family: BACS"">ckLALrULv</p>","","","","","","","","","",""
"html-keyboard-response","57","193838","0.0-8.0-0.49","617142c2a843eef6f8f148b6","650c16f0f2faf8d7a0d14c09","651c1ce0265b91536d98427e","null","null","<p style=""font-size: 60px; font-family: BACS"">DhMtmAM</p>","","","","","","","","","",""
"html-keyboard-response","58","194857","0.0-8.0-0.50","617142c2a843eef6f8f148b6","650c16f0f2faf8d7a0d14c09","651c1ce0265b91536d98427e","null","null","<p style=""font-size: 60px; font-family: BACS"">TKDkbAMO</p>","","","","","","","","","",""
"html-keyboard-response","59","195875","0.0-8.0-0.51","617142c2a843eef6f8f148b6","650c16f0f2faf8d7a0d14c09","651c1ce0265b91536d98427e","null","null","<p style=""font-size: 60px; font-family: BACS"">UJkGcYUv</p>","","","","","","","","","",""
"html-keyboard-response","60","196893","0.0-8.0-0.52","617142c2a843eef6f8f148b6","650c16f0f2faf8d7a0d14c09","651c1ce0265b91536d98427e","null","null","<p style=""font-size: 60px; font-family: BACS"">lAOKMbAMO</p>","","","","","","","","","",""
"html-keyboard-response","61","197913","0.0-8.0-0.53","617142c2a843eef6f8f148b6","650c16f0f2faf8d7a0d14c09","651c1ce0265b91536d98427e","null","null","<p style=""font-size: 60px; font-family: BACS"">ckLALcYUv</p>","","","","","","","","","",""
"html-keyboard-response","62","198924","0.0-8.0-0.54","617142c2a843eef6f8f148b6","650c16f0f2faf8d7a0d14c09","651c1ce0265b91536d98427e","null","null","<p style=""font-size: 60px; font-family: BACS"">YUNkZOJNk</p>","","","","","","","","","",""
"html-keyboard-response","63","199942","0.0-8.0-0.55","617142c2a843eef6f8f148b6","650c16f0f2faf8d7a0d14c09","651c1ce0265b91536d98427e","null","null","<p style=""font-size: 60px; font-family: BACS"">JAdLmrULv</p>","","","","","","","","","",""
"html-keyboard-response","64","200956","0.0-8.0-0.56","617142c2a843eef6f8f148b6","650c16f0f2faf8d7a0d14c09","651c1ce0265b91536d98427e","null","null","<p style=""font-size: 60px; font-family: BACS"">TKDkAPEM</p>","","","","","","","","","",""
"html-keyboard-response","65","201978","0.0-8.0-0.57","617142c2a843eef6f8f148b6","650c16f0f2faf8d7a0d14c09","651c1ce0265b91536d98427e","null","null","<p style=""font-size: 60px; font-family: BACS"">TAdhMOBT</p>","","","","","","","","","",""
"html-keyboard-response","66","202982","0.0-8.0-0.58","617142c2a843eef6f8f148b6","650c16f0f2faf8d7a0d14c09","651c1ce0265b91536d98427e","null","null","<p style=""font-size: 60px; font-family: BACS"">ckLALrNlZ</p>","","","","","","","","","",""
"html-keyboard-response","67","204002","0.0-8.0-0.59","617142c2a843eef6f8f148b6","650c16f0f2faf8d7a0d14c09","651c1ce0265b91536d98427e","null","null","<p style=""font-size: 60px; font-family: BACS"">vkYGlcYUv</p>","","","","","","","","","",""
"html-keyboard-response","68","205011","0.0-8.0-0.60","617142c2a843eef6f8f148b6","650c16f0f2faf8d7a0d14c09","651c1ce0265b91536d98427e","null","null","<p style=""font-size: 60px; font-family: BACS"">JvaAuUY</p>","","","","","","","","","",""
"html-keyboard-response","69","206025","0.0-8.0-0.61","617142c2a843eef6f8f148b6","650c16f0f2faf8d7a0d14c09","651c1ce0265b91536d98427e","null","null","<p style=""font-size: 60px; font-family: BACS"">UdbdOJNk</p>","","","","","","","","","",""
"html-keyboard-response","70","207031","0.0-8.0-0.62","617142c2a843eef6f8f148b6","650c16f0f2faf8d7a0d14c09","651c1ce0265b91536d98427e","null","null","<p style=""font-size: 60px; font-family: BACS"">kKRCbAMO</p>","","","","","","","","","",""
"html-keyboard-response","71","208043","0.0-8.0-0.63","617142c2a843eef6f8f148b6","650c16f0f2faf8d7a0d14c09","651c1ce0265b91536d98427e","null","null","<p style=""font-size: 60px; font-family: BACS"">kulZrULv</p>","","","","","","","","","",""
"html-keyboard-response","72","209047","0.0-8.0-0.64","617142c2a843eef6f8f148b6","650c16f0f2faf8d7a0d14c09","651c1ce0265b91536d98427e","null","null","<p style=""font-size: 60px; font-family: BACS"">YUNkZrNlZ</p>","","","","","","","","","",""
"html-keyboard-response","73","210062","0.0-8.0-0.65","617142c2a843eef6f8f148b6","650c16f0f2faf8d7a0d14c09","651c1ce0265b91536d98427e","null","null","<p style=""font-size: 60px; font-family: BACS"">JAdLmuUY</p>","","","","","","","","","",""
"html-keyboard-response","74","211082","0.0-8.0-0.66","617142c2a843eef6f8f148b6","650c16f0f2faf8d7a0d14c09","651c1ce0265b91536d98427e","null","null","<p style=""font-size: 60px; font-family: BACS"">kulZcYUv</p>","","","","","","","","","",""
"html-keyboard-response","75","212099","0.0-8.0-0.67","617142c2a843eef6f8f148b6","650c16f0f2faf8d7a0d14c09","651c1ce0265b91536d98427e","null","null","<p style=""font-size: 60px; font-family: BACS"">kKRCAPEM</p>","","","","","","","","","",""
"html-keyboard-response","76","213115","0.0-8.0-0.68","617142c2a843eef6f8f148b6","650c16f0f2faf8d7a0d14c09","651c1ce0265b91536d98427e","null","null","<p style=""font-size: 60px; font-family: BACS"">UdbdrULv</p>","","","","","","","","","",""
"html-keyboard-response","77","214118","0.0-8.0-0.69","617142c2a843eef6f8f148b6","650c16f0f2faf8d7a0d14c09","651c1ce0265b91536d98427e","null","null","<p style=""font-size: 60px; font-family: BACS"">TKDkmAM</p>","","","","","","","","","",""
"html-keyboard-response","78","215137","0.0-8.0-0.70","617142c2a843eef6f8f148b6","650c16f0f2faf8d7a0d14c09","651c1ce0265b91536d98427e","null","null","<p style=""font-size: 60px; font-family: BACS"">kulZuUY</p>","","","","","","","","","",""
"html-keyboard-response","79","216152","0.0-8.0-0.71","617142c2a843eef6f8f148b6","650c16f0f2faf8d7a0d14c09","651c1ce0265b91536d98427e","null","null","<p style=""font-size: 60px; font-family: BACS"">hbkdBCD</p>","","","","","","","","","",""
"html-keyboard-response","80","217167","0.0-8.0-0.72","617142c2a843eef6f8f148b6","650c16f0f2faf8d7a0d14c09","651c1ce0265b91536d98427e","null","null","<p style=""font-size: 60px; font-family: BACS"">DhMtOBT</p>","","","","","","","","","",""
"html-keyboard-response","81","218202","0.0-8.0-0.73","617142c2a843eef6f8f148b6","650c16f0f2faf8d7a0d14c09","651c1ce0265b91536d98427e","null","null","<p style=""font-size: 60px; font-family: BACS"">GLluAOJNk</p>","","","","","","","","","",""
"html-keyboard-response","82","219220","0.0-8.0-0.74","617142c2a843eef6f8f148b6","650c16f0f2faf8d7a0d14c09","651c1ce0265b91536d98427e","null","null","<p style=""font-size: 60px; font-family: BACS"">TAdhMBCD</p>","","","","","","","","","",""
"html-keyboard-response","83","220237","0.0-8.0-0.75","617142c2a843eef6f8f148b6","650c16f0f2faf8d7a0d14c09","651c1ce0265b91536d98427e","null","null","<p style=""font-size: 60px; font-family: BACS"">OdYPmAM</p>","","","","","","","","","",""
"html-keyboard-response","84","221254","0.0-8.0-0.76","617142c2a843eef6f8f148b6","650c16f0f2faf8d7a0d14c09","651c1ce0265b91536d98427e","null","null","<p style=""font-size: 60px; font-family: BACS"">JAdLmrNlZ</p>","","","","","","","","","",""
"html-keyboard-response","85","222271","0.0-8.0-0.77","617142c2a843eef6f8f148b6","650c16f0f2faf8d7a0d14c09","651c1ce0265b91536d98427e","null","null","<p style=""font-size: 60px; font-family: BACS"">hbkdAPEM</p>","","","","","","","","","",""
"html-keyboard-response","86","223292","0.0-8.0-0.78","617142c2a843eef6f8f148b6","650c16f0f2faf8d7a0d14c09","651c1ce0265b91536d98427e","null","null","<p style=""font-size: 60px; font-family: BACS"">GLluArNlZ</p>","","","","","","","","","",""
"html-keyboard-response","87","224305","0.0-8.0-0.79","617142c2a843eef6f8f148b6","650c16f0f2faf8d7a0d14c09","651c1ce0265b91536d98427e","null","null","<p style=""font-size: 60px; font-family: BACS"">hbkdOBT</p>","","","","","","","","","",""
"html-keyboard-response","88","230543","0.0-9.0","617142c2a843eef6f8f148b6","650c16f0f2faf8d7a0d14c09","651c1ce0265b91536d98427e","6235"," ","<p>Great, you've seen the first block of words. You may now take a short break.</p>
      <p>Press the spacebar when you're ready to continue.</p>","","","","","","","","","",""
"html-keyboard-response","89","231563","0.0-10.0-0.0","617142c2a843eef6f8f148b6","650c16f0f2faf8d7a0d14c09","651c1ce0265b91536d98427e","null","null","<p style=""font-size: 60px; font-family: BACS"">dmZvmOJNk</p>","","","","","","","","","",""
"html-keyboard-response","90","232576","0.0-10.0-0.1","617142c2a843eef6f8f148b6","650c16f0f2faf8d7a0d14c09","651c1ce0265b91536d98427e","null","null","<p style=""font-size: 60px; font-family: BACS"">ckLALcYUv</p>","","","","","","","","","",""
"html-keyboard-response","91","233596","0.0-10.0-0.2","617142c2a843eef6f8f148b6","650c16f0f2faf8d7a0d14c09","651c1ce0265b91536d98427e","null","null","<p style=""font-size: 60px; font-family: BACS"">YUNkZrNlZ</p>","","","","","","","","","",""
"html-keyboard-response","92","234609","0.0-10.0-0.3","617142c2a843eef6f8f148b6","650c16f0f2faf8d7a0d14c09","651c1ce0265b91536d98427e","null","null","<p style=""font-size: 60px; font-family: BACS"">JAdLmcYUv</p>","","","","","","","","","",""
"html-keyboard-response","93","235628","0.0-10.0-0.4","617142c2a843eef6f8f148b6","650c16f0f2faf8d7a0d14c09","651c1ce0265b91536d98427e","null","null","<p style=""font-size: 60px; font-family: BACS"">TKDkBCD</p>","","","","","","","","","",""
"html-keyboard-response","94","236647","0.0-10.0-0.5","617142c2a843eef6f8f148b6","650c16f0f2faf8d7a0d14c09","651c1ce0265b91536d98427e","null","null","<p style=""font-size: 60px; font-family: BACS"">hbkdOBT</p>","","","","","","","","","",""
"html-keyboard-response","95","237663","0.0-10.0-0.6","617142c2a843eef6f8f148b6","650c16f0f2faf8d7a0d14c09","651c1ce0265b91536d98427e","null","null","<p style=""font-size: 60px; font-family: BACS"">TKDkbAMO</p>","","","","","","","","","",""
"html-keyboard-response","96","238678","0.0-10.0-0.7","617142c2a843eef6f8f148b6","650c16f0f2faf8d7a0d14c09","651c1ce0265b91536d98427e","null","null","<p style=""font-size: 60px; font-family: BACS"">GLluArNlZ</p>","","","","","","","","","",""
"html-keyboard-response","97","239695","0.0-10.0-0.8","617142c2a843eef6f8f148b6","650c16f0f2faf8d7a0d14c09","651c1ce0265b91536d98427e","null","null","<p style=""font-size: 60px; font-family: BACS"">TDKhbAMO</p>","","","","","","","","","",""
"html-keyboard-response","98","240717","0.0-10.0-0.9","617142c2a843eef6f8f148b6","650c16f0f2faf8d7a0d14c09","651c1ce0265b91536d98427e","null","null","<p style=""font-size: 60px; font-family: BACS"">hbkdmAM</p>","","","","","","","","","",""
"html-keyboard-response","99","241730","0.0-10.0-0.10","617142c2a843eef6f8f148b6","650c16f0f2faf8d7a0d14c09","651c1ce0265b91536d98427e","null","null","<p style=""font-size: 60px; font-family: BACS"">kKRCOBT</p>","","","","","","","","","",""
"html-keyboard-response","100","242748","0.0-10.0-0.11","617142c2a843eef6f8f148b6","650c16f0f2faf8d7a0d14c09","651c1ce0265b91536d98427e","null","null","<p style=""font-size: 60px; font-family: BACS"">kulZOJNk</p>","","","","","","","","","",""
"html-keyboard-response","101","243781","0.0-10.0-0.12","617142c2a843eef6f8f148b6","650c16f0f2faf8d7a0d14c09","651c1ce0265b91536d98427e","null","null","<p style=""font-size: 60px; font-family: BACS"">JvaAcYUv</p>","","","","","","","","","",""
"html-keyboard-response","102","244795","0.0-10.0-0.13","617142c2a843eef6f8f148b6","650c16f0f2faf8d7a0d14c09","651c1ce0265b91536d98427e","null","null","<p style=""font-size: 60px; font-family: BACS"">DhMtmAM</p>","","","","","","","","","",""
"html-keyboard-response","103","245801","0.0-10.0-0.14","617142c2a843eef6f8f148b6","650c16f0f2faf8d7a0d14c09","651c1ce0265b91536d98427e","null","null","<p style=""font-size: 60px; font-family: BACS"">lAOKMbAMO</p>","","","","","","","","","",""
"html-keyboard-response","104","246817","0.0-10.0-0.15","617142c2a843eef6f8f148b6","650c16f0f2faf8d7a0d14c09","651c1ce0265b91536d98427e","null","null","<p style=""font-size: 60px; font-family: BACS"">JAdLmrNlZ</p>","","","","","","","","","",""
"html-keyboard-response","105","247835","0.0-10.0-0.16","617142c2a843eef6f8f148b6","650c16f0f2faf8d7a0d14c09","651c1ce0265b91536d98427e","null","null","<p style=""font-size: 60px; font-family: BACS"">GLluAcYUv</p>","","","","","","","","","",""
"html-keyboard-response","106","248847","0.0-10.0-0.17","617142c2a843eef6f8f148b6","650c16f0f2faf8d7a0d14c09","651c1ce0265b91536d98427e","null","null","<p style=""font-size: 60px; font-family: BACS"">kulZuUY</p>","","","","","","","","","",""
"html-keyboard-response","107","249852","0.0-10.0-0.18","617142c2a843eef6f8f148b6","650c16f0f2faf8d7a0d14c09","651c1ce0265b91536d98427e","null","null","<p style=""font-size: 60px; font-family: BACS"">UJkGrNlZ</p>","","","","","","","","","",""
"html-keyboard-response","108","250869","0.0-10.0-0.19","617142c2a843eef6f8f148b6","650c16f0f2faf8d7a0d14c09","651c1ce0265b91536d98427e","null","null","<p style=""font-size: 60px; font-family: BACS"">lAOKMAPEM</p>","","","","","","","","","",""
"html-keyboard-response","109","251884","0.0-10.0-0.20","617142c2a843eef6f8f148b6","650c16f0f2faf8d7a0d14c09","651c1ce0265b91536d98427e","null","null","<p style=""font-size: 60px; font-family: BACS"">UdbdOJNk</p>","","","","","","","","","",""
"html-keyboard-response","110","252898","0.0-10.0-0.21","617142c2a843eef6f8f148b6","650c16f0f2faf8d7a0d14c09","651c1ce0265b91536d98427e","null","null","<p style=""font-size: 60px; font-family: BACS"">YUNkZuUY</p>","","","","","","","","","",""
"html-keyboard-response","111","253908","0.0-10.0-0.22","617142c2a843eef6f8f148b6","650c16f0f2faf8d7a0d14c09","651c1ce0265b91536d98427e","null","null","<p style=""font-size: 60px; font-family: BACS"">CkBOPAPEM</p>","","","","","","","","","",""
"html-keyboard-response","112","254918","0.0-10.0-0.23","617142c2a843eef6f8f148b6","650c16f0f2faf8d7a0d14c09","651c1ce0265b91536d98427e","null","null","<p style=""font-size: 60px; font-family: BACS"">ckLALOJNk</p>","","","","","","","","","",""
"html-keyboard-response","113","255935","0.0-10.0-0.24","617142c2a843eef6f8f148b6","650c16f0f2faf8d7a0d14c09","651c1ce0265b91536d98427e","null","null","<p style=""font-size: 60px; font-family: BACS"">hbkdAPEM</p>","","","","","","","","","",""
"html-keyboard-response","114","256950","0.0-10.0-0.25","617142c2a843eef6f8f148b6","650c16f0f2faf8d7a0d14c09","651c1ce0265b91536d98427e","null","null","<p style=""font-size: 60px; font-family: BACS"">JAdLmrULv</p>","","","","","","","","","",""
"html-keyboard-response","115","257971","0.0-10.0-0.26","617142c2a843eef6f8f148b6","650c16f0f2faf8d7a0d14c09","651c1ce0265b91536d98427e","null","null","<p style=""font-size: 60px; font-family: BACS"">UdbduUY</p>","","","","","","","","","",""
"html-keyboard-response","116","258991","0.0-10.0-0.27","617142c2a843eef6f8f148b6","650c16f0f2faf8d7a0d14c09","651c1ce0265b91536d98427e","null","null","<p style=""font-size: 60px; font-family: BACS"">kKRCmAM</p>","","","","","","","","","",""
"html-keyboard-response","117","260005","0.0-10.0-0.28","617142c2a843eef6f8f148b6","650c16f0f2faf8d7a0d14c09","651c1ce0265b91536d98427e","null","null","<p style=""font-size: 60px; font-family: BACS"">JvaArULv</p>","","","","","","","","","",""
"html-keyboard-response","118","261021","0.0-10.0-0.29","617142c2a843eef6f8f148b6","650c16f0f2faf8d7a0d14c09","651c1ce0265b91536d98427e","null","null","<p style=""font-size: 60px; font-family: BACS"">UdbdrNlZ</p>","","","","","","","","","",""
"html-keyboard-response","119","262024","0.0-10.0-0.30","617142c2a843eef6f8f148b6","650c16f0f2faf8d7a0d14c09","651c1ce0265b91536d98427e","null","null","<p style=""font-size: 60px; font-family: BACS"">CkBOPOBT</p>","","","","","","","","","",""
"html-keyboard-response","120","263041","0.0-10.0-0.31","617142c2a843eef6f8f148b6","650c16f0f2faf8d7a0d14c09","651c1ce0265b91536d98427e","null","null","<p style=""font-size: 60px; font-family: BACS"">OdYPbAMO</p>","","","","","","","","","",""
"html-keyboard-response","121","264059","0.0-10.0-0.32","617142c2a843eef6f8f148b6","650c16f0f2faf8d7a0d14c09","651c1ce0265b91536d98427e","null","null","<p style=""font-size: 60px; font-family: BACS"">kulZcYUv</p>","","","","","","","","","",""
"html-keyboard-response","122","265073","0.0-10.0-0.33","617142c2a843eef6f8f148b6","650c16f0f2faf8d7a0d14c09","651c1ce0265b91536d98427e","null","null","<p style=""font-size: 60px; font-family: BACS"">dmZvmrNlZ</p>","","","","","","","","","",""
"html-keyboard-response","123","266076","0.0-10.0-0.34","617142c2a843eef6f8f148b6","650c16f0f2faf8d7a0d14c09","651c1ce0265b91536d98427e","null","null","<p style=""font-size: 60px; font-family: BACS"">OdYPOBT</p>","","","","","","","","","",""
"html-keyboard-response","124","267091","0.0-10.0-0.35","617142c2a843eef6f8f148b6","650c16f0f2faf8d7a0d14c09","651c1ce0265b91536d98427e","null","null","<p style=""font-size: 60px; font-family: BACS"">vkYGlrNlZ</p>","","","","","","","","","",""
"html-keyboard-response","125","268110","0.0-10.0-0.36","617142c2a843eef6f8f148b6","650c16f0f2faf8d7a0d14c09","651c1ce0265b91536d98427e","null","null","<p style=""font-size: 60px; font-family: BACS"">OMlTOBT</p>","","","","","","","","","",""
"html-keyboard-response","126","269127","0.0-10.0-0.37","617142c2a843eef6f8f148b6","650c16f0f2faf8d7a0d14c09","651c1ce0265b91536d98427e","null","null","<p style=""font-size: 60px; font-family: BACS"">ckLALrULv</p>","","","","","","","","","",""
"html-keyboard-response","127","270132","0.0-10.0-0.38","617142c2a843eef6f8f148b6","650c16f0f2faf8d7a0d14c09","651c1ce0265b91536d98427e","null","null","<p style=""font-size: 60px; font-family: BACS"">CkBOPbAMO</p>","","","","","","","","","",""
"html-keyboard-response","128","271143","0.0-10.0-0.39","617142c2a843eef6f8f148b6","650c16f0f2faf8d7a0d14c09","651c1ce0265b91536d98427e","null","null","<p style=""font-size: 60px; font-family: BACS"">TKDkAPEM</p>","","","","","","","","","",""
"html-keyboard-response","129","272159","0.0-10.0-0.40","617142c2a843eef6f8f148b6","650c16f0f2faf8d7a0d14c09","651c1ce0265b91536d98427e","null","null","<p style=""font-size: 60px; font-family: BACS"">OdYPmAM</p>","","","","","","","","","",""
"html-keyboard-response","130","273180","0.0-10.0-0.41","617142c2a843eef6f8f148b6","650c16f0f2faf8d7a0d14c09","651c1ce0265b91536d98427e","null","null","<p style=""font-size: 60px; font-family: BACS"">UJkGOJNk</p>","","","","","","","","","",""
"html-keyboard-response","131","274196","0.0-10.0-0.42","617142c2a843eef6f8f148b6","650c16f0f2faf8d7a0d14c09","651c1ce0265b91536d98427e","null","null","<p style=""font-size: 60px; font-family: BACS"">TAdhMbAMO</p>","","","","","","","","","",""
"html-keyboard-response","132","275214","0.0-10.0-0.43","617142c2a843eef6f8f148b6","650c16f0f2faf8d7a0d14c09","651c1ce0265b91536d98427e","null","null","<p style=""font-size: 60px; font-family: BACS"">lAOKMBCD</p>","","","","","","","","","",""
"html-keyboard-response","133","276232","0.0-10.0-0.44","617142c2a843eef6f8f148b6","650c16f0f2faf8d7a0d14c09","651c1ce0265b91536d98427e","null","null","<p style=""font-size: 60px; font-family: BACS"">vkYGlrULv</p>","","","","","","","","","",""
"html-keyboard-response","134","277245","0.0-10.0-0.45","617142c2a843eef6f8f148b6","650c16f0f2faf8d7a0d14c09","651c1ce0265b91536d98427e","null","null","<p style=""font-size: 60px; font-family: BACS"">TAdhMBCD</p>","","","","","","","","","",""
"html-keyboard-response","135","278263","0.0-10.0-0.46","617142c2a843eef6f8f148b6","650c16f0f2faf8d7a0d14c09","651c1ce0265b91536d98427e","null","null","<p style=""font-size: 60px; font-family: BACS"">YUNkZrULv</p>","","","","","","","","","",""
"html-keyboard-response","136","279281","0.0-10.0-0.47","617142c2a843eef6f8f148b6","650c16f0f2faf8d7a0d14c09","651c1ce0265b91536d98427e","null","null","<p style=""font-size: 60px; font-family: BACS"">CkBOPmAM</p>","","","","","","","","","",""
"html-keyboard-response","137","280299","0.0-10.0-0.48","617142c2a843eef6f8f148b6","650c16f0f2faf8d7a0d14c09","651c1ce0265b91536d98427e","null","null","<p style=""font-size: 60px; font-family: BACS"">kKRCbAMO</p>","","","","","","","","","",""
"html-keyboard-response","138","281314","0.0-10.0-0.49","617142c2a843eef6f8f148b6","650c16f0f2faf8d7a0d14c09","651c1ce0265b91536d98427e","null","null","<p style=""font-size: 60px; font-family: BACS"">hbkdBCD</p>","","","","","","","","","",""
"html-keyboard-response","139","282333","0.0-10.0-0.50","617142c2a843eef6f8f148b6","650c16f0f2faf8d7a0d14c09","651c1ce0265b91536d98427e","null","null","<p style=""font-size: 60px; font-family: BACS"">UJkGrULv</p>","","","","","","","","","",""
"html-keyboard-response","140","283346","0.0-10.0-0.51","617142c2a843eef6f8f148b6","650c16f0f2faf8d7a0d14c09","651c1ce0265b91536d98427e","null","null","<p style=""font-size: 60px; font-family: BACS"">OdYPBCD</p>","","","","","","","","","",""
"html-keyboard-response","141","284366","0.0-10.0-0.52","617142c2a843eef6f8f148b6","650c16f0f2faf8d7a0d14c09","651c1ce0265b91536d98427e","null","null","<p style=""font-size: 60px; font-family: BACS"">UJkGcYUv</p>","","","","","","","","","",""
"html-keyboard-response","142","285380","0.0-10.0-0.53","617142c2a843eef6f8f148b6","650c16f0f2faf8d7a0d14c09","651c1ce0265b91536d98427e","null","null","<p style=""font-size: 60px; font-family: BACS"">UdbdrULv</p>","","","","","","","","","",""
"html-keyboard-response","143","286391","0.0-10.0-0.54","617142c2a843eef6f8f148b6","650c16f0f2faf8d7a0d14c09","651c1ce0265b91536d98427e","null","null","<p style=""font-size: 60px; font-family: BACS"">lAOKMOBT</p>","","","","","","","","","",""
"html-keyboard-response","144","287407","0.0-10.0-0.55","617142c2a843eef6f8f148b6","650c16f0f2faf8d7a0d14c09","651c1ce0265b91536d98427e","null","null","<p style=""font-size: 60px; font-family: BACS"">vkYGluUY</p>","","","","","","","","","",""
"html-keyboard-response","145","288419","0.0-10.0-0.56","617142c2a843eef6f8f148b6","650c16f0f2faf8d7a0d14c09","651c1ce0265b91536d98427e","null","null","<p style=""font-size: 60px; font-family: BACS"">TDKhmAM</p>","","","","","","","","","",""
"html-keyboard-response","146","289435","0.0-10.0-0.57","617142c2a843eef6f8f148b6","650c16f0f2faf8d7a0d14c09","651c1ce0265b91536d98427e","null","null","<p style=""font-size: 60px; font-family: BACS"">kKRCAPEM</p>","","","","","","","","","",""
"html-keyboard-response","147","290451","0.0-10.0-0.58","617142c2a843eef6f8f148b6","650c16f0f2faf8d7a0d14c09","651c1ce0265b91536d98427e","null","null","<p style=""font-size: 60px; font-family: BACS"">JvaAuUY</p>","","","","","","","","","",""
"html-keyboard-response","148","291470","0.0-10.0-0.59","617142c2a843eef6f8f148b6","650c16f0f2faf8d7a0d14c09","651c1ce0265b91536d98427e","null","null","<p style=""font-size: 60px; font-family: BACS"">GLluAOJNk</p>","","","","","","","","","",""
"html-keyboard-response","149","292490","0.0-10.0-0.60","617142c2a843eef6f8f148b6","650c16f0f2faf8d7a0d14c09","651c1ce0265b91536d98427e","null","null","<p style=""font-size: 60px; font-family: BACS"">JAdLmuUY</p>","","","","","","","","","",""
"html-keyboard-response","150","293505","0.0-10.0-0.61","617142c2a843eef6f8f148b6","650c16f0f2faf8d7a0d14c09","651c1ce0265b91536d98427e","null","null","<p style=""font-size: 60px; font-family: BACS"">TAdhMOBT</p>","","","","","","","","","",""
"html-keyboard-response","151","294523","0.0-10.0-0.62","617142c2a843eef6f8f148b6","650c16f0f2faf8d7a0d14c09","651c1ce0265b91536d98427e","null","null","<p style=""font-size: 60px; font-family: BACS"">ckLALrNlZ</p>","","","","","","","","","",""
"html-keyboard-response","152","295541","0.0-10.0-0.63","617142c2a843eef6f8f148b6","650c16f0f2faf8d7a0d14c09","651c1ce0265b91536d98427e","null","null","<p style=""font-size: 60px; font-family: BACS"">kulZrULv</p>","","","","","","","","","",""
"html-keyboard-response","153","296560","0.0-10.0-0.64","617142c2a843eef6f8f148b6","650c16f0f2faf8d7a0d14c09","651c1ce0265b91536d98427e","null","null","<p style=""font-size: 60px; font-family: BACS"">vkYGlcYUv</p>","","","","","","","","","",""
"html-keyboard-response","154","297574","0.0-10.0-0.65","617142c2a843eef6f8f148b6","650c16f0f2faf8d7a0d14c09","651c1ce0265b91536d98427e","null","null","<p style=""font-size: 60px; font-family: BACS"">OMlTBCD</p>","","","","","","","","","",""
"html-keyboard-response","155","298591","0.0-10.0-0.66","617142c2a843eef6f8f148b6","650c16f0f2faf8d7a0d14c09","651c1ce0265b91536d98427e","null","null","<p style=""font-size: 60px; font-family: BACS"">DhMtOBT</p>","","","","","","","","","",""
"html-keyboard-response","156","299608","0.0-10.0-0.67","617142c2a843eef6f8f148b6","650c16f0f2faf8d7a0d14c09","651c1ce0265b91536d98427e","null","null","<p style=""font-size: 60px; font-family: BACS"">JvaAOJNk</p>","","","","","","","","","",""
"html-keyboard-response","157","300626","0.0-10.0-0.68","617142c2a843eef6f8f148b6","650c16f0f2faf8d7a0d14c09","651c1ce0265b91536d98427e","null","null","<p style=""font-size: 60px; font-family: BACS"">GLluAuUY</p>","","","","","","","","","",""
"html-keyboard-response","158","301643","0.0-10.0-0.69","617142c2a843eef6f8f148b6","650c16f0f2faf8d7a0d14c09","651c1ce0265b91536d98427e","null","null","<p style=""font-size: 60px; font-family: BACS"">DhMtAPEM</p>","","","","","","","","","",""
"html-keyboard-response","159","302658","0.0-10.0-0.70","617142c2a843eef6f8f148b6","650c16f0f2faf8d7a0d14c09","651c1ce0265b91536d98427e","null","null","<p style=""font-size: 60px; font-family: BACS"">dmZvmcYUv</p>","","","","","","","","","",""
"html-keyboard-response","160","303681","0.0-10.0-0.71","617142c2a843eef6f8f148b6","650c16f0f2faf8d7a0d14c09","651c1ce0265b91536d98427e","null","null","<p style=""font-size: 60px; font-family: BACS"">TDKhAPEM</p>","","","","","","","","","",""
"html-keyboard-response","161","304695","0.0-10.0-0.72","617142c2a843eef6f8f148b6","650c16f0f2faf8d7a0d14c09","651c1ce0265b91536d98427e","null","null","<p style=""font-size: 60px; font-family: BACS"">TAdhMmAM</p>","","","","","","","","","",""
"html-keyboard-response","162","305710","0.0-10.0-0.73","617142c2a843eef6f8f148b6","650c16f0f2faf8d7a0d14c09","651c1ce0265b91536d98427e","null","null","<p style=""font-size: 60px; font-family: BACS"">OMlTbAMO</p>","","","","","","","","","",""
"html-keyboard-response","163","306729","0.0-10.0-0.74","617142c2a843eef6f8f148b6","650c16f0f2faf8d7a0d14c09","651c1ce0265b91536d98427e","null","null","<p style=""font-size: 60px; font-family: BACS"">DhMtBCD</p>","","","","","","","","","",""
"html-keyboard-response","164","307746","0.0-10.0-0.75","617142c2a843eef6f8f148b6","650c16f0f2faf8d7a0d14c09","651c1ce0265b91536d98427e","null","null","<p style=""font-size: 60px; font-family: BACS"">TKDkmAM</p>","","","","","","","","","",""
"html-keyboard-response","165","308765","0.0-10.0-0.76","617142c2a843eef6f8f148b6","650c16f0f2faf8d7a0d14c09","651c1ce0265b91536d98427e","null","null","<p style=""font-size: 60px; font-family: BACS"">YUNkZOJNk</p>","","","","","","","","","",""
"html-keyboard-response","166","309778","0.0-10.0-0.77","617142c2a843eef6f8f148b6","650c16f0f2faf8d7a0d14c09","651c1ce0265b91536d98427e","null","null","<p style=""font-size: 60px; font-family: BACS"">TDKhBCD</p>","","","","","","","","","",""
"html-keyboard-response","167","310783","0.0-10.0-0.78","617142c2a843eef6f8f148b6","650c16f0f2faf8d7a0d14c09","651c1ce0265b91536d98427e","null","null","<p style=""font-size: 60px; font-family: BACS"">OMlTAPEM</p>","","","","","","","","","",""
"html-keyboard-response","168","311798","0.0-10.0-0.79","617142c2a843eef6f8f148b6","650c16f0f2faf8d7a0d14c09","651c1ce0265b91536d98427e","null","null","<p style=""font-size: 60px; font-family: BACS"">dmZvmuUY</p>","","","","","","","","","",""
"html-keyboard-response","169","316688","0.0-11.0","617142c2a843eef6f8f148b6","650c16f0f2faf8d7a0d14c09","651c1ce0265b91536d98427e","4887"," ","<p>Great, you've seen the second block of words. You may now take a short break.</p>
      <p>Press the spacebar when you're ready to continue.</p>","","","","","","","","","",""
"html-keyboard-response","170","317702","0.0-12.0-0.0","617142c2a843eef6f8f148b6","650c16f0f2faf8d7a0d14c09","651c1ce0265b91536d98427e","null","null","<p style=""font-size: 60px; font-family: BACS"">OMlTBCD</p>","","","","","","","","","",""
"html-keyboard-response","171","318715","0.0-12.0-0.1","617142c2a843eef6f8f148b6","650c16f0f2faf8d7a0d14c09","651c1ce0265b91536d98427e","null","null","<p style=""font-size: 60px; font-family: BACS"">ckLALrULv</p>","","","","","","","","","",""
"html-keyboard-response","172","319719","0.0-12.0-0.2","617142c2a843eef6f8f148b6","650c16f0f2faf8d7a0d14c09","651c1ce0265b91536d98427e","null","null","<p style=""font-size: 60px; font-family: BACS"">JvaAcYUv</p>","","","","","","","","","",""
"html-keyboard-response","173","320738","0.0-12.0-0.3","617142c2a843eef6f8f148b6","650c16f0f2faf8d7a0d14c09","651c1ce0265b91536d98427e","null","null","<p style=""font-size: 60px; font-family: BACS"">dmZvmrNlZ</p>","","","","","","","","","",""
"html-keyboard-response","174","321751","0.0-12.0-0.4","617142c2a843eef6f8f148b6","650c16f0f2faf8d7a0d14c09","651c1ce0265b91536d98427e","null","null","<p style=""font-size: 60px; font-family: BACS"">CkBOPbAMO</p>","","","","","","","","","",""
"html-keyboard-response","175","322769","0.0-12.0-0.5","617142c2a843eef6f8f148b6","650c16f0f2faf8d7a0d14c09","651c1ce0265b91536d98427e","null","null","<p style=""font-size: 60px; font-family: BACS"">OdYPBCD</p>","","","","","","","","","",""
"html-keyboard-response","176","323787","0.0-12.0-0.6","617142c2a843eef6f8f148b6","650c16f0f2faf8d7a0d14c09","651c1ce0265b91536d98427e","null","null","<p style=""font-size: 60px; font-family: BACS"">UJkGrNlZ</p>","","","","","","","","","",""
"html-keyboard-response","177","324807","0.0-12.0-0.7","617142c2a843eef6f8f148b6","650c16f0f2faf8d7a0d14c09","651c1ce0265b91536d98427e","null","null","<p style=""font-size: 60px; font-family: BACS"">TKDkBCD</p>","","","","","","","","","",""
"html-keyboard-response","178","325822","0.0-12.0-0.8","617142c2a843eef6f8f148b6","650c16f0f2faf8d7a0d14c09","651c1ce0265b91536d98427e","null","null","<p style=""font-size: 60px; font-family: BACS"">lAOKMAPEM</p>","","","","","","","","","",""
"html-keyboard-response","179","326839","0.0-12.0-0.9","617142c2a843eef6f8f148b6","650c16f0f2faf8d7a0d14c09","651c1ce0265b91536d98427e","null","null","<p style=""font-size: 60px; font-family: BACS"">kulZuUY</p>","","","","","","","","","",""
"html-keyboard-response","180","327855","0.0-12.0-0.10","617142c2a843eef6f8f148b6","650c16f0f2faf8d7a0d14c09","651c1ce0265b91536d98427e","null","null","<p style=""font-size: 60px; font-family: BACS"">hbkdOBT</p>","","","","","","","","","",""
"html-keyboard-response","181","328873","0.0-12.0-0.11","617142c2a843eef6f8f148b6","650c16f0f2faf8d7a0d14c09","651c1ce0265b91536d98427e","null","null","<p style=""font-size: 60px; font-family: BACS"">kulZOJNk</p>","","","","","","","","","",""
"html-keyboard-response","182","329889","0.0-12.0-0.12","617142c2a843eef6f8f148b6","650c16f0f2faf8d7a0d14c09","651c1ce0265b91536d98427e","null","null","<p style=""font-size: 60px; font-family: BACS"">hbkdmAM</p>","","","","","","","","","",""
"html-keyboard-response","183","330907","0.0-12.0-0.13","617142c2a843eef6f8f148b6","650c16f0f2faf8d7a0d14c09","651c1ce0265b91536d98427e","null","null","<p style=""font-size: 60px; font-family: BACS"">ckLALrNlZ</p>","","","","","","","","","",""
"html-keyboard-response","184","331922","0.0-12.0-0.14","617142c2a843eef6f8f148b6","650c16f0f2faf8d7a0d14c09","651c1ce0265b91536d98427e","null","null","<p style=""font-size: 60px; font-family: BACS"">UdbduUY</p>","","","","","","","","","",""
"html-keyboard-response","185","332937","0.0-12.0-0.15","617142c2a843eef6f8f148b6","650c16f0f2faf8d7a0d14c09","651c1ce0265b91536d98427e","null","null","<p style=""font-size: 60px; font-family: BACS"">CkBOPOBT</p>","","","","","","","","","",""
"html-keyboard-response","186","333956","0.0-12.0-0.16","617142c2a843eef6f8f148b6","650c16f0f2faf8d7a0d14c09","651c1ce0265b91536d98427e","null","null","<p style=""font-size: 60px; font-family: BACS"">DhMtBCD</p>","","","","","","","","","",""
"html-keyboard-response","187","334975","0.0-12.0-0.17","617142c2a843eef6f8f148b6","650c16f0f2faf8d7a0d14c09","651c1ce0265b91536d98427e","null","null","<p style=""font-size: 60px; font-family: BACS"">TAdhMOBT</p>","","","","","","","","","",""
"html-keyboard-response","188","335992","0.0-12.0-0.18","617142c2a843eef6f8f148b6","650c16f0f2faf8d7a0d14c09","651c1ce0265b91536d98427e","null","null","<p style=""font-size: 60px; font-family: BACS"">TKDkbAMO</p>","","","","","","","","","",""
"html-keyboard-response","189","337010","0.0-12.0-0.19","617142c2a843eef6f8f148b6","650c16f0f2faf8d7a0d14c09","651c1ce0265b91536d98427e","null","null","<p style=""font-size: 60px; font-family: BACS"">UJkGrULv</p>","","","","","","","","","",""
"html-keyboard-response","190","338026","0.0-12.0-0.20","617142c2a843eef6f8f148b6","650c16f0f2faf8d7a0d14c09","651c1ce0265b91536d98427e","null","null","<p style=""font-size: 60px; font-family: BACS"">JAdLmrNlZ</p>","","","","","","","","","",""
"html-keyboard-response","191","339044","0.0-12.0-0.21","617142c2a843eef6f8f148b6","650c16f0f2faf8d7a0d14c09","651c1ce0265b91536d98427e","null","null","<p style=""font-size: 60px; font-family: BACS"">lAOKMBCD</p>","","","","","","","","","",""
"html-keyboard-response","192","340061","0.0-12.0-0.22","617142c2a843eef6f8f148b6","650c16f0f2faf8d7a0d14c09","651c1ce0265b91536d98427e","null","null","<p style=""font-size: 60px; font-family: BACS"">GLluArNlZ</p>","","","","","","","","","",""
"html-keyboard-response","193","341079","0.0-12.0-0.23","617142c2a843eef6f8f148b6","650c16f0f2faf8d7a0d14c09","651c1ce0265b91536d98427e","null","null","<p style=""font-size: 60px; font-family: BACS"">TAdhMmAM</p>","","","","","","","","","",""
"html-keyboard-response","194","342096","0.0-12.0-0.24","617142c2a843eef6f8f148b6","650c16f0f2faf8d7a0d14c09","651c1ce0265b91536d98427e","null","null","<p style=""font-size: 60px; font-family: BACS"">UJkGOJNk</p>","","","","","","","","","",""
"html-keyboard-response","195","343113","0.0-12.0-0.25","617142c2a843eef6f8f148b6","650c16f0f2faf8d7a0d14c09","651c1ce0265b91536d98427e","null","null","<p style=""font-size: 60px; font-family: BACS"">TDKhAPEM</p>","","","","","","","","","",""
"html-keyboard-response","196","344128","0.0-12.0-0.26","617142c2a843eef6f8f148b6","650c16f0f2faf8d7a0d14c09","651c1ce0265b91536d98427e","null","null","<p style=""font-size: 60px; font-family: BACS"">ckLALOJNk</p>","","","","","","","","","",""
"html-keyboard-response","197","345148","0.0-12.0-0.27","617142c2a843eef6f8f148b6","650c16f0f2faf8d7a0d14c09","651c1ce0265b91536d98427e","null","null","<p style=""font-size: 60px; font-family: BACS"">JAdLmcYUv</p>","","","","","","","","","",""
"html-keyboard-response","198","346163","0.0-12.0-0.28","617142c2a843eef6f8f148b6","650c16f0f2faf8d7a0d14c09","651c1ce0265b91536d98427e","null","null","<p style=""font-size: 60px; font-family: BACS"">vkYGluUY</p>","","","","","","","","","",""
"html-keyboard-response","199","347182","0.0-12.0-0.29","617142c2a843eef6f8f148b6","650c16f0f2faf8d7a0d14c09","651c1ce0265b91536d98427e","null","null","<p style=""font-size: 60px; font-family: BACS"">GLluAOJNk</p>","","","","","","","","","",""
"html-keyboard-response","200","348199","0.0-12.0-0.30","617142c2a843eef6f8f148b6","650c16f0f2faf8d7a0d14c09","651c1ce0265b91536d98427e","null","null","<p style=""font-size: 60px; font-family: BACS"">OdYPmAM</p>","","","","","","","","","",""
"html-keyboard-response","201","349217","0.0-12.0-0.31","617142c2a843eef6f8f148b6","650c16f0f2faf8d7a0d14c09","651c1ce0265b91536d98427e","null","null","<p style=""font-size: 60px; font-family: BACS"">YUNkZrNlZ</p>","","","","","","","","","",""
"html-keyboard-response","202","350228","0.0-12.0-0.32","617142c2a843eef6f8f148b6","650c16f0f2faf8d7a0d14c09","651c1ce0265b91536d98427e","null","null","<p style=""font-size: 60px; font-family: BACS"">vkYGlrULv</p>","","","","","","","","","",""
"html-keyboard-response","203","351248","0.0-12.0-0.33","617142c2a843eef6f8f148b6","650c16f0f2faf8d7a0d14c09","651c1ce0265b91536d98427e","null","null","<p style=""font-size: 60px; font-family: BACS"">kKRCbAMO</p>","","","","","","","","","",""
"html-keyboard-response","204","352267","0.0-12.0-0.34","617142c2a843eef6f8f148b6","650c16f0f2faf8d7a0d14c09","651c1ce0265b91536d98427e","null","null","<p style=""font-size: 60px; font-family: BACS"">UdbdrNlZ</p>","","","","","","","","","",""
"html-keyboard-response","205","353284","0.0-12.0-0.35","617142c2a843eef6f8f148b6","650c16f0f2faf8d7a0d14c09","651c1ce0265b91536d98427e","null","null","<p style=""font-size: 60px; font-family: BACS"">dmZvmuUY</p>","","","","","","","","","",""
"html-keyboard-response","206","354305","0.0-12.0-0.36","617142c2a843eef6f8f148b6","650c16f0f2faf8d7a0d14c09","651c1ce0265b91536d98427e","null","null","<p style=""font-size: 60px; font-family: BACS"">JvaAOJNk</p>","","","","","","","","","",""
"html-keyboard-response","207","355318","0.0-12.0-0.37","617142c2a843eef6f8f148b6","650c16f0f2faf8d7a0d14c09","651c1ce0265b91536d98427e","null","null","<p style=""font-size: 60px; font-family: BACS"">kulZrULv</p>","","","","","","","","","",""
"html-keyboard-response","208","356339","0.0-12.0-0.38","617142c2a843eef6f8f148b6","650c16f0f2faf8d7a0d14c09","651c1ce0265b91536d98427e","null","null","<p style=""font-size: 60px; font-family: BACS"">dmZvmcYUv</p>","","","","","","","","","",""
"html-keyboard-response","209","357353","0.0-12.0-0.39","617142c2a843eef6f8f148b6","650c16f0f2faf8d7a0d14c09","651c1ce0265b91536d98427e","null","null","<p style=""font-size: 60px; font-family: BACS"">lAOKMbAMO</p>","","","","","","","","","",""
"html-keyboard-response","210","358370","0.0-12.0-0.40","617142c2a843eef6f8f148b6","650c16f0f2faf8d7a0d14c09","651c1ce0265b91536d98427e","null","null","<p style=""font-size: 60px; font-family: BACS"">JAdLmrULv</p>","","","","","","","","","",""
"html-keyboard-response","211","359389","0.0-12.0-0.41","617142c2a843eef6f8f148b6","650c16f0f2faf8d7a0d14c09","651c1ce0265b91536d98427e","null","null","<p style=""font-size: 60px; font-family: BACS"">OdYPbAMO</p>","","","","","","","","","",""
"html-keyboard-response","212","360402","0.0-12.0-0.42","617142c2a843eef6f8f148b6","650c16f0f2faf8d7a0d14c09","651c1ce0265b91536d98427e","null","null","<p style=""font-size: 60px; font-family: BACS"">CkBOPAPEM</p>","","","","","","","","","",""
"html-keyboard-response","213","361421","0.0-12.0-0.43","617142c2a843eef6f8f148b6","650c16f0f2faf8d7a0d14c09","651c1ce0265b91536d98427e","null","null","<p style=""font-size: 60px; font-family: BACS"">OMlTOBT</p>","","","","","","","","","",""
"html-keyboard-response","214","362436","0.0-12.0-0.44","617142c2a843eef6f8f148b6","650c16f0f2faf8d7a0d14c09","651c1ce0265b91536d98427e","null","null","<p style=""font-size: 60px; font-family: BACS"">CkBOPmAM</p>","","","","","","","","","",""
"html-keyboard-response","215","363457","0.0-12.0-0.45","617142c2a843eef6f8f148b6","650c16f0f2faf8d7a0d14c09","651c1ce0265b91536d98427e","null","null","<p style=""font-size: 60px; font-family: BACS"">hbkdBCD</p>","","","","","","","","","",""
"html-keyboard-response","216","364472","0.0-12.0-0.46","617142c2a843eef6f8f148b6","650c16f0f2faf8d7a0d14c09","651c1ce0265b91536d98427e","null","null","<p style=""font-size: 60px; font-family: BACS"">kKRCmAM</p>","","","","","","","","","",""
"html-keyboard-response","217","365489","0.0-12.0-0.47","617142c2a843eef6f8f148b6","650c16f0f2faf8d7a0d14c09","651c1ce0265b91536d98427e","null","null","<p style=""font-size: 60px; font-family: BACS"">dmZvmOJNk</p>","","","","","","","","","",""
"html-keyboard-response","218","366505","0.0-12.0-0.48","617142c2a843eef6f8f148b6","650c16f0f2faf8d7a0d14c09","651c1ce0265b91536d98427e","null","null","<p style=""font-size: 60px; font-family: BACS"">kKRCAPEM</p>","","","","","","","","","",""
"html-keyboard-response","219","367525","0.0-12.0-0.49","617142c2a843eef6f8f148b6","650c16f0f2faf8d7a0d14c09","651c1ce0265b91536d98427e","null","null","<p style=""font-size: 60px; font-family: BACS"">TKDkmAM</p>","","","","","","","","","",""
"html-keyboard-response","220","368539","0.0-12.0-0.50","617142c2a843eef6f8f148b6","650c16f0f2faf8d7a0d14c09","651c1ce0265b91536d98427e","null","null","<p style=""font-size: 60px; font-family: BACS"">YUNkZrULv</p>","","","","","","","","","",""
"html-keyboard-response","221","369558","0.0-12.0-0.51","617142c2a843eef6f8f148b6","650c16f0f2faf8d7a0d14c09","651c1ce0265b91536d98427e","null","null","<p style=""font-size: 60px; font-family: BACS"">ckLALcYUv</p>","","","","","","","","","",""
"html-keyboard-response","222","370575","0.0-12.0-0.52","617142c2a843eef6f8f148b6","650c16f0f2faf8d7a0d14c09","651c1ce0265b91536d98427e","null","null","<p style=""font-size: 60px; font-family: BACS"">UdbdrULv</p>","","","","","","","","","",""
"html-keyboard-response","223","371589","0.0-12.0-0.53","617142c2a843eef6f8f148b6","650c16f0f2faf8d7a0d14c09","651c1ce0265b91536d98427e","null","null","<p style=""font-size: 60px; font-family: BACS"">GLluAuUY</p>","","","","","","","","","",""
"html-keyboard-response","224","372594","0.0-12.0-0.54","617142c2a843eef6f8f148b6","650c16f0f2faf8d7a0d14c09","651c1ce0265b91536d98427e","null","null","<p style=""font-size: 60px; font-family: BACS"">OdYPOBT</p>","","","","","","","","","",""
"html-keyboard-response","225","373613","0.0-12.0-0.55","617142c2a843eef6f8f148b6","650c16f0f2faf8d7a0d14c09","651c1ce0265b91536d98427e","null","null","<p style=""font-size: 60px; font-family: BACS"">kulZcYUv</p>","","","","","","","","","",""
"html-keyboard-response","226","374628","0.0-12.0-0.56","617142c2a843eef6f8f148b6","650c16f0f2faf8d7a0d14c09","651c1ce0265b91536d98427e","null","null","<p style=""font-size: 60px; font-family: BACS"">TDKhbAMO</p>","","","","","","","","","",""
"html-keyboard-response","227","375649","0.0-12.0-0.57","617142c2a843eef6f8f148b6","650c16f0f2faf8d7a0d14c09","651c1ce0265b91536d98427e","null","null","<p style=""font-size: 60px; font-family: BACS"">GLluAcYUv</p>","","","","","","","","","",""
"html-keyboard-response","228","376663","0.0-12.0-0.58","617142c2a843eef6f8f148b6","650c16f0f2faf8d7a0d14c09","651c1ce0265b91536d98427e","null","null","<p style=""font-size: 60px; font-family: BACS"">YUNkZOJNk</p>","","","","","","","","","",""
"html-keyboard-response","229","377678","0.0-12.0-0.59","617142c2a843eef6f8f148b6","650c16f0f2faf8d7a0d14c09","651c1ce0265b91536d98427e","null","null","<p style=""font-size: 60px; font-family: BACS"">kKRCOBT</p>","","","","","","","","","",""
"html-keyboard-response","230","378697","0.0-12.0-0.60","617142c2a843eef6f8f148b6","650c16f0f2faf8d7a0d14c09","651c1ce0265b91536d98427e","null","null","<p style=""font-size: 60px; font-family: BACS"">TDKhBCD</p>","","","","","","","","","",""
"html-keyboard-response","231","379715","0.0-12.0-0.61","617142c2a843eef6f8f148b6","650c16f0f2faf8d7a0d14c09","651c1ce0265b91536d98427e","null","null","<p style=""font-size: 60px; font-family: BACS"">hbkdAPEM</p>","","","","","","","","","",""
"html-keyboard-response","232","380727","0.0-12.0-0.62","617142c2a843eef6f8f148b6","650c16f0f2faf8d7a0d14c09","651c1ce0265b91536d98427e","null","null","<p style=""font-size: 60px; font-family: BACS"">vkYGlrNlZ</p>","","","","","","","","","",""
"html-keyboard-response","233","381731","0.0-12.0-0.63","617142c2a843eef6f8f148b6","650c16f0f2faf8d7a0d14c09","651c1ce0265b91536d98427e","null","null","<p style=""font-size: 60px; font-family: BACS"">TAdhMbAMO</p>","","","","","","","","","",""
"html-keyboard-response","234","382750","0.0-12.0-0.64","617142c2a843eef6f8f148b6","650c16f0f2faf8d7a0d14c09","651c1ce0265b91536d98427e","null","null","<p style=""font-size: 60px; font-family: BACS"">vkYGlcYUv</p>","","","","","","","","","",""
"html-keyboard-response","235","383764","0.0-12.0-0.65","617142c2a843eef6f8f148b6","650c16f0f2faf8d7a0d14c09","651c1ce0265b91536d98427e","null","null","<p style=""font-size: 60px; font-family: BACS"">JvaArULv</p>","","","","","","","","","",""
"html-keyboard-response","236","384792","0.0-12.0-0.66","617142c2a843eef6f8f148b6","650c16f0f2faf8d7a0d14c09","651c1ce0265b91536d98427e","null","null","<p style=""font-size: 60px; font-family: BACS"">UdbdOJNk</p>","","","","","","","","","",""
"html-keyboard-response","237","385816","0.0-12.0-0.67","617142c2a843eef6f8f148b6","650c16f0f2faf8d7a0d14c09","651c1ce0265b91536d98427e","null","null","<p style=""font-size: 60px; font-family: BACS"">DhMtmAM</p>","","","","","","","","","",""
"html-keyboard-response","238","386832","0.0-12.0-0.68","617142c2a843eef6f8f148b6","650c16f0f2faf8d7a0d14c09","651c1ce0265b91536d98427e","null","null","<p style=""font-size: 60px; font-family: BACS"">JAdLmuUY</p>","","","","","","","","","",""
"html-keyboard-response","239","387851","0.0-12.0-0.69","617142c2a843eef6f8f148b6","650c16f0f2faf8d7a0d14c09","651c1ce0265b91536d98427e","null","null","<p style=""font-size: 60px; font-family: BACS"">OMlTbAMO</p>","","","","","","","","","",""
"html-keyboard-response","240","388870","0.0-12.0-0.70","617142c2a843eef6f8f148b6","650c16f0f2faf8d7a0d14c09","651c1ce0265b91536d98427e","null","null","<p style=""font-size: 60px; font-family: BACS"">TAdhMBCD</p>","","","","","","","","","",""
"html-keyboard-response","241","389889","0.0-12.0-0.71","617142c2a843eef6f8f148b6","650c16f0f2faf8d7a0d14c09","651c1ce0265b91536d98427e","null","null","<p style=""font-size: 60px; font-family: BACS"">DhMtAPEM</p>","","","","","","","","","",""
"html-keyboard-response","242","390902","0.0-12.0-0.72","617142c2a843eef6f8f148b6","650c16f0f2faf8d7a0d14c09","651c1ce0265b91536d98427e","null","null","<p style=""font-size: 60px; font-family: BACS"">TDKhmAM</p>","","","","","","","","","",""
"html-keyboard-response","243","391918","0.0-12.0-0.73","617142c2a843eef6f8f148b6","650c16f0f2faf8d7a0d14c09","651c1ce0265b91536d98427e","null","null","<p style=""font-size: 60px; font-family: BACS"">OMlTAPEM</p>","","","","","","","","","",""
"html-keyboard-response","244","392932","0.0-12.0-0.74","617142c2a843eef6f8f148b6","650c16f0f2faf8d7a0d14c09","651c1ce0265b91536d98427e","null","null","<p style=""font-size: 60px; font-family: BACS"">JvaAuUY</p>","","","","","","","","","",""
"html-keyboard-response","245","393937","0.0-12.0-0.75","617142c2a843eef6f8f148b6","650c16f0f2faf8d7a0d14c09","651c1ce0265b91536d98427e","null","null","<p style=""font-size: 60px; font-family: BACS"">UJkGcYUv</p>","","","","","","","","","",""
"html-keyboard-response","246","394957","0.0-12.0-0.76","617142c2a843eef6f8f148b6","650c16f0f2faf8d7a0d14c09","651c1ce0265b91536d98427e","null","null","<p style=""font-size: 60px; font-family: BACS"">YUNkZuUY</p>","","","","","","","","","",""
"html-keyboard-response","247","395969","0.0-12.0-0.77","617142c2a843eef6f8f148b6","650c16f0f2faf8d7a0d14c09","651c1ce0265b91536d98427e","null","null","<p style=""font-size: 60px; font-family: BACS"">DhMtOBT</p>","","","","","","","","","",""
"html-keyboard-response","248","396975","0.0-12.0-0.78","617142c2a843eef6f8f148b6","650c16f0f2faf8d7a0d14c09","651c1ce0265b91536d98427e","null","null","<p style=""font-size: 60px; font-family: BACS"">TKDkAPEM</p>","","","","","","","","","",""
"html-keyboard-response","249","397991","0.0-12.0-0.79","617142c2a843eef6f8f148b6","650c16f0f2faf8d7a0d14c09","651c1ce0265b91536d98427e","null","null","<p style=""font-size: 60px; font-family: BACS"">lAOKMOBT</p>","","","","","","","","","",""
"html-keyboard-response","250","403994","0.0-13.0","617142c2a843eef6f8f148b6","650c16f0f2faf8d7a0d14c09","651c1ce0265b91536d98427e","6000"," ","<p>Great, you've seen the third block of words. You may now take a short break.</p>
      <p>Press the spacebar when you're ready to continue.</p>","","","","","","","","","",""
"html-keyboard-response","251","405009","0.0-14.0-0.0","617142c2a843eef6f8f148b6","650c16f0f2faf8d7a0d14c09","651c1ce0265b91536d98427e","null","null","<p style=""font-size: 60px; font-family: BACS"">UJkGrULv</p>","","","","","","","","","",""
"html-keyboard-response","252","406027","0.0-14.0-0.1","617142c2a843eef6f8f148b6","650c16f0f2faf8d7a0d14c09","651c1ce0265b91536d98427e","null","null","<p style=""font-size: 60px; font-family: BACS"">dmZvmcYUv</p>","","","","","","","","","",""
"html-keyboard-response","253","407046","0.0-14.0-0.2","617142c2a843eef6f8f148b6","650c16f0f2faf8d7a0d14c09","651c1ce0265b91536d98427e","null","null","<p style=""font-size: 60px; font-family: BACS"">UdbdOJNk</p>","","","","","","","","","",""
"html-keyboard-response","254","408062","0.0-14.0-0.3","617142c2a843eef6f8f148b6","650c16f0f2faf8d7a0d14c09","651c1ce0265b91536d98427e","null","null","<p style=""font-size: 60px; font-family: BACS"">DhMtAPEM</p>","","","","","","","","","",""
"html-keyboard-response","255","409078","0.0-14.0-0.4","617142c2a843eef6f8f148b6","650c16f0f2faf8d7a0d14c09","651c1ce0265b91536d98427e","null","null","<p style=""font-size: 60px; font-family: BACS"">CkBOPbAMO</p>","","","","","","","","","",""
"html-keyboard-response","256","410097","0.0-14.0-0.5","617142c2a843eef6f8f148b6","650c16f0f2faf8d7a0d14c09","651c1ce0265b91536d98427e","null","null","<p style=""font-size: 60px; font-family: BACS"">dmZvmrNlZ</p>","","","","","","","","","",""
"html-keyboard-response","257","411113","0.0-14.0-0.6","617142c2a843eef6f8f148b6","650c16f0f2faf8d7a0d14c09","651c1ce0265b91536d98427e","null","null","<p style=""font-size: 60px; font-family: BACS"">OMlTOBT</p>","","","","","","","","","",""
"html-keyboard-response","258","412127","0.0-14.0-0.7","617142c2a843eef6f8f148b6","650c16f0f2faf8d7a0d14c09","651c1ce0265b91536d98427e","null","null","<p style=""font-size: 60px; font-family: BACS"">TDKhAPEM</p>","","","","","","","","","",""
"html-keyboard-response","259","413145","0.0-14.0-0.8","617142c2a843eef6f8f148b6","650c16f0f2faf8d7a0d14c09","651c1ce0265b91536d98427e","null","null","<p style=""font-size: 60px; font-family: BACS"">vkYGlcYUv</p>","","","","","","","","","",""
"html-keyboard-response","260","414165","0.0-14.0-0.9","617142c2a843eef6f8f148b6","650c16f0f2faf8d7a0d14c09","651c1ce0265b91536d98427e","null","null","<p style=""font-size: 60px; font-family: BACS"">TDKhbAMO</p>","","","","","","","","","",""
"html-keyboard-response","261","415181","0.0-14.0-0.10","617142c2a843eef6f8f148b6","650c16f0f2faf8d7a0d14c09","651c1ce0265b91536d98427e","null","null","<p style=""font-size: 60px; font-family: BACS"">JAdLmrULv</p>","","","","","","","","","",""
"html-keyboard-response","262","416200","0.0-14.0-0.11","617142c2a843eef6f8f148b6","650c16f0f2faf8d7a0d14c09","651c1ce0265b91536d98427e","null","null","<p style=""font-size: 60px; font-family: BACS"">UdbduUY</p>","","","","","","","","","",""
"html-keyboard-response","263","417217","0.0-14.0-0.12","617142c2a843eef6f8f148b6","650c16f0f2faf8d7a0d14c09","651c1ce0265b91536d98427e","null","null","<p style=""font-size: 60px; font-family: BACS"">hbkdAPEM</p>","","","","","","","","","",""
"html-keyboard-response","264","418234","0.0-14.0-0.13","617142c2a843eef6f8f148b6","650c16f0f2faf8d7a0d14c09","651c1ce0265b91536d98427e","null","null","<p style=""font-size: 60px; font-family: BACS"">TDKhmAM</p>","","","","","","","","","",""
"html-keyboard-response","265","419249","0.0-14.0-0.14","617142c2a843eef6f8f148b6","650c16f0f2faf8d7a0d14c09","651c1ce0265b91536d98427e","null","null","<p style=""font-size: 60px; font-family: BACS"">JAdLmrNlZ</p>","","","","","","","","","",""
"html-keyboard-response","266","420265","0.0-14.0-0.15","617142c2a843eef6f8f148b6","650c16f0f2faf8d7a0d14c09","651c1ce0265b91536d98427e","null","null","<p style=""font-size: 60px; font-family: BACS"">dmZvmuUY</p>","","","","","","","","","",""
"html-keyboard-response","267","421284","0.0-14.0-0.16","617142c2a843eef6f8f148b6","650c16f0f2faf8d7a0d14c09","651c1ce0265b91536d98427e","null","null","<p style=""font-size: 60px; font-family: BACS"">TAdhMOBT</p>","","","","","","","","","",""
"html-keyboard-response","268","422300","0.0-14.0-0.17","617142c2a843eef6f8f148b6","650c16f0f2faf8d7a0d14c09","651c1ce0265b91536d98427e","null","null","<p style=""font-size: 60px; font-family: BACS"">kulZrULv</p>","","","","","","","","","",""
"html-keyboard-response","269","423322","0.0-14.0-0.18","617142c2a843eef6f8f148b6","650c16f0f2faf8d7a0d14c09","651c1ce0265b91536d98427e","null","null","<p style=""font-size: 60px; font-family: BACS"">dmZvmOJNk</p>","","","","","","","","","",""
"html-keyboard-response","270","424333","0.0-14.0-0.19","617142c2a843eef6f8f148b6","650c16f0f2faf8d7a0d14c09","651c1ce0265b91536d98427e","null","null","<p style=""font-size: 60px; font-family: BACS"">YUNkZrNlZ</p>","","","","","","","","","",""
"html-keyboard-response","271","425338","0.0-14.0-0.20","617142c2a843eef6f8f148b6","650c16f0f2faf8d7a0d14c09","651c1ce0265b91536d98427e","null","null","<p style=""font-size: 60px; font-family: BACS"">TKDkBCD</p>","","","","","","","","","",""
"html-keyboard-response","272","426354","0.0-14.0-0.21","617142c2a843eef6f8f148b6","650c16f0f2faf8d7a0d14c09","651c1ce0265b91536d98427e","null","null","<p style=""font-size: 60px; font-family: BACS"">OdYPbAMO</p>","","","","","","","","","",""
"html-keyboard-response","273","427369","0.0-14.0-0.22","617142c2a843eef6f8f148b6","650c16f0f2faf8d7a0d14c09","651c1ce0265b91536d98427e","null","null","<p style=""font-size: 60px; font-family: BACS"">CkBOPOBT</p>","","","","","","","","","",""
"html-keyboard-response","274","428387","0.0-14.0-0.23","617142c2a843eef6f8f148b6","650c16f0f2faf8d7a0d14c09","651c1ce0265b91536d98427e","null","null","<p style=""font-size: 60px; font-family: BACS"">JvaAOJNk</p>","","","","","","","","","",""
"html-keyboard-response","275","429405","0.0-14.0-0.24","617142c2a843eef6f8f148b6","650c16f0f2faf8d7a0d14c09","651c1ce0265b91536d98427e","null","null","<p style=""font-size: 60px; font-family: BACS"">lAOKMOBT</p>","","","","","","","","","",""
"html-keyboard-response","276","430422","0.0-14.0-0.25","617142c2a843eef6f8f148b6","650c16f0f2faf8d7a0d14c09","651c1ce0265b91536d98427e","null","null","<p style=""font-size: 60px; font-family: BACS"">hbkdBCD</p>","","","","","","","","","",""
"html-keyboard-response","277","431440","0.0-14.0-0.26","617142c2a843eef6f8f148b6","650c16f0f2faf8d7a0d14c09","651c1ce0265b91536d98427e","null","null","<p style=""font-size: 60px; font-family: BACS"">TAdhMbAMO</p>","","","","","","","","","",""
"html-keyboard-response","278","432457","0.0-14.0-0.27","617142c2a843eef6f8f148b6","650c16f0f2faf8d7a0d14c09","651c1ce0265b91536d98427e","null","null","<p style=""font-size: 60px; font-family: BACS"">DhMtmAM</p>","","","","","","","","","",""
"html-keyboard-response","279","433475","0.0-14.0-0.28","617142c2a843eef6f8f148b6","650c16f0f2faf8d7a0d14c09","651c1ce0265b91536d98427e","null","null","<p style=""font-size: 60px; font-family: BACS"">JvaAuUY</p>","","","","","","","","","",""
"html-keyboard-response","280","434489","0.0-14.0-0.29","617142c2a843eef6f8f148b6","650c16f0f2faf8d7a0d14c09","651c1ce0265b91536d98427e","null","null","<p style=""font-size: 60px; font-family: BACS"">lAOKMBCD</p>","","","","","","","","","",""
"html-keyboard-response","281","435506","0.0-14.0-0.30","617142c2a843eef6f8f148b6","650c16f0f2faf8d7a0d14c09","651c1ce0265b91536d98427e","null","null","<p style=""font-size: 60px; font-family: BACS"">kKRCOBT</p>","","","","","","","","","",""
"html-keyboard-response","282","436524","0.0-14.0-0.31","617142c2a843eef6f8f148b6","650c16f0f2faf8d7a0d14c09","651c1ce0265b91536d98427e","null","null","<p style=""font-size: 60px; font-family: BACS"">TKDkAPEM</p>","","","","","","","","","",""
"html-keyboard-response","283","437541","0.0-14.0-0.32","617142c2a843eef6f8f148b6","650c16f0f2faf8d7a0d14c09","651c1ce0265b91536d98427e","null","null","<p style=""font-size: 60px; font-family: BACS"">UJkGrNlZ</p>","","","","","","","","","",""
"html-keyboard-response","284","438560","0.0-14.0-0.33","617142c2a843eef6f8f148b6","650c16f0f2faf8d7a0d14c09","651c1ce0265b91536d98427e","null","null","<p style=""font-size: 60px; font-family: BACS"">kKRCAPEM</p>","","","","","","","","","",""
"html-keyboard-response","285","439574","0.0-14.0-0.34","617142c2a843eef6f8f148b6","650c16f0f2faf8d7a0d14c09","651c1ce0265b91536d98427e","null","null","<p style=""font-size: 60px; font-family: BACS"">UJkGOJNk</p>","","","","","","","","","",""
"html-keyboard-response","286","440589","0.0-14.0-0.35","617142c2a843eef6f8f148b6","650c16f0f2faf8d7a0d14c09","651c1ce0265b91536d98427e","null","null","<p style=""font-size: 60px; font-family: BACS"">TAdhMBCD</p>","","","","","","","","","",""
"html-keyboard-response","287","441606","0.0-14.0-0.36","617142c2a843eef6f8f148b6","650c16f0f2faf8d7a0d14c09","651c1ce0265b91536d98427e","null","null","<p style=""font-size: 60px; font-family: BACS"">JvaAcYUv</p>","","","","","","","","","",""
"html-keyboard-response","288","442630","0.0-14.0-0.37","617142c2a843eef6f8f148b6","650c16f0f2faf8d7a0d14c09","651c1ce0265b91536d98427e","null","null","<p style=""font-size: 60px; font-family: BACS"">GLluAOJNk</p>","","","","","","","","","",""
"html-keyboard-response","289","443649","0.0-14.0-0.38","617142c2a843eef6f8f148b6","650c16f0f2faf8d7a0d14c09","651c1ce0265b91536d98427e","null","null","<p style=""font-size: 60px; font-family: BACS"">kKRCbAMO</p>","","","","","","","","","",""
"html-keyboard-response","290","444660","0.0-14.0-0.39","617142c2a843eef6f8f148b6","650c16f0f2faf8d7a0d14c09","651c1ce0265b91536d98427e","null","null","<p style=""font-size: 60px; font-family: BACS"">vkYGlrNlZ</p>","","","","","","","","","",""
"html-keyboard-response","291","445678","0.0-14.0-0.40","617142c2a843eef6f8f148b6","650c16f0f2faf8d7a0d14c09","651c1ce0265b91536d98427e","null","null","<p style=""font-size: 60px; font-family: BACS"">kulZOJNk</p>","","","","","","","","","",""
"html-keyboard-response","292","446695","0.0-14.0-0.41","617142c2a843eef6f8f148b6","650c16f0f2faf8d7a0d14c09","651c1ce0265b91536d98427e","null","null","<p style=""font-size: 60px; font-family: BACS"">OdYPBCD</p>","","","","","","","","","",""
"html-keyboard-response","293","447715","0.0-14.0-0.42","617142c2a843eef6f8f148b6","650c16f0f2faf8d7a0d14c09","651c1ce0265b91536d98427e","null","null","<p style=""font-size: 60px; font-family: BACS"">CkBOPmAM</p>","","","","","","","","","",""
"html-keyboard-response","294","448729","0.0-14.0-0.43","617142c2a843eef6f8f148b6","650c16f0f2faf8d7a0d14c09","651c1ce0265b91536d98427e","null","null","<p style=""font-size: 60px; font-family: BACS"">JAdLmuUY</p>","","","","","","","","","",""
"html-keyboard-response","295","449747","0.0-14.0-0.44","617142c2a843eef6f8f148b6","650c16f0f2faf8d7a0d14c09","651c1ce0265b91536d98427e","null","null","<p style=""font-size: 60px; font-family: BACS"">OMlTbAMO</p>","","","","","","","","","",""
"html-keyboard-response","296","450766","0.0-14.0-0.45","617142c2a843eef6f8f148b6","650c16f0f2faf8d7a0d14c09","651c1ce0265b91536d98427e","null","null","<p style=""font-size: 60px; font-family: BACS"">GLluAcYUv</p>","","","","","","","","","",""
"html-keyboard-response","297","451782","0.0-14.0-0.46","617142c2a843eef6f8f148b6","650c16f0f2faf8d7a0d14c09","651c1ce0265b91536d98427e","null","null","<p style=""font-size: 60px; font-family: BACS"">OMlTBCD</p>","","","","","","","","","",""
"html-keyboard-response","298","452800","0.0-14.0-0.47","617142c2a843eef6f8f148b6","650c16f0f2faf8d7a0d14c09","651c1ce0265b91536d98427e","null","null","<p style=""font-size: 60px; font-family: BACS"">kKRCmAM</p>","","","","","","","","","",""
"html-keyboard-response","299","453816","0.0-14.0-0.48","617142c2a843eef6f8f148b6","650c16f0f2faf8d7a0d14c09","651c1ce0265b91536d98427e","null","null","<p style=""font-size: 60px; font-family: BACS"">lAOKMbAMO</p>","","","","","","","","","",""
"html-keyboard-response","300","454834","0.0-14.0-0.49","617142c2a843eef6f8f148b6","650c16f0f2faf8d7a0d14c09","651c1ce0265b91536d98427e","null","null","<p style=""font-size: 60px; font-family: BACS"">YUNkZrULv</p>","","","","","","","","","",""
"html-keyboard-response","301","455851","0.0-14.0-0.50","617142c2a843eef6f8f148b6","650c16f0f2faf8d7a0d14c09","651c1ce0265b91536d98427e","null","null","<p style=""font-size: 60px; font-family: BACS"">ckLALOJNk</p>","","","","","","","","","",""
"html-keyboard-response","302","456866","0.0-14.0-0.51","617142c2a843eef6f8f148b6","650c16f0f2faf8d7a0d14c09","651c1ce0265b91536d98427e","null","null","<p style=""font-size: 60px; font-family: BACS"">TAdhMmAM</p>","","","","","","","","","",""
"html-keyboard-response","303","457886","0.0-14.0-0.52","617142c2a843eef6f8f148b6","650c16f0f2faf8d7a0d14c09","651c1ce0265b91536d98427e","null","null","<p style=""font-size: 60px; font-family: BACS"">UJkGcYUv</p>","","","","","","","","","",""
"html-keyboard-response","304","458904","0.0-14.0-0.53","617142c2a843eef6f8f148b6","650c16f0f2faf8d7a0d14c09","651c1ce0265b91536d98427e","null","null","<p style=""font-size: 60px; font-family: BACS"">JvaArULv</p>","","","","","","","","","",""
"html-keyboard-response","305","459918","0.0-14.0-0.54","617142c2a843eef6f8f148b6","650c16f0f2faf8d7a0d14c09","651c1ce0265b91536d98427e","null","null","<p style=""font-size: 60px; font-family: BACS"">TKDkbAMO</p>","","","","","","","","","",""
"html-keyboard-response","306","460932","0.0-14.0-0.55","617142c2a843eef6f8f148b6","650c16f0f2faf8d7a0d14c09","651c1ce0265b91536d98427e","null","null","<p style=""font-size: 60px; font-family: BACS"">OMlTAPEM</p>","","","","","","","","","",""
"html-keyboard-response","307","461938","0.0-14.0-0.56","617142c2a843eef6f8f148b6","650c16f0f2faf8d7a0d14c09","651c1ce0265b91536d98427e","null","null","<p style=""font-size: 60px; font-family: BACS"">TDKhBCD</p>","","","","","","","","","",""
"html-keyboard-response","308","462951","0.0-14.0-0.57","617142c2a843eef6f8f148b6","650c16f0f2faf8d7a0d14c09","651c1ce0265b91536d98427e","null","null","<p style=""font-size: 60px; font-family: BACS"">TKDkmAM</p>","","","","","","","","","",""
"html-keyboard-response","309","463974","0.0-14.0-0.58","617142c2a843eef6f8f148b6","650c16f0f2faf8d7a0d14c09","651c1ce0265b91536d98427e","null","null","<p style=""font-size: 60px; font-family: BACS"">kulZcYUv</p>","","","","","","","","","",""
"html-keyboard-response","310","464989","0.0-14.0-0.59","617142c2a843eef6f8f148b6","650c16f0f2faf8d7a0d14c09","651c1ce0265b91536d98427e","null","null","<p style=""font-size: 60px; font-family: BACS"">ckLALrULv</p>","","","","","","","","","",""
"html-keyboard-response","311","466007","0.0-14.0-0.60","617142c2a843eef6f8f148b6","650c16f0f2faf8d7a0d14c09","651c1ce0265b91536d98427e","null","null","<p style=""font-size: 60px; font-family: BACS"">YUNkZuUY</p>","","","","","","","","","",""
"html-keyboard-response","312","467024","0.0-14.0-0.61","617142c2a843eef6f8f148b6","650c16f0f2faf8d7a0d14c09","651c1ce0265b91536d98427e","null","null","<p style=""font-size: 60px; font-family: BACS"">lAOKMAPEM</p>","","","","","","","","","",""
"html-keyboard-response","313","468040","0.0-14.0-0.62","617142c2a843eef6f8f148b6","650c16f0f2faf8d7a0d14c09","651c1ce0265b91536d98427e","null","null","<p style=""font-size: 60px; font-family: BACS"">DhMtBCD</p>","","","","","","","","","",""
"html-keyboard-response","314","469058","0.0-14.0-0.63","617142c2a843eef6f8f148b6","650c16f0f2faf8d7a0d14c09","651c1ce0265b91536d98427e","null","null","<p style=""font-size: 60px; font-family: BACS"">GLluArNlZ</p>","","","","","","","","","",""
"html-keyboard-response","315","470075","0.0-14.0-0.64","617142c2a843eef6f8f148b6","650c16f0f2faf8d7a0d14c09","651c1ce0265b91536d98427e","null","null","<p style=""font-size: 60px; font-family: BACS"">hbkdmAM</p>","","","","","","","","","",""
"html-keyboard-response","316","471094","0.0-14.0-0.65","617142c2a843eef6f8f148b6","650c16f0f2faf8d7a0d14c09","651c1ce0265b91536d98427e","null","null","<p style=""font-size: 60px; font-family: BACS"">GLluAuUY</p>","","","","","","","","","",""
"html-keyboard-response","317","472113","0.0-14.0-0.66","617142c2a843eef6f8f148b6","650c16f0f2faf8d7a0d14c09","651c1ce0265b91536d98427e","null","null","<p style=""font-size: 60px; font-family: BACS"">hbkdOBT</p>","","","","","","","","","",""
"html-keyboard-response","318","473126","0.0-14.0-0.67","617142c2a843eef6f8f148b6","650c16f0f2faf8d7a0d14c09","651c1ce0265b91536d98427e","null","null","<p style=""font-size: 60px; font-family: BACS"">UdbdrNlZ</p>","","","","","","","","","",""
"html-keyboard-response","319","474142","0.0-14.0-0.68","617142c2a843eef6f8f148b6","650c16f0f2faf8d7a0d14c09","651c1ce0265b91536d98427e","null","null","<p style=""font-size: 60px; font-family: BACS"">DhMtOBT</p>","","","","","","","","","",""
"html-keyboard-response","320","475155","0.0-14.0-0.69","617142c2a843eef6f8f148b6","650c16f0f2faf8d7a0d14c09","651c1ce0265b91536d98427e","null","null","<p style=""font-size: 60px; font-family: BACS"">vkYGluUY</p>","","","","","","","","","",""
"html-keyboard-response","321","476162","0.0-14.0-0.70","617142c2a843eef6f8f148b6","650c16f0f2faf8d7a0d14c09","651c1ce0265b91536d98427e","null","null","<p style=""font-size: 60px; font-family: BACS"">ckLALcYUv</p>","","","","","","","","","",""
"html-keyboard-response","322","477178","0.0-14.0-0.71","617142c2a843eef6f8f148b6","650c16f0f2faf8d7a0d14c09","651c1ce0265b91536d98427e","null","null","<p style=""font-size: 60px; font-family: BACS"">YUNkZOJNk</p>","","","","","","","","","",""
"html-keyboard-response","323","478195","0.0-14.0-0.72","617142c2a843eef6f8f148b6","650c16f0f2faf8d7a0d14c09","651c1ce0265b91536d98427e","null","null","<p style=""font-size: 60px; font-family: BACS"">ckLALrNlZ</p>","","","","","","","","","",""
"html-keyboard-response","324","479211","0.0-14.0-0.73","617142c2a843eef6f8f148b6","650c16f0f2faf8d7a0d14c09","651c1ce0265b91536d98427e","null","null","<p style=""font-size: 60px; font-family: BACS"">OdYPOBT</p>","","","","","","","","","",""
"html-keyboard-response","325","480227","0.0-14.0-0.74","617142c2a843eef6f8f148b6","650c16f0f2faf8d7a0d14c09","651c1ce0265b91536d98427e","null","null","<p style=""font-size: 60px; font-family: BACS"">UdbdrULv</p>","","","","","","","","","",""
"html-keyboard-response","326","481245","0.0-14.0-0.75","617142c2a843eef6f8f148b6","650c16f0f2faf8d7a0d14c09","651c1ce0265b91536d98427e","null","null","<p style=""font-size: 60px; font-family: BACS"">JAdLmcYUv</p>","","","","","","","","","",""
"html-keyboard-response","327","482261","0.0-14.0-0.76","617142c2a843eef6f8f148b6","650c16f0f2faf8d7a0d14c09","651c1ce0265b91536d98427e","null","null","<p style=""font-size: 60px; font-family: BACS"">OdYPmAM</p>","","","","","","","","","",""
"html-keyboard-response","328","483278","0.0-14.0-0.77","617142c2a843eef6f8f148b6","650c16f0f2faf8d7a0d14c09","651c1ce0265b91536d98427e","null","null","<p style=""font-size: 60px; font-family: BACS"">CkBOPAPEM</p>","","","","","","","","","",""
"html-keyboard-response","329","484296","0.0-14.0-0.78","617142c2a843eef6f8f148b6","650c16f0f2faf8d7a0d14c09","651c1ce0265b91536d98427e","null","null","<p style=""font-size: 60px; font-family: BACS"">vkYGlrULv</p>","","","","","","","","","",""
"html-keyboard-response","330","485312","0.0-14.0-0.79","617142c2a843eef6f8f148b6","650c16f0f2faf8d7a0d14c09","651c1ce0265b91536d98427e","null","null","<p style=""font-size: 60px; font-family: BACS"">kulZuUY</p>","","","","","","","","","",""
"html-keyboard-response","331","490337","0.0-15.0","617142c2a843eef6f8f148b6","650c16f0f2faf8d7a0d14c09","651c1ce0265b91536d98427e","5024"," ","<p>Great, you've seen the fourth block of words. You may now take a short break.</p>
      <p>Press the spacebar when you're ready to continue.</p>","","","","","","","","","",""
"html-keyboard-response","332","491349","0.0-16.0-0.0","617142c2a843eef6f8f148b6","650c16f0f2faf8d7a0d14c09","651c1ce0265b91536d98427e","null","null","<p style=""font-size: 60px; font-family: BACS"">hbkdOBT</p>","","","","","","","","","",""
"html-keyboard-response","333","492374","0.0-16.0-0.1","617142c2a843eef6f8f148b6","650c16f0f2faf8d7a0d14c09","651c1ce0265b91536d98427e","null","null","<p style=""font-size: 60px; font-family: BACS"">hbkdOBT</p>","","","","","","","","","",""
"html-keyboard-response","334","493380","0.0-16.0-0.2","617142c2a843eef6f8f148b6","650c16f0f2faf8d7a0d14c09","651c1ce0265b91536d98427e","null","null","<p style=""font-size: 60px; font-family: BACS"">hbkdOBT</p>","","","","","","","","","",""
"html-keyboard-response","335","494386","0.0-16.0-0.3","617142c2a843eef6f8f148b6","650c16f0f2faf8d7a0d14c09","651c1ce0265b91536d98427e","null","null","<p style=""font-size: 60px; font-family: BACS"">hbkdOBT</p>","","","","","","","","","",""
"html-keyboard-response","336","495404","0.0-16.0-0.4","617142c2a843eef6f8f148b6","650c16f0f2faf8d7a0d14c09","651c1ce0265b91536d98427e","null","null","<p style=""font-size: 60px; font-family: BACS"">hbkdOBT</p>","","","","","","","","","",""
"html-keyboard-response","337","496419","0.0-16.0-0.5","617142c2a843eef6f8f148b6","650c16f0f2faf8d7a0d14c09","651c1ce0265b91536d98427e","null","null","<p style=""font-size: 60px; font-family: BACS"">hbkdOBT</p>","","","","","","","","","",""
"html-keyboard-response","338","497436","0.0-16.0-0.6","617142c2a843eef6f8f148b6","650c16f0f2faf8d7a0d14c09","651c1ce0265b91536d98427e","null","null","<p style=""font-size: 60px; font-family: BACS"">hbkdOBT</p>","","","","","","","","","",""
"html-keyboard-response","339","498452","0.0-16.0-0.7","617142c2a843eef6f8f148b6","650c16f0f2faf8d7a0d14c09","651c1ce0265b91536d98427e","null","null","<p style=""font-size: 60px; font-family: BACS"">hbkdOBT</p>","","","","","","","","","",""
"html-keyboard-response","340","499472","0.0-16.0-0.8","617142c2a843eef6f8f148b6","650c16f0f2faf8d7a0d14c09","651c1ce0265b91536d98427e","null","null","<p style=""font-size: 60px; font-family: BACS"">hbkdOBT</p>","","","","","","","","","",""
"html-keyboard-response","341","500488","0.0-16.0-0.9","617142c2a843eef6f8f148b6","650c16f0f2faf8d7a0d14c09","651c1ce0265b91536d98427e","null","null","<p style=""font-size: 60px; font-family: BACS"">hbkdOBT</p>","","","","","","","","","",""
"html-keyboard-response","342","501503","0.0-16.0-0.10","617142c2a843eef6f8f148b6","650c16f0f2faf8d7a0d14c09","651c1ce0265b91536d98427e","null","null","<p style=""font-size: 60px; font-family: BACS"">hbkdOBT</p>","","","","","","","","","",""
"html-keyboard-response","343","502507","0.0-16.0-0.11","617142c2a843eef6f8f148b6","650c16f0f2faf8d7a0d14c09","651c1ce0265b91536d98427e","null","null","<p style=""font-size: 60px; font-family: BACS"">hbkdOBT</p>","","","","","","","","","",""
"html-keyboard-response","344","503524","0.0-16.0-0.12","617142c2a843eef6f8f148b6","650c16f0f2faf8d7a0d14c09","651c1ce0265b91536d98427e","null","null","<p style=""font-size: 60px; font-family: BACS"">hbkdOBT</p>","","","","","","","","","",""
"html-keyboard-response","345","504543","0.0-16.0-0.13","617142c2a843eef6f8f148b6","650c16f0f2faf8d7a0d14c09","651c1ce0265b91536d98427e","null","null","<p style=""font-size: 60px; font-family: BACS"">hbkdOBT</p>","","","","","","","","","",""
"html-keyboard-response","346","505559","0.0-16.0-0.14","617142c2a843eef6f8f148b6","650c16f0f2faf8d7a0d14c09","651c1ce0265b91536d98427e","null","null","<p style=""font-size: 60px; font-family: BACS"">hbkdOBT</p>","","","","","","","","","",""
"html-keyboard-response","347","506574","0.0-16.0-0.15","617142c2a843eef6f8f148b6","650c16f0f2faf8d7a0d14c09","651c1ce0265b91536d98427e","null","null","<p style=""font-size: 60px; font-family: BACS"">hbkdOBT</p>","","","","","","","","","",""
"html-keyboard-response","348","507587","0.0-16.0-0.16","617142c2a843eef6f8f148b6","650c16f0f2faf8d7a0d14c09","651c1ce0265b91536d98427e","null","null","<p style=""font-size: 60px; font-family: BACS"">hbkdOBT</p>","","","","","","","","","",""
"html-keyboard-response","349","508596","0.0-16.0-0.17","617142c2a843eef6f8f148b6","650c16f0f2faf8d7a0d14c09","651c1ce0265b91536d98427e","null","null","<p style=""font-size: 60px; font-family: BACS"">hbkdOBT</p>","","","","","","","","","",""
"html-keyboard-response","350","509613","0.0-16.0-0.18","617142c2a843eef6f8f148b6","650c16f0f2faf8d7a0d14c09","651c1ce0265b91536d98427e","null","null","<p style=""font-size: 60px; font-family: BACS"">hbkdOBT</p>","","","","","","","","","",""
"html-keyboard-response","351","510628","0.0-16.0-0.19","617142c2a843eef6f8f148b6","650c16f0f2faf8d7a0d14c09","651c1ce0265b91536d98427e","null","null","<p style=""font-size: 60px; font-family: BACS"">hbkdOBT</p>","","","","","","","","","",""
"html-keyboard-response","352","511642","0.0-16.0-0.20","617142c2a843eef6f8f148b6","650c16f0f2faf8d7a0d14c09","651c1ce0265b91536d98427e","null","null","<p style=""font-size: 60px; font-family: BACS"">hbkdOBT</p>","","","","","","","","","",""
"html-keyboard-response","353","512661","0.0-16.0-0.21","617142c2a843eef6f8f148b6","650c16f0f2faf8d7a0d14c09","651c1ce0265b91536d98427e","null","null","<p style=""font-size: 60px; font-family: BACS"">hbkdOBT</p>","","","","","","","","","",""
"html-keyboard-response","354","513677","0.0-16.0-0.22","617142c2a843eef6f8f148b6","650c16f0f2faf8d7a0d14c09","651c1ce0265b91536d98427e","null","null","<p style=""font-size: 60px; font-family: BACS"">hbkdOBT</p>","","","","","","","","","",""
"html-keyboard-response","355","514694","0.0-16.0-0.23","617142c2a843eef6f8f148b6","650c16f0f2faf8d7a0d14c09","651c1ce0265b91536d98427e","null","null","<p style=""font-size: 60px; font-family: BACS"">hbkdOBT</p>","","","","","","","","","",""
"html-keyboard-response","356","515719","0.0-16.0-0.24","617142c2a843eef6f8f148b6","650c16f0f2faf8d7a0d14c09","651c1ce0265b91536d98427e","null","null","<p style=""font-size: 60px; font-family: BACS"">hbkdOBT</p>","","","","","","","","","",""
"html-keyboard-response","357","516733","0.0-16.0-0.25","617142c2a843eef6f8f148b6","650c16f0f2faf8d7a0d14c09","651c1ce0265b91536d98427e","null","null","<p style=""font-size: 60px; font-family: BACS"">hbkdOBT</p>","","","","","","","","","",""
"html-keyboard-response","358","517745","0.0-16.0-0.26","617142c2a843eef6f8f148b6","650c16f0f2faf8d7a0d14c09","651c1ce0265b91536d98427e","null","null","<p style=""font-size: 60px; font-family: BACS"">hbkdOBT</p>","","","","","","","","","",""
"html-keyboard-response","359","518762","0.0-16.0-0.27","617142c2a843eef6f8f148b6","650c16f0f2faf8d7a0d14c09","651c1ce0265b91536d98427e","null","null","<p style=""font-size: 60px; font-family: BACS"">hbkdOBT</p>","","","","","","","","","",""
"html-keyboard-response","360","519783","0.0-16.0-0.28","617142c2a843eef6f8f148b6","650c16f0f2faf8d7a0d14c09","651c1ce0265b91536d98427e","null","null","<p style=""font-size: 60px; font-family: BACS"">hbkdOBT</p>","","","","","","","","","",""
"html-keyboard-response","361","520799","0.0-16.0-0.29","617142c2a843eef6f8f148b6","650c16f0f2faf8d7a0d14c09","651c1ce0265b91536d98427e","null","null","<p style=""font-size: 60px; font-family: BACS"">hbkdOBT</p>","","","","","","","","","",""
"html-keyboard-response","362","521805","0.0-16.0-0.30","617142c2a843eef6f8f148b6","650c16f0f2faf8d7a0d14c09","651c1ce0265b91536d98427e","null","null","<p style=""font-size: 60px; font-family: BACS"">hbkdOBT</p>","","","","","","","","","",""
"html-keyboard-response","363","522813","0.0-16.0-0.31","617142c2a843eef6f8f148b6","650c16f0f2faf8d7a0d14c09","651c1ce0265b91536d98427e","null","null","<p style=""font-size: 60px; font-family: BACS"">hbkdOBT</p>","","","","","","","","","",""
"html-keyboard-response","364","523832","0.0-16.0-0.32","617142c2a843eef6f8f148b6","650c16f0f2faf8d7a0d14c09","651c1ce0265b91536d98427e","null","null","<p style=""font-size: 60px; font-family: BACS"">hbkdOBT</p>","","","","","","","","","",""
"html-keyboard-response","365","524850","0.0-16.0-0.33","617142c2a843eef6f8f148b6","650c16f0f2faf8d7a0d14c09","651c1ce0265b91536d98427e","null","null","<p style=""font-size: 60px; font-family: BACS"">hbkdOBT</p>","","","","","","","","","",""
"html-keyboard-response","366","525867","0.0-16.0-0.34","617142c2a843eef6f8f148b6","650c16f0f2faf8d7a0d14c09","651c1ce0265b91536d98427e","null","null","<p style=""font-size: 60px; font-family: BACS"">hbkdOBT</p>","","","","","","","","","",""
"html-keyboard-response","367","526885","0.0-16.0-0.35","617142c2a843eef6f8f148b6","650c16f0f2faf8d7a0d14c09","651c1ce0265b91536d98427e","null","null","<p style=""font-size: 60px; font-family: BACS"">hbkdOBT</p>","","","","","","","","","",""
"html-keyboard-response","368","527902","0.0-16.0-0.36","617142c2a843eef6f8f148b6","650c16f0f2faf8d7a0d14c09","651c1ce0265b91536d98427e","null","null","<p style=""font-size: 60px; font-family: BACS"">hbkdOBT</p>","","","","","","","","","",""
"html-keyboard-response","369","528918","0.0-16.0-0.37","617142c2a843eef6f8f148b6","650c16f0f2faf8d7a0d14c09","651c1ce0265b91536d98427e","null","null","<p style=""font-size: 60px; font-family: BACS"">hbkdOBT</p>","","","","","","","","","",""
"html-keyboard-response","370","529932","0.0-16.0-0.38","617142c2a843eef6f8f148b6","650c16f0f2faf8d7a0d14c09","651c1ce0265b91536d98427e","null","null","<p style=""font-size: 60px; font-family: BACS"">hbkdOBT</p>","","","","","","","","","",""
"html-keyboard-response","371","530934","0.0-16.0-0.39","617142c2a843eef6f8f148b6","650c16f0f2faf8d7a0d14c09","651c1ce0265b91536d98427e","null","null","<p style=""font-size: 60px; font-family: BACS"">hbkdOBT</p>","","","","","","","","","",""
"html-keyboard-response","372","531949","0.0-16.0-0.40","617142c2a843eef6f8f148b6","650c16f0f2faf8d7a0d14c09","651c1ce0265b91536d98427e","null","null","<p style=""font-size: 60px; font-family: BACS"">hbkdOBT</p>","","","","","","","","","",""
"html-keyboard-response","373","532952","0.0-16.0-0.41","617142c2a843eef6f8f148b6","650c16f0f2faf8d7a0d14c09","651c1ce0265b91536d98427e","null","null","<p style=""font-size: 60px; font-family: BACS"">hbkdOBT</p>","","","","","","","","","",""
"html-keyboard-response","374","533968","0.0-16.0-0.42","617142c2a843eef6f8f148b6","650c16f0f2faf8d7a0d14c09","651c1ce0265b91536d98427e","null","null","<p style=""font-size: 60px; font-family: BACS"">hbkdOBT</p>","","","","","","","","","",""
"html-keyboard-response","375","534994","0.0-16.0-0.43","617142c2a843eef6f8f148b6","650c16f0f2faf8d7a0d14c09","651c1ce0265b91536d98427e","null","null","<p style=""font-size: 60px; font-family: BACS"">hbkdOBT</p>","","","","","","","","","",""
"html-keyboard-response","376","536004","0.0-16.0-0.44","617142c2a843eef6f8f148b6","650c16f0f2faf8d7a0d14c09","651c1ce0265b91536d98427e","null","null","<p style=""font-size: 60px; font-family: BACS"">hbkdOBT</p>","","","","","","","","","",""
"html-keyboard-response","377","537023","0.0-16.0-0.45","617142c2a843eef6f8f148b6","650c16f0f2faf8d7a0d14c09","651c1ce0265b91536d98427e","null","null","<p style=""font-size: 60px; font-family: BACS"">hbkdOBT</p>","","","","","","","","","",""
"html-keyboard-response","378","538045","0.0-16.0-0.46","617142c2a843eef6f8f148b6","650c16f0f2faf8d7a0d14c09","651c1ce0265b91536d98427e","null","null","<p style=""font-size: 60px; font-family: BACS"">hbkdOBT</p>","","","","","","","","","",""
"html-keyboard-response","379","539058","0.0-16.0-0.47","617142c2a843eef6f8f148b6","650c16f0f2faf8d7a0d14c09","651c1ce0265b91536d98427e","null","null","<p style=""font-size: 60px; font-family: BACS"">hbkdOBT</p>","","","","","","","","","",""
"html-keyboard-response","380","540074","0.0-16.0-0.48","617142c2a843eef6f8f148b6","650c16f0f2faf8d7a0d14c09","651c1ce0265b91536d98427e","null","null","<p style=""font-size: 60px; font-family: BACS"">hbkdOBT</p>","","","","","","","","","",""
"html-keyboard-response","381","541092","0.0-16.0-0.49","617142c2a843eef6f8f148b6","650c16f0f2faf8d7a0d14c09","651c1ce0265b91536d98427e","null","null","<p style=""font-size: 60px; font-family: BACS"">hbkdOBT</p>","","","","","","","","","",""
"html-keyboard-response","382","542107","0.0-16.0-0.50","617142c2a843eef6f8f148b6","650c16f0f2faf8d7a0d14c09","651c1ce0265b91536d98427e","null","null","<p style=""font-size: 60px; font-family: BACS"">hbkdOBT</p>","","","","","","","","","",""
"html-keyboard-response","383","543126","0.0-16.0-0.51","617142c2a843eef6f8f148b6","650c16f0f2faf8d7a0d14c09","651c1ce0265b91536d98427e","null","null","<p style=""font-size: 60px; font-family: BACS"">hbkdOBT</p>","","","","","","","","","",""
"html-keyboard-response","384","544148","0.0-16.0-0.52","617142c2a843eef6f8f148b6","650c16f0f2faf8d7a0d14c09","651c1ce0265b91536d98427e","null","null","<p style=""font-size: 60px; font-family: BACS"">hbkdOBT</p>","","","","","","","","","",""
"html-keyboard-response","385","545166","0.0-16.0-0.53","617142c2a843eef6f8f148b6","650c16f0f2faf8d7a0d14c09","651c1ce0265b91536d98427e","null","null","<p style=""font-size: 60px; font-family: BACS"">hbkdOBT</p>","","","","","","","","","",""
"html-keyboard-response","386","546193","0.0-16.0-0.54","617142c2a843eef6f8f148b6","650c16f0f2faf8d7a0d14c09","651c1ce0265b91536d98427e","null","null","<p style=""font-size: 60px; font-family: BACS"">hbkdOBT</p>","","","","","","","","","",""
"html-keyboard-response","387","547196","0.0-16.0-0.55","617142c2a843eef6f8f148b6","650c16f0f2faf8d7a0d14c09","651c1ce0265b91536d98427e","null","null","<p style=""font-size: 60px; font-family: BACS"">hbkdOBT</p>","","","","","","","","","",""
"html-keyboard-response","388","548211","0.0-16.0-0.56","617142c2a843eef6f8f148b6","650c16f0f2faf8d7a0d14c09","651c1ce0265b91536d98427e","null","null","<p style=""font-size: 60px; font-family: BACS"">hbkdOBT</p>","","","","","","","","","",""
"html-keyboard-response","389","549228","0.0-16.0-0.57","617142c2a843eef6f8f148b6","650c16f0f2faf8d7a0d14c09","651c1ce0265b91536d98427e","null","null","<p style=""font-size: 60px; font-family: BACS"">hbkdOBT</p>","","","","","","","","","",""
"html-keyboard-response","390","550249","0.0-16.0-0.58","617142c2a843eef6f8f148b6","650c16f0f2faf8d7a0d14c09","651c1ce0265b91536d98427e","null","null","<p style=""font-size: 60px; font-family: BACS"">hbkdOBT</p>","","","","","","","","","",""
"html-keyboard-response","391","551264","0.0-16.0-0.59","617142c2a843eef6f8f148b6","650c16f0f2faf8d7a0d14c09","651c1ce0265b91536d98427e","null","null","<p style=""font-size: 60px; font-family: BACS"">hbkdOBT</p>","","","","","","","","","",""
"html-keyboard-response","392","552279","0.0-16.0-0.60","617142c2a843eef6f8f148b6","650c16f0f2faf8d7a0d14c09","651c1ce0265b91536d98427e","null","null","<p style=""font-size: 60px; font-family: BACS"">hbkdOBT</p>","","","","","","","","","",""
"html-keyboard-response","393","553298","0.0-16.0-0.61","617142c2a843eef6f8f148b6","650c16f0f2faf8d7a0d14c09","651c1ce0265b91536d98427e","null","null","<p style=""font-size: 60px; font-family: BACS"">hbkdOBT</p>","","","","","","","","","",""
