"trial_type","trial_index","time_elapsed","internal_node_id","subject_id","study_id","session_id","rt","response","stimulus","success","item","task","correct_response","testing_condition","correct","target","confound","name"
"pavlovia","0","707","0.0-0.0","6131f7010e926c9103558040","650c16f0f2faf8d7a0d14c09","651c1e92466faea6f3af55bd","","","","","","","","","","","",""
"survey-html-form","1","16588","0.0-1.0","6131f7010e926c9103558040","650c16f0f2faf8d7a0d14c09","651c1e92466faea6f3af55bd","15878","{""ID"":""6131f7010e926c9103558040""}","","","","","","","","","",""
"html-keyboard-response","2","36049","0.0-2.0","6131f7010e926c9103558040","650c16f0f2faf8d7a0d14c09","651c1e92466faea6f3af55bd","19460"," ","<p style=""font-size: 15px;"">Before beginning, we ask that you read the consent information and confirm your agreement to participate in the experiment.</p>
      <p style=""font-size: 15px;""> We ask that you remember that this is a research project and that your participation is entirely voluntary. You can stop your participation at any time, without needing to provide any explanation. The study we're asking you to participate in aims at examining how readers process written words. You will be engaged in a session of apprximately 20 minutes, followed by a brief questionnaire. You will have the opportunity to take a few breaks during the experiment. You will be paid £4 for your participation, corresponding to a rate of £8/hour. While this experiment looks at cognitive faculties, this experiment doesn't constitute clinical proof of eventual pathologies.</p>
      <p style=""font-size: 15px;"">All of the information collected thanks to yours and others' participation will be held in a secure password-protected server, and will not be shared with anyone not authorised to view it. Your personal information will be kept with an arbitrary participant ID. Thanks to this data anonymity process, any researcher analysing the data won't be able to track the information back to a specific participant. Therefore, this process will make identifying you impossibile, even when results from the study will be published in scientific reviews, presented at congresses, or at any other public forum. More generally, the collected data will be treated in accordance with the laws on privacy and conformity to the Legislative Degree n. 196 ""Code regarding the protection of personal data"" of the 30th of June 2003 and to the European Regulation 2016/670 (General Data Protection Regulation - GDPR). The Data Protection Officer is Avv. Valentina Carollo, who can be contacted at the following email addresses: <a href=""mailto:dpo@sissa.it"">dpo@sissa.it</a> or <a href=""mailto:rpd@sissa.it"">rpd@sissa.it</a> - PEC: <a href=""mailto:protocollo@pec.sissa.it"">protocollo@pec.sissa.it</a>.</p>
      <p style=""font-size: 15px;""> Before expressing your consent to participate, we would like to remind you again that in case you need explanations on any aspect of the experimental procedure, the researcher is at your disposition (<a href=""mailto:aliebelt@sissa.it"">aliebelt@sissa.it</a>, <a href=""mailto:davide.crepaldi@sissa.it"">davide.crepaldi@sissa.it</a>).</p>
      <p style=""font-size: 15px;"">If you would like to download the informed consent form, you can do so here: <a href=""BASL-Informed_Consent.pdf"" download>informed consent form</a>.</p>
      <p style=""font-size: 15px;"">We ask that you press the spacebar to proceed to the consent section.</p>","","","","","","","","",""
"survey-html-form","3","64976","0.0-3.0","6131f7010e926c9103558040","650c16f0f2faf8d7a0d14c09","651c1e92466faea6f3af55bd","28927","{""consent1"":""YES"",""consent2"":""YES"",""consent3"":""YES"",""consent4"":""YES"",""consent5"":""YES"",""consent6"":""YES""}","","","","","","","","","",""
"fullscreen","4","73036","0.0-4.0","6131f7010e926c9103558040","650c16f0f2faf8d7a0d14c09","651c1e92466faea6f3af55bd","","","","true","","","","","","","",""
"html-keyboard-response","5","99128","0.0-5.0","6131f7010e926c9103558040","650c16f0f2faf8d7a0d14c09","651c1e92466faea6f3af55bd","26092"," ","<p>Welcome, and thank you very much for your time!</p>
      <p>In this experiment, you'll be a language expert who's been asked to take a look at words that Earth has received in its first communication with aliens. Your task, in this first part of the experiment, is to pay close attention to the words you'll be shown; later, world leaders will ask you questions on what you saw. The words will be shown to you quite quickly; it seems that the aliens were in a hurry :-)</p>
      <p>Press the spacebar to continue.<p>","","","","","","","","",""
"html-keyboard-response","6","99179","0.0-6.0","6131f7010e926c9103558040","650c16f0f2faf8d7a0d14c09","651c1e92466faea6f3af55bd","null","null","<p style=""font-size: 120px; font-family: BACS""> </p>","","","","","","","","",""
"html-keyboard-response","7","103977","0.0-7.0","6131f7010e926c9103558040","650c16f0f2faf8d7a0d14c09","651c1e92466faea6f3af55bd","4798"," ","<p>Here is an example of the words you'll see:</p>
      <img src='esempio.png' height='400px'>
      <p>When you're ready to begin, press the spacebar.</p></div>","","","","","","","","",""
"html-keyboard-response","8","105867","0.0-8.0-0.0","6131f7010e926c9103558040","650c16f0f2faf8d7a0d14c09","651c1e92466faea6f3af55bd","null","null","<p style=""font-size: 60px; font-family: BACS"">JuamlcUN</p>","","","","","","","","",""
"html-keyboard-response","9","107854","0.0-8.0-0.1","6131f7010e926c9103558040","650c16f0f2faf8d7a0d14c09","651c1e92466faea6f3af55bd","null","null","<p style=""font-size: 60px; font-family: BACS"">DCmhDKP</p>","","","","","","","","",""
"html-keyboard-response","10","108867","0.0-8.0-0.2","6131f7010e926c9103558040","650c16f0f2faf8d7a0d14c09","651c1e92466faea6f3af55bd","null","null","<p style=""font-size: 60px; font-family: BACS"">kNuabLd</p>","","","","","","","","",""
"html-keyboard-response","11","110854","0.0-8.0-0.3","6131f7010e926c9103558040","650c16f0f2faf8d7a0d14c09","651c1e92466faea6f3af55bd","null","null","<p style=""font-size: 60px; font-family: BACS"">ckdAmYcM</p>","","","","","","","","",""
"html-keyboard-response","12","111854","0.0-8.0-0.4","6131f7010e926c9103558040","650c16f0f2faf8d7a0d14c09","651c1e92466faea6f3af55bd","null","null","<p style=""font-size: 60px; font-family: BACS"">PlEKYDTk</p>","","","","","","","","",""
"html-keyboard-response","13","112861","0.0-8.0-0.5","6131f7010e926c9103558040","650c16f0f2faf8d7a0d14c09","651c1e92466faea6f3af55bd","null","null","<p style=""font-size: 60px; font-family: BACS"">MhKdYcM</p>","","","","","","","","",""
"html-keyboard-response","14","113868","0.0-8.0-0.6","6131f7010e926c9103558040","650c16f0f2faf8d7a0d14c09","651c1e92466faea6f3af55bd","null","null","<p style=""font-size: 60px; font-family: BACS"">uauOGlu</p>","","","","","","","","",""
"html-keyboard-response","15","115862","0.0-8.0-0.7","6131f7010e926c9103558040","650c16f0f2faf8d7a0d14c09","651c1e92466faea6f3af55bd","null","null","<p style=""font-size: 60px; font-family: BACS"">CYPcYBO</p>","","","","","","","","",""
"html-keyboard-response","16","117866","0.0-8.0-0.8","6131f7010e926c9103558040","650c16f0f2faf8d7a0d14c09","651c1e92466faea6f3af55bd","null","null","<p style=""font-size: 60px; font-family: BACS"">QOLmubLd</p>","","","","","","","","",""
"html-keyboard-response","17","119865","0.0-8.0-0.9","6131f7010e926c9103558040","650c16f0f2faf8d7a0d14c09","651c1e92466faea6f3af55bd","null","null","<p style=""font-size: 60px; font-family: BACS"">Ldrbvmkc</p>","","","","","","","","",""
"html-keyboard-response","18","121861","0.0-8.0-0.10","6131f7010e926c9103558040","650c16f0f2faf8d7a0d14c09","651c1e92466faea6f3af55bd","null","null","<p style=""font-size: 60px; font-family: BACS"">uauONUZ</p>","","","","","","","","",""
"html-keyboard-response","19","123853","0.0-8.0-0.11","6131f7010e926c9103558040","650c16f0f2faf8d7a0d14c09","651c1e92466faea6f3af55bd","null","null","<p style=""font-size: 60px; font-family: BACS"">PlEKDKP</p>","","","","","","","","",""
"html-keyboard-response","20","124860","0.0-8.0-0.12","6131f7010e926c9103558040","650c16f0f2faf8d7a0d14c09","651c1e92466faea6f3af55bd","null","null","<p style=""font-size: 60px; font-family: BACS"">MhKdBCAd</p>","","","","","","","","",""
"html-keyboard-response","21","125868","0.0-8.0-0.13","6131f7010e926c9103558040","650c16f0f2faf8d7a0d14c09","651c1e92466faea6f3af55bd","null","null","<p style=""font-size: 60px; font-family: BACS"">NbacAGlu</p>","","","","","","","","",""
"html-keyboard-response","22","127864","0.0-8.0-0.14","6131f7010e926c9103558040","650c16f0f2faf8d7a0d14c09","651c1e92466faea6f3af55bd","null","null","<p style=""font-size: 60px; font-family: BACS"">laYmrNUZ</p>","","","","","","","","",""
"html-keyboard-response","23","129853","0.0-8.0-0.15","6131f7010e926c9103558040","650c16f0f2faf8d7a0d14c09","651c1e92466faea6f3af55bd","null","null","<p style=""font-size: 60px; font-family: BACS"">ckdAmYDTk</p>","","","","","","","","",""
"html-keyboard-response","24","130854","0.0-8.0-0.16","6131f7010e926c9103558040","650c16f0f2faf8d7a0d14c09","651c1e92466faea6f3af55bd","null","null","<p style=""font-size: 60px; font-family: BACS"">bAdkDKP</p>","","","","","","","","",""
"html-keyboard-response","25","131854","0.0-8.0-0.17","6131f7010e926c9103558040","650c16f0f2faf8d7a0d14c09","651c1e92466faea6f3af55bd","null","null","<p style=""font-size: 60px; font-family: BACS"">LcNUJbLd</p>","","","","","","","","",""
"html-keyboard-response","26","132862","0.0-8.0-0.18","6131f7010e926c9103558040","650c16f0f2faf8d7a0d14c09","651c1e92466faea6f3af55bd","null","null","<p style=""font-size: 60px; font-family: BACS"">kNuaGlu</p>","","","","","","","","",""
"html-keyboard-response","27","133867","0.0-8.0-0.19","6131f7010e926c9103558040","650c16f0f2faf8d7a0d14c09","651c1e92466faea6f3af55bd","null","null","<p style=""font-size: 60px; font-family: BACS"">laYmrmkc</p>","","","","","","","","",""
"html-keyboard-response","28","135859","0.0-8.0-0.20","6131f7010e926c9103558040","650c16f0f2faf8d7a0d14c09","651c1e92466faea6f3af55bd","null","null","<p style=""font-size: 60px; font-family: BACS"">ckdAmYBO</p>","","","","","","","","",""
"html-keyboard-response","29","137868","0.0-8.0-0.21","6131f7010e926c9103558040","650c16f0f2faf8d7a0d14c09","651c1e92466faea6f3af55bd","null","null","<p style=""font-size: 60px; font-family: BACS"">QOLmumkc</p>","","","","","","","","",""
"html-keyboard-response","30","139852","0.0-8.0-0.22","6131f7010e926c9103558040","650c16f0f2faf8d7a0d14c09","651c1e92466faea6f3af55bd","null","null","<p style=""font-size: 60px; font-family: BACS"">LcNUJGlu</p>","","","","","","","","",""
"html-keyboard-response","31","140857","0.0-8.0-0.23","6131f7010e926c9103558040","650c16f0f2faf8d7a0d14c09","651c1e92466faea6f3af55bd","null","null","<p style=""font-size: 60px; font-family: BACS"">kulZbLd</p>","","","","","","","","",""
"html-keyboard-response","32","141864","0.0-8.0-0.24","6131f7010e926c9103558040","650c16f0f2faf8d7a0d14c09","651c1e92466faea6f3af55bd","null","null","<p style=""font-size: 60px; font-family: BACS"">Juamlmkc</p>","","","","","","","","",""
"html-keyboard-response","33","142866","0.0-8.0-0.25","6131f7010e926c9103558040","650c16f0f2faf8d7a0d14c09","651c1e92466faea6f3af55bd","null","null","<p style=""font-size: 60px; font-family: BACS"">CYPcBCAd</p>","","","","","","","","",""
"html-keyboard-response","34","144862","0.0-8.0-0.26","6131f7010e926c9103558040","650c16f0f2faf8d7a0d14c09","651c1e92466faea6f3af55bd","null","null","<p style=""font-size: 60px; font-family: BACS"">kulZNUZ</p>","","","","","","","","",""
"html-keyboard-response","35","146868","0.0-8.0-0.27","6131f7010e926c9103558040","650c16f0f2faf8d7a0d14c09","651c1e92466faea6f3af55bd","null","null","<p style=""font-size: 60px; font-family: BACS"">lTmODKP</p>","","","","","","","","",""
"html-keyboard-response","36","148863","0.0-8.0-0.28","6131f7010e926c9103558040","650c16f0f2faf8d7a0d14c09","651c1e92466faea6f3af55bd","null","null","<p style=""font-size: 60px; font-family: BACS"">bAdkYDTk</p>","","","","","","","","",""
"html-keyboard-response","37","150863","0.0-8.0-0.29","6131f7010e926c9103558040","650c16f0f2faf8d7a0d14c09","651c1e92466faea6f3af55bd","null","null","<p style=""font-size: 60px; font-family: BACS"">NbacAbLd</p>","","","","","","","","",""
"html-keyboard-response","38","152858","0.0-8.0-0.30","6131f7010e926c9103558040","650c16f0f2faf8d7a0d14c09","651c1e92466faea6f3af55bd","null","null","<p style=""font-size: 60px; font-family: BACS"">OMlTYBO</p>","","","","","","","","",""
"html-keyboard-response","39","153859","0.0-8.0-0.31","6131f7010e926c9103558040","650c16f0f2faf8d7a0d14c09","651c1e92466faea6f3af55bd","null","null","<p style=""font-size: 60px; font-family: BACS"">PdDTBCAd</p>","","","","","","","","",""
"html-keyboard-response","40","154862","0.0-8.0-0.32","6131f7010e926c9103558040","650c16f0f2faf8d7a0d14c09","651c1e92466faea6f3af55bd","null","null","<p style=""font-size: 60px; font-family: BACS"">kulZmkc</p>","","","","","","","","",""
"html-keyboard-response","41","156854","0.0-8.0-0.33","6131f7010e926c9103558040","650c16f0f2faf8d7a0d14c09","651c1e92466faea6f3af55bd","null","null","<p style=""font-size: 60px; font-family: BACS"">JmNkcUN</p>","","","","","","","","",""
"html-keyboard-response","42","157867","0.0-8.0-0.34","6131f7010e926c9103558040","650c16f0f2faf8d7a0d14c09","651c1e92466faea6f3af55bd","null","null","<p style=""font-size: 60px; font-family: BACS"">LcNUJNUZ</p>","","","","","","","","",""
"html-keyboard-response","43","159853","0.0-8.0-0.35","6131f7010e926c9103558040","650c16f0f2faf8d7a0d14c09","651c1e92466faea6f3af55bd","null","null","<p style=""font-size: 60px; font-family: BACS"">QOLmucUN</p>","","","","","","","","",""
"html-keyboard-response","44","160860","0.0-8.0-0.36","6131f7010e926c9103558040","650c16f0f2faf8d7a0d14c09","651c1e92466faea6f3af55bd","null","null","<p style=""font-size: 60px; font-family: BACS"">PdDTYDTk</p>","","","","","","","","",""
"html-keyboard-response","45","161868","0.0-8.0-0.37","6131f7010e926c9103558040","650c16f0f2faf8d7a0d14c09","651c1e92466faea6f3af55bd","null","null","<p style=""font-size: 60px; font-family: BACS"">DCmhBCAd</p>","","","","","","","","",""
"html-keyboard-response","46","163865","0.0-8.0-0.38","6131f7010e926c9103558040","650c16f0f2faf8d7a0d14c09","651c1e92466faea6f3af55bd","null","null","<p style=""font-size: 60px; font-family: BACS"">kulZGlu</p>","","","","","","","","",""
"html-keyboard-response","47","165863","0.0-8.0-0.39","6131f7010e926c9103558040","650c16f0f2faf8d7a0d14c09","651c1e92466faea6f3af55bd","null","null","<p style=""font-size: 60px; font-family: BACS"">JuamlbLd</p>","","","","","","","","",""
"html-keyboard-response","48","167859","0.0-8.0-0.40","6131f7010e926c9103558040","650c16f0f2faf8d7a0d14c09","651c1e92466faea6f3af55bd","null","null","<p style=""font-size: 60px; font-family: BACS"">MhKdDKP</p>","","","","","","","","",""
"html-keyboard-response","49","169853","0.0-8.0-0.41","6131f7010e926c9103558040","650c16f0f2faf8d7a0d14c09","651c1e92466faea6f3af55bd","null","null","<p style=""font-size: 60px; font-family: BACS"">lTmOYDTk</p>","","","","","","","","",""
"html-keyboard-response","50","170854","0.0-8.0-0.42","6131f7010e926c9103558040","650c16f0f2faf8d7a0d14c09","651c1e92466faea6f3af55bd","null","null","<p style=""font-size: 60px; font-family: BACS"">LcNUJcUN</p>","","","","","","","","",""
"html-keyboard-response","51","171861","0.0-8.0-0.43","6131f7010e926c9103558040","650c16f0f2faf8d7a0d14c09","651c1e92466faea6f3af55bd","null","null","<p style=""font-size: 60px; font-family: BACS"">bAdkYcM</p>","","","","","","","","",""
"html-keyboard-response","52","173856","0.0-8.0-0.44","6131f7010e926c9103558040","650c16f0f2faf8d7a0d14c09","651c1e92466faea6f3af55bd","null","null","<p style=""font-size: 60px; font-family: BACS"">JuamlNUZ</p>","","","","","","","","",""
"html-keyboard-response","53","174858","0.0-8.0-0.45","6131f7010e926c9103558040","650c16f0f2faf8d7a0d14c09","651c1e92466faea6f3af55bd","null","null","<p style=""font-size: 60px; font-family: BACS"">mBYlYcM</p>","","","","","","","","",""
"html-keyboard-response","54","175864","0.0-8.0-0.46","6131f7010e926c9103558040","650c16f0f2faf8d7a0d14c09","651c1e92466faea6f3af55bd","null","null","<p style=""font-size: 60px; font-family: BACS"">NbacAmkc</p>","","","","","","","","",""
"html-keyboard-response","55","177863","0.0-8.0-0.47","6131f7010e926c9103558040","650c16f0f2faf8d7a0d14c09","651c1e92466faea6f3af55bd","null","null","<p style=""font-size: 60px; font-family: BACS"">OMlTDKP</p>","","","","","","","","",""
"html-keyboard-response","56","178865","0.0-8.0-0.48","6131f7010e926c9103558040","650c16f0f2faf8d7a0d14c09","651c1e92466faea6f3af55bd","null","null","<p style=""font-size: 60px; font-family: BACS"">lTmOYcM</p>","","","","","","","","",""
"html-keyboard-response","57","179867","0.0-8.0-0.49","6131f7010e926c9103558040","650c16f0f2faf8d7a0d14c09","651c1e92466faea6f3af55bd","null","null","<p style=""font-size: 60px; font-family: BACS"">kNuaNUZ</p>","","","","","","","","",""
"html-keyboard-response","58","181856","0.0-8.0-0.50","6131f7010e926c9103558040","650c16f0f2faf8d7a0d14c09","651c1e92466faea6f3af55bd","null","null","<p style=""font-size: 60px; font-family: BACS"">bAdkYBO</p>","","","","","","","","",""
"html-keyboard-response","59","182861","0.0-8.0-0.51","6131f7010e926c9103558040","650c16f0f2faf8d7a0d14c09","651c1e92466faea6f3af55bd","null","null","<p style=""font-size: 60px; font-family: BACS"">LdrbvcUN</p>","","","","","","","","",""
"html-keyboard-response","60","183866","0.0-8.0-0.52","6131f7010e926c9103558040","650c16f0f2faf8d7a0d14c09","651c1e92466faea6f3af55bd","null","null","<p style=""font-size: 60px; font-family: BACS"">PlEKYBO</p>","","","","","","","","",""
"html-keyboard-response","61","185865","0.0-8.0-0.53","6131f7010e926c9103558040","650c16f0f2faf8d7a0d14c09","651c1e92466faea6f3af55bd","null","null","<p style=""font-size: 60px; font-family: BACS"">mBYlBCAd</p>","","","","","","","","",""
"html-keyboard-response","62","186868","0.0-8.0-0.54","6131f7010e926c9103558040","650c16f0f2faf8d7a0d14c09","651c1e92466faea6f3af55bd","null","null","<p style=""font-size: 60px; font-family: BACS"">OMlTYcM</p>","","","","","","","","",""
"html-keyboard-response","63","187870","0.0-8.0-0.55","6131f7010e926c9103558040","650c16f0f2faf8d7a0d14c09","651c1e92466faea6f3af55bd","null","null","<p style=""font-size: 60px; font-family: BACS"">laYmrbLd</p>","","","","","","","","",""
"html-keyboard-response","64","189858","0.0-8.0-0.56","6131f7010e926c9103558040","650c16f0f2faf8d7a0d14c09","651c1e92466faea6f3af55bd","null","null","<p style=""font-size: 60px; font-family: BACS"">uauOcUN</p>","","","","","","","","",""
"html-keyboard-response","65","190864","0.0-8.0-0.57","6131f7010e926c9103558040","650c16f0f2faf8d7a0d14c09","651c1e92466faea6f3af55bd","null","null","<p style=""font-size: 60px; font-family: BACS"">JmNkmkc</p>","","","","","","","","",""
"html-keyboard-response","66","191871","0.0-8.0-0.58","6131f7010e926c9103558040","650c16f0f2faf8d7a0d14c09","651c1e92466faea6f3af55bd","null","null","<p style=""font-size: 60px; font-family: BACS"">NbacAcUN</p>","","","","","","","","",""
"html-keyboard-response","67","193853","0.0-8.0-0.59","6131f7010e926c9103558040","650c16f0f2faf8d7a0d14c09","651c1e92466faea6f3af55bd","null","null","<p style=""font-size: 60px; font-family: BACS"">uauOmkc</p>","","","","","","","","",""
"html-keyboard-response","68","194854","0.0-8.0-0.60","6131f7010e926c9103558040","650c16f0f2faf8d7a0d14c09","651c1e92466faea6f3af55bd","null","null","<p style=""font-size: 60px; font-family: BACS"">PdDTDKP</p>","","","","","","","","",""
"html-keyboard-response","69","195864","0.0-8.0-0.61","6131f7010e926c9103558040","650c16f0f2faf8d7a0d14c09","651c1e92466faea6f3af55bd","null","null","<p style=""font-size: 60px; font-family: BACS"">PlEKBCAd</p>","","","","","","","","",""
"html-keyboard-response","70","196865","0.0-8.0-0.62","6131f7010e926c9103558040","650c16f0f2faf8d7a0d14c09","651c1e92466faea6f3af55bd","null","null","<p style=""font-size: 60px; font-family: BACS"">DCmhYDTk</p>","","","","","","","","",""
"html-keyboard-response","71","198853","0.0-8.0-0.63","6131f7010e926c9103558040","650c16f0f2faf8d7a0d14c09","651c1e92466faea6f3af55bd","null","null","<p style=""font-size: 60px; font-family: BACS"">JmNkGlu</p>","","","","","","","","",""
"html-keyboard-response","72","199860","0.0-8.0-0.64","6131f7010e926c9103558040","650c16f0f2faf8d7a0d14c09","651c1e92466faea6f3af55bd","null","null","<p style=""font-size: 60px; font-family: BACS"">ckdAmBCAd</p>","","","","","","","","",""
"html-keyboard-response","73","200867","0.0-8.0-0.65","6131f7010e926c9103558040","650c16f0f2faf8d7a0d14c09","651c1e92466faea6f3af55bd","null","null","<p style=""font-size: 60px; font-family: BACS"">CYPcYcM</p>","","","","","","","","",""
"html-keyboard-response","74","202854","0.0-8.0-0.66","6131f7010e926c9103558040","650c16f0f2faf8d7a0d14c09","651c1e92466faea6f3af55bd","null","null","<p style=""font-size: 60px; font-family: BACS"">kNuacUN</p>","","","","","","","","",""
"html-keyboard-response","75","203866","0.0-8.0-0.67","6131f7010e926c9103558040","650c16f0f2faf8d7a0d14c09","651c1e92466faea6f3af55bd","null","null","<p style=""font-size: 60px; font-family: BACS"">laYmrGlu</p>","","","","","","","","",""
"html-keyboard-response","76","205853","0.0-8.0-0.68","6131f7010e926c9103558040","650c16f0f2faf8d7a0d14c09","651c1e92466faea6f3af55bd","null","null","<p style=""font-size: 60px; font-family: BACS"">OMlTBCAd</p>","","","","","","","","",""
"html-keyboard-response","77","206867","0.0-8.0-0.69","6131f7010e926c9103558040","650c16f0f2faf8d7a0d14c09","651c1e92466faea6f3af55bd","null","null","<p style=""font-size: 60px; font-family: BACS"">LdrbvbLd</p>","","","","","","","","",""
"html-keyboard-response","78","208866","0.0-8.0-0.70","6131f7010e926c9103558040","650c16f0f2faf8d7a0d14c09","651c1e92466faea6f3af55bd","null","null","<p style=""font-size: 60px; font-family: BACS"">mBYlYBO</p>","","","","","","","","",""
"html-keyboard-response","79","209866","0.0-8.0-0.71","6131f7010e926c9103558040","650c16f0f2faf8d7a0d14c09","651c1e92466faea6f3af55bd","null","null","<p style=""font-size: 60px; font-family: BACS"">JmNkNUZ</p>","","","","","","","","",""
"html-keyboard-response","80","211858","0.0-8.0-0.72","6131f7010e926c9103558040","650c16f0f2faf8d7a0d14c09","651c1e92466faea6f3af55bd","null","null","<p style=""font-size: 60px; font-family: BACS"">MhKdYDTk</p>","","","","","","","","",""
"html-keyboard-response","81","212863","0.0-8.0-0.73","6131f7010e926c9103558040","650c16f0f2faf8d7a0d14c09","651c1e92466faea6f3af55bd","null","null","<p style=""font-size: 60px; font-family: BACS"">LdrbvGlu</p>","","","","","","","","",""
"html-keyboard-response","82","213866","0.0-8.0-0.74","6131f7010e926c9103558040","650c16f0f2faf8d7a0d14c09","651c1e92466faea6f3af55bd","null","null","<p style=""font-size: 60px; font-family: BACS"">QOLmuNUZ</p>","","","","","","","","",""
"html-keyboard-response","83","214868","0.0-8.0-0.75","6131f7010e926c9103558040","650c16f0f2faf8d7a0d14c09","651c1e92466faea6f3af55bd","null","null","<p style=""font-size: 60px; font-family: BACS"">CYPcDKP</p>","","","","","","","","",""
"html-keyboard-response","84","216864","0.0-8.0-0.76","6131f7010e926c9103558040","650c16f0f2faf8d7a0d14c09","651c1e92466faea6f3af55bd","null","null","<p style=""font-size: 60px; font-family: BACS"">lTmOYBO</p>","","","","","","","","",""
"html-keyboard-response","85","217868","0.0-8.0-0.77","6131f7010e926c9103558040","650c16f0f2faf8d7a0d14c09","651c1e92466faea6f3af55bd","null","null","<p style=""font-size: 60px; font-family: BACS"">mBYlYDTk</p>","","","","","","","","",""
"html-keyboard-response","86","218868","0.0-8.0-0.78","6131f7010e926c9103558040","650c16f0f2faf8d7a0d14c09","651c1e92466faea6f3af55bd","null","null","<p style=""font-size: 60px; font-family: BACS"">PdDTYcM</p>","","","","","","","","",""
"html-keyboard-response","87","220863","0.0-8.0-0.79","6131f7010e926c9103558040","650c16f0f2faf8d7a0d14c09","651c1e92466faea6f3af55bd","null","null","<p style=""font-size: 60px; font-family: BACS"">DCmhYBO</p>","","","","","","","","",""
"html-keyboard-response","88","225965","0.0-9.0","6131f7010e926c9103558040","650c16f0f2faf8d7a0d14c09","651c1e92466faea6f3af55bd","5102"," ","<p>Great, you've seen the first block of words. You may now take a short break.</p>
      <p>Press the spacebar when you're ready to continue.</p>","","","","","","","","",""
"html-keyboard-response","89","226981","0.0-10.0-0.0","6131f7010e926c9103558040","650c16f0f2faf8d7a0d14c09","651c1e92466faea6f3af55bd","null","null","<p style=""font-size: 60px; font-family: BACS"">MhKdBCAd</p>","","","","","","","","",""
"html-keyboard-response","90","227992","0.0-10.0-0.1","6131f7010e926c9103558040","650c16f0f2faf8d7a0d14c09","651c1e92466faea6f3af55bd","null","null","<p style=""font-size: 60px; font-family: BACS"">DCmhYDTk</p>","","","","","","","","",""
"html-keyboard-response","91","228996","0.0-10.0-0.2","6131f7010e926c9103558040","650c16f0f2faf8d7a0d14c09","651c1e92466faea6f3af55bd","null","null","<p style=""font-size: 60px; font-family: BACS"">MhKdYcM</p>","","","","","","","","",""
"html-keyboard-response","92","230010","0.0-10.0-0.3","6131f7010e926c9103558040","650c16f0f2faf8d7a0d14c09","651c1e92466faea6f3af55bd","null","null","<p style=""font-size: 60px; font-family: BACS"">LcNUJGlu</p>","","","","","","","","",""
"html-keyboard-response","93","231865","0.0-10.0-0.4","6131f7010e926c9103558040","650c16f0f2faf8d7a0d14c09","651c1e92466faea6f3af55bd","null","null","<p style=""font-size: 60px; font-family: BACS"">Ldrbvmkc</p>","","","","","","","","",""
"html-keyboard-response","94","233862","0.0-10.0-0.5","6131f7010e926c9103558040","650c16f0f2faf8d7a0d14c09","651c1e92466faea6f3af55bd","null","null","<p style=""font-size: 60px; font-family: BACS"">bAdkYDTk</p>","","","","","","","","",""
"html-keyboard-response","95","234863","0.0-10.0-0.6","6131f7010e926c9103558040","650c16f0f2faf8d7a0d14c09","651c1e92466faea6f3af55bd","null","null","<p style=""font-size: 60px; font-family: BACS"">laYmrmkc</p>","","","","","","","","",""
"html-keyboard-response","96","235868","0.0-10.0-0.7","6131f7010e926c9103558040","650c16f0f2faf8d7a0d14c09","651c1e92466faea6f3af55bd","null","null","<p style=""font-size: 60px; font-family: BACS"">kNuaGlu</p>","","","","","","","","",""
"html-keyboard-response","97","237862","0.0-10.0-0.8","6131f7010e926c9103558040","650c16f0f2faf8d7a0d14c09","651c1e92466faea6f3af55bd","null","null","<p style=""font-size: 60px; font-family: BACS"">LcNUJcUN</p>","","","","","","","","",""
"html-keyboard-response","98","239859","0.0-10.0-0.9","6131f7010e926c9103558040","650c16f0f2faf8d7a0d14c09","651c1e92466faea6f3af55bd","null","null","<p style=""font-size: 60px; font-family: BACS"">bAdkYBO</p>","","","","","","","","",""
"html-keyboard-response","99","240860","0.0-10.0-0.10","6131f7010e926c9103558040","650c16f0f2faf8d7a0d14c09","651c1e92466faea6f3af55bd","null","null","<p style=""font-size: 60px; font-family: BACS"">uauOmkc</p>","","","","","","","","",""
"html-keyboard-response","100","242865","0.0-10.0-0.11","6131f7010e926c9103558040","650c16f0f2faf8d7a0d14c09","651c1e92466faea6f3af55bd","null","null","<p style=""font-size: 60px; font-family: BACS"">MhKdDKP</p>","","","","","","","","",""
"html-keyboard-response","101","244853","0.0-10.0-0.12","6131f7010e926c9103558040","650c16f0f2faf8d7a0d14c09","651c1e92466faea6f3af55bd","null","null","<p style=""font-size: 60px; font-family: BACS"">JmNkGlu</p>","","","","","","","","",""
"html-keyboard-response","102","245864","0.0-10.0-0.13","6131f7010e926c9103558040","650c16f0f2faf8d7a0d14c09","651c1e92466faea6f3af55bd","null","null","<p style=""font-size: 60px; font-family: BACS"">QOLmumkc</p>","","","","","","","","",""
"html-keyboard-response","103","247858","0.0-10.0-0.14","6131f7010e926c9103558040","650c16f0f2faf8d7a0d14c09","651c1e92466faea6f3af55bd","null","null","<p style=""font-size: 60px; font-family: BACS"">laYmrNUZ</p>","","","","","","","","",""
"html-keyboard-response","104","248865","0.0-10.0-0.15","6131f7010e926c9103558040","650c16f0f2faf8d7a0d14c09","651c1e92466faea6f3af55bd","null","null","<p style=""font-size: 60px; font-family: BACS"">lTmOYcM</p>","","","","","","","","",""
"html-keyboard-response","105","250864","0.0-10.0-0.16","6131f7010e926c9103558040","650c16f0f2faf8d7a0d14c09","651c1e92466faea6f3af55bd","null","null","<p style=""font-size: 60px; font-family: BACS"">MhKdYDTk</p>","","","","","","","","",""
"html-keyboard-response","106","252861","0.0-10.0-0.17","6131f7010e926c9103558040","650c16f0f2faf8d7a0d14c09","651c1e92466faea6f3af55bd","null","null","<p style=""font-size: 60px; font-family: BACS"">OMlTYBO</p>","","","","","","","","",""
"html-keyboard-response","107","253866","0.0-10.0-0.18","6131f7010e926c9103558040","650c16f0f2faf8d7a0d14c09","651c1e92466faea6f3af55bd","null","null","<p style=""font-size: 60px; font-family: BACS"">kulZNUZ</p>","","","","","","","","",""
"html-keyboard-response","108","254867","0.0-10.0-0.19","6131f7010e926c9103558040","650c16f0f2faf8d7a0d14c09","651c1e92466faea6f3af55bd","null","null","<p style=""font-size: 60px; font-family: BACS"">NbacAGlu</p>","","","","","","","","",""
"html-keyboard-response","109","255868","0.0-10.0-0.20","6131f7010e926c9103558040","650c16f0f2faf8d7a0d14c09","651c1e92466faea6f3af55bd","null","null","<p style=""font-size: 60px; font-family: BACS"">mBYlBCAd</p>","","","","","","","","",""
"html-keyboard-response","110","256872","0.0-10.0-0.21","6131f7010e926c9103558040","650c16f0f2faf8d7a0d14c09","651c1e92466faea6f3af55bd","null","null","<p style=""font-size: 60px; font-family: BACS"">PdDTYDTk</p>","","","","","","","","",""
"html-keyboard-response","111","258867","0.0-10.0-0.22","6131f7010e926c9103558040","650c16f0f2faf8d7a0d14c09","651c1e92466faea6f3af55bd","null","null","<p style=""font-size: 60px; font-family: BACS"">PlEKDKP</p>","","","","","","","","",""
"html-keyboard-response","112","259868","0.0-10.0-0.23","6131f7010e926c9103558040","650c16f0f2faf8d7a0d14c09","651c1e92466faea6f3af55bd","null","null","<p style=""font-size: 60px; font-family: BACS"">lTmOYBO</p>","","","","","","","","",""
"html-keyboard-response","113","261853","0.0-10.0-0.24","6131f7010e926c9103558040","650c16f0f2faf8d7a0d14c09","651c1e92466faea6f3af55bd","null","null","<p style=""font-size: 60px; font-family: BACS"">LcNUJbLd</p>","","","","","","","","",""
"html-keyboard-response","114","262858","0.0-10.0-0.25","6131f7010e926c9103558040","650c16f0f2faf8d7a0d14c09","651c1e92466faea6f3af55bd","null","null","<p style=""font-size: 60px; font-family: BACS"">DCmhBCAd</p>","","","","","","","","",""
"html-keyboard-response","115","263862","0.0-10.0-0.26","6131f7010e926c9103558040","650c16f0f2faf8d7a0d14c09","651c1e92466faea6f3af55bd","null","null","<p style=""font-size: 60px; font-family: BACS"">QOLmubLd</p>","","","","","","","","",""
"html-keyboard-response","116","265856","0.0-10.0-0.27","6131f7010e926c9103558040","650c16f0f2faf8d7a0d14c09","651c1e92466faea6f3af55bd","null","null","<p style=""font-size: 60px; font-family: BACS"">OMlTYcM</p>","","","","","","","","",""
"html-keyboard-response","117","266858","0.0-10.0-0.28","6131f7010e926c9103558040","650c16f0f2faf8d7a0d14c09","651c1e92466faea6f3af55bd","null","null","<p style=""font-size: 60px; font-family: BACS"">mBYlYDTk</p>","","","","","","","","",""
"html-keyboard-response","118","267860","0.0-10.0-0.29","6131f7010e926c9103558040","650c16f0f2faf8d7a0d14c09","651c1e92466faea6f3af55bd","null","null","<p style=""font-size: 60px; font-family: BACS"">PlEKBCAd</p>","","","","","","","","",""
"html-keyboard-response","119","268865","0.0-10.0-0.30","6131f7010e926c9103558040","650c16f0f2faf8d7a0d14c09","651c1e92466faea6f3af55bd","null","null","<p style=""font-size: 60px; font-family: BACS"">kNuabLd</p>","","","","","","","","",""
"html-keyboard-response","120","269867","0.0-10.0-0.31","6131f7010e926c9103558040","650c16f0f2faf8d7a0d14c09","651c1e92466faea6f3af55bd","null","null","<p style=""font-size: 60px; font-family: BACS"">PlEKYBO</p>","","","","","","","","",""
"html-keyboard-response","121","271867","0.0-10.0-0.32","6131f7010e926c9103558040","650c16f0f2faf8d7a0d14c09","651c1e92466faea6f3af55bd","null","null","<p style=""font-size: 60px; font-family: BACS"">kulZbLd</p>","","","","","","","","",""
"html-keyboard-response","122","273857","0.0-10.0-0.33","6131f7010e926c9103558040","650c16f0f2faf8d7a0d14c09","651c1e92466faea6f3af55bd","null","null","<p style=""font-size: 60px; font-family: BACS"">uauOcUN</p>","","","","","","","","",""
"html-keyboard-response","123","274867","0.0-10.0-0.34","6131f7010e926c9103558040","650c16f0f2faf8d7a0d14c09","651c1e92466faea6f3af55bd","null","null","<p style=""font-size: 60px; font-family: BACS"">PdDTDKP</p>","","","","","","","","",""
"html-keyboard-response","124","275867","0.0-10.0-0.35","6131f7010e926c9103558040","650c16f0f2faf8d7a0d14c09","651c1e92466faea6f3af55bd","null","null","<p style=""font-size: 60px; font-family: BACS"">JmNkcUN</p>","","","","","","","","",""
"html-keyboard-response","125","277853","0.0-10.0-0.36","6131f7010e926c9103558040","650c16f0f2faf8d7a0d14c09","651c1e92466faea6f3af55bd","null","null","<p style=""font-size: 60px; font-family: BACS"">PdDTYcM</p>","","","","","","","","",""
"html-keyboard-response","126","278862","0.0-10.0-0.37","6131f7010e926c9103558040","650c16f0f2faf8d7a0d14c09","651c1e92466faea6f3af55bd","null","null","<p style=""font-size: 60px; font-family: BACS"">ckdAmYBO</p>","","","","","","","","",""
"html-keyboard-response","127","280861","0.0-10.0-0.38","6131f7010e926c9103558040","650c16f0f2faf8d7a0d14c09","651c1e92466faea6f3af55bd","null","null","<p style=""font-size: 60px; font-family: BACS"">OMlTDKP</p>","","","","","","","","",""
"html-keyboard-response","128","281868","0.0-10.0-0.39","6131f7010e926c9103558040","650c16f0f2faf8d7a0d14c09","651c1e92466faea6f3af55bd","null","null","<p style=""font-size: 60px; font-family: BACS"">LcNUJNUZ</p>","","","","","","","","",""
"html-keyboard-response","129","283856","0.0-10.0-0.40","6131f7010e926c9103558040","650c16f0f2faf8d7a0d14c09","651c1e92466faea6f3af55bd","null","null","<p style=""font-size: 60px; font-family: BACS"">ckdAmBCAd</p>","","","","","","","","",""
"html-keyboard-response","130","284861","0.0-10.0-0.41","6131f7010e926c9103558040","650c16f0f2faf8d7a0d14c09","651c1e92466faea6f3af55bd","null","null","<p style=""font-size: 60px; font-family: BACS"">bAdkYcM</p>","","","","","","","","",""
"html-keyboard-response","131","285865","0.0-10.0-0.42","6131f7010e926c9103558040","650c16f0f2faf8d7a0d14c09","651c1e92466faea6f3af55bd","null","null","<p style=""font-size: 60px; font-family: BACS"">CYPcBCAd</p>","","","","","","","","",""
"html-keyboard-response","132","287860","0.0-10.0-0.43","6131f7010e926c9103558040","650c16f0f2faf8d7a0d14c09","651c1e92466faea6f3af55bd","null","null","<p style=""font-size: 60px; font-family: BACS"">mBYlYcM</p>","","","","","","","","",""
"html-keyboard-response","133","288861","0.0-10.0-0.44","6131f7010e926c9103558040","650c16f0f2faf8d7a0d14c09","651c1e92466faea6f3af55bd","null","null","<p style=""font-size: 60px; font-family: BACS"">CYPcYBO</p>","","","","","","","","",""
"html-keyboard-response","134","289866","0.0-10.0-0.45","6131f7010e926c9103558040","650c16f0f2faf8d7a0d14c09","651c1e92466faea6f3af55bd","null","null","<p style=""font-size: 60px; font-family: BACS"">OMlTBCAd</p>","","","","","","","","",""
"html-keyboard-response","135","291864","0.0-10.0-0.46","6131f7010e926c9103558040","650c16f0f2faf8d7a0d14c09","651c1e92466faea6f3af55bd","null","null","<p style=""font-size: 60px; font-family: BACS"">kulZmkc</p>","","","","","","","","",""
"html-keyboard-response","136","293854","0.0-10.0-0.47","6131f7010e926c9103558040","650c16f0f2faf8d7a0d14c09","651c1e92466faea6f3af55bd","null","null","<p style=""font-size: 60px; font-family: BACS"">kNuaNUZ</p>","","","","","","","","",""
"html-keyboard-response","137","294863","0.0-10.0-0.48","6131f7010e926c9103558040","650c16f0f2faf8d7a0d14c09","651c1e92466faea6f3af55bd","null","null","<p style=""font-size: 60px; font-family: BACS"">QOLmucUN</p>","","","","","","","","",""
"html-keyboard-response","138","295863","0.0-10.0-0.49","6131f7010e926c9103558040","650c16f0f2faf8d7a0d14c09","651c1e92466faea6f3af55bd","null","null","<p style=""font-size: 60px; font-family: BACS"">DCmhDKP</p>","","","","","","","","",""
"html-keyboard-response","139","297859","0.0-10.0-0.50","6131f7010e926c9103558040","650c16f0f2faf8d7a0d14c09","651c1e92466faea6f3af55bd","null","null","<p style=""font-size: 60px; font-family: BACS"">LdrbvbLd</p>","","","","","","","","",""
"html-keyboard-response","140","298865","0.0-10.0-0.51","6131f7010e926c9103558040","650c16f0f2faf8d7a0d14c09","651c1e92466faea6f3af55bd","null","null","<p style=""font-size: 60px; font-family: BACS"">DCmhYBO</p>","","","","","","","","",""
"html-keyboard-response","141","300860","0.0-10.0-0.52","6131f7010e926c9103558040","650c16f0f2faf8d7a0d14c09","651c1e92466faea6f3af55bd","null","null","<p style=""font-size: 60px; font-family: BACS"">JuamlbLd</p>","","","","","","","","",""
"html-keyboard-response","142","302866","0.0-10.0-0.53","6131f7010e926c9103558040","650c16f0f2faf8d7a0d14c09","651c1e92466faea6f3af55bd","null","null","<p style=""font-size: 60px; font-family: BACS"">NbacAcUN</p>","","","","","","","","",""
"html-keyboard-response","143","304853","0.0-10.0-0.54","6131f7010e926c9103558040","650c16f0f2faf8d7a0d14c09","651c1e92466faea6f3af55bd","null","null","<p style=""font-size: 60px; font-family: BACS"">laYmrGlu</p>","","","","","","","","",""
"html-keyboard-response","144","305867","0.0-10.0-0.55","6131f7010e926c9103558040","650c16f0f2faf8d7a0d14c09","651c1e92466faea6f3af55bd","null","null","<p style=""font-size: 60px; font-family: BACS"">ckdAmYcM</p>","","","","","","","","",""
"html-keyboard-response","145","307856","0.0-10.0-0.56","6131f7010e926c9103558040","650c16f0f2faf8d7a0d14c09","651c1e92466faea6f3af55bd","null","null","<p style=""font-size: 60px; font-family: BACS"">QOLmuNUZ</p>","","","","","","","","",""
"html-keyboard-response","146","309859","0.0-10.0-0.57","6131f7010e926c9103558040","650c16f0f2faf8d7a0d14c09","651c1e92466faea6f3af55bd","null","null","<p style=""font-size: 60px; font-family: BACS"">CYPcDKP</p>","","","","","","","","",""
"html-keyboard-response","147","311855","0.0-10.0-0.58","6131f7010e926c9103558040","650c16f0f2faf8d7a0d14c09","651c1e92466faea6f3af55bd","null","null","<p style=""font-size: 60px; font-family: BACS"">lTmOYDTk</p>","","","","","","","","",""
"html-keyboard-response","148","313853","0.0-10.0-0.59","6131f7010e926c9103558040","650c16f0f2faf8d7a0d14c09","651c1e92466faea6f3af55bd","null","null","<p style=""font-size: 60px; font-family: BACS"">bAdkDKP</p>","","","","","","","","",""
"html-keyboard-response","149","314856","0.0-10.0-0.60","6131f7010e926c9103558040","650c16f0f2faf8d7a0d14c09","651c1e92466faea6f3af55bd","null","null","<p style=""font-size: 60px; font-family: BACS"">LdrbvcUN</p>","","","","","","","","",""
"html-keyboard-response","150","316858","0.0-10.0-0.61","6131f7010e926c9103558040","650c16f0f2faf8d7a0d14c09","651c1e92466faea6f3af55bd","null","null","<p style=""font-size: 60px; font-family: BACS"">ckdAmYDTk</p>","","","","","","","","",""
"html-keyboard-response","151","317859","0.0-10.0-0.62","6131f7010e926c9103558040","650c16f0f2faf8d7a0d14c09","651c1e92466faea6f3af55bd","null","null","<p style=""font-size: 60px; font-family: BACS"">NbacAmkc</p>","","","","","","","","",""
"html-keyboard-response","152","319860","0.0-10.0-0.63","6131f7010e926c9103558040","650c16f0f2faf8d7a0d14c09","651c1e92466faea6f3af55bd","null","null","<p style=""font-size: 60px; font-family: BACS"">laYmrbLd</p>","","","","","","","","",""
"html-keyboard-response","153","320862","0.0-10.0-0.64","6131f7010e926c9103558040","650c16f0f2faf8d7a0d14c09","651c1e92466faea6f3af55bd","null","null","<p style=""font-size: 60px; font-family: BACS"">kNuacUN</p>","","","","","","","","",""
"html-keyboard-response","154","322854","0.0-10.0-0.65","6131f7010e926c9103558040","650c16f0f2faf8d7a0d14c09","651c1e92466faea6f3af55bd","null","null","<p style=""font-size: 60px; font-family: BACS"">CYPcYcM</p>","","","","","","","","",""
"html-keyboard-response","155","323868","0.0-10.0-0.66","6131f7010e926c9103558040","650c16f0f2faf8d7a0d14c09","651c1e92466faea6f3af55bd","null","null","<p style=""font-size: 60px; font-family: BACS"">JmNkmkc</p>","","","","","","","","",""
"html-keyboard-response","156","325858","0.0-10.0-0.67","6131f7010e926c9103558040","650c16f0f2faf8d7a0d14c09","651c1e92466faea6f3af55bd","null","null","<p style=""font-size: 60px; font-family: BACS"">NbacAbLd</p>","","","","","","","","",""
"html-keyboard-response","157","327867","0.0-10.0-0.68","6131f7010e926c9103558040","650c16f0f2faf8d7a0d14c09","651c1e92466faea6f3af55bd","null","null","<p style=""font-size: 60px; font-family: BACS"">JmNkNUZ</p>","","","","","","","","",""
"html-keyboard-response","158","328869","0.0-10.0-0.69","6131f7010e926c9103558040","650c16f0f2faf8d7a0d14c09","651c1e92466faea6f3af55bd","null","null","<p style=""font-size: 60px; font-family: BACS"">PlEKYDTk</p>","","","","","","","","",""
"html-keyboard-response","159","329869","0.0-10.0-0.70","6131f7010e926c9103558040","650c16f0f2faf8d7a0d14c09","651c1e92466faea6f3af55bd","null","null","<p style=""font-size: 60px; font-family: BACS"">mBYlYBO</p>","","","","","","","","",""
"html-keyboard-response","160","331866","0.0-10.0-0.71","6131f7010e926c9103558040","650c16f0f2faf8d7a0d14c09","651c1e92466faea6f3af55bd","null","null","<p style=""font-size: 60px; font-family: BACS"">uauOGlu</p>","","","","","","","","",""
"html-keyboard-response","161","333867","0.0-10.0-0.72","6131f7010e926c9103558040","650c16f0f2faf8d7a0d14c09","651c1e92466faea6f3af55bd","null","null","<p style=""font-size: 60px; font-family: BACS"">JuamlNUZ</p>","","","","","","","","",""
"html-keyboard-response","162","335866","0.0-10.0-0.73","6131f7010e926c9103558040","650c16f0f2faf8d7a0d14c09","651c1e92466faea6f3af55bd","null","null","<p style=""font-size: 60px; font-family: BACS"">PdDTBCAd</p>","","","","","","","","",""
"html-keyboard-response","163","337865","0.0-10.0-0.74","6131f7010e926c9103558040","650c16f0f2faf8d7a0d14c09","651c1e92466faea6f3af55bd","null","null","<p style=""font-size: 60px; font-family: BACS"">kulZGlu</p>","","","","","","","","",""
"html-keyboard-response","164","339854","0.0-10.0-0.75","6131f7010e926c9103558040","650c16f0f2faf8d7a0d14c09","651c1e92466faea6f3af55bd","null","null","<p style=""font-size: 60px; font-family: BACS"">JuamlcUN</p>","","","","","","","","",""
"html-keyboard-response","165","340867","0.0-10.0-0.76","6131f7010e926c9103558040","650c16f0f2faf8d7a0d14c09","651c1e92466faea6f3af55bd","null","null","<p style=""font-size: 60px; font-family: BACS"">uauONUZ</p>","","","","","","","","",""
"html-keyboard-response","166","342854","0.0-10.0-0.77","6131f7010e926c9103558040","650c16f0f2faf8d7a0d14c09","651c1e92466faea6f3af55bd","null","null","<p style=""font-size: 60px; font-family: BACS"">Juamlmkc</p>","","","","","","","","",""
"html-keyboard-response","167","343859","0.0-10.0-0.78","6131f7010e926c9103558040","650c16f0f2faf8d7a0d14c09","651c1e92466faea6f3af55bd","null","null","<p style=""font-size: 60px; font-family: BACS"">LdrbvGlu</p>","","","","","","","","",""
"html-keyboard-response","168","344867","0.0-10.0-0.79","6131f7010e926c9103558040","650c16f0f2faf8d7a0d14c09","651c1e92466faea6f3af55bd","null","null","<p style=""font-size: 60px; font-family: BACS"">lTmODKP</p>","","","","","","","","",""
"html-keyboard-response","169","349903","0.0-11.0","6131f7010e926c9103558040","650c16f0f2faf8d7a0d14c09","651c1e92466faea6f3af55bd","5036"," ","<p>Great, you've seen the second block of words. You may now take a short break.</p>
      <p>Press the spacebar when you're ready to continue.</p>","","","","","","","","",""
"html-keyboard-response","170","350918","0.0-12.0-0.0","6131f7010e926c9103558040","650c16f0f2faf8d7a0d14c09","651c1e92466faea6f3af55bd","null","null","<p style=""font-size: 60px; font-family: BACS"">MhKdDKP</p>","","","","","","","","",""
"html-keyboard-response","171","351930","0.0-12.0-0.1","6131f7010e926c9103558040","650c16f0f2faf8d7a0d14c09","651c1e92466faea6f3af55bd","null","null","<p style=""font-size: 60px; font-family: BACS"">JuamlcUN</p>","","","","","","","","",""
"html-keyboard-response","172","352946","0.0-12.0-0.2","6131f7010e926c9103558040","650c16f0f2faf8d7a0d14c09","651c1e92466faea6f3af55bd","null","null","<p style=""font-size: 60px; font-family: BACS"">kulZNUZ</p>","","","","","","","","",""
"html-keyboard-response","173","353961","0.0-12.0-0.3","6131f7010e926c9103558040","650c16f0f2faf8d7a0d14c09","651c1e92466faea6f3af55bd","null","null","<p style=""font-size: 60px; font-family: BACS"">PlEKDKP</p>","","","","","","","","",""
"html-keyboard-response","174","355860","0.0-12.0-0.4","6131f7010e926c9103558040","650c16f0f2faf8d7a0d14c09","651c1e92466faea6f3af55bd","null","null","<p style=""font-size: 60px; font-family: BACS"">kulZbLd</p>","","","","","","","","",""
"html-keyboard-response","175","357852","0.0-12.0-0.5","6131f7010e926c9103558040","650c16f0f2faf8d7a0d14c09","651c1e92466faea6f3af55bd","null","null","<p style=""font-size: 60px; font-family: BACS"">mBYlYDTk</p>","","","","","","","","",""
"html-keyboard-response","176","358854","0.0-12.0-0.6","6131f7010e926c9103558040","650c16f0f2faf8d7a0d14c09","651c1e92466faea6f3af55bd","null","null","<p style=""font-size: 60px; font-family: BACS"">MhKdYcM</p>","","","","","","","","",""
"html-keyboard-response","177","359868","0.0-12.0-0.7","6131f7010e926c9103558040","650c16f0f2faf8d7a0d14c09","651c1e92466faea6f3af55bd","null","null","<p style=""font-size: 60px; font-family: BACS"">NbacAbLd</p>","","","","","","","","",""
"html-keyboard-response","178","361854","0.0-12.0-0.8","6131f7010e926c9103558040","650c16f0f2faf8d7a0d14c09","651c1e92466faea6f3af55bd","null","null","<p style=""font-size: 60px; font-family: BACS"">ckdAmYcM</p>","","","","","","","","",""
"html-keyboard-response","179","362857","0.0-12.0-0.9","6131f7010e926c9103558040","650c16f0f2faf8d7a0d14c09","651c1e92466faea6f3af55bd","null","null","<p style=""font-size: 60px; font-family: BACS"">CYPcDKP</p>","","","","","","","","",""
"html-keyboard-response","180","363866","0.0-12.0-0.10","6131f7010e926c9103558040","650c16f0f2faf8d7a0d14c09","651c1e92466faea6f3af55bd","null","null","<p style=""font-size: 60px; font-family: BACS"">PdDTYcM</p>","","","","","","","","",""
"html-keyboard-response","181","365868","0.0-12.0-0.11","6131f7010e926c9103558040","650c16f0f2faf8d7a0d14c09","651c1e92466faea6f3af55bd","null","null","<p style=""font-size: 60px; font-family: BACS"">QOLmucUN</p>","","","","","","","","",""
"html-keyboard-response","182","367860","0.0-12.0-0.12","6131f7010e926c9103558040","650c16f0f2faf8d7a0d14c09","651c1e92466faea6f3af55bd","null","null","<p style=""font-size: 60px; font-family: BACS"">OMlTBCAd</p>","","","","","","","","",""
"html-keyboard-response","183","368865","0.0-12.0-0.13","6131f7010e926c9103558040","650c16f0f2faf8d7a0d14c09","651c1e92466faea6f3af55bd","null","null","<p style=""font-size: 60px; font-family: BACS"">LcNUJcUN</p>","","","","","","","","",""
"html-keyboard-response","184","370857","0.0-12.0-0.14","6131f7010e926c9103558040","650c16f0f2faf8d7a0d14c09","651c1e92466faea6f3af55bd","null","null","<p style=""font-size: 60px; font-family: BACS"">lTmOYBO</p>","","","","","","","","",""
"html-keyboard-response","185","372867","0.0-12.0-0.15","6131f7010e926c9103558040","650c16f0f2faf8d7a0d14c09","651c1e92466faea6f3af55bd","null","null","<p style=""font-size: 60px; font-family: BACS"">LcNUJNUZ</p>","","","","","","","","",""
"html-keyboard-response","186","374864","0.0-12.0-0.16","6131f7010e926c9103558040","650c16f0f2faf8d7a0d14c09","651c1e92466faea6f3af55bd","null","null","<p style=""font-size: 60px; font-family: BACS"">lTmODKP</p>","","","","","","","","",""
"html-keyboard-response","187","376857","0.0-12.0-0.17","6131f7010e926c9103558040","650c16f0f2faf8d7a0d14c09","651c1e92466faea6f3af55bd","null","null","<p style=""font-size: 60px; font-family: BACS"">mBYlBCAd</p>","","","","","","","","",""
"html-keyboard-response","188","377865","0.0-12.0-0.18","6131f7010e926c9103558040","650c16f0f2faf8d7a0d14c09","651c1e92466faea6f3af55bd","null","null","<p style=""font-size: 60px; font-family: BACS"">LdrbvGlu</p>","","","","","","","","",""
"html-keyboard-response","189","378867","0.0-12.0-0.19","6131f7010e926c9103558040","650c16f0f2faf8d7a0d14c09","651c1e92466faea6f3af55bd","null","null","<p style=""font-size: 60px; font-family: BACS"">ckdAmYBO</p>","","","","","","","","",""
"html-keyboard-response","190","380857","0.0-12.0-0.20","6131f7010e926c9103558040","650c16f0f2faf8d7a0d14c09","651c1e92466faea6f3af55bd","null","null","<p style=""font-size: 60px; font-family: BACS"">kNuacUN</p>","","","","","","","","",""
"html-keyboard-response","191","381865","0.0-12.0-0.21","6131f7010e926c9103558040","650c16f0f2faf8d7a0d14c09","651c1e92466faea6f3af55bd","null","null","<p style=""font-size: 60px; font-family: BACS"">QOLmubLd</p>","","","","","","","","",""
"html-keyboard-response","192","382867","0.0-12.0-0.22","6131f7010e926c9103558040","650c16f0f2faf8d7a0d14c09","651c1e92466faea6f3af55bd","null","null","<p style=""font-size: 60px; font-family: BACS"">NbacAcUN</p>","","","","","","","","",""
"html-keyboard-response","193","384857","0.0-12.0-0.23","6131f7010e926c9103558040","650c16f0f2faf8d7a0d14c09","651c1e92466faea6f3af55bd","null","null","<p style=""font-size: 60px; font-family: BACS"">PdDTDKP</p>","","","","","","","","",""
"html-keyboard-response","194","385864","0.0-12.0-0.24","6131f7010e926c9103558040","650c16f0f2faf8d7a0d14c09","651c1e92466faea6f3af55bd","null","null","<p style=""font-size: 60px; font-family: BACS"">MhKdYDTk</p>","","","","","","","","",""
"html-keyboard-response","195","387865","0.0-12.0-0.25","6131f7010e926c9103558040","650c16f0f2faf8d7a0d14c09","651c1e92466faea6f3af55bd","null","null","<p style=""font-size: 60px; font-family: BACS"">kNuaNUZ</p>","","","","","","","","",""
"html-keyboard-response","196","389868","0.0-12.0-0.26","6131f7010e926c9103558040","650c16f0f2faf8d7a0d14c09","651c1e92466faea6f3af55bd","null","null","<p style=""font-size: 60px; font-family: BACS"">CYPcBCAd</p>","","","","","","","","",""
"html-keyboard-response","197","390869","0.0-12.0-0.27","6131f7010e926c9103558040","650c16f0f2faf8d7a0d14c09","651c1e92466faea6f3af55bd","null","null","<p style=""font-size: 60px; font-family: BACS"">uauOmkc</p>","","","","","","","","",""
"html-keyboard-response","198","392852","0.0-12.0-0.28","6131f7010e926c9103558040","650c16f0f2faf8d7a0d14c09","651c1e92466faea6f3af55bd","null","null","<p style=""font-size: 60px; font-family: BACS"">bAdkYBO</p>","","","","","","","","",""
"html-keyboard-response","199","393867","0.0-12.0-0.29","6131f7010e926c9103558040","650c16f0f2faf8d7a0d14c09","651c1e92466faea6f3af55bd","null","null","<p style=""font-size: 60px; font-family: BACS"">CYPcYcM</p>","","","","","","","","",""
"html-keyboard-response","200","395863","0.0-12.0-0.30","6131f7010e926c9103558040","650c16f0f2faf8d7a0d14c09","651c1e92466faea6f3af55bd","null","null","<p style=""font-size: 60px; font-family: BACS"">PlEKBCAd</p>","","","","","","","","",""
"html-keyboard-response","201","396865","0.0-12.0-0.31","6131f7010e926c9103558040","650c16f0f2faf8d7a0d14c09","651c1e92466faea6f3af55bd","null","null","<p style=""font-size: 60px; font-family: BACS"">PdDTYDTk</p>","","","","","","","","",""
"html-keyboard-response","202","397868","0.0-12.0-0.32","6131f7010e926c9103558040","650c16f0f2faf8d7a0d14c09","651c1e92466faea6f3af55bd","null","null","<p style=""font-size: 60px; font-family: BACS"">LdrbvcUN</p>","","","","","","","","",""
"html-keyboard-response","203","399863","0.0-12.0-0.33","6131f7010e926c9103558040","650c16f0f2faf8d7a0d14c09","651c1e92466faea6f3af55bd","null","null","<p style=""font-size: 60px; font-family: BACS"">ckdAmYDTk</p>","","","","","","","","",""
"html-keyboard-response","204","401852","0.0-12.0-0.34","6131f7010e926c9103558040","650c16f0f2faf8d7a0d14c09","651c1e92466faea6f3af55bd","null","null","<p style=""font-size: 60px; font-family: BACS"">OMlTDKP</p>","","","","","","","","",""
"html-keyboard-response","205","402863","0.0-12.0-0.35","6131f7010e926c9103558040","650c16f0f2faf8d7a0d14c09","651c1e92466faea6f3af55bd","null","null","<p style=""font-size: 60px; font-family: BACS"">JmNkcUN</p>","","","","","","","","",""
"html-keyboard-response","206","403867","0.0-12.0-0.36","6131f7010e926c9103558040","650c16f0f2faf8d7a0d14c09","651c1e92466faea6f3af55bd","null","null","<p style=""font-size: 60px; font-family: BACS"">bAdkYDTk</p>","","","","","","","","",""
"html-keyboard-response","207","405853","0.0-12.0-0.37","6131f7010e926c9103558040","650c16f0f2faf8d7a0d14c09","651c1e92466faea6f3af55bd","null","null","<p style=""font-size: 60px; font-family: BACS"">NbacAmkc</p>","","","","","","","","",""
"html-keyboard-response","208","406864","0.0-12.0-0.38","6131f7010e926c9103558040","650c16f0f2faf8d7a0d14c09","651c1e92466faea6f3af55bd","null","null","<p style=""font-size: 60px; font-family: BACS"">DCmhDKP</p>","","","","","","","","",""
"html-keyboard-response","209","408855","0.0-12.0-0.39","6131f7010e926c9103558040","650c16f0f2faf8d7a0d14c09","651c1e92466faea6f3af55bd","null","null","<p style=""font-size: 60px; font-family: BACS"">OMlTYBO</p>","","","","","","","","",""
"html-keyboard-response","210","409866","0.0-12.0-0.40","6131f7010e926c9103558040","650c16f0f2faf8d7a0d14c09","651c1e92466faea6f3af55bd","null","null","<p style=""font-size: 60px; font-family: BACS"">JuamlNUZ</p>","","","","","","","","",""
"html-keyboard-response","211","411862","0.0-12.0-0.41","6131f7010e926c9103558040","650c16f0f2faf8d7a0d14c09","651c1e92466faea6f3af55bd","null","null","<p style=""font-size: 60px; font-family: BACS"">mBYlYcM</p>","","","","","","","","",""
"html-keyboard-response","212","413866","0.0-12.0-0.42","6131f7010e926c9103558040","650c16f0f2faf8d7a0d14c09","651c1e92466faea6f3af55bd","null","null","<p style=""font-size: 60px; font-family: BACS"">QOLmuNUZ</p>","","","","","","","","",""
"html-keyboard-response","213","415864","0.0-12.0-0.43","6131f7010e926c9103558040","650c16f0f2faf8d7a0d14c09","651c1e92466faea6f3af55bd","null","null","<p style=""font-size: 60px; font-family: BACS"">LdrbvbLd</p>","","","","","","","","",""
"html-keyboard-response","214","416865","0.0-12.0-0.44","6131f7010e926c9103558040","650c16f0f2faf8d7a0d14c09","651c1e92466faea6f3af55bd","null","null","<p style=""font-size: 60px; font-family: BACS"">uauOGlu</p>","","","","","","","","",""
"html-keyboard-response","215","418857","0.0-12.0-0.45","6131f7010e926c9103558040","650c16f0f2faf8d7a0d14c09","651c1e92466faea6f3af55bd","null","null","<p style=""font-size: 60px; font-family: BACS"">PlEKYDTk</p>","","","","","","","","",""
"html-keyboard-response","216","420853","0.0-12.0-0.46","6131f7010e926c9103558040","650c16f0f2faf8d7a0d14c09","651c1e92466faea6f3af55bd","null","null","<p style=""font-size: 60px; font-family: BACS"">uauONUZ</p>","","","","","","","","",""
"html-keyboard-response","217","421863","0.0-12.0-0.47","6131f7010e926c9103558040","650c16f0f2faf8d7a0d14c09","651c1e92466faea6f3af55bd","null","null","<p style=""font-size: 60px; font-family: BACS"">bAdkYcM</p>","","","","","","","","",""
"html-keyboard-response","218","422865","0.0-12.0-0.48","6131f7010e926c9103558040","650c16f0f2faf8d7a0d14c09","651c1e92466faea6f3af55bd","null","null","<p style=""font-size: 60px; font-family: BACS"">Juamlmkc</p>","","","","","","","","",""
"html-keyboard-response","219","424855","0.0-12.0-0.49","6131f7010e926c9103558040","650c16f0f2faf8d7a0d14c09","651c1e92466faea6f3af55bd","null","null","<p style=""font-size: 60px; font-family: BACS"">DCmhYBO</p>","","","","","","","","",""
"html-keyboard-response","220","425859","0.0-12.0-0.50","6131f7010e926c9103558040","650c16f0f2faf8d7a0d14c09","651c1e92466faea6f3af55bd","null","null","<p style=""font-size: 60px; font-family: BACS"">kNuabLd</p>","","","","","","","","",""
"html-keyboard-response","221","426867","0.0-12.0-0.51","6131f7010e926c9103558040","650c16f0f2faf8d7a0d14c09","651c1e92466faea6f3af55bd","null","null","<p style=""font-size: 60px; font-family: BACS"">NbacAGlu</p>","","","","","","","","",""
"html-keyboard-response","222","428854","0.0-12.0-0.52","6131f7010e926c9103558040","650c16f0f2faf8d7a0d14c09","651c1e92466faea6f3af55bd","null","null","<p style=""font-size: 60px; font-family: BACS"">ckdAmBCAd</p>","","","","","","","","",""
"html-keyboard-response","223","429855","0.0-12.0-0.53","6131f7010e926c9103558040","650c16f0f2faf8d7a0d14c09","651c1e92466faea6f3af55bd","null","null","<p style=""font-size: 60px; font-family: BACS"">uauOcUN</p>","","","","","","","","",""
"html-keyboard-response","224","430856","0.0-12.0-0.54","6131f7010e926c9103558040","650c16f0f2faf8d7a0d14c09","651c1e92466faea6f3af55bd","null","null","<p style=""font-size: 60px; font-family: BACS"">kulZmkc</p>","","","","","","","","",""
"html-keyboard-response","225","431859","0.0-12.0-0.55","6131f7010e926c9103558040","650c16f0f2faf8d7a0d14c09","651c1e92466faea6f3af55bd","null","null","<p style=""font-size: 60px; font-family: BACS"">PlEKYBO</p>","","","","","","","","",""
"html-keyboard-response","226","432861","0.0-12.0-0.56","6131f7010e926c9103558040","650c16f0f2faf8d7a0d14c09","651c1e92466faea6f3af55bd","null","null","<p style=""font-size: 60px; font-family: BACS"">laYmrbLd</p>","","","","","","","","",""
"html-keyboard-response","227","434860","0.0-12.0-0.57","6131f7010e926c9103558040","650c16f0f2faf8d7a0d14c09","651c1e92466faea6f3af55bd","null","null","<p style=""font-size: 60px; font-family: BACS"">JmNkGlu</p>","","","","","","","","",""
"html-keyboard-response","228","436868","0.0-12.0-0.58","6131f7010e926c9103558040","650c16f0f2faf8d7a0d14c09","651c1e92466faea6f3af55bd","null","null","<p style=""font-size: 60px; font-family: BACS"">PdDTBCAd</p>","","","","","","","","",""
"html-keyboard-response","229","438868","0.0-12.0-0.59","6131f7010e926c9103558040","650c16f0f2faf8d7a0d14c09","651c1e92466faea6f3af55bd","null","null","<p style=""font-size: 60px; font-family: BACS"">Ldrbvmkc</p>","","","","","","","","",""
"html-keyboard-response","230","440866","0.0-12.0-0.60","6131f7010e926c9103558040","650c16f0f2faf8d7a0d14c09","651c1e92466faea6f3af55bd","null","null","<p style=""font-size: 60px; font-family: BACS"">DCmhYDTk</p>","","","","","","","","",""
"html-keyboard-response","231","442853","0.0-12.0-0.61","6131f7010e926c9103558040","650c16f0f2faf8d7a0d14c09","651c1e92466faea6f3af55bd","null","null","<p style=""font-size: 60px; font-family: BACS"">laYmrGlu</p>","","","","","","","","",""
"html-keyboard-response","232","443856","0.0-12.0-0.62","6131f7010e926c9103558040","650c16f0f2faf8d7a0d14c09","651c1e92466faea6f3af55bd","null","null","<p style=""font-size: 60px; font-family: BACS"">lTmOYcM</p>","","","","","","","","",""
"html-keyboard-response","233","444861","0.0-12.0-0.63","6131f7010e926c9103558040","650c16f0f2faf8d7a0d14c09","651c1e92466faea6f3af55bd","null","null","<p style=""font-size: 60px; font-family: BACS"">LcNUJbLd</p>","","","","","","","","",""
"html-keyboard-response","234","445867","0.0-12.0-0.64","6131f7010e926c9103558040","650c16f0f2faf8d7a0d14c09","651c1e92466faea6f3af55bd","null","null","<p style=""font-size: 60px; font-family: BACS"">JmNkNUZ</p>","","","","","","","","",""
"html-keyboard-response","235","447867","0.0-12.0-0.65","6131f7010e926c9103558040","650c16f0f2faf8d7a0d14c09","651c1e92466faea6f3af55bd","null","null","<p style=""font-size: 60px; font-family: BACS"">kNuaGlu</p>","","","","","","","","",""
"html-keyboard-response","236","449866","0.0-12.0-0.66","6131f7010e926c9103558040","650c16f0f2faf8d7a0d14c09","651c1e92466faea6f3af55bd","null","null","<p style=""font-size: 60px; font-family: BACS"">laYmrmkc</p>","","","","","","","","",""
"html-keyboard-response","237","451853","0.0-12.0-0.67","6131f7010e926c9103558040","650c16f0f2faf8d7a0d14c09","651c1e92466faea6f3af55bd","null","null","<p style=""font-size: 60px; font-family: BACS"">mBYlYBO</p>","","","","","","","","",""
"html-keyboard-response","238","452868","0.0-12.0-0.68","6131f7010e926c9103558040","650c16f0f2faf8d7a0d14c09","651c1e92466faea6f3af55bd","null","null","<p style=""font-size: 60px; font-family: BACS"">kulZGlu</p>","","","","","","","","",""
"html-keyboard-response","239","454857","0.0-12.0-0.69","6131f7010e926c9103558040","650c16f0f2faf8d7a0d14c09","651c1e92466faea6f3af55bd","null","null","<p style=""font-size: 60px; font-family: BACS"">laYmrNUZ</p>","","","","","","","","",""
"html-keyboard-response","240","455865","0.0-12.0-0.70","6131f7010e926c9103558040","650c16f0f2faf8d7a0d14c09","651c1e92466faea6f3af55bd","null","null","<p style=""font-size: 60px; font-family: BACS"">MhKdBCAd</p>","","","","","","","","",""
"html-keyboard-response","241","457857","0.0-12.0-0.71","6131f7010e926c9103558040","650c16f0f2faf8d7a0d14c09","651c1e92466faea6f3af55bd","null","null","<p style=""font-size: 60px; font-family: BACS"">OMlTYcM</p>","","","","","","","","",""
"html-keyboard-response","242","458859","0.0-12.0-0.72","6131f7010e926c9103558040","650c16f0f2faf8d7a0d14c09","651c1e92466faea6f3af55bd","null","null","<p style=""font-size: 60px; font-family: BACS"">lTmOYDTk</p>","","","","","","","","",""
"html-keyboard-response","243","459864","0.0-12.0-0.73","6131f7010e926c9103558040","650c16f0f2faf8d7a0d14c09","651c1e92466faea6f3af55bd","null","null","<p style=""font-size: 60px; font-family: BACS"">bAdkDKP</p>","","","","","","","","",""
"html-keyboard-response","244","460868","0.0-12.0-0.74","6131f7010e926c9103558040","650c16f0f2faf8d7a0d14c09","651c1e92466faea6f3af55bd","null","null","<p style=""font-size: 60px; font-family: BACS"">JmNkmkc</p>","","","","","","","","",""
"html-keyboard-response","245","462858","0.0-12.0-0.75","6131f7010e926c9103558040","650c16f0f2faf8d7a0d14c09","651c1e92466faea6f3af55bd","null","null","<p style=""font-size: 60px; font-family: BACS"">CYPcYBO</p>","","","","","","","","",""
"html-keyboard-response","246","463866","0.0-12.0-0.76","6131f7010e926c9103558040","650c16f0f2faf8d7a0d14c09","651c1e92466faea6f3af55bd","null","null","<p style=""font-size: 60px; font-family: BACS"">QOLmumkc</p>","","","","","","","","",""
"html-keyboard-response","247","464868","0.0-12.0-0.77","6131f7010e926c9103558040","650c16f0f2faf8d7a0d14c09","651c1e92466faea6f3af55bd","null","null","<p style=""font-size: 60px; font-family: BACS"">LcNUJGlu</p>","","","","","","","","",""
"html-keyboard-response","248","466865","0.0-12.0-0.78","6131f7010e926c9103558040","650c16f0f2faf8d7a0d14c09","651c1e92466faea6f3af55bd","null","null","<p style=""font-size: 60px; font-family: BACS"">DCmhBCAd</p>","","","","","","","","",""
"html-keyboard-response","249","467868","0.0-12.0-0.79","6131f7010e926c9103558040","650c16f0f2faf8d7a0d14c09","651c1e92466faea6f3af55bd","null","null","<p style=""font-size: 60px; font-family: BACS"">JuamlbLd</p>","","","","","","","","",""
"html-keyboard-response","250","471197","0.0-13.0","6131f7010e926c9103558040","650c16f0f2faf8d7a0d14c09","651c1e92466faea6f3af55bd","3329"," ","<p>Great, you've seen the third block of words. You may now take a short break.</p>
      <p>Press the spacebar when you're ready to continue.</p>","","","","","","","","",""
"html-keyboard-response","251","472203","0.0-14.0-0.0","6131f7010e926c9103558040","650c16f0f2faf8d7a0d14c09","651c1e92466faea6f3af55bd","null","null","<p style=""font-size: 60px; font-family: BACS"">DCmhDKP</p>","","","","","","","","",""
"html-keyboard-response","252","473211","0.0-14.0-0.1","6131f7010e926c9103558040","650c16f0f2faf8d7a0d14c09","651c1e92466faea6f3af55bd","null","null","<p style=""font-size: 60px; font-family: BACS"">NbacAbLd</p>","","","","","","","","",""
"html-keyboard-response","253","474220","0.0-14.0-0.2","6131f7010e926c9103558040","650c16f0f2faf8d7a0d14c09","651c1e92466faea6f3af55bd","null","null","<p style=""font-size: 60px; font-family: BACS"">CYPcDKP</p>","","","","","","","","",""
"html-keyboard-response","254","475233","0.0-14.0-0.3","6131f7010e926c9103558040","650c16f0f2faf8d7a0d14c09","651c1e92466faea6f3af55bd","null","null","<p style=""font-size: 60px; font-family: BACS"">QOLmumkc</p>","","","","","","","","",""
"html-keyboard-response","255","476862","0.0-14.0-0.4","6131f7010e926c9103558040","650c16f0f2faf8d7a0d14c09","651c1e92466faea6f3af55bd","null","null","<p style=""font-size: 60px; font-family: BACS"">mBYlBCAd</p>","","","","","","","","",""
"html-keyboard-response","256","477864","0.0-14.0-0.5","6131f7010e926c9103558040","650c16f0f2faf8d7a0d14c09","651c1e92466faea6f3af55bd","null","null","<p style=""font-size: 60px; font-family: BACS"">ckdAmYcM</p>","","","","","","","","",""
"html-keyboard-response","257","478868","0.0-14.0-0.6","6131f7010e926c9103558040","650c16f0f2faf8d7a0d14c09","651c1e92466faea6f3af55bd","null","null","<p style=""font-size: 60px; font-family: BACS"">uauOcUN</p>","","","","","","","","",""
"html-keyboard-response","258","480861","0.0-14.0-0.7","6131f7010e926c9103558040","650c16f0f2faf8d7a0d14c09","651c1e92466faea6f3af55bd","null","null","<p style=""font-size: 60px; font-family: BACS"">kNuabLd</p>","","","","","","","","",""
"html-keyboard-response","259","482854","0.0-14.0-0.8","6131f7010e926c9103558040","650c16f0f2faf8d7a0d14c09","651c1e92466faea6f3af55bd","null","null","<p style=""font-size: 60px; font-family: BACS"">DCmhYDTk</p>","","","","","","","","",""
"html-keyboard-response","260","483866","0.0-14.0-0.9","6131f7010e926c9103558040","650c16f0f2faf8d7a0d14c09","651c1e92466faea6f3af55bd","null","null","<p style=""font-size: 60px; font-family: BACS"">JmNkmkc</p>","","","","","","","","",""
"html-keyboard-response","261","484880","0.0-14.0-0.10","6131f7010e926c9103558040","650c16f0f2faf8d7a0d14c09","651c1e92466faea6f3af55bd","null","null","<p style=""font-size: 60px; font-family: BACS"">lTmOYBO</p>","","","","","","","","",""
"html-keyboard-response","262","486864","0.0-14.0-0.11","6131f7010e926c9103558040","650c16f0f2faf8d7a0d14c09","651c1e92466faea6f3af55bd","null","null","<p style=""font-size: 60px; font-family: BACS"">LcNUJNUZ</p>","","","","","","","","",""
"html-keyboard-response","263","488865","0.0-14.0-0.12","6131f7010e926c9103558040","650c16f0f2faf8d7a0d14c09","651c1e92466faea6f3af55bd","null","null","<p style=""font-size: 60px; font-family: BACS"">OMlTYcM</p>","","","","","","","","",""
"html-keyboard-response","264","489867","0.0-14.0-0.13","6131f7010e926c9103558040","650c16f0f2faf8d7a0d14c09","651c1e92466faea6f3af55bd","null","null","<p style=""font-size: 60px; font-family: BACS"">MhKdBCAd</p>","","","","","","","","",""
"html-keyboard-response","265","491866","0.0-14.0-0.14","6131f7010e926c9103558040","650c16f0f2faf8d7a0d14c09","651c1e92466faea6f3af55bd","null","null","<p style=""font-size: 60px; font-family: BACS"">mBYlYDTk</p>","","","","","","","","",""
"html-keyboard-response","266","492867","0.0-14.0-0.15","6131f7010e926c9103558040","650c16f0f2faf8d7a0d14c09","651c1e92466faea6f3af55bd","null","null","<p style=""font-size: 60px; font-family: BACS"">MhKdYcM</p>","","","","","","","","",""
"html-keyboard-response","267","494852","0.0-14.0-0.16","6131f7010e926c9103558040","650c16f0f2faf8d7a0d14c09","651c1e92466faea6f3af55bd","null","null","<p style=""font-size: 60px; font-family: BACS"">NbacAcUN</p>","","","","","","","","",""
"html-keyboard-response","268","495853","0.0-14.0-0.17","6131f7010e926c9103558040","650c16f0f2faf8d7a0d14c09","651c1e92466faea6f3af55bd","null","null","<p style=""font-size: 60px; font-family: BACS"">mBYlYBO</p>","","","","","","","","",""
"html-keyboard-response","269","496863","0.0-14.0-0.18","6131f7010e926c9103558040","650c16f0f2faf8d7a0d14c09","651c1e92466faea6f3af55bd","null","null","<p style=""font-size: 60px; font-family: BACS"">PlEKDKP</p>","","","","","","","","",""
"html-keyboard-response","270","498858","0.0-14.0-0.19","6131f7010e926c9103558040","650c16f0f2faf8d7a0d14c09","651c1e92466faea6f3af55bd","null","null","<p style=""font-size: 60px; font-family: BACS"">bAdkYBO</p>","","","","","","","","",""
"html-keyboard-response","271","500865","0.0-14.0-0.20","6131f7010e926c9103558040","650c16f0f2faf8d7a0d14c09","651c1e92466faea6f3af55bd","null","null","<p style=""font-size: 60px; font-family: BACS"">PdDTDKP</p>","","","","","","","","",""
"html-keyboard-response","272","502853","0.0-14.0-0.21","6131f7010e926c9103558040","650c16f0f2faf8d7a0d14c09","651c1e92466faea6f3af55bd","null","null","<p style=""font-size: 60px; font-family: BACS"">Juamlmkc</p>","","","","","","","","",""
"html-keyboard-response","273","503867","0.0-14.0-0.22","6131f7010e926c9103558040","650c16f0f2faf8d7a0d14c09","651c1e92466faea6f3af55bd","null","null","<p style=""font-size: 60px; font-family: BACS"">DCmhBCAd</p>","","","","","","","","",""
"html-keyboard-response","274","505862","0.0-14.0-0.23","6131f7010e926c9103558040","650c16f0f2faf8d7a0d14c09","651c1e92466faea6f3af55bd","null","null","<p style=""font-size: 60px; font-family: BACS"">kulZGlu</p>","","","","","","","","",""
"html-keyboard-response","275","507853","0.0-14.0-0.24","6131f7010e926c9103558040","650c16f0f2faf8d7a0d14c09","651c1e92466faea6f3af55bd","null","null","<p style=""font-size: 60px; font-family: BACS"">PdDTYDTk</p>","","","","","","","","",""
"html-keyboard-response","276","508855","0.0-14.0-0.25","6131f7010e926c9103558040","650c16f0f2faf8d7a0d14c09","651c1e92466faea6f3af55bd","null","null","<p style=""font-size: 60px; font-family: BACS"">OMlTDKP</p>","","","","","","","","",""
"html-keyboard-response","277","509868","0.0-14.0-0.26","6131f7010e926c9103558040","650c16f0f2faf8d7a0d14c09","651c1e92466faea6f3af55bd","null","null","<p style=""font-size: 60px; font-family: BACS"">laYmrbLd</p>","","","","","","","","",""
"html-keyboard-response","278","511858","0.0-14.0-0.27","6131f7010e926c9103558040","650c16f0f2faf8d7a0d14c09","651c1e92466faea6f3af55bd","null","null","<p style=""font-size: 60px; font-family: BACS"">ckdAmBCAd</p>","","","","","","","","",""
"html-keyboard-response","279","512866","0.0-14.0-0.28","6131f7010e926c9103558040","650c16f0f2faf8d7a0d14c09","651c1e92466faea6f3af55bd","null","null","<p style=""font-size: 60px; font-family: BACS"">laYmrNUZ</p>","","","","","","","","",""
"html-keyboard-response","280","513867","0.0-14.0-0.29","6131f7010e926c9103558040","650c16f0f2faf8d7a0d14c09","651c1e92466faea6f3af55bd","null","null","<p style=""font-size: 60px; font-family: BACS"">PlEKYBO</p>","","","","","","","","",""
"html-keyboard-response","281","515866","0.0-14.0-0.30","6131f7010e926c9103558040","650c16f0f2faf8d7a0d14c09","651c1e92466faea6f3af55bd","null","null","<p style=""font-size: 60px; font-family: BACS"">kulZmkc</p>","","","","","","","","",""
"html-keyboard-response","282","517860","0.0-14.0-0.31","6131f7010e926c9103558040","650c16f0f2faf8d7a0d14c09","651c1e92466faea6f3af55bd","null","null","<p style=""font-size: 60px; font-family: BACS"">PdDTYcM</p>","","","","","","","","",""
"html-keyboard-response","283","518868","0.0-14.0-0.32","6131f7010e926c9103558040","650c16f0f2faf8d7a0d14c09","651c1e92466faea6f3af55bd","null","null","<p style=""font-size: 60px; font-family: BACS"">lTmODKP</p>","","","","","","","","",""
"html-keyboard-response","284","520858","0.0-14.0-0.33","6131f7010e926c9103558040","650c16f0f2faf8d7a0d14c09","651c1e92466faea6f3af55bd","null","null","<p style=""font-size: 60px; font-family: BACS"">QOLmucUN</p>","","","","","","","","",""
"html-keyboard-response","285","521860","0.0-14.0-0.34","6131f7010e926c9103558040","650c16f0f2faf8d7a0d14c09","651c1e92466faea6f3af55bd","null","null","<p style=""font-size: 60px; font-family: BACS"">NbacAGlu</p>","","","","","","","","",""
"html-keyboard-response","286","522866","0.0-14.0-0.35","6131f7010e926c9103558040","650c16f0f2faf8d7a0d14c09","651c1e92466faea6f3af55bd","null","null","<p style=""font-size: 60px; font-family: BACS"">uauONUZ</p>","","","","","","","","",""
"html-keyboard-response","287","524854","0.0-14.0-0.36","6131f7010e926c9103558040","650c16f0f2faf8d7a0d14c09","651c1e92466faea6f3af55bd","null","null","<p style=""font-size: 60px; font-family: BACS"">kulZbLd</p>","","","","","","","","",""
"html-keyboard-response","288","525866","0.0-14.0-0.37","6131f7010e926c9103558040","650c16f0f2faf8d7a0d14c09","651c1e92466faea6f3af55bd","null","null","<p style=""font-size: 60px; font-family: BACS"">ckdAmYBO</p>","","","","","","","","",""
"html-keyboard-response","289","526866","0.0-14.0-0.38","6131f7010e926c9103558040","650c16f0f2faf8d7a0d14c09","651c1e92466faea6f3af55bd","null","null","<p style=""font-size: 60px; font-family: BACS"">JmNkNUZ</p>","","","","","","","","",""
"html-keyboard-response","290","527868","0.0-14.0-0.39","6131f7010e926c9103558040","650c16f0f2faf8d7a0d14c09","651c1e92466faea6f3af55bd","null","null","<p style=""font-size: 60px; font-family: BACS"">MhKdYDTk</p>","","","","","","","","",""
"html-keyboard-response","291","529859","0.0-14.0-0.40","6131f7010e926c9103558040","650c16f0f2faf8d7a0d14c09","651c1e92466faea6f3af55bd","null","null","<p style=""font-size: 60px; font-family: BACS"">kNuaNUZ</p>","","","","","","","","",""
"html-keyboard-response","292","531864","0.0-14.0-0.41","6131f7010e926c9103558040","650c16f0f2faf8d7a0d14c09","651c1e92466faea6f3af55bd","null","null","<p style=""font-size: 60px; font-family: BACS"">Ldrbvmkc</p>","","","","","","","","",""
"html-keyboard-response","293","533868","0.0-14.0-0.42","6131f7010e926c9103558040","650c16f0f2faf8d7a0d14c09","651c1e92466faea6f3af55bd","null","null","<p style=""font-size: 60px; font-family: BACS"">JuamlbLd</p>","","","","","","","","",""
"html-keyboard-response","294","535867","0.0-14.0-0.43","6131f7010e926c9103558040","650c16f0f2faf8d7a0d14c09","651c1e92466faea6f3af55bd","null","null","<p style=""font-size: 60px; font-family: BACS"">PdDTBCAd</p>","","","","","","","","",""
"html-keyboard-response","295","537862","0.0-14.0-0.44","6131f7010e926c9103558040","650c16f0f2faf8d7a0d14c09","651c1e92466faea6f3af55bd","null","null","<p style=""font-size: 60px; font-family: BACS"">kNuaGlu</p>","","","","","","","","",""
"html-keyboard-response","296","539853","0.0-14.0-0.45","6131f7010e926c9103558040","650c16f0f2faf8d7a0d14c09","651c1e92466faea6f3af55bd","null","null","<p style=""font-size: 60px; font-family: BACS"">uauOmkc</p>","","","","","","","","",""
"html-keyboard-response","297","540855","0.0-14.0-0.46","6131f7010e926c9103558040","650c16f0f2faf8d7a0d14c09","651c1e92466faea6f3af55bd","null","null","<p style=""font-size: 60px; font-family: BACS"">bAdkYDTk</p>","","","","","","","","",""
"html-keyboard-response","298","541859","0.0-14.0-0.47","6131f7010e926c9103558040","650c16f0f2faf8d7a0d14c09","651c1e92466faea6f3af55bd","null","null","<p style=""font-size: 60px; font-family: BACS"">DCmhYBO</p>","","","","","","","","",""
"html-keyboard-response","299","542868","0.0-14.0-0.48","6131f7010e926c9103558040","650c16f0f2faf8d7a0d14c09","651c1e92466faea6f3af55bd","null","null","<p style=""font-size: 60px; font-family: BACS"">CYPcBCAd</p>","","","","","","","","",""
"html-keyboard-response","300","544854","0.0-14.0-0.49","6131f7010e926c9103558040","650c16f0f2faf8d7a0d14c09","651c1e92466faea6f3af55bd","null","null","<p style=""font-size: 60px; font-family: BACS"">JmNkcUN</p>","","","","","","","","",""
"html-keyboard-response","301","545867","0.0-14.0-0.50","6131f7010e926c9103558040","650c16f0f2faf8d7a0d14c09","651c1e92466faea6f3af55bd","null","null","<p style=""font-size: 60px; font-family: BACS"">laYmrGlu</p>","","","","","","","","",""
"html-keyboard-response","302","546873","0.0-14.0-0.51","6131f7010e926c9103558040","650c16f0f2faf8d7a0d14c09","651c1e92466faea6f3af55bd","null","null","<p style=""font-size: 60px; font-family: BACS"">LcNUJcUN</p>","","","","","","","","",""
"html-keyboard-response","303","548867","0.0-14.0-0.52","6131f7010e926c9103558040","650c16f0f2faf8d7a0d14c09","651c1e92466faea6f3af55bd","null","null","<p style=""font-size: 60px; font-family: BACS"">CYPcYcM</p>","","","","","","","","",""
"html-keyboard-response","304","549867","0.0-14.0-0.53","6131f7010e926c9103558040","650c16f0f2faf8d7a0d14c09","651c1e92466faea6f3af55bd","null","null","<p style=""font-size: 60px; font-family: BACS"">PlEKYDTk</p>","","","","","","","","",""
"html-keyboard-response","305","551857","0.0-14.0-0.54","6131f7010e926c9103558040","650c16f0f2faf8d7a0d14c09","651c1e92466faea6f3af55bd","null","null","<p style=""font-size: 60px; font-family: BACS"">LcNUJGlu</p>","","","","","","","","",""
"html-keyboard-response","306","552863","0.0-14.0-0.55","6131f7010e926c9103558040","650c16f0f2faf8d7a0d14c09","651c1e92466faea6f3af55bd","null","null","<p style=""font-size: 60px; font-family: BACS"">mBYlYcM</p>","","","","","","","","",""
"html-keyboard-response","307","553868","0.0-14.0-0.56","6131f7010e926c9103558040","650c16f0f2faf8d7a0d14c09","651c1e92466faea6f3af55bd","null","null","<p style=""font-size: 60px; font-family: BACS"">JuamlNUZ</p>","","","","","","","","",""
"html-keyboard-response","308","554869","0.0-14.0-0.57","6131f7010e926c9103558040","650c16f0f2faf8d7a0d14c09","651c1e92466faea6f3af55bd","null","null","<p style=""font-size: 60px; font-family: BACS"">LdrbvbLd</p>","","","","","","","","",""
"html-keyboard-response","309","556860","0.0-14.0-0.58","6131f7010e926c9103558040","650c16f0f2faf8d7a0d14c09","651c1e92466faea6f3af55bd","null","null","<p style=""font-size: 60px; font-family: BACS"">QOLmuNUZ</p>","","","","","","","","",""
"html-keyboard-response","310","558862","0.0-14.0-0.59","6131f7010e926c9103558040","650c16f0f2faf8d7a0d14c09","651c1e92466faea6f3af55bd","null","null","<p style=""font-size: 60px; font-family: BACS"">JuamlcUN</p>","","","","","","","","",""
"html-keyboard-response","311","560857","0.0-14.0-0.60","6131f7010e926c9103558040","650c16f0f2faf8d7a0d14c09","651c1e92466faea6f3af55bd","null","null","<p style=""font-size: 60px; font-family: BACS"">NbacAmkc</p>","","","","","","","","",""
"html-keyboard-response","312","561864","0.0-14.0-0.61","6131f7010e926c9103558040","650c16f0f2faf8d7a0d14c09","651c1e92466faea6f3af55bd","null","null","<p style=""font-size: 60px; font-family: BACS"">uauOGlu</p>","","","","","","","","",""
"html-keyboard-response","313","562869","0.0-14.0-0.62","6131f7010e926c9103558040","650c16f0f2faf8d7a0d14c09","651c1e92466faea6f3af55bd","null","null","<p style=""font-size: 60px; font-family: BACS"">LcNUJbLd</p>","","","","","","","","",""
"html-keyboard-response","314","563883","0.0-14.0-0.63","6131f7010e926c9103558040","650c16f0f2faf8d7a0d14c09","651c1e92466faea6f3af55bd","null","null","<p style=""font-size: 60px; font-family: BACS"">CYPcYBO</p>","","","","","","","","",""
"html-keyboard-response","315","565860","0.0-14.0-0.64","6131f7010e926c9103558040","650c16f0f2faf8d7a0d14c09","651c1e92466faea6f3af55bd","null","null","<p style=""font-size: 60px; font-family: BACS"">PlEKBCAd</p>","","","","","","","","",""
"html-keyboard-response","316","566864","0.0-14.0-0.65","6131f7010e926c9103558040","650c16f0f2faf8d7a0d14c09","651c1e92466faea6f3af55bd","null","null","<p style=""font-size: 60px; font-family: BACS"">OMlTYBO</p>","","","","","","","","",""
"html-keyboard-response","317","567866","0.0-14.0-0.66","6131f7010e926c9103558040","650c16f0f2faf8d7a0d14c09","651c1e92466faea6f3af55bd","null","null","<p style=""font-size: 60px; font-family: BACS"">kNuacUN</p>","","","","","","","","",""
"html-keyboard-response","318","569854","0.0-14.0-0.67","6131f7010e926c9103558040","650c16f0f2faf8d7a0d14c09","651c1e92466faea6f3af55bd","null","null","<p style=""font-size: 60px; font-family: BACS"">lTmOYcM</p>","","","","","","","","",""
"html-keyboard-response","319","570868","0.0-14.0-0.68","6131f7010e926c9103558040","650c16f0f2faf8d7a0d14c09","651c1e92466faea6f3af55bd","null","null","<p style=""font-size: 60px; font-family: BACS"">LdrbvcUN</p>","","","","","","","","",""
"html-keyboard-response","320","572857","0.0-14.0-0.69","6131f7010e926c9103558040","650c16f0f2faf8d7a0d14c09","651c1e92466faea6f3af55bd","null","null","<p style=""font-size: 60px; font-family: BACS"">kulZNUZ</p>","","","","","","","","",""
"html-keyboard-response","321","573863","0.0-14.0-0.70","6131f7010e926c9103558040","650c16f0f2faf8d7a0d14c09","651c1e92466faea6f3af55bd","null","null","<p style=""font-size: 60px; font-family: BACS"">LdrbvGlu</p>","","","","","","","","",""
"html-keyboard-response","322","575858","0.0-14.0-0.71","6131f7010e926c9103558040","650c16f0f2faf8d7a0d14c09","651c1e92466faea6f3af55bd","null","null","<p style=""font-size: 60px; font-family: BACS"">bAdkDKP</p>","","","","","","","","",""
"html-keyboard-response","323","577866","0.0-14.0-0.72","6131f7010e926c9103558040","650c16f0f2faf8d7a0d14c09","651c1e92466faea6f3af55bd","null","null","<p style=""font-size: 60px; font-family: BACS"">OMlTBCAd</p>","","","","","","","","",""
"html-keyboard-response","324","579865","0.0-14.0-0.73","6131f7010e926c9103558040","650c16f0f2faf8d7a0d14c09","651c1e92466faea6f3af55bd","null","null","<p style=""font-size: 60px; font-family: BACS"">QOLmubLd</p>","","","","","","","","",""
"html-keyboard-response","325","581864","0.0-14.0-0.74","6131f7010e926c9103558040","650c16f0f2faf8d7a0d14c09","651c1e92466faea6f3af55bd","null","null","<p style=""font-size: 60px; font-family: BACS"">JmNkGlu</p>","","","","","","","","",""
"html-keyboard-response","326","583853","0.0-14.0-0.75","6131f7010e926c9103558040","650c16f0f2faf8d7a0d14c09","651c1e92466faea6f3af55bd","null","null","<p style=""font-size: 60px; font-family: BACS"">MhKdDKP</p>","","","","","","","","",""
"html-keyboard-response","327","584866","0.0-14.0-0.76","6131f7010e926c9103558040","650c16f0f2faf8d7a0d14c09","651c1e92466faea6f3af55bd","null","null","<p style=""font-size: 60px; font-family: BACS"">ckdAmYDTk</p>","","","","","","","","",""
"html-keyboard-response","328","586856","0.0-14.0-0.77","6131f7010e926c9103558040","650c16f0f2faf8d7a0d14c09","651c1e92466faea6f3af55bd","null","null","<p style=""font-size: 60px; font-family: BACS"">laYmrmkc</p>","","","","","","","","",""
"html-keyboard-response","329","588868","0.0-14.0-0.78","6131f7010e926c9103558040","650c16f0f2faf8d7a0d14c09","651c1e92466faea6f3af55bd","null","null","<p style=""font-size: 60px; font-family: BACS"">bAdkYcM</p>","","","","","","","","",""
"html-keyboard-response","330","590854","0.0-14.0-0.79","6131f7010e926c9103558040","650c16f0f2faf8d7a0d14c09","651c1e92466faea6f3af55bd","null","null","<p style=""font-size: 60px; font-family: BACS"">lTmOYDTk</p>","","","","","","","","",""
"html-keyboard-response","331","595664","0.0-15.0","6131f7010e926c9103558040","650c16f0f2faf8d7a0d14c09","651c1e92466faea6f3af55bd","4810"," ","<p>Great, you've seen the fourth block of words. You may now take a short break.</p>
      <p>Press the spacebar when you're ready to continue.</p>","","","","","","","","",""
"html-keyboard-response","332","596678","0.0-16.0-0.0","6131f7010e926c9103558040","650c16f0f2faf8d7a0d14c09","651c1e92466faea6f3af55bd","null","null","<p style=""font-size: 60px; font-family: BACS"">DCmhYBO</p>","","","","","","","","",""
"html-keyboard-response","333","597685","0.0-16.0-0.1","6131f7010e926c9103558040","650c16f0f2faf8d7a0d14c09","651c1e92466faea6f3af55bd","null","null","<p style=""font-size: 60px; font-family: BACS"">DCmhYBO</p>","","","","","","","","",""
"html-keyboard-response","334","598698","0.0-16.0-0.2","6131f7010e926c9103558040","650c16f0f2faf8d7a0d14c09","651c1e92466faea6f3af55bd","null","null","<p style=""font-size: 60px; font-family: BACS"">DCmhYBO</p>","","","","","","","","",""
"html-keyboard-response","335","599698","0.0-16.0-0.3","6131f7010e926c9103558040","650c16f0f2faf8d7a0d14c09","651c1e92466faea6f3af55bd","null","null","<p style=""font-size: 60px; font-family: BACS"">DCmhYBO</p>","","","","","","","","",""
"html-keyboard-response","336","600865","0.0-16.0-0.4","6131f7010e926c9103558040","650c16f0f2faf8d7a0d14c09","651c1e92466faea6f3af55bd","null","null","<p style=""font-size: 60px; font-family: BACS"">DCmhYBO</p>","","","","","","","","",""
"html-keyboard-response","337","602860","0.0-16.0-0.5","6131f7010e926c9103558040","650c16f0f2faf8d7a0d14c09","651c1e92466faea6f3af55bd","null","null","<p style=""font-size: 60px; font-family: BACS"">DCmhYBO</p>","","","","","","","","",""
"html-keyboard-response","338","603867","0.0-16.0-0.6","6131f7010e926c9103558040","650c16f0f2faf8d7a0d14c09","651c1e92466faea6f3af55bd","null","null","<p style=""font-size: 60px; font-family: BACS"">DCmhYBO</p>","","","","","","","","",""
"html-keyboard-response","339","605867","0.0-16.0-0.7","6131f7010e926c9103558040","650c16f0f2faf8d7a0d14c09","651c1e92466faea6f3af55bd","null","null","<p style=""font-size: 60px; font-family: BACS"">DCmhYBO</p>","","","","","","","","",""
"html-keyboard-response","340","606867","0.0-16.0-0.8","6131f7010e926c9103558040","650c16f0f2faf8d7a0d14c09","651c1e92466faea6f3af55bd","null","null","<p style=""font-size: 60px; font-family: BACS"">DCmhYBO</p>","","","","","","","","",""
"html-keyboard-response","341","608867","0.0-16.0-0.9","6131f7010e926c9103558040","650c16f0f2faf8d7a0d14c09","651c1e92466faea6f3af55bd","null","null","<p style=""font-size: 60px; font-family: BACS"">DCmhYBO</p>","","","","","","","","",""
"html-keyboard-response","342","610857","0.0-16.0-0.10","6131f7010e926c9103558040","650c16f0f2faf8d7a0d14c09","651c1e92466faea6f3af55bd","null","null","<p style=""font-size: 60px; font-family: BACS"">DCmhYBO</p>","","","","","","","","",""
"html-keyboard-response","343","611861","0.0-16.0-0.11","6131f7010e926c9103558040","650c16f0f2faf8d7a0d14c09","651c1e92466faea6f3af55bd","null","null","<p style=""font-size: 60px; font-family: BACS"">DCmhYBO</p>","","","","","","","","",""
"html-keyboard-response","344","612861","0.0-16.0-0.12","6131f7010e926c9103558040","650c16f0f2faf8d7a0d14c09","651c1e92466faea6f3af55bd","null","null","<p style=""font-size: 60px; font-family: BACS"">DCmhYBO</p>","","","","","","","","",""
"html-keyboard-response","345","613866","0.0-16.0-0.13","6131f7010e926c9103558040","650c16f0f2faf8d7a0d14c09","651c1e92466faea6f3af55bd","null","null","<p style=""font-size: 60px; font-family: BACS"">DCmhYBO</p>","","","","","","","","",""
"html-keyboard-response","346","615866","0.0-16.0-0.14","6131f7010e926c9103558040","650c16f0f2faf8d7a0d14c09","651c1e92466faea6f3af55bd","null","null","<p style=""font-size: 60px; font-family: BACS"">DCmhYBO</p>","","","","","","","","",""
"html-keyboard-response","347","617866","0.0-16.0-0.15","6131f7010e926c9103558040","650c16f0f2faf8d7a0d14c09","651c1e92466faea6f3af55bd","null","null","<p style=""font-size: 60px; font-family: BACS"">DCmhYBO</p>","","","","","","","","",""
"html-keyboard-response","348","619852","0.0-16.0-0.16","6131f7010e926c9103558040","650c16f0f2faf8d7a0d14c09","651c1e92466faea6f3af55bd","null","null","<p style=""font-size: 60px; font-family: BACS"">DCmhYBO</p>","","","","","","","","",""
"html-keyboard-response","349","620866","0.0-16.0-0.17","6131f7010e926c9103558040","650c16f0f2faf8d7a0d14c09","651c1e92466faea6f3af55bd","null","null","<p style=""font-size: 60px; font-family: BACS"">DCmhYBO</p>","","","","","","","","",""
"html-keyboard-response","350","621867","0.0-16.0-0.18","6131f7010e926c9103558040","650c16f0f2faf8d7a0d14c09","651c1e92466faea6f3af55bd","null","null","<p style=""font-size: 60px; font-family: BACS"">DCmhYBO</p>","","","","","","","","",""
"html-keyboard-response","351","622869","0.0-16.0-0.19","6131f7010e926c9103558040","650c16f0f2faf8d7a0d14c09","651c1e92466faea6f3af55bd","null","null","<p style=""font-size: 60px; font-family: BACS"">DCmhYBO</p>","","","","","","","","",""
"html-keyboard-response","352","624862","0.0-16.0-0.20","6131f7010e926c9103558040","650c16f0f2faf8d7a0d14c09","651c1e92466faea6f3af55bd","null","null","<p style=""font-size: 60px; font-family: BACS"">DCmhYBO</p>","","","","","","","","",""
"html-keyboard-response","353","625863","0.0-16.0-0.21","6131f7010e926c9103558040","650c16f0f2faf8d7a0d14c09","651c1e92466faea6f3af55bd","null","null","<p style=""font-size: 60px; font-family: BACS"">DCmhYBO</p>","","","","","","","","",""
"html-keyboard-response","354","627865","0.0-16.0-0.22","6131f7010e926c9103558040","650c16f0f2faf8d7a0d14c09","651c1e92466faea6f3af55bd","null","null","<p style=""font-size: 60px; font-family: BACS"">DCmhYBO</p>","","","","","","","","",""
"html-keyboard-response","355","629856","0.0-16.0-0.23","6131f7010e926c9103558040","650c16f0f2faf8d7a0d14c09","651c1e92466faea6f3af55bd","null","null","<p style=""font-size: 60px; font-family: BACS"">DCmhYBO</p>","","","","","","","","",""
"html-keyboard-response","356","631861","0.0-16.0-0.24","6131f7010e926c9103558040","650c16f0f2faf8d7a0d14c09","651c1e92466faea6f3af55bd","null","null","<p style=""font-size: 60px; font-family: BACS"">DCmhYBO</p>","","","","","","","","",""
"html-keyboard-response","357","632862","0.0-16.0-0.25","6131f7010e926c9103558040","650c16f0f2faf8d7a0d14c09","651c1e92466faea6f3af55bd","null","null","<p style=""font-size: 60px; font-family: BACS"">DCmhYBO</p>","","","","","","","","",""
"html-keyboard-response","358","634859","0.0-16.0-0.26","6131f7010e926c9103558040","650c16f0f2faf8d7a0d14c09","651c1e92466faea6f3af55bd","null","null","<p style=""font-size: 60px; font-family: BACS"">DCmhYBO</p>","","","","","","","","",""
"html-keyboard-response","359","635859","0.0-16.0-0.27","6131f7010e926c9103558040","650c16f0f2faf8d7a0d14c09","651c1e92466faea6f3af55bd","null","null","<p style=""font-size: 60px; font-family: BACS"">DCmhYBO</p>","","","","","","","","",""
"html-keyboard-response","360","637864","0.0-16.0-0.28","6131f7010e926c9103558040","650c16f0f2faf8d7a0d14c09","651c1e92466faea6f3af55bd","null","null","<p style=""font-size: 60px; font-family: BACS"">DCmhYBO</p>","","","","","","","","",""
"html-keyboard-response","361","639855","0.0-16.0-0.29","6131f7010e926c9103558040","650c16f0f2faf8d7a0d14c09","651c1e92466faea6f3af55bd","null","null","<p style=""font-size: 60px; font-family: BACS"">DCmhYBO</p>","","","","","","","","",""
"html-keyboard-response","362","640863","0.0-16.0-0.30","6131f7010e926c9103558040","650c16f0f2faf8d7a0d14c09","651c1e92466faea6f3af55bd","null","null","<p style=""font-size: 60px; font-family: BACS"">DCmhYBO</p>","","","","","","","","",""
"html-keyboard-response","363","642866","0.0-16.0-0.31","6131f7010e926c9103558040","650c16f0f2faf8d7a0d14c09","651c1e92466faea6f3af55bd","null","null","<p style=""font-size: 60px; font-family: BACS"">DCmhYBO</p>","","","","","","","","",""
"html-keyboard-response","364","644864","0.0-16.0-0.32","6131f7010e926c9103558040","650c16f0f2faf8d7a0d14c09","651c1e92466faea6f3af55bd","null","null","<p style=""font-size: 60px; font-family: BACS"">DCmhYBO</p>","","","","","","","","",""
"html-keyboard-response","365","646852","0.0-16.0-0.33","6131f7010e926c9103558040","650c16f0f2faf8d7a0d14c09","651c1e92466faea6f3af55bd","null","null","<p style=""font-size: 60px; font-family: BACS"">DCmhYBO</p>","","","","","","","","",""
"html-keyboard-response","366","647858","0.0-16.0-0.34","6131f7010e926c9103558040","650c16f0f2faf8d7a0d14c09","651c1e92466faea6f3af55bd","null","null","<p style=""font-size: 60px; font-family: BACS"">DCmhYBO</p>","","","","","","","","",""
"html-keyboard-response","367","648860","0.0-16.0-0.35","6131f7010e926c9103558040","650c16f0f2faf8d7a0d14c09","651c1e92466faea6f3af55bd","null","null","<p style=""font-size: 60px; font-family: BACS"">DCmhYBO</p>","","","","","","","","",""
"html-keyboard-response","368","650861","0.0-16.0-0.36","6131f7010e926c9103558040","650c16f0f2faf8d7a0d14c09","651c1e92466faea6f3af55bd","null","null","<p style=""font-size: 60px; font-family: BACS"">DCmhYBO</p>","","","","","","","","",""
"html-keyboard-response","369","651865","0.0-16.0-0.37","6131f7010e926c9103558040","650c16f0f2faf8d7a0d14c09","651c1e92466faea6f3af55bd","null","null","<p style=""font-size: 60px; font-family: BACS"">DCmhYBO</p>","","","","","","","","",""
"html-keyboard-response","370","653855","0.0-16.0-0.38","6131f7010e926c9103558040","650c16f0f2faf8d7a0d14c09","651c1e92466faea6f3af55bd","null","null","<p style=""font-size: 60px; font-family: BACS"">DCmhYBO</p>","","","","","","","","",""
"html-keyboard-response","371","654865","0.0-16.0-0.39","6131f7010e926c9103558040","650c16f0f2faf8d7a0d14c09","651c1e92466faea6f3af55bd","null","null","<p style=""font-size: 60px; font-family: BACS"">DCmhYBO</p>","","","","","","","","",""
"html-keyboard-response","372","656853","0.0-16.0-0.40","6131f7010e926c9103558040","650c16f0f2faf8d7a0d14c09","651c1e92466faea6f3af55bd","null","null","<p style=""font-size: 60px; font-family: BACS"">DCmhYBO</p>","","","","","","","","",""
"html-keyboard-response","373","657853","0.0-16.0-0.41","6131f7010e926c9103558040","650c16f0f2faf8d7a0d14c09","651c1e92466faea6f3af55bd","null","null","<p style=""font-size: 60px; font-family: BACS"">DCmhYBO</p>","","","","","","","","",""
"html-keyboard-response","374","658864","0.0-16.0-0.42","6131f7010e926c9103558040","650c16f0f2faf8d7a0d14c09","651c1e92466faea6f3af55bd","null","null","<p style=""font-size: 60px; font-family: BACS"">DCmhYBO</p>","","","","","","","","",""
"html-keyboard-response","375","659865","0.0-16.0-0.43","6131f7010e926c9103558040","650c16f0f2faf8d7a0d14c09","651c1e92466faea6f3af55bd","null","null","<p style=""font-size: 60px; font-family: BACS"">DCmhYBO</p>","","","","","","","","",""
"html-keyboard-response","376","661853","0.0-16.0-0.44","6131f7010e926c9103558040","650c16f0f2faf8d7a0d14c09","651c1e92466faea6f3af55bd","null","null","<p style=""font-size: 60px; font-family: BACS"">DCmhYBO</p>","","","","","","","","",""
"html-keyboard-response","377","662855","0.0-16.0-0.45","6131f7010e926c9103558040","650c16f0f2faf8d7a0d14c09","651c1e92466faea6f3af55bd","null","null","<p style=""font-size: 60px; font-family: BACS"">DCmhYBO</p>","","","","","","","","",""
"html-keyboard-response","378","663860","0.0-16.0-0.46","6131f7010e926c9103558040","650c16f0f2faf8d7a0d14c09","651c1e92466faea6f3af55bd","null","null","<p style=""font-size: 60px; font-family: BACS"">DCmhYBO</p>","","","","","","","","",""
"html-keyboard-response","379","664863","0.0-16.0-0.47","6131f7010e926c9103558040","650c16f0f2faf8d7a0d14c09","651c1e92466faea6f3af55bd","null","null","<p style=""font-size: 60px; font-family: BACS"">DCmhYBO</p>","","","","","","","","",""
"html-keyboard-response","380","666865","0.0-16.0-0.48","6131f7010e926c9103558040","650c16f0f2faf8d7a0d14c09","651c1e92466faea6f3af55bd","null","null","<p style=""font-size: 60px; font-family: BACS"">DCmhYBO</p>","","","","","","","","",""
"html-keyboard-response","381","667866","0.0-16.0-0.49","6131f7010e926c9103558040","650c16f0f2faf8d7a0d14c09","651c1e92466faea6f3af55bd","null","null","<p style=""font-size: 60px; font-family: BACS"">DCmhYBO</p>","","","","","","","","",""
"html-keyboard-response","382","668869","0.0-16.0-0.50","6131f7010e926c9103558040","650c16f0f2faf8d7a0d14c09","651c1e92466faea6f3af55bd","null","null","<p style=""font-size: 60px; font-family: BACS"">DCmhYBO</p>","","","","","","","","",""
"html-keyboard-response","383","669876","0.0-16.0-0.51","6131f7010e926c9103558040","650c16f0f2faf8d7a0d14c09","651c1e92466faea6f3af55bd","null","null","<p style=""font-size: 60px; font-family: BACS"">DCmhYBO</p>","","","","","","","","",""
"html-keyboard-response","384","671865","0.0-16.0-0.52","6131f7010e926c9103558040","650c16f0f2faf8d7a0d14c09","651c1e92466faea6f3af55bd","null","null","<p style=""font-size: 60px; font-family: BACS"">DCmhYBO</p>","","","","","","","","",""
"html-keyboard-response","385","673867","0.0-16.0-0.53","6131f7010e926c9103558040","650c16f0f2faf8d7a0d14c09","651c1e92466faea6f3af55bd","null","null","<p style=""font-size: 60px; font-family: BACS"">DCmhYBO</p>","","","","","","","","",""
"html-keyboard-response","386","675858","0.0-16.0-0.54","6131f7010e926c9103558040","650c16f0f2faf8d7a0d14c09","651c1e92466faea6f3af55bd","null","null","<p style=""font-size: 60px; font-family: BACS"">DCmhYBO</p>","","","","","","","","",""
"html-keyboard-response","387","676864","0.0-16.0-0.55","6131f7010e926c9103558040","650c16f0f2faf8d7a0d14c09","651c1e92466faea6f3af55bd","null","null","<p style=""font-size: 60px; font-family: BACS"">DCmhYBO</p>","","","","","","","","",""
"html-keyboard-response","388","678857","0.0-16.0-0.56","6131f7010e926c9103558040","650c16f0f2faf8d7a0d14c09","651c1e92466faea6f3af55bd","null","null","<p style=""font-size: 60px; font-family: BACS"">DCmhYBO</p>","","","","","","","","",""
"html-keyboard-response","389","679864","0.0-16.0-0.57","6131f7010e926c9103558040","650c16f0f2faf8d7a0d14c09","651c1e92466faea6f3af55bd","null","null","<p style=""font-size: 60px; font-family: BACS"">DCmhYBO</p>","","","","","","","","",""
"html-keyboard-response","390","681855","0.0-16.0-0.58","6131f7010e926c9103558040","650c16f0f2faf8d7a0d14c09","651c1e92466faea6f3af55bd","null","null","<p style=""font-size: 60px; font-family: BACS"">DCmhYBO</p>","","","","","","","","",""
"html-keyboard-response","391","682856","0.0-16.0-0.59","6131f7010e926c9103558040","650c16f0f2faf8d7a0d14c09","651c1e92466faea6f3af55bd","null","null","<p style=""font-size: 60px; font-family: BACS"">DCmhYBO</p>","","","","","","","","",""
"html-keyboard-response","392","684861","0.0-16.0-0.60","6131f7010e926c9103558040","650c16f0f2faf8d7a0d14c09","651c1e92466faea6f3af55bd","null","null","<p style=""font-size: 60px; font-family: BACS"">DCmhYBO</p>","","","","","","","","",""
"html-keyboard-response","393","685864","0.0-16.0-0.61","6131f7010e926c9103558040","650c16f0f2faf8d7a0d14c09","651c1e92466faea6f3af55bd","null","null","<p style=""font-size: 60px; font-family: BACS"">DCmhYBO</p>","","","","","","","","",""
"html-keyboard-response","394","687865","0.0-16.0-0.62","6131f7010e926c9103558040","650c16f0f2faf8d7a0d14c09","651c1e92466faea6f3af55bd","null","null","<p style=""font-size: 60px; font-family: BACS"">DCmhYBO</p>","","","","","","","","",""
"html-keyboard-response","395","688871","0.0-16.0-0.63","6131f7010e926c9103558040","650c16f0f2faf8d7a0d14c09","651c1e92466faea6f3af55bd","null","null","<p style=""font-size: 60px; font-family: BACS"">DCmhYBO</p>","","","","","","","","",""
"html-keyboard-response","396","690866","0.0-16.0-0.64","6131f7010e926c9103558040","650c16f0f2faf8d7a0d14c09","651c1e92466faea6f3af55bd","null","null","<p style=""font-size: 60px; font-family: BACS"">DCmhYBO</p>","","","","","","","","",""
"html-keyboard-response","397","691871","0.0-16.0-0.65","6131f7010e926c9103558040","650c16f0f2faf8d7a0d14c09","651c1e92466faea6f3af55bd","null","null","<p style=""font-size: 60px; font-family: BACS"">DCmhYBO</p>","","","","","","","","",""
"html-keyboard-response","398","693857","0.0-16.0-0.66","6131f7010e926c9103558040","650c16f0f2faf8d7a0d14c09","651c1e92466faea6f3af55bd","null","null","<p style=""font-size: 60px; font-family: BACS"">DCmhYBO</p>","","","","","","","","",""
"html-keyboard-response","399","694863","0.0-16.0-0.67","6131f7010e926c9103558040","650c16f0f2faf8d7a0d14c09","651c1e92466faea6f3af55bd","null","null","<p style=""font-size: 60px; font-family: BACS"">DCmhYBO</p>","","","","","","","","",""
