"trial_type","trial_index","time_elapsed","internal_node_id","subject_id","study_id","session_id","rt","response","stimulus","success","item","task","correct_response","testing_condition","correct","target","confound","name"
"pavlovia","0","1069","0.0-0.0","5fd0c81fc79aef1882cbee94","64e77d7b61f440b60e28659d","64eca5b2f88686966f593b43","","","","","","","","","","","",""
"survey-html-form","1","1414691","0.0-1.0","5fd0c81fc79aef1882cbee94","64e77d7b61f440b60e28659d","64eca5b2f88686966f593b43","1413619","{""ID"":""5fd0c81fc79aef1882cbee94""}","","","","","","","","","",""
"html-keyboard-response","2","1423169","0.0-2.0","5fd0c81fc79aef1882cbee94","64e77d7b61f440b60e28659d","64eca5b2f88686966f593b43","8475"," ","<p style=""font-size: 15px;"">Before beginning, we ask that you read the consent information and confirm your agreement to participate in the experiment.</p>
      <p style=""font-size: 15px;""> We ask that you remember that this is a research project and that your participation is entirely voluntary. You can stop your participation at any time, without needing to provide any explanation. The study we're asking you to participate in aims at examining how readers process written words. You will be engaged in a session of apprximately 20 minutes, followed by a brief questionnaire. You will have the opportunity to take a few breaks during the experiment. You will be paid £4 for your participation, corresponding to a rate of £8/hour. While this experiment looks at cognitive faculties, this experiment doesn't constitute clinical proof of eventual pathologies.</p>
      <p style=""font-size: 15px;"">All of the information collected thanks to yours and others' participation will be held in a secure password-protected server, and will not be shared with anyone not authorised to view it. Your personal information will be kept with an arbitrary participant ID. Thanks to this data anonymity process, any researcher analysing the data won't be able to track the information back to a specific participant. Therefore, this process will make identifying you impossibile, even when results from the study will be published in scientific reviews, presented at congresses, or at any other public forum. More generally, the collected data will be treated in accordance with the laws on privacy and conformity to the Legislative Degree n. 196 ""Code regarding the protection of personal data"" of the 30th of June 2003 and to the European Regulation 2016/670 (General Data Protection Regulation - GDPR). The Data Protection Officer is Avv. Valentina Carollo, who can be contacted at the following email addresses: <a href=""mailto:dpo@sissa.it"">dpo@sissa.it</a> or <a href=""mailto:rpd@sissa.it"">rpd@sissa.it</a> - PEC: <a href=""mailto:protocollo@pec.sissa.it"">protocollo@pec.sissa.it</a>.</p>
      <p style=""font-size: 15px;""> Before expressing your consent to participate, we would like to remind you again that in case you need explanations on any aspect of the experimental procedure, the researcher is at your disposition (<a href=""mailto:aliebelt@sissa.it"">aliebelt@sissa.it</a>, <a href=""mailto:davide.crepaldi@sissa.it"">davide.crepaldi@sissa.it</a>).</p>
      <p style=""font-size: 15px;"">If you would like to download the informed consent form, you can do so here: <a href=""BASL-Informed_Consent.pdf"" download>informed consent form</a>.</p>
      <p style=""font-size: 15px;"">We ask that you press the spacebar to proceed to the consent section.</p>","","","","","","","","",""
"survey-html-form","3","1445275","0.0-3.0","5fd0c81fc79aef1882cbee94","64e77d7b61f440b60e28659d","64eca5b2f88686966f593b43","22104","{""consent1"":""YES"",""consent2"":""YES"",""consent3"":""YES"",""consent4"":""YES"",""consent5"":""YES"",""consent6"":""YES""}","","","","","","","","","",""
"fullscreen","4","1448740","0.0-4.0","5fd0c81fc79aef1882cbee94","64e77d7b61f440b60e28659d","64eca5b2f88686966f593b43","","","","true","","","","","","","",""
"html-keyboard-response","5","1482508","0.0-5.0","5fd0c81fc79aef1882cbee94","64e77d7b61f440b60e28659d","64eca5b2f88686966f593b43","33766"," ","<p>Welcome, and thank you very much for your time!</p>
      <p>In this experiment, you'll be a language expert who's been asked to take a look at words that Earth has received in its first communication with aliens. Your task, in this first part of the experiment, is to pay close attention to the words you'll be shown; later, world leaders will ask you questions on what you saw. The words will be shown to you quite quickly; it seems that the aliens were in a hurry :-)</p>
      <p>Press the spacebar to continue.<p>","","","","","","","","",""
"html-keyboard-response","6","1484991","0.0-6.0","5fd0c81fc79aef1882cbee94","64e77d7b61f440b60e28659d","64eca5b2f88686966f593b43","2481"," ","<p>Here is an example of the words you'll see:</p>
      <img src='esempio.png' height='400px'>
      <p>When you're ready to begin, press the spacebar.</p></div>","","","","","","","","",""
"html-keyboard-response","7","1486005","0.0-7.0-0.0","5fd0c81fc79aef1882cbee94","64e77d7b61f440b60e28659d","64eca5b2f88686966f593b43","null","null","<p style=""font-size: 60px; font-family: BACS"">tKDmhMCkm</p>","","","","","","","","",""
"html-keyboard-response","8","1487014","0.0-7.0-0.1","5fd0c81fc79aef1882cbee94","64e77d7b61f440b60e28659d","64eca5b2f88686966f593b43","null","null","<p style=""font-size: 60px; font-family: BACS"">rbYbudmkv</p>","","","","","","","","",""
"html-keyboard-response","9","1488021","0.0-7.0-0.2","5fd0c81fc79aef1882cbee94","64e77d7b61f440b60e28659d","64eca5b2f88686966f593b43","null","null","<p style=""font-size: 60px; font-family: BACS"">muYNYZUZ</p>","","","","","","","","",""
"html-keyboard-response","10","1489030","0.0-7.0-0.3","5fd0c81fc79aef1882cbee94","64e77d7b61f440b60e28659d","64eca5b2f88686966f593b43","null","null","<p style=""font-size: 60px; font-family: BACS"">kcdOtDbMR</p>","","","","","","","","",""
"html-keyboard-response","11","1490038","0.0-7.0-0.4","5fd0c81fc79aef1882cbee94","64e77d7b61f440b60e28659d","64eca5b2f88686966f593b43","null","null","<p style=""font-size: 60px; font-family: BACS"">GLluArab</p>","","","","","","","","",""
"html-keyboard-response","12","1491042","0.0-7.0-0.5","5fd0c81fc79aef1882cbee94","64e77d7b61f440b60e28659d","64eca5b2f88686966f593b43","null","null","<p style=""font-size: 60px; font-family: BACS"">krUQrNlZ</p>","","","","","","","","",""
"html-keyboard-response","13","1492053","0.0-7.0-0.6","5fd0c81fc79aef1882cbee94","64e77d7b61f440b60e28659d","64eca5b2f88686966f593b43","null","null","<p style=""font-size: 60px; font-family: BACS"">TbKMEcMRl</p>","","","","","","","","",""
"html-keyboard-response","14","1493058","0.0-7.0-0.7","5fd0c81fc79aef1882cbee94","64e77d7b61f440b60e28659d","64eca5b2f88686966f593b43","null","null","<p style=""font-size: 60px; font-family: BACS"">OdYPlMck</p>","","","","","","","","",""
"html-keyboard-response","15","1494068","0.0-7.0-0.8","5fd0c81fc79aef1882cbee94","64e77d7b61f440b60e28659d","64eca5b2f88686966f593b43","null","null","<p style=""font-size: 60px; font-family: BACS"">GLluAJud</p>","","","","","","","","",""
"html-keyboard-response","16","1495072","0.0-7.0-0.9","5fd0c81fc79aef1882cbee94","64e77d7b61f440b60e28659d","64eca5b2f88686966f593b43","null","null","<p style=""font-size: 60px; font-family: BACS"">RkmdCdCKc</p>","","","","","","","","",""
"html-keyboard-response","17","1496074","0.0-7.0-0.10","5fd0c81fc79aef1882cbee94","64e77d7b61f440b60e28659d","64eca5b2f88686966f593b43","null","null","<p style=""font-size: 60px; font-family: BACS"">GLluArNlZ</p>","","","","","","","","",""
"html-keyboard-response","18","1497078","0.0-7.0-0.11","5fd0c81fc79aef1882cbee94","64e77d7b61f440b60e28659d","64eca5b2f88686966f593b43","null","null","<p style=""font-size: 60px; font-family: BACS"">OdYPDbMR</p>","","","","","","","","",""
"html-keyboard-response","19","1498080","0.0-7.0-0.12","5fd0c81fc79aef1882cbee94","64e77d7b61f440b60e28659d","64eca5b2f88686966f593b43","null","null","<p style=""font-size: 60px; font-family: BACS"">NaJbYZUZ</p>","","","","","","","","",""
"html-keyboard-response","20","1499096","0.0-7.0-0.13","5fd0c81fc79aef1882cbee94","64e77d7b61f440b60e28659d","64eca5b2f88686966f593b43","null","null","<p style=""font-size: 60px; font-family: BACS"">RkmdCcMRl</p>","","","","","","","","",""
"html-keyboard-response","21","1500102","0.0-7.0-0.14","5fd0c81fc79aef1882cbee94","64e77d7b61f440b60e28659d","64eca5b2f88686966f593b43","null","null","<p style=""font-size: 60px; font-family: BACS"">TbKMEDbMR</p>","","","","","","","","",""
"html-keyboard-response","22","1501110","0.0-7.0-0.15","5fd0c81fc79aef1882cbee94","64e77d7b61f440b60e28659d","64eca5b2f88686966f593b43","null","null","<p style=""font-size: 60px; font-family: BACS"">OdYPcMRl</p>","","","","","","","","",""
"html-keyboard-response","23","1502112","0.0-7.0-0.16","5fd0c81fc79aef1882cbee94","64e77d7b61f440b60e28659d","64eca5b2f88686966f593b43","null","null","<p style=""font-size: 60px; font-family: BACS"">adYrcJud</p>","","","","","","","","",""
"html-keyboard-response","24","1503123","0.0-7.0-0.17","5fd0c81fc79aef1882cbee94","64e77d7b61f440b60e28659d","64eca5b2f88686966f593b43","null","null","<p style=""font-size: 60px; font-family: BACS"">NQZvdmkv</p>","","","","","","","","",""
"html-keyboard-response","25","1504134","0.0-7.0-0.18","5fd0c81fc79aef1882cbee94","64e77d7b61f440b60e28659d","64eca5b2f88686966f593b43","null","null","<p style=""font-size: 60px; font-family: BACS"">tDPRkdCKc</p>","","","","","","","","",""
"html-keyboard-response","26","1505140","0.0-7.0-0.19","5fd0c81fc79aef1882cbee94","64e77d7b61f440b60e28659d","64eca5b2f88686966f593b43","null","null","<p style=""font-size: 60px; font-family: BACS"">NLQGmdmkv</p>","","","","","","","","",""
"html-keyboard-response","27","1506148","0.0-7.0-0.20","5fd0c81fc79aef1882cbee94","64e77d7b61f440b60e28659d","64eca5b2f88686966f593b43","null","null","<p style=""font-size: 60px; font-family: BACS"">PCPDhdCKc</p>","","","","","","","","",""
"html-keyboard-response","28","1507150","0.0-7.0-0.21","5fd0c81fc79aef1882cbee94","64e77d7b61f440b60e28659d","64eca5b2f88686966f593b43","null","null","<p style=""font-size: 60px; font-family: BACS"">TbKMEMCkm</p>","","","","","","","","",""
"html-keyboard-response","29","1508152","0.0-7.0-0.22","5fd0c81fc79aef1882cbee94","64e77d7b61f440b60e28659d","64eca5b2f88686966f593b43","null","null","<p style=""font-size: 60px; font-family: BACS"">tDPRklMck</p>","","","","","","","","",""
"html-keyboard-response","30","1509154","0.0-7.0-0.23","5fd0c81fc79aef1882cbee94","64e77d7b61f440b60e28659d","64eca5b2f88686966f593b43","null","null","<p style=""font-size: 60px; font-family: BACS"">adYrcYZUZ</p>","","","","","","","","",""
"html-keyboard-response","31","1510167","0.0-7.0-0.24","5fd0c81fc79aef1882cbee94","64e77d7b61f440b60e28659d","64eca5b2f88686966f593b43","null","null","<p style=""font-size: 60px; font-family: BACS"">muYNrab</p>","","","","","","","","",""
"html-keyboard-response","32","1511168","0.0-7.0-0.25","5fd0c81fc79aef1882cbee94","64e77d7b61f440b60e28659d","64eca5b2f88686966f593b43","null","null","<p style=""font-size: 60px; font-family: BACS"">kPkRAMCkm</p>","","","","","","","","",""
"html-keyboard-response","33","1512170","0.0-7.0-0.26","5fd0c81fc79aef1882cbee94","64e77d7b61f440b60e28659d","64eca5b2f88686966f593b43","null","null","<p style=""font-size: 60px; font-family: BACS"">NaJbdmkv</p>","","","","","","","","",""
"html-keyboard-response","34","1513181","0.0-7.0-0.27","5fd0c81fc79aef1882cbee94","64e77d7b61f440b60e28659d","64eca5b2f88686966f593b43","null","null","<p style=""font-size: 60px; font-family: BACS"">KBKBEDbMR</p>","","","","","","","","",""
"html-keyboard-response","35","1514188","0.0-7.0-0.28","5fd0c81fc79aef1882cbee94","64e77d7b61f440b60e28659d","64eca5b2f88686966f593b43","null","null","<p style=""font-size: 60px; font-family: BACS"">OdYPMCkm</p>","","","","","","","","",""
"html-keyboard-response","36","1515190","0.0-7.0-0.29","5fd0c81fc79aef1882cbee94","64e77d7b61f440b60e28659d","64eca5b2f88686966f593b43","null","null","<p style=""font-size: 60px; font-family: BACS"">NQZvYZUZ</p>","","","","","","","","",""
"html-keyboard-response","37","1516191","0.0-7.0-0.30","5fd0c81fc79aef1882cbee94","64e77d7b61f440b60e28659d","64eca5b2f88686966f593b43","null","null","<p style=""font-size: 60px; font-family: BACS"">adYrcdmkv</p>","","","","","","","","",""
"html-keyboard-response","38","1517205","0.0-7.0-0.31","5fd0c81fc79aef1882cbee94","64e77d7b61f440b60e28659d","64eca5b2f88686966f593b43","null","null","<p style=""font-size: 60px; font-family: BACS"">dGLAlYZUZ</p>","","","","","","","","",""
"html-keyboard-response","39","1518213","0.0-7.0-0.32","5fd0c81fc79aef1882cbee94","64e77d7b61f440b60e28659d","64eca5b2f88686966f593b43","null","null","<p style=""font-size: 60px; font-family: BACS"">UaYLdmkv</p>","","","","","","","","",""
"html-keyboard-response","40","1519223","0.0-7.0-0.33","5fd0c81fc79aef1882cbee94","64e77d7b61f440b60e28659d","64eca5b2f88686966f593b43","null","null","<p style=""font-size: 60px; font-family: BACS"">tKDmhcMRl</p>","","","","","","","","",""
"html-keyboard-response","41","1520230","0.0-7.0-0.34","5fd0c81fc79aef1882cbee94","64e77d7b61f440b60e28659d","64eca5b2f88686966f593b43","null","null","<p style=""font-size: 60px; font-family: BACS"">PCPDhMCkm</p>","","","","","","","","",""
"html-keyboard-response","42","1521237","0.0-7.0-0.35","5fd0c81fc79aef1882cbee94","64e77d7b61f440b60e28659d","64eca5b2f88686966f593b43","null","null","<p style=""font-size: 60px; font-family: BACS"">kPOtDbMR</p>","","","","","","","","",""
"html-keyboard-response","43","1522238","0.0-7.0-0.36","5fd0c81fc79aef1882cbee94","64e77d7b61f440b60e28659d","64eca5b2f88686966f593b43","null","null","<p style=""font-size: 60px; font-family: BACS"">muYNrNlZ</p>","","","","","","","","",""
"html-keyboard-response","44","1523240","0.0-7.0-0.37","5fd0c81fc79aef1882cbee94","64e77d7b61f440b60e28659d","64eca5b2f88686966f593b43","null","null","<p style=""font-size: 60px; font-family: BACS"">RkmdClMck</p>","","","","","","","","",""
"html-keyboard-response","45","1524245","0.0-7.0-0.38","5fd0c81fc79aef1882cbee94","64e77d7b61f440b60e28659d","64eca5b2f88686966f593b43","null","null","<p style=""font-size: 60px; font-family: BACS"">NaJbJud</p>","","","","","","","","",""
"html-keyboard-response","46","1525253","0.0-7.0-0.39","5fd0c81fc79aef1882cbee94","64e77d7b61f440b60e28659d","64eca5b2f88686966f593b43","null","null","<p style=""font-size: 60px; font-family: BACS"">krUQrab</p>","","","","","","","","",""
"html-keyboard-response","47","1526262","0.0-7.0-0.40","5fd0c81fc79aef1882cbee94","64e77d7b61f440b60e28659d","64eca5b2f88686966f593b43","null","null","<p style=""font-size: 60px; font-family: BACS"">PCPDhcMRl</p>","","","","","","","","",""
"html-keyboard-response","48","1527270","0.0-7.0-0.41","5fd0c81fc79aef1882cbee94","64e77d7b61f440b60e28659d","64eca5b2f88686966f593b43","null","null","<p style=""font-size: 60px; font-family: BACS"">kPOtdCKc</p>","","","","","","","","",""
"html-keyboard-response","49","1528272","0.0-7.0-0.42","5fd0c81fc79aef1882cbee94","64e77d7b61f440b60e28659d","64eca5b2f88686966f593b43","null","null","<p style=""font-size: 60px; font-family: BACS"">krUQYZUZ</p>","","","","","","","","",""
"html-keyboard-response","50","1529288","0.0-7.0-0.43","5fd0c81fc79aef1882cbee94","64e77d7b61f440b60e28659d","64eca5b2f88686966f593b43","null","null","<p style=""font-size: 60px; font-family: BACS"">dGLAldmkv</p>","","","","","","","","",""
"html-keyboard-response","51","1530293","0.0-7.0-0.44","5fd0c81fc79aef1882cbee94","64e77d7b61f440b60e28659d","64eca5b2f88686966f593b43","null","null","<p style=""font-size: 60px; font-family: BACS"">KBKBEcMRl</p>","","","","","","","","",""
"html-keyboard-response","52","1531294","0.0-7.0-0.45","5fd0c81fc79aef1882cbee94","64e77d7b61f440b60e28659d","64eca5b2f88686966f593b43","null","null","<p style=""font-size: 60px; font-family: BACS"">dGLAlJud</p>","","","","","","","","",""
"html-keyboard-response","53","1532309","0.0-7.0-0.46","5fd0c81fc79aef1882cbee94","64e77d7b61f440b60e28659d","64eca5b2f88686966f593b43","null","null","<p style=""font-size: 60px; font-family: BACS"">PCPDhDbMR</p>","","","","","","","","",""
"html-keyboard-response","54","1533311","0.0-7.0-0.47","5fd0c81fc79aef1882cbee94","64e77d7b61f440b60e28659d","64eca5b2f88686966f593b43","null","null","<p style=""font-size: 60px; font-family: BACS"">UaYLrab</p>","","","","","","","","",""
"html-keyboard-response","55","1534326","0.0-7.0-0.48","5fd0c81fc79aef1882cbee94","64e77d7b61f440b60e28659d","64eca5b2f88686966f593b43","null","null","<p style=""font-size: 60px; font-family: BACS"">KBKBEdCKc</p>","","","","","","","","",""
"html-keyboard-response","56","1535330","0.0-7.0-0.49","5fd0c81fc79aef1882cbee94","64e77d7b61f440b60e28659d","64eca5b2f88686966f593b43","null","null","<p style=""font-size: 60px; font-family: BACS"">NLQGmJud</p>","","","","","","","","",""
"html-keyboard-response","57","1536332","0.0-7.0-0.50","5fd0c81fc79aef1882cbee94","64e77d7b61f440b60e28659d","64eca5b2f88686966f593b43","null","null","<p style=""font-size: 60px; font-family: BACS"">rbYburab</p>","","","","","","","","",""
"html-keyboard-response","58","1537345","0.0-7.0-0.51","5fd0c81fc79aef1882cbee94","64e77d7b61f440b60e28659d","64eca5b2f88686966f593b43","null","null","<p style=""font-size: 60px; font-family: BACS"">kPkRAlMck</p>","","","","","","","","",""
"html-keyboard-response","59","1538348","0.0-7.0-0.52","5fd0c81fc79aef1882cbee94","64e77d7b61f440b60e28659d","64eca5b2f88686966f593b43","null","null","<p style=""font-size: 60px; font-family: BACS"">rbYburNlZ</p>","","","","","","","","",""
"html-keyboard-response","60","1539351","0.0-7.0-0.53","5fd0c81fc79aef1882cbee94","64e77d7b61f440b60e28659d","64eca5b2f88686966f593b43","null","null","<p style=""font-size: 60px; font-family: BACS"">kPkRAcMRl</p>","","","","","","","","",""
"html-keyboard-response","61","1540358","0.0-7.0-0.54","5fd0c81fc79aef1882cbee94","64e77d7b61f440b60e28659d","64eca5b2f88686966f593b43","null","null","<p style=""font-size: 60px; font-family: BACS"">NLQGmrNlZ</p>","","","","","","","","",""
"html-keyboard-response","62","1541375","0.0-7.0-0.55","5fd0c81fc79aef1882cbee94","64e77d7b61f440b60e28659d","64eca5b2f88686966f593b43","null","null","<p style=""font-size: 60px; font-family: BACS"">rbYbuJud</p>","","","","","","","","",""
"html-keyboard-response","63","1542377","0.0-7.0-0.56","5fd0c81fc79aef1882cbee94","64e77d7b61f440b60e28659d","64eca5b2f88686966f593b43","null","null","<p style=""font-size: 60px; font-family: BACS"">tDPRkMCkm</p>","","","","","","","","",""
"html-keyboard-response","64","1543381","0.0-7.0-0.57","5fd0c81fc79aef1882cbee94","64e77d7b61f440b60e28659d","64eca5b2f88686966f593b43","null","null","<p style=""font-size: 60px; font-family: BACS"">NQZvrab</p>","","","","","","","","",""
"html-keyboard-response","65","1544390","0.0-7.0-0.58","5fd0c81fc79aef1882cbee94","64e77d7b61f440b60e28659d","64eca5b2f88686966f593b43","null","null","<p style=""font-size: 60px; font-family: BACS"">GLluAYZUZ</p>","","","","","","","","",""
"html-keyboard-response","66","1545398","0.0-7.0-0.59","5fd0c81fc79aef1882cbee94","64e77d7b61f440b60e28659d","64eca5b2f88686966f593b43","null","null","<p style=""font-size: 60px; font-family: BACS"">TbKMElMck</p>","","","","","","","","",""
"html-keyboard-response","67","1546405","0.0-7.0-0.60","5fd0c81fc79aef1882cbee94","64e77d7b61f440b60e28659d","64eca5b2f88686966f593b43","null","null","<p style=""font-size: 60px; font-family: BACS"">tDPRkDbMR</p>","","","","","","","","",""
"html-keyboard-response","68","1547413","0.0-7.0-0.61","5fd0c81fc79aef1882cbee94","64e77d7b61f440b60e28659d","64eca5b2f88686966f593b43","null","null","<p style=""font-size: 60px; font-family: BACS"">NQZvJud</p>","","","","","","","","",""
"html-keyboard-response","69","1548422","0.0-7.0-0.62","5fd0c81fc79aef1882cbee94","64e77d7b61f440b60e28659d","64eca5b2f88686966f593b43","null","null","<p style=""font-size: 60px; font-family: BACS"">krUQdmkv</p>","","","","","","","","",""
"html-keyboard-response","70","1549432","0.0-7.0-0.63","5fd0c81fc79aef1882cbee94","64e77d7b61f440b60e28659d","64eca5b2f88686966f593b43","null","null","<p style=""font-size: 60px; font-family: BACS"">kcdOtcMRl</p>","","","","","","","","",""
"html-keyboard-response","71","1550433","0.0-7.0-0.64","5fd0c81fc79aef1882cbee94","64e77d7b61f440b60e28659d","64eca5b2f88686966f593b43","null","null","<p style=""font-size: 60px; font-family: BACS"">UaYLrNlZ</p>","","","","","","","","",""
"html-keyboard-response","72","1551446","0.0-7.0-0.65","5fd0c81fc79aef1882cbee94","64e77d7b61f440b60e28659d","64eca5b2f88686966f593b43","null","null","<p style=""font-size: 60px; font-family: BACS"">kPOtlMck</p>","","","","","","","","",""
"html-keyboard-response","73","1552453","0.0-7.0-0.66","5fd0c81fc79aef1882cbee94","64e77d7b61f440b60e28659d","64eca5b2f88686966f593b43","null","null","<p style=""font-size: 60px; font-family: BACS"">RkmdCMCkm</p>","","","","","","","","",""
"html-keyboard-response","74","1553462","0.0-7.0-0.67","5fd0c81fc79aef1882cbee94","64e77d7b61f440b60e28659d","64eca5b2f88686966f593b43","null","null","<p style=""font-size: 60px; font-family: BACS"">NaJbrab</p>","","","","","","","","",""
"html-keyboard-response","75","1554467","0.0-7.0-0.68","5fd0c81fc79aef1882cbee94","64e77d7b61f440b60e28659d","64eca5b2f88686966f593b43","null","null","<p style=""font-size: 60px; font-family: BACS"">UaYLYZUZ</p>","","","","","","","","",""
"html-keyboard-response","76","1555478","0.0-7.0-0.69","5fd0c81fc79aef1882cbee94","64e77d7b61f440b60e28659d","64eca5b2f88686966f593b43","null","null","<p style=""font-size: 60px; font-family: BACS"">kcdOtlMck</p>","","","","","","","","",""
"html-keyboard-response","77","1556479","0.0-7.0-0.70","5fd0c81fc79aef1882cbee94","64e77d7b61f440b60e28659d","64eca5b2f88686966f593b43","null","null","<p style=""font-size: 60px; font-family: BACS"">muYNJud</p>","","","","","","","","",""
"html-keyboard-response","78","1557490","0.0-7.0-0.71","5fd0c81fc79aef1882cbee94","64e77d7b61f440b60e28659d","64eca5b2f88686966f593b43","null","null","<p style=""font-size: 60px; font-family: BACS"">kcdOtdCKc</p>","","","","","","","","",""
"html-keyboard-response","79","1558499","0.0-7.0-0.72","5fd0c81fc79aef1882cbee94","64e77d7b61f440b60e28659d","64eca5b2f88686966f593b43","null","null","<p style=""font-size: 60px; font-family: BACS"">adYrcrNlZ</p>","","","","","","","","",""
"html-keyboard-response","80","1559507","0.0-7.0-0.73","5fd0c81fc79aef1882cbee94","64e77d7b61f440b60e28659d","64eca5b2f88686966f593b43","null","null","<p style=""font-size: 60px; font-family: BACS"">tKDmhDbMR</p>","","","","","","","","",""
"html-keyboard-response","81","1560514","0.0-7.0-0.74","5fd0c81fc79aef1882cbee94","64e77d7b61f440b60e28659d","64eca5b2f88686966f593b43","null","null","<p style=""font-size: 60px; font-family: BACS"">kPkRAdCKc</p>","","","","","","","","",""
"html-keyboard-response","82","1561521","0.0-7.0-0.75","5fd0c81fc79aef1882cbee94","64e77d7b61f440b60e28659d","64eca5b2f88686966f593b43","null","null","<p style=""font-size: 60px; font-family: BACS"">dGLAlrNlZ</p>","","","","","","","","",""
"html-keyboard-response","83","1562534","0.0-7.0-0.76","5fd0c81fc79aef1882cbee94","64e77d7b61f440b60e28659d","64eca5b2f88686966f593b43","null","null","<p style=""font-size: 60px; font-family: BACS"">KBKBElMck</p>","","","","","","","","",""
"html-keyboard-response","84","1563536","0.0-7.0-0.77","5fd0c81fc79aef1882cbee94","64e77d7b61f440b60e28659d","64eca5b2f88686966f593b43","null","null","<p style=""font-size: 60px; font-family: BACS"">NLQGmrab</p>","","","","","","","","",""
"html-keyboard-response","85","1564550","0.0-7.0-0.78","5fd0c81fc79aef1882cbee94","64e77d7b61f440b60e28659d","64eca5b2f88686966f593b43","null","null","<p style=""font-size: 60px; font-family: BACS"">kPOtMCkm</p>","","","","","","","","",""
"html-keyboard-response","86","1565553","0.0-7.0-0.79","5fd0c81fc79aef1882cbee94","64e77d7b61f440b60e28659d","64eca5b2f88686966f593b43","null","null","<p style=""font-size: 60px; font-family: BACS"">tKDmhdCKc</p>","","","","","","","","",""
"html-keyboard-response","87","1586728","0.0-8.0","5fd0c81fc79aef1882cbee94","64e77d7b61f440b60e28659d","64eca5b2f88686966f593b43","21174"," ","<p>Great, you've seen the first block of words. You may now take a short break.</p>
      <p>Press the spacebar when you're ready to continue.</p>","","","","","","","","",""
"html-keyboard-response","88","1587733","0.0-9.0-0.0","5fd0c81fc79aef1882cbee94","64e77d7b61f440b60e28659d","64eca5b2f88686966f593b43","null","null","<p style=""font-size: 60px; font-family: BACS"">krUQYZUZ</p>","","","","","","","","",""
"html-keyboard-response","89","1588742","0.0-9.0-0.1","5fd0c81fc79aef1882cbee94","64e77d7b61f440b60e28659d","64eca5b2f88686966f593b43","null","null","<p style=""font-size: 60px; font-family: BACS"">kcdOtdCKc</p>","","","","","","","","",""
"html-keyboard-response","90","1589752","0.0-9.0-0.2","5fd0c81fc79aef1882cbee94","64e77d7b61f440b60e28659d","64eca5b2f88686966f593b43","null","null","<p style=""font-size: 60px; font-family: BACS"">RkmdClMck</p>","","","","","","","","",""
"html-keyboard-response","91","1590757","0.0-9.0-0.3","5fd0c81fc79aef1882cbee94","64e77d7b61f440b60e28659d","64eca5b2f88686966f593b43","null","null","<p style=""font-size: 60px; font-family: BACS"">TbKMEcMRl</p>","","","","","","","","",""
"html-keyboard-response","92","1591761","0.0-9.0-0.4","5fd0c81fc79aef1882cbee94","64e77d7b61f440b60e28659d","64eca5b2f88686966f593b43","null","null","<p style=""font-size: 60px; font-family: BACS"">adYrcrNlZ</p>","","","","","","","","",""
"html-keyboard-response","93","1592763","0.0-9.0-0.5","5fd0c81fc79aef1882cbee94","64e77d7b61f440b60e28659d","64eca5b2f88686966f593b43","null","null","<p style=""font-size: 60px; font-family: BACS"">tDPRklMck</p>","","","","","","","","",""
"html-keyboard-response","94","1593768","0.0-9.0-0.6","5fd0c81fc79aef1882cbee94","64e77d7b61f440b60e28659d","64eca5b2f88686966f593b43","null","null","<p style=""font-size: 60px; font-family: BACS"">GLluAJud</p>","","","","","","","","",""
"html-keyboard-response","95","1594778","0.0-9.0-0.7","5fd0c81fc79aef1882cbee94","64e77d7b61f440b60e28659d","64eca5b2f88686966f593b43","null","null","<p style=""font-size: 60px; font-family: BACS"">UaYLrab</p>","","","","","","","","",""
"html-keyboard-response","96","1595783","0.0-9.0-0.8","5fd0c81fc79aef1882cbee94","64e77d7b61f440b60e28659d","64eca5b2f88686966f593b43","null","null","<p style=""font-size: 60px; font-family: BACS"">kPkRAMCkm</p>","","","","","","","","",""
"html-keyboard-response","97","1596796","0.0-9.0-0.9","5fd0c81fc79aef1882cbee94","64e77d7b61f440b60e28659d","64eca5b2f88686966f593b43","null","null","<p style=""font-size: 60px; font-family: BACS"">NQZvJud</p>","","","","","","","","",""
"html-keyboard-response","98","1597812","0.0-9.0-0.10","5fd0c81fc79aef1882cbee94","64e77d7b61f440b60e28659d","64eca5b2f88686966f593b43","null","null","<p style=""font-size: 60px; font-family: BACS"">NLQGmrab</p>","","","","","","","","",""
"html-keyboard-response","99","1598818","0.0-9.0-0.11","5fd0c81fc79aef1882cbee94","64e77d7b61f440b60e28659d","64eca5b2f88686966f593b43","null","null","<p style=""font-size: 60px; font-family: BACS"">KBKBEDbMR</p>","","","","","","","","",""
"html-keyboard-response","100","1599820","0.0-9.0-0.12","5fd0c81fc79aef1882cbee94","64e77d7b61f440b60e28659d","64eca5b2f88686966f593b43","null","null","<p style=""font-size: 60px; font-family: BACS"">GLluAYZUZ</p>","","","","","","","","",""
"html-keyboard-response","101","1600821","0.0-9.0-0.13","5fd0c81fc79aef1882cbee94","64e77d7b61f440b60e28659d","64eca5b2f88686966f593b43","null","null","<p style=""font-size: 60px; font-family: BACS"">adYrcJud</p>","","","","","","","","",""
"html-keyboard-response","102","1601829","0.0-9.0-0.14","5fd0c81fc79aef1882cbee94","64e77d7b61f440b60e28659d","64eca5b2f88686966f593b43","null","null","<p style=""font-size: 60px; font-family: BACS"">NQZvrab</p>","","","","","","","","",""
"html-keyboard-response","103","1602837","0.0-9.0-0.15","5fd0c81fc79aef1882cbee94","64e77d7b61f440b60e28659d","64eca5b2f88686966f593b43","null","null","<p style=""font-size: 60px; font-family: BACS"">NaJbdmkv</p>","","","","","","","","",""
"html-keyboard-response","104","1603847","0.0-9.0-0.16","5fd0c81fc79aef1882cbee94","64e77d7b61f440b60e28659d","64eca5b2f88686966f593b43","null","null","<p style=""font-size: 60px; font-family: BACS"">kcdOtDbMR</p>","","","","","","","","",""
"html-keyboard-response","105","1604854","0.0-9.0-0.17","5fd0c81fc79aef1882cbee94","64e77d7b61f440b60e28659d","64eca5b2f88686966f593b43","null","null","<p style=""font-size: 60px; font-family: BACS"">NaJbYZUZ</p>","","","","","","","","",""
"html-keyboard-response","106","1605860","0.0-9.0-0.18","5fd0c81fc79aef1882cbee94","64e77d7b61f440b60e28659d","64eca5b2f88686966f593b43","null","null","<p style=""font-size: 60px; font-family: BACS"">tDPRkMCkm</p>","","","","","","","","",""
"html-keyboard-response","107","1606862","0.0-9.0-0.19","5fd0c81fc79aef1882cbee94","64e77d7b61f440b60e28659d","64eca5b2f88686966f593b43","null","null","<p style=""font-size: 60px; font-family: BACS"">NQZvYZUZ</p>","","","","","","","","",""
"html-keyboard-response","108","1607879","0.0-9.0-0.20","5fd0c81fc79aef1882cbee94","64e77d7b61f440b60e28659d","64eca5b2f88686966f593b43","null","null","<p style=""font-size: 60px; font-family: BACS"">NLQGmJud</p>","","","","","","","","",""
"html-keyboard-response","109","1608886","0.0-9.0-0.21","5fd0c81fc79aef1882cbee94","64e77d7b61f440b60e28659d","64eca5b2f88686966f593b43","null","null","<p style=""font-size: 60px; font-family: BACS"">OdYPMCkm</p>","","","","","","","","",""
"html-keyboard-response","110","1609888","0.0-9.0-0.22","5fd0c81fc79aef1882cbee94","64e77d7b61f440b60e28659d","64eca5b2f88686966f593b43","null","null","<p style=""font-size: 60px; font-family: BACS"">KBKBElMck</p>","","","","","","","","",""
"html-keyboard-response","111","1610890","0.0-9.0-0.23","5fd0c81fc79aef1882cbee94","64e77d7b61f440b60e28659d","64eca5b2f88686966f593b43","null","null","<p style=""font-size: 60px; font-family: BACS"">rbYburab</p>","","","","","","","","",""
"html-keyboard-response","112","1611891","0.0-9.0-0.24","5fd0c81fc79aef1882cbee94","64e77d7b61f440b60e28659d","64eca5b2f88686966f593b43","null","null","<p style=""font-size: 60px; font-family: BACS"">krUQdmkv</p>","","","","","","","","",""
"html-keyboard-response","113","1612893","0.0-9.0-0.25","5fd0c81fc79aef1882cbee94","64e77d7b61f440b60e28659d","64eca5b2f88686966f593b43","null","null","<p style=""font-size: 60px; font-family: BACS"">PCPDhDbMR</p>","","","","","","","","",""
"html-keyboard-response","114","1613907","0.0-9.0-0.26","5fd0c81fc79aef1882cbee94","64e77d7b61f440b60e28659d","64eca5b2f88686966f593b43","null","null","<p style=""font-size: 60px; font-family: BACS"">TbKMElMck</p>","","","","","","","","",""
"html-keyboard-response","115","1614909","0.0-9.0-0.27","5fd0c81fc79aef1882cbee94","64e77d7b61f440b60e28659d","64eca5b2f88686966f593b43","null","null","<p style=""font-size: 60px; font-family: BACS"">NLQGmrNlZ</p>","","","","","","","","",""
"html-keyboard-response","116","1615911","0.0-9.0-0.28","5fd0c81fc79aef1882cbee94","64e77d7b61f440b60e28659d","64eca5b2f88686966f593b43","null","null","<p style=""font-size: 60px; font-family: BACS"">NaJbrab</p>","","","","","","","","",""
"html-keyboard-response","117","1616920","0.0-9.0-0.29","5fd0c81fc79aef1882cbee94","64e77d7b61f440b60e28659d","64eca5b2f88686966f593b43","null","null","<p style=""font-size: 60px; font-family: BACS"">KBKBEcMRl</p>","","","","","","","","",""
"html-keyboard-response","118","1617928","0.0-9.0-0.30","5fd0c81fc79aef1882cbee94","64e77d7b61f440b60e28659d","64eca5b2f88686966f593b43","null","null","<p style=""font-size: 60px; font-family: BACS"">dGLAlrNlZ</p>","","","","","","","","",""
"html-keyboard-response","119","1618942","0.0-9.0-0.31","5fd0c81fc79aef1882cbee94","64e77d7b61f440b60e28659d","64eca5b2f88686966f593b43","null","null","<p style=""font-size: 60px; font-family: BACS"">OdYPDbMR</p>","","","","","","","","",""
"html-keyboard-response","120","1619956","0.0-9.0-0.32","5fd0c81fc79aef1882cbee94","64e77d7b61f440b60e28659d","64eca5b2f88686966f593b43","null","null","<p style=""font-size: 60px; font-family: BACS"">dGLAlJud</p>","","","","","","","","",""
"html-keyboard-response","121","1620963","0.0-9.0-0.33","5fd0c81fc79aef1882cbee94","64e77d7b61f440b60e28659d","64eca5b2f88686966f593b43","null","null","<p style=""font-size: 60px; font-family: BACS"">PCPDhcMRl</p>","","","","","","","","",""
"html-keyboard-response","122","1621974","0.0-9.0-0.34","5fd0c81fc79aef1882cbee94","64e77d7b61f440b60e28659d","64eca5b2f88686966f593b43","null","null","<p style=""font-size: 60px; font-family: BACS"">adYrcdmkv</p>","","","","","","","","",""
"html-keyboard-response","123","1622982","0.0-9.0-0.35","5fd0c81fc79aef1882cbee94","64e77d7b61f440b60e28659d","64eca5b2f88686966f593b43","null","null","<p style=""font-size: 60px; font-family: BACS"">RkmdCcMRl</p>","","","","","","","","",""
"html-keyboard-response","124","1623983","0.0-9.0-0.36","5fd0c81fc79aef1882cbee94","64e77d7b61f440b60e28659d","64eca5b2f88686966f593b43","null","null","<p style=""font-size: 60px; font-family: BACS"">adYrcYZUZ</p>","","","","","","","","",""
"html-keyboard-response","125","1624986","0.0-9.0-0.37","5fd0c81fc79aef1882cbee94","64e77d7b61f440b60e28659d","64eca5b2f88686966f593b43","null","null","<p style=""font-size: 60px; font-family: BACS"">tDPRkdCKc</p>","","","","","","","","",""
"html-keyboard-response","126","1625990","0.0-9.0-0.38","5fd0c81fc79aef1882cbee94","64e77d7b61f440b60e28659d","64eca5b2f88686966f593b43","null","null","<p style=""font-size: 60px; font-family: BACS"">dGLAldmkv</p>","","","","","","","","",""
"html-keyboard-response","127","1626991","0.0-9.0-0.39","5fd0c81fc79aef1882cbee94","64e77d7b61f440b60e28659d","64eca5b2f88686966f593b43","null","null","<p style=""font-size: 60px; font-family: BACS"">muYNrNlZ</p>","","","","","","","","",""
"html-keyboard-response","128","1628007","0.0-9.0-0.40","5fd0c81fc79aef1882cbee94","64e77d7b61f440b60e28659d","64eca5b2f88686966f593b43","null","null","<p style=""font-size: 60px; font-family: BACS"">NQZvdmkv</p>","","","","","","","","",""
"html-keyboard-response","129","1629008","0.0-9.0-0.41","5fd0c81fc79aef1882cbee94","64e77d7b61f440b60e28659d","64eca5b2f88686966f593b43","null","null","<p style=""font-size: 60px; font-family: BACS"">tDPRkDbMR</p>","","","","","","","","",""
"html-keyboard-response","130","1630020","0.0-9.0-0.42","5fd0c81fc79aef1882cbee94","64e77d7b61f440b60e28659d","64eca5b2f88686966f593b43","null","null","<p style=""font-size: 60px; font-family: BACS"">NaJbJud</p>","","","","","","","","",""
"html-keyboard-response","131","1631030","0.0-9.0-0.43","5fd0c81fc79aef1882cbee94","64e77d7b61f440b60e28659d","64eca5b2f88686966f593b43","null","null","<p style=""font-size: 60px; font-family: BACS"">RkmdCMCkm</p>","","","","","","","","",""
"html-keyboard-response","132","1632040","0.0-9.0-0.44","5fd0c81fc79aef1882cbee94","64e77d7b61f440b60e28659d","64eca5b2f88686966f593b43","null","null","<p style=""font-size: 60px; font-family: BACS"">dGLAlYZUZ</p>","","","","","","","","",""
"html-keyboard-response","133","1633041","0.0-9.0-0.45","5fd0c81fc79aef1882cbee94","64e77d7b61f440b60e28659d","64eca5b2f88686966f593b43","null","null","<p style=""font-size: 60px; font-family: BACS"">kcdOtcMRl</p>","","","","","","","","",""
"html-keyboard-response","134","1634053","0.0-9.0-0.46","5fd0c81fc79aef1882cbee94","64e77d7b61f440b60e28659d","64eca5b2f88686966f593b43","null","null","<p style=""font-size: 60px; font-family: BACS"">muYNYZUZ</p>","","","","","","","","",""
"html-keyboard-response","135","1635055","0.0-9.0-0.47","5fd0c81fc79aef1882cbee94","64e77d7b61f440b60e28659d","64eca5b2f88686966f593b43","null","null","<p style=""font-size: 60px; font-family: BACS"">rbYbuJud</p>","","","","","","","","",""
"html-keyboard-response","136","1636057","0.0-9.0-0.48","5fd0c81fc79aef1882cbee94","64e77d7b61f440b60e28659d","64eca5b2f88686966f593b43","null","null","<p style=""font-size: 60px; font-family: BACS"">kPkRAcMRl</p>","","","","","","","","",""
"html-keyboard-response","137","1637062","0.0-9.0-0.49","5fd0c81fc79aef1882cbee94","64e77d7b61f440b60e28659d","64eca5b2f88686966f593b43","null","null","<p style=""font-size: 60px; font-family: BACS"">PCPDhMCkm</p>","","","","","","","","",""
"html-keyboard-response","138","1638067","0.0-9.0-0.50","5fd0c81fc79aef1882cbee94","64e77d7b61f440b60e28659d","64eca5b2f88686966f593b43","null","null","<p style=""font-size: 60px; font-family: BACS"">KBKBEdCKc</p>","","","","","","","","",""
"html-keyboard-response","139","1639079","0.0-9.0-0.51","5fd0c81fc79aef1882cbee94","64e77d7b61f440b60e28659d","64eca5b2f88686966f593b43","null","null","<p style=""font-size: 60px; font-family: BACS"">kPOtDbMR</p>","","","","","","","","",""
"html-keyboard-response","140","1640087","0.0-9.0-0.52","5fd0c81fc79aef1882cbee94","64e77d7b61f440b60e28659d","64eca5b2f88686966f593b43","null","null","<p style=""font-size: 60px; font-family: BACS"">tKDmhMCkm</p>","","","","","","","","",""
"html-keyboard-response","141","1641093","0.0-9.0-0.53","5fd0c81fc79aef1882cbee94","64e77d7b61f440b60e28659d","64eca5b2f88686966f593b43","null","null","<p style=""font-size: 60px; font-family: BACS"">kPkRAlMck</p>","","","","","","","","",""
"html-keyboard-response","142","1642095","0.0-9.0-0.54","5fd0c81fc79aef1882cbee94","64e77d7b61f440b60e28659d","64eca5b2f88686966f593b43","null","null","<p style=""font-size: 60px; font-family: BACS"">tKDmhDbMR</p>","","","","","","","","",""
"html-keyboard-response","143","1643098","0.0-9.0-0.55","5fd0c81fc79aef1882cbee94","64e77d7b61f440b60e28659d","64eca5b2f88686966f593b43","null","null","<p style=""font-size: 60px; font-family: BACS"">muYNrab</p>","","","","","","","","",""
"html-keyboard-response","144","1644104","0.0-9.0-0.56","5fd0c81fc79aef1882cbee94","64e77d7b61f440b60e28659d","64eca5b2f88686966f593b43","null","null","<p style=""font-size: 60px; font-family: BACS"">kPOtMCkm</p>","","","","","","","","",""
"html-keyboard-response","145","1645112","0.0-9.0-0.57","5fd0c81fc79aef1882cbee94","64e77d7b61f440b60e28659d","64eca5b2f88686966f593b43","null","null","<p style=""font-size: 60px; font-family: BACS"">rbYburNlZ</p>","","","","","","","","",""
"html-keyboard-response","146","1646117","0.0-9.0-0.58","5fd0c81fc79aef1882cbee94","64e77d7b61f440b60e28659d","64eca5b2f88686966f593b43","null","null","<p style=""font-size: 60px; font-family: BACS"">OdYPcMRl</p>","","","","","","","","",""
"html-keyboard-response","147","1647127","0.0-9.0-0.59","5fd0c81fc79aef1882cbee94","64e77d7b61f440b60e28659d","64eca5b2f88686966f593b43","null","null","<p style=""font-size: 60px; font-family: BACS"">PCPDhdCKc</p>","","","","","","","","",""
"html-keyboard-response","148","1648128","0.0-9.0-0.60","5fd0c81fc79aef1882cbee94","64e77d7b61f440b60e28659d","64eca5b2f88686966f593b43","null","null","<p style=""font-size: 60px; font-family: BACS"">NLQGmdmkv</p>","","","","","","","","",""
"html-keyboard-response","149","1649138","0.0-9.0-0.61","5fd0c81fc79aef1882cbee94","64e77d7b61f440b60e28659d","64eca5b2f88686966f593b43","null","null","<p style=""font-size: 60px; font-family: BACS"">tKDmhdCKc</p>","","","","","","","","",""
"html-keyboard-response","150","1650139","0.0-9.0-0.62","5fd0c81fc79aef1882cbee94","64e77d7b61f440b60e28659d","64eca5b2f88686966f593b43","null","null","<p style=""font-size: 60px; font-family: BACS"">UaYLdmkv</p>","","","","","","","","",""
"html-keyboard-response","151","1651155","0.0-9.0-0.63","5fd0c81fc79aef1882cbee94","64e77d7b61f440b60e28659d","64eca5b2f88686966f593b43","null","null","<p style=""font-size: 60px; font-family: BACS"">GLluArNlZ</p>","","","","","","","","",""
"html-keyboard-response","152","1652156","0.0-9.0-0.64","5fd0c81fc79aef1882cbee94","64e77d7b61f440b60e28659d","64eca5b2f88686966f593b43","null","null","<p style=""font-size: 60px; font-family: BACS"">muYNJud</p>","","","","","","","","",""
"html-keyboard-response","153","1653171","0.0-9.0-0.65","5fd0c81fc79aef1882cbee94","64e77d7b61f440b60e28659d","64eca5b2f88686966f593b43","null","null","<p style=""font-size: 60px; font-family: BACS"">TbKMEDbMR</p>","","","","","","","","",""
"html-keyboard-response","154","1654181","0.0-9.0-0.66","5fd0c81fc79aef1882cbee94","64e77d7b61f440b60e28659d","64eca5b2f88686966f593b43","null","null","<p style=""font-size: 60px; font-family: BACS"">krUQrab</p>","","","","","","","","",""
"html-keyboard-response","155","1655184","0.0-9.0-0.67","5fd0c81fc79aef1882cbee94","64e77d7b61f440b60e28659d","64eca5b2f88686966f593b43","null","null","<p style=""font-size: 60px; font-family: BACS"">RkmdCdCKc</p>","","","","","","","","",""
"html-keyboard-response","156","1656185","0.0-9.0-0.68","5fd0c81fc79aef1882cbee94","64e77d7b61f440b60e28659d","64eca5b2f88686966f593b43","null","null","<p style=""font-size: 60px; font-family: BACS"">OdYPlMck</p>","","","","","","","","",""
"html-keyboard-response","157","1657187","0.0-9.0-0.69","5fd0c81fc79aef1882cbee94","64e77d7b61f440b60e28659d","64eca5b2f88686966f593b43","null","null","<p style=""font-size: 60px; font-family: BACS"">kPOtdCKc</p>","","","","","","","","",""
"html-keyboard-response","158","1658203","0.0-9.0-0.70","5fd0c81fc79aef1882cbee94","64e77d7b61f440b60e28659d","64eca5b2f88686966f593b43","null","null","<p style=""font-size: 60px; font-family: BACS"">kcdOtlMck</p>","","","","","","","","",""
"html-keyboard-response","159","1659205","0.0-9.0-0.71","5fd0c81fc79aef1882cbee94","64e77d7b61f440b60e28659d","64eca5b2f88686966f593b43","null","null","<p style=""font-size: 60px; font-family: BACS"">krUQrNlZ</p>","","","","","","","","",""
"html-keyboard-response","160","1660216","0.0-9.0-0.72","5fd0c81fc79aef1882cbee94","64e77d7b61f440b60e28659d","64eca5b2f88686966f593b43","null","null","<p style=""font-size: 60px; font-family: BACS"">kPkRAdCKc</p>","","","","","","","","",""
"html-keyboard-response","161","1661218","0.0-9.0-0.73","5fd0c81fc79aef1882cbee94","64e77d7b61f440b60e28659d","64eca5b2f88686966f593b43","null","null","<p style=""font-size: 60px; font-family: BACS"">UaYLrNlZ</p>","","","","","","","","",""
"html-keyboard-response","162","1662230","0.0-9.0-0.74","5fd0c81fc79aef1882cbee94","64e77d7b61f440b60e28659d","64eca5b2f88686966f593b43","null","null","<p style=""font-size: 60px; font-family: BACS"">kPOtlMck</p>","","","","","","","","",""
"html-keyboard-response","163","1663231","0.0-9.0-0.75","5fd0c81fc79aef1882cbee94","64e77d7b61f440b60e28659d","64eca5b2f88686966f593b43","null","null","<p style=""font-size: 60px; font-family: BACS"">GLluArab</p>","","","","","","","","",""
"html-keyboard-response","164","1664233","0.0-9.0-0.76","5fd0c81fc79aef1882cbee94","64e77d7b61f440b60e28659d","64eca5b2f88686966f593b43","null","null","<p style=""font-size: 60px; font-family: BACS"">TbKMEMCkm</p>","","","","","","","","",""
"html-keyboard-response","165","1665239","0.0-9.0-0.77","5fd0c81fc79aef1882cbee94","64e77d7b61f440b60e28659d","64eca5b2f88686966f593b43","null","null","<p style=""font-size: 60px; font-family: BACS"">rbYbudmkv</p>","","","","","","","","",""
"html-keyboard-response","166","1666244","0.0-9.0-0.78","5fd0c81fc79aef1882cbee94","64e77d7b61f440b60e28659d","64eca5b2f88686966f593b43","null","null","<p style=""font-size: 60px; font-family: BACS"">UaYLYZUZ</p>","","","","","","","","",""
"html-keyboard-response","167","1667254","0.0-9.0-0.79","5fd0c81fc79aef1882cbee94","64e77d7b61f440b60e28659d","64eca5b2f88686966f593b43","null","null","<p style=""font-size: 60px; font-family: BACS"">tKDmhcMRl</p>","","","","","","","","",""
"html-keyboard-response","168","1670265","0.0-10.0","5fd0c81fc79aef1882cbee94","64e77d7b61f440b60e28659d","64eca5b2f88686966f593b43","3010"," ","<p>Great, you've seen the second block of words. You may now take a short break.</p>
      <p>Press the spacebar when you're ready to continue.</p>","","","","","","","","",""
"html-keyboard-response","169","1671274","0.0-11.0-0.0","5fd0c81fc79aef1882cbee94","64e77d7b61f440b60e28659d","64eca5b2f88686966f593b43","null","null","<p style=""font-size: 60px; font-family: BACS"">muYNJud</p>","","","","","","","","",""
"html-keyboard-response","170","1672279","0.0-11.0-0.1","5fd0c81fc79aef1882cbee94","64e77d7b61f440b60e28659d","64eca5b2f88686966f593b43","null","null","<p style=""font-size: 60px; font-family: BACS"">UaYLYZUZ</p>","","","","","","","","",""
"html-keyboard-response","171","1673286","0.0-11.0-0.2","5fd0c81fc79aef1882cbee94","64e77d7b61f440b60e28659d","64eca5b2f88686966f593b43","null","null","<p style=""font-size: 60px; font-family: BACS"">NQZvrab</p>","","","","","","","","",""
"html-keyboard-response","172","1674287","0.0-11.0-0.3","5fd0c81fc79aef1882cbee94","64e77d7b61f440b60e28659d","64eca5b2f88686966f593b43","null","null","<p style=""font-size: 60px; font-family: BACS"">tDPRkMCkm</p>","","","","","","","","",""
"html-keyboard-response","173","1675289","0.0-11.0-0.4","5fd0c81fc79aef1882cbee94","64e77d7b61f440b60e28659d","64eca5b2f88686966f593b43","null","null","<p style=""font-size: 60px; font-family: BACS"">UaYLdmkv</p>","","","","","","","","",""
"html-keyboard-response","174","1676293","0.0-11.0-0.5","5fd0c81fc79aef1882cbee94","64e77d7b61f440b60e28659d","64eca5b2f88686966f593b43","null","null","<p style=""font-size: 60px; font-family: BACS"">kcdOtlMck</p>","","","","","","","","",""
"html-keyboard-response","175","1677295","0.0-11.0-0.6","5fd0c81fc79aef1882cbee94","64e77d7b61f440b60e28659d","64eca5b2f88686966f593b43","null","null","<p style=""font-size: 60px; font-family: BACS"">PCPDhcMRl</p>","","","","","","","","",""
"html-keyboard-response","176","1678297","0.0-11.0-0.7","5fd0c81fc79aef1882cbee94","64e77d7b61f440b60e28659d","64eca5b2f88686966f593b43","null","null","<p style=""font-size: 60px; font-family: BACS"">NQZvJud</p>","","","","","","","","",""
"html-keyboard-response","177","1679298","0.0-11.0-0.8","5fd0c81fc79aef1882cbee94","64e77d7b61f440b60e28659d","64eca5b2f88686966f593b43","null","null","<p style=""font-size: 60px; font-family: BACS"">kcdOtdCKc</p>","","","","","","","","",""
"html-keyboard-response","178","1680311","0.0-11.0-0.9","5fd0c81fc79aef1882cbee94","64e77d7b61f440b60e28659d","64eca5b2f88686966f593b43","null","null","<p style=""font-size: 60px; font-family: BACS"">kPkRAcMRl</p>","","","","","","","","",""
"html-keyboard-response","179","1681317","0.0-11.0-0.10","5fd0c81fc79aef1882cbee94","64e77d7b61f440b60e28659d","64eca5b2f88686966f593b43","null","null","<p style=""font-size: 60px; font-family: BACS"">muYNYZUZ</p>","","","","","","","","",""
"html-keyboard-response","180","1682326","0.0-11.0-0.11","5fd0c81fc79aef1882cbee94","64e77d7b61f440b60e28659d","64eca5b2f88686966f593b43","null","null","<p style=""font-size: 60px; font-family: BACS"">kPkRAlMck</p>","","","","","","","","",""
"html-keyboard-response","181","1683336","0.0-11.0-0.12","5fd0c81fc79aef1882cbee94","64e77d7b61f440b60e28659d","64eca5b2f88686966f593b43","null","null","<p style=""font-size: 60px; font-family: BACS"">dGLAldmkv</p>","","","","","","","","",""
"html-keyboard-response","182","1684337","0.0-11.0-0.13","5fd0c81fc79aef1882cbee94","64e77d7b61f440b60e28659d","64eca5b2f88686966f593b43","null","null","<p style=""font-size: 60px; font-family: BACS"">krUQrNlZ</p>","","","","","","","","",""
"html-keyboard-response","183","1685350","0.0-11.0-0.14","5fd0c81fc79aef1882cbee94","64e77d7b61f440b60e28659d","64eca5b2f88686966f593b43","null","null","<p style=""font-size: 60px; font-family: BACS"">GLluAYZUZ</p>","","","","","","","","",""
"html-keyboard-response","184","1686357","0.0-11.0-0.15","5fd0c81fc79aef1882cbee94","64e77d7b61f440b60e28659d","64eca5b2f88686966f593b43","null","null","<p style=""font-size: 60px; font-family: BACS"">OdYPcMRl</p>","","","","","","","","",""
"html-keyboard-response","185","1687358","0.0-11.0-0.16","5fd0c81fc79aef1882cbee94","64e77d7b61f440b60e28659d","64eca5b2f88686966f593b43","null","null","<p style=""font-size: 60px; font-family: BACS"">kPOtlMck</p>","","","","","","","","",""
"html-keyboard-response","186","1688360","0.0-11.0-0.17","5fd0c81fc79aef1882cbee94","64e77d7b61f440b60e28659d","64eca5b2f88686966f593b43","null","null","<p style=""font-size: 60px; font-family: BACS"">RkmdCdCKc</p>","","","","","","","","",""
"html-keyboard-response","187","1689366","0.0-11.0-0.18","5fd0c81fc79aef1882cbee94","64e77d7b61f440b60e28659d","64eca5b2f88686966f593b43","null","null","<p style=""font-size: 60px; font-family: BACS"">NQZvdmkv</p>","","","","","","","","",""
"html-keyboard-response","188","1690368","0.0-11.0-0.19","5fd0c81fc79aef1882cbee94","64e77d7b61f440b60e28659d","64eca5b2f88686966f593b43","null","null","<p style=""font-size: 60px; font-family: BACS"">adYrcJud</p>","","","","","","","","",""
"html-keyboard-response","189","1691383","0.0-11.0-0.20","5fd0c81fc79aef1882cbee94","64e77d7b61f440b60e28659d","64eca5b2f88686966f593b43","null","null","<p style=""font-size: 60px; font-family: BACS"">dGLAlrNlZ</p>","","","","","","","","",""
"html-keyboard-response","190","1692388","0.0-11.0-0.21","5fd0c81fc79aef1882cbee94","64e77d7b61f440b60e28659d","64eca5b2f88686966f593b43","null","null","<p style=""font-size: 60px; font-family: BACS"">OdYPMCkm</p>","","","","","","","","",""
"html-keyboard-response","191","1693398","0.0-11.0-0.22","5fd0c81fc79aef1882cbee94","64e77d7b61f440b60e28659d","64eca5b2f88686966f593b43","null","null","<p style=""font-size: 60px; font-family: BACS"">dGLAlYZUZ</p>","","","","","","","","",""
"html-keyboard-response","192","1694400","0.0-11.0-0.23","5fd0c81fc79aef1882cbee94","64e77d7b61f440b60e28659d","64eca5b2f88686966f593b43","null","null","<p style=""font-size: 60px; font-family: BACS"">RkmdCMCkm</p>","","","","","","","","",""
"html-keyboard-response","193","1695412","0.0-11.0-0.24","5fd0c81fc79aef1882cbee94","64e77d7b61f440b60e28659d","64eca5b2f88686966f593b43","null","null","<p style=""font-size: 60px; font-family: BACS"">GLluAJud</p>","","","","","","","","",""
"html-keyboard-response","194","1696415","0.0-11.0-0.25","5fd0c81fc79aef1882cbee94","64e77d7b61f440b60e28659d","64eca5b2f88686966f593b43","null","null","<p style=""font-size: 60px; font-family: BACS"">rbYbudmkv</p>","","","","","","","","",""
"html-keyboard-response","195","1697429","0.0-11.0-0.26","5fd0c81fc79aef1882cbee94","64e77d7b61f440b60e28659d","64eca5b2f88686966f593b43","null","null","<p style=""font-size: 60px; font-family: BACS"">kPOtMCkm</p>","","","","","","","","",""
"html-keyboard-response","196","1698437","0.0-11.0-0.27","5fd0c81fc79aef1882cbee94","64e77d7b61f440b60e28659d","64eca5b2f88686966f593b43","null","null","<p style=""font-size: 60px; font-family: BACS"">PCPDhdCKc</p>","","","","","","","","",""
"html-keyboard-response","197","1699439","0.0-11.0-0.28","5fd0c81fc79aef1882cbee94","64e77d7b61f440b60e28659d","64eca5b2f88686966f593b43","null","null","<p style=""font-size: 60px; font-family: BACS"">OdYPDbMR</p>","","","","","","","","",""
"html-keyboard-response","198","1700453","0.0-11.0-0.29","5fd0c81fc79aef1882cbee94","64e77d7b61f440b60e28659d","64eca5b2f88686966f593b43","null","null","<p style=""font-size: 60px; font-family: BACS"">NLQGmdmkv</p>","","","","","","","","",""
"html-keyboard-response","199","1701463","0.0-11.0-0.30","5fd0c81fc79aef1882cbee94","64e77d7b61f440b60e28659d","64eca5b2f88686966f593b43","null","null","<p style=""font-size: 60px; font-family: BACS"">kcdOtDbMR</p>","","","","","","","","",""
"html-keyboard-response","200","1702464","0.0-11.0-0.31","5fd0c81fc79aef1882cbee94","64e77d7b61f440b60e28659d","64eca5b2f88686966f593b43","null","null","<p style=""font-size: 60px; font-family: BACS"">OdYPlMck</p>","","","","","","","","",""
"html-keyboard-response","201","1703465","0.0-11.0-0.32","5fd0c81fc79aef1882cbee94","64e77d7b61f440b60e28659d","64eca5b2f88686966f593b43","null","null","<p style=""font-size: 60px; font-family: BACS"">kPOtDbMR</p>","","","","","","","","",""
"html-keyboard-response","202","1704469","0.0-11.0-0.33","5fd0c81fc79aef1882cbee94","64e77d7b61f440b60e28659d","64eca5b2f88686966f593b43","null","null","<p style=""font-size: 60px; font-family: BACS"">rbYburab</p>","","","","","","","","",""
"html-keyboard-response","203","1705475","0.0-11.0-0.34","5fd0c81fc79aef1882cbee94","64e77d7b61f440b60e28659d","64eca5b2f88686966f593b43","null","null","<p style=""font-size: 60px; font-family: BACS"">kPOtdCKc</p>","","","","","","","","",""
"html-keyboard-response","204","1706486","0.0-11.0-0.35","5fd0c81fc79aef1882cbee94","64e77d7b61f440b60e28659d","64eca5b2f88686966f593b43","null","null","<p style=""font-size: 60px; font-family: BACS"">RkmdCcMRl</p>","","","","","","","","",""
"html-keyboard-response","205","1707487","0.0-11.0-0.36","5fd0c81fc79aef1882cbee94","64e77d7b61f440b60e28659d","64eca5b2f88686966f593b43","null","null","<p style=""font-size: 60px; font-family: BACS"">TbKMEDbMR</p>","","","","","","","","",""
"html-keyboard-response","206","1708489","0.0-11.0-0.37","5fd0c81fc79aef1882cbee94","64e77d7b61f440b60e28659d","64eca5b2f88686966f593b43","null","null","<p style=""font-size: 60px; font-family: BACS"">kPkRAdCKc</p>","","","","","","","","",""
"html-keyboard-response","207","1709497","0.0-11.0-0.38","5fd0c81fc79aef1882cbee94","64e77d7b61f440b60e28659d","64eca5b2f88686966f593b43","null","null","<p style=""font-size: 60px; font-family: BACS"">KBKBEDbMR</p>","","","","","","","","",""
"html-keyboard-response","208","1710503","0.0-11.0-0.39","5fd0c81fc79aef1882cbee94","64e77d7b61f440b60e28659d","64eca5b2f88686966f593b43","null","null","<p style=""font-size: 60px; font-family: BACS"">NLQGmrNlZ</p>","","","","","","","","",""
"html-keyboard-response","209","1711511","0.0-11.0-0.40","5fd0c81fc79aef1882cbee94","64e77d7b61f440b60e28659d","64eca5b2f88686966f593b43","null","null","<p style=""font-size: 60px; font-family: BACS"">TbKMEcMRl</p>","","","","","","","","",""
"html-keyboard-response","210","1712513","0.0-11.0-0.41","5fd0c81fc79aef1882cbee94","64e77d7b61f440b60e28659d","64eca5b2f88686966f593b43","null","null","<p style=""font-size: 60px; font-family: BACS"">rbYbuJud</p>","","","","","","","","",""
"html-keyboard-response","211","1713525","0.0-11.0-0.42","5fd0c81fc79aef1882cbee94","64e77d7b61f440b60e28659d","64eca5b2f88686966f593b43","null","null","<p style=""font-size: 60px; font-family: BACS"">NQZvYZUZ</p>","","","","","","","","",""
"html-keyboard-response","212","1714526","0.0-11.0-0.43","5fd0c81fc79aef1882cbee94","64e77d7b61f440b60e28659d","64eca5b2f88686966f593b43","null","null","<p style=""font-size: 60px; font-family: BACS"">GLluArab</p>","","","","","","","","",""
"html-keyboard-response","213","1715528","0.0-11.0-0.44","5fd0c81fc79aef1882cbee94","64e77d7b61f440b60e28659d","64eca5b2f88686966f593b43","null","null","<p style=""font-size: 60px; font-family: BACS"">TbKMEMCkm</p>","","","","","","","","",""
"html-keyboard-response","214","1716535","0.0-11.0-0.45","5fd0c81fc79aef1882cbee94","64e77d7b61f440b60e28659d","64eca5b2f88686966f593b43","null","null","<p style=""font-size: 60px; font-family: BACS"">NaJbJud</p>","","","","","","","","",""
"html-keyboard-response","215","1717536","0.0-11.0-0.46","5fd0c81fc79aef1882cbee94","64e77d7b61f440b60e28659d","64eca5b2f88686966f593b43","null","null","<p style=""font-size: 60px; font-family: BACS"">PCPDhMCkm</p>","","","","","","","","",""
"html-keyboard-response","216","1718538","0.0-11.0-0.47","5fd0c81fc79aef1882cbee94","64e77d7b61f440b60e28659d","64eca5b2f88686966f593b43","null","null","<p style=""font-size: 60px; font-family: BACS"">GLluArNlZ</p>","","","","","","","","",""
"html-keyboard-response","217","1719539","0.0-11.0-0.48","5fd0c81fc79aef1882cbee94","64e77d7b61f440b60e28659d","64eca5b2f88686966f593b43","null","null","<p style=""font-size: 60px; font-family: BACS"">NaJbdmkv</p>","","","","","","","","",""
"html-keyboard-response","218","1720551","0.0-11.0-0.49","5fd0c81fc79aef1882cbee94","64e77d7b61f440b60e28659d","64eca5b2f88686966f593b43","null","null","<p style=""font-size: 60px; font-family: BACS"">tKDmhDbMR</p>","","","","","","","","",""
"html-keyboard-response","219","1721557","0.0-11.0-0.50","5fd0c81fc79aef1882cbee94","64e77d7b61f440b60e28659d","64eca5b2f88686966f593b43","null","null","<p style=""font-size: 60px; font-family: BACS"">adYrcdmkv</p>","","","","","","","","",""
"html-keyboard-response","220","1722567","0.0-11.0-0.51","5fd0c81fc79aef1882cbee94","64e77d7b61f440b60e28659d","64eca5b2f88686966f593b43","null","null","<p style=""font-size: 60px; font-family: BACS"">krUQYZUZ</p>","","","","","","","","",""
"html-keyboard-response","221","1723575","0.0-11.0-0.52","5fd0c81fc79aef1882cbee94","64e77d7b61f440b60e28659d","64eca5b2f88686966f593b43","null","null","<p style=""font-size: 60px; font-family: BACS"">kPkRAMCkm</p>","","","","","","","","",""
"html-keyboard-response","222","1724583","0.0-11.0-0.53","5fd0c81fc79aef1882cbee94","64e77d7b61f440b60e28659d","64eca5b2f88686966f593b43","null","null","<p style=""font-size: 60px; font-family: BACS"">kcdOtcMRl</p>","","","","","","","","",""
"html-keyboard-response","223","1725590","0.0-11.0-0.54","5fd0c81fc79aef1882cbee94","64e77d7b61f440b60e28659d","64eca5b2f88686966f593b43","null","null","<p style=""font-size: 60px; font-family: BACS"">tDPRkdCKc</p>","","","","","","","","",""
"html-keyboard-response","224","1726595","0.0-11.0-0.55","5fd0c81fc79aef1882cbee94","64e77d7b61f440b60e28659d","64eca5b2f88686966f593b43","null","null","<p style=""font-size: 60px; font-family: BACS"">tKDmhMCkm</p>","","","","","","","","",""
"html-keyboard-response","225","1727597","0.0-11.0-0.56","5fd0c81fc79aef1882cbee94","64e77d7b61f440b60e28659d","64eca5b2f88686966f593b43","null","null","<p style=""font-size: 60px; font-family: BACS"">muYNrNlZ</p>","","","","","","","","",""
"html-keyboard-response","226","1728600","0.0-11.0-0.57","5fd0c81fc79aef1882cbee94","64e77d7b61f440b60e28659d","64eca5b2f88686966f593b43","null","null","<p style=""font-size: 60px; font-family: BACS"">dGLAlJud</p>","","","","","","","","",""
"html-keyboard-response","227","1729606","0.0-11.0-0.58","5fd0c81fc79aef1882cbee94","64e77d7b61f440b60e28659d","64eca5b2f88686966f593b43","null","null","<p style=""font-size: 60px; font-family: BACS"">RkmdClMck</p>","","","","","","","","",""
"html-keyboard-response","228","1730613","0.0-11.0-0.59","5fd0c81fc79aef1882cbee94","64e77d7b61f440b60e28659d","64eca5b2f88686966f593b43","null","null","<p style=""font-size: 60px; font-family: BACS"">krUQrab</p>","","","","","","","","",""
"html-keyboard-response","229","1731623","0.0-11.0-0.60","5fd0c81fc79aef1882cbee94","64e77d7b61f440b60e28659d","64eca5b2f88686966f593b43","null","null","<p style=""font-size: 60px; font-family: BACS"">adYrcYZUZ</p>","","","","","","","","",""
"html-keyboard-response","230","1732625","0.0-11.0-0.61","5fd0c81fc79aef1882cbee94","64e77d7b61f440b60e28659d","64eca5b2f88686966f593b43","null","null","<p style=""font-size: 60px; font-family: BACS"">KBKBEcMRl</p>","","","","","","","","",""
"html-keyboard-response","231","1733631","0.0-11.0-0.62","5fd0c81fc79aef1882cbee94","64e77d7b61f440b60e28659d","64eca5b2f88686966f593b43","null","null","<p style=""font-size: 60px; font-family: BACS"">adYrcrNlZ</p>","","","","","","","","",""
"html-keyboard-response","232","1734641","0.0-11.0-0.63","5fd0c81fc79aef1882cbee94","64e77d7b61f440b60e28659d","64eca5b2f88686966f593b43","null","null","<p style=""font-size: 60px; font-family: BACS"">KBKBEdCKc</p>","","","","","","","","",""
"html-keyboard-response","233","1735657","0.0-11.0-0.64","5fd0c81fc79aef1882cbee94","64e77d7b61f440b60e28659d","64eca5b2f88686966f593b43","null","null","<p style=""font-size: 60px; font-family: BACS"">UaYLrNlZ</p>","","","","","","","","",""
"html-keyboard-response","234","1736663","0.0-11.0-0.65","5fd0c81fc79aef1882cbee94","64e77d7b61f440b60e28659d","64eca5b2f88686966f593b43","null","null","<p style=""font-size: 60px; font-family: BACS"">NaJbYZUZ</p>","","","","","","","","",""
"html-keyboard-response","235","1737671","0.0-11.0-0.66","5fd0c81fc79aef1882cbee94","64e77d7b61f440b60e28659d","64eca5b2f88686966f593b43","null","null","<p style=""font-size: 60px; font-family: BACS"">krUQdmkv</p>","","","","","","","","",""
"html-keyboard-response","236","1738673","0.0-11.0-0.67","5fd0c81fc79aef1882cbee94","64e77d7b61f440b60e28659d","64eca5b2f88686966f593b43","null","null","<p style=""font-size: 60px; font-family: BACS"">KBKBElMck</p>","","","","","","","","",""
"html-keyboard-response","237","1739674","0.0-11.0-0.68","5fd0c81fc79aef1882cbee94","64e77d7b61f440b60e28659d","64eca5b2f88686966f593b43","null","null","<p style=""font-size: 60px; font-family: BACS"">muYNrab</p>","","","","","","","","",""
"html-keyboard-response","238","1740676","0.0-11.0-0.69","5fd0c81fc79aef1882cbee94","64e77d7b61f440b60e28659d","64eca5b2f88686966f593b43","null","null","<p style=""font-size: 60px; font-family: BACS"">TbKMElMck</p>","","","","","","","","",""
"html-keyboard-response","239","1741679","0.0-11.0-0.70","5fd0c81fc79aef1882cbee94","64e77d7b61f440b60e28659d","64eca5b2f88686966f593b43","null","null","<p style=""font-size: 60px; font-family: BACS"">tDPRkDbMR</p>","","","","","","","","",""
"html-keyboard-response","240","1742695","0.0-11.0-0.71","5fd0c81fc79aef1882cbee94","64e77d7b61f440b60e28659d","64eca5b2f88686966f593b43","null","null","<p style=""font-size: 60px; font-family: BACS"">NLQGmJud</p>","","","","","","","","",""
"html-keyboard-response","241","1743697","0.0-11.0-0.72","5fd0c81fc79aef1882cbee94","64e77d7b61f440b60e28659d","64eca5b2f88686966f593b43","null","null","<p style=""font-size: 60px; font-family: BACS"">tKDmhdCKc</p>","","","","","","","","",""
"html-keyboard-response","242","1744710","0.0-11.0-0.73","5fd0c81fc79aef1882cbee94","64e77d7b61f440b60e28659d","64eca5b2f88686966f593b43","null","null","<p style=""font-size: 60px; font-family: BACS"">NLQGmrab</p>","","","","","","","","",""
"html-keyboard-response","243","1745717","0.0-11.0-0.74","5fd0c81fc79aef1882cbee94","64e77d7b61f440b60e28659d","64eca5b2f88686966f593b43","null","null","<p style=""font-size: 60px; font-family: BACS"">rbYburNlZ</p>","","","","","","","","",""
"html-keyboard-response","244","1746722","0.0-11.0-0.75","5fd0c81fc79aef1882cbee94","64e77d7b61f440b60e28659d","64eca5b2f88686966f593b43","null","null","<p style=""font-size: 60px; font-family: BACS"">UaYLrab</p>","","","","","","","","",""
"html-keyboard-response","245","1747735","0.0-11.0-0.76","5fd0c81fc79aef1882cbee94","64e77d7b61f440b60e28659d","64eca5b2f88686966f593b43","null","null","<p style=""font-size: 60px; font-family: BACS"">PCPDhDbMR</p>","","","","","","","","",""
"html-keyboard-response","246","1748739","0.0-11.0-0.77","5fd0c81fc79aef1882cbee94","64e77d7b61f440b60e28659d","64eca5b2f88686966f593b43","null","null","<p style=""font-size: 60px; font-family: BACS"">tDPRklMck</p>","","","","","","","","",""
"html-keyboard-response","247","1749740","0.0-11.0-0.78","5fd0c81fc79aef1882cbee94","64e77d7b61f440b60e28659d","64eca5b2f88686966f593b43","null","null","<p style=""font-size: 60px; font-family: BACS"">tKDmhcMRl</p>","","","","","","","","",""
"html-keyboard-response","248","1750742","0.0-11.0-0.79","5fd0c81fc79aef1882cbee94","64e77d7b61f440b60e28659d","64eca5b2f88686966f593b43","null","null","<p style=""font-size: 60px; font-family: BACS"">NaJbrab</p>","","","","","","","","",""
"html-keyboard-response","249","1752806","0.0-12.0","5fd0c81fc79aef1882cbee94","64e77d7b61f440b60e28659d","64eca5b2f88686966f593b43","2062"," ","<p>Great, you've seen the third block of words. You may now take a short break.</p>
      <p>Press the spacebar when you're ready to continue.</p>","","","","","","","","",""
"html-keyboard-response","250","1753810","0.0-13.0-0.0","5fd0c81fc79aef1882cbee94","64e77d7b61f440b60e28659d","64eca5b2f88686966f593b43","null","null","<p style=""font-size: 60px; font-family: BACS"">NaJbYZUZ</p>","","","","","","","","",""
"html-keyboard-response","251","1754818","0.0-13.0-0.1","5fd0c81fc79aef1882cbee94","64e77d7b61f440b60e28659d","64eca5b2f88686966f593b43","null","null","<p style=""font-size: 60px; font-family: BACS"">rbYburNlZ</p>","","","","","","","","",""
"html-keyboard-response","252","1755825","0.0-13.0-0.2","5fd0c81fc79aef1882cbee94","64e77d7b61f440b60e28659d","64eca5b2f88686966f593b43","null","null","<p style=""font-size: 60px; font-family: BACS"">TbKMEcMRl</p>","","","","","","","","",""
"html-keyboard-response","253","1756834","0.0-13.0-0.3","5fd0c81fc79aef1882cbee94","64e77d7b61f440b60e28659d","64eca5b2f88686966f593b43","null","null","<p style=""font-size: 60px; font-family: BACS"">KBKBEdCKc</p>","","","","","","","","",""
"html-keyboard-response","254","1757836","0.0-13.0-0.4","5fd0c81fc79aef1882cbee94","64e77d7b61f440b60e28659d","64eca5b2f88686966f593b43","null","null","<p style=""font-size: 60px; font-family: BACS"">kPOtMCkm</p>","","","","","","","","",""
"html-keyboard-response","255","1758838","0.0-13.0-0.5","5fd0c81fc79aef1882cbee94","64e77d7b61f440b60e28659d","64eca5b2f88686966f593b43","null","null","<p style=""font-size: 60px; font-family: BACS"">rbYburab</p>","","","","","","","","",""
"html-keyboard-response","256","1759840","0.0-13.0-0.6","5fd0c81fc79aef1882cbee94","64e77d7b61f440b60e28659d","64eca5b2f88686966f593b43","null","null","<p style=""font-size: 60px; font-family: BACS"">muYNrNlZ</p>","","","","","","","","",""
"html-keyboard-response","257","1760857","0.0-13.0-0.7","5fd0c81fc79aef1882cbee94","64e77d7b61f440b60e28659d","64eca5b2f88686966f593b43","null","null","<p style=""font-size: 60px; font-family: BACS"">tKDmhMCkm</p>","","","","","","","","",""
"html-keyboard-response","258","1761858","0.0-13.0-0.8","5fd0c81fc79aef1882cbee94","64e77d7b61f440b60e28659d","64eca5b2f88686966f593b43","null","null","<p style=""font-size: 60px; font-family: BACS"">TbKMEDbMR</p>","","","","","","","","",""
"html-keyboard-response","259","1762871","0.0-13.0-0.9","5fd0c81fc79aef1882cbee94","64e77d7b61f440b60e28659d","64eca5b2f88686966f593b43","null","null","<p style=""font-size: 60px; font-family: BACS"">adYrcdmkv</p>","","","","","","","","",""
"html-keyboard-response","260","1763878","0.0-13.0-0.10","5fd0c81fc79aef1882cbee94","64e77d7b61f440b60e28659d","64eca5b2f88686966f593b43","null","null","<p style=""font-size: 60px; font-family: BACS"">tDPRkdCKc</p>","","","","","","","","",""
"html-keyboard-response","261","1764886","0.0-13.0-0.11","5fd0c81fc79aef1882cbee94","64e77d7b61f440b60e28659d","64eca5b2f88686966f593b43","null","null","<p style=""font-size: 60px; font-family: BACS"">adYrcYZUZ</p>","","","","","","","","",""
"html-keyboard-response","262","1765894","0.0-13.0-0.12","5fd0c81fc79aef1882cbee94","64e77d7b61f440b60e28659d","64eca5b2f88686966f593b43","null","null","<p style=""font-size: 60px; font-family: BACS"">NQZvrab</p>","","","","","","","","",""
"html-keyboard-response","263","1766903","0.0-13.0-0.13","5fd0c81fc79aef1882cbee94","64e77d7b61f440b60e28659d","64eca5b2f88686966f593b43","null","null","<p style=""font-size: 60px; font-family: BACS"">NLQGmrNlZ</p>","","","","","","","","",""
"html-keyboard-response","264","1767909","0.0-13.0-0.14","5fd0c81fc79aef1882cbee94","64e77d7b61f440b60e28659d","64eca5b2f88686966f593b43","null","null","<p style=""font-size: 60px; font-family: BACS"">muYNJud</p>","","","","","","","","",""
"html-keyboard-response","265","1768918","0.0-13.0-0.15","5fd0c81fc79aef1882cbee94","64e77d7b61f440b60e28659d","64eca5b2f88686966f593b43","null","null","<p style=""font-size: 60px; font-family: BACS"">NaJbrab</p>","","","","","","","","",""
"html-keyboard-response","266","1769923","0.0-13.0-0.16","5fd0c81fc79aef1882cbee94","64e77d7b61f440b60e28659d","64eca5b2f88686966f593b43","null","null","<p style=""font-size: 60px; font-family: BACS"">kPOtdCKc</p>","","","","","","","","",""
"html-keyboard-response","267","1770935","0.0-13.0-0.17","5fd0c81fc79aef1882cbee94","64e77d7b61f440b60e28659d","64eca5b2f88686966f593b43","null","null","<p style=""font-size: 60px; font-family: BACS"">dGLAldmkv</p>","","","","","","","","",""
"html-keyboard-response","268","1771936","0.0-13.0-0.18","5fd0c81fc79aef1882cbee94","64e77d7b61f440b60e28659d","64eca5b2f88686966f593b43","null","null","<p style=""font-size: 60px; font-family: BACS"">UaYLrab</p>","","","","","","","","",""
"html-keyboard-response","269","1772949","0.0-13.0-0.19","5fd0c81fc79aef1882cbee94","64e77d7b61f440b60e28659d","64eca5b2f88686966f593b43","null","null","<p style=""font-size: 60px; font-family: BACS"">NaJbJud</p>","","","","","","","","",""
"html-keyboard-response","270","1773958","0.0-13.0-0.20","5fd0c81fc79aef1882cbee94","64e77d7b61f440b60e28659d","64eca5b2f88686966f593b43","null","null","<p style=""font-size: 60px; font-family: BACS"">tKDmhcMRl</p>","","","","","","","","",""
"html-keyboard-response","271","1774968","0.0-13.0-0.21","5fd0c81fc79aef1882cbee94","64e77d7b61f440b60e28659d","64eca5b2f88686966f593b43","null","null","<p style=""font-size: 60px; font-family: BACS"">rbYbuJud</p>","","","","","","","","",""
"html-keyboard-response","272","1775979","0.0-13.0-0.22","5fd0c81fc79aef1882cbee94","64e77d7b61f440b60e28659d","64eca5b2f88686966f593b43","null","null","<p style=""font-size: 60px; font-family: BACS"">PCPDhDbMR</p>","","","","","","","","",""
"html-keyboard-response","273","1776980","0.0-13.0-0.23","5fd0c81fc79aef1882cbee94","64e77d7b61f440b60e28659d","64eca5b2f88686966f593b43","null","null","<p style=""font-size: 60px; font-family: BACS"">UaYLdmkv</p>","","","","","","","","",""
"html-keyboard-response","274","1777983","0.0-13.0-0.24","5fd0c81fc79aef1882cbee94","64e77d7b61f440b60e28659d","64eca5b2f88686966f593b43","null","null","<p style=""font-size: 60px; font-family: BACS"">kPkRAMCkm</p>","","","","","","","","",""
"html-keyboard-response","275","1778996","0.0-13.0-0.25","5fd0c81fc79aef1882cbee94","64e77d7b61f440b60e28659d","64eca5b2f88686966f593b43","null","null","<p style=""font-size: 60px; font-family: BACS"">adYrcJud</p>","","","","","","","","",""
"html-keyboard-response","276","1780001","0.0-13.0-0.26","5fd0c81fc79aef1882cbee94","64e77d7b61f440b60e28659d","64eca5b2f88686966f593b43","null","null","<p style=""font-size: 60px; font-family: BACS"">NQZvdmkv</p>","","","","","","","","",""
"html-keyboard-response","277","1781011","0.0-13.0-0.27","5fd0c81fc79aef1882cbee94","64e77d7b61f440b60e28659d","64eca5b2f88686966f593b43","null","null","<p style=""font-size: 60px; font-family: BACS"">OdYPMCkm</p>","","","","","","","","",""
"html-keyboard-response","278","1782013","0.0-13.0-0.28","5fd0c81fc79aef1882cbee94","64e77d7b61f440b60e28659d","64eca5b2f88686966f593b43","null","null","<p style=""font-size: 60px; font-family: BACS"">KBKBElMck</p>","","","","","","","","",""
"html-keyboard-response","279","1783022","0.0-13.0-0.29","5fd0c81fc79aef1882cbee94","64e77d7b61f440b60e28659d","64eca5b2f88686966f593b43","null","null","<p style=""font-size: 60px; font-family: BACS"">dGLAlYZUZ</p>","","","","","","","","",""
"html-keyboard-response","280","1784033","0.0-13.0-0.30","5fd0c81fc79aef1882cbee94","64e77d7b61f440b60e28659d","64eca5b2f88686966f593b43","null","null","<p style=""font-size: 60px; font-family: BACS"">RkmdCMCkm</p>","","","","","","","","",""
"html-keyboard-response","281","1785034","0.0-13.0-0.31","5fd0c81fc79aef1882cbee94","64e77d7b61f440b60e28659d","64eca5b2f88686966f593b43","null","null","<p style=""font-size: 60px; font-family: BACS"">NLQGmJud</p>","","","","","","","","",""
"html-keyboard-response","282","1786036","0.0-13.0-0.32","5fd0c81fc79aef1882cbee94","64e77d7b61f440b60e28659d","64eca5b2f88686966f593b43","null","null","<p style=""font-size: 60px; font-family: BACS"">OdYPcMRl</p>","","","","","","","","",""
"html-keyboard-response","283","1787037","0.0-13.0-0.33","5fd0c81fc79aef1882cbee94","64e77d7b61f440b60e28659d","64eca5b2f88686966f593b43","null","null","<p style=""font-size: 60px; font-family: BACS"">NQZvJud</p>","","","","","","","","",""
"html-keyboard-response","284","1788038","0.0-13.0-0.34","5fd0c81fc79aef1882cbee94","64e77d7b61f440b60e28659d","64eca5b2f88686966f593b43","null","null","<p style=""font-size: 60px; font-family: BACS"">PCPDhcMRl</p>","","","","","","","","",""
"html-keyboard-response","285","1789041","0.0-13.0-0.35","5fd0c81fc79aef1882cbee94","64e77d7b61f440b60e28659d","64eca5b2f88686966f593b43","null","null","<p style=""font-size: 60px; font-family: BACS"">tDPRkMCkm</p>","","","","","","","","",""
"html-keyboard-response","286","1790050","0.0-13.0-0.36","5fd0c81fc79aef1882cbee94","64e77d7b61f440b60e28659d","64eca5b2f88686966f593b43","null","null","<p style=""font-size: 60px; font-family: BACS"">TbKMElMck</p>","","","","","","","","",""
"html-keyboard-response","287","1791062","0.0-13.0-0.37","5fd0c81fc79aef1882cbee94","64e77d7b61f440b60e28659d","64eca5b2f88686966f593b43","null","null","<p style=""font-size: 60px; font-family: BACS"">NaJbdmkv</p>","","","","","","","","",""
"html-keyboard-response","288","1792068","0.0-13.0-0.38","5fd0c81fc79aef1882cbee94","64e77d7b61f440b60e28659d","64eca5b2f88686966f593b43","null","null","<p style=""font-size: 60px; font-family: BACS"">RkmdClMck</p>","","","","","","","","",""
"html-keyboard-response","289","1793070","0.0-13.0-0.39","5fd0c81fc79aef1882cbee94","64e77d7b61f440b60e28659d","64eca5b2f88686966f593b43","null","null","<p style=""font-size: 60px; font-family: BACS"">kPkRAcMRl</p>","","","","","","","","",""
"html-keyboard-response","290","1794071","0.0-13.0-0.40","5fd0c81fc79aef1882cbee94","64e77d7b61f440b60e28659d","64eca5b2f88686966f593b43","null","null","<p style=""font-size: 60px; font-family: BACS"">RkmdCdCKc</p>","","","","","","","","",""
"html-keyboard-response","291","1795073","0.0-13.0-0.41","5fd0c81fc79aef1882cbee94","64e77d7b61f440b60e28659d","64eca5b2f88686966f593b43","null","null","<p style=""font-size: 60px; font-family: BACS"">muYNrab</p>","","","","","","","","",""
"html-keyboard-response","292","1796085","0.0-13.0-0.42","5fd0c81fc79aef1882cbee94","64e77d7b61f440b60e28659d","64eca5b2f88686966f593b43","null","null","<p style=""font-size: 60px; font-family: BACS"">NQZvYZUZ</p>","","","","","","","","",""
"html-keyboard-response","293","1797092","0.0-13.0-0.43","5fd0c81fc79aef1882cbee94","64e77d7b61f440b60e28659d","64eca5b2f88686966f593b43","null","null","<p style=""font-size: 60px; font-family: BACS"">KBKBEcMRl</p>","","","","","","","","",""
"html-keyboard-response","294","1798101","0.0-13.0-0.44","5fd0c81fc79aef1882cbee94","64e77d7b61f440b60e28659d","64eca5b2f88686966f593b43","null","null","<p style=""font-size: 60px; font-family: BACS"">krUQdmkv</p>","","","","","","","","",""
"html-keyboard-response","295","1799103","0.0-13.0-0.45","5fd0c81fc79aef1882cbee94","64e77d7b61f440b60e28659d","64eca5b2f88686966f593b43","null","null","<p style=""font-size: 60px; font-family: BACS"">kcdOtDbMR</p>","","","","","","","","",""
"html-keyboard-response","296","1800115","0.0-13.0-0.46","5fd0c81fc79aef1882cbee94","64e77d7b61f440b60e28659d","64eca5b2f88686966f593b43","null","null","<p style=""font-size: 60px; font-family: BACS"">TbKMEMCkm</p>","","","","","","","","",""
"html-keyboard-response","297","1801124","0.0-13.0-0.47","5fd0c81fc79aef1882cbee94","64e77d7b61f440b60e28659d","64eca5b2f88686966f593b43","null","null","<p style=""font-size: 60px; font-family: BACS"">kPOtDbMR</p>","","","","","","","","",""
"html-keyboard-response","298","1802126","0.0-13.0-0.48","5fd0c81fc79aef1882cbee94","64e77d7b61f440b60e28659d","64eca5b2f88686966f593b43","null","null","<p style=""font-size: 60px; font-family: BACS"">adYrcrNlZ</p>","","","","","","","","",""
"html-keyboard-response","299","1803140","0.0-13.0-0.49","5fd0c81fc79aef1882cbee94","64e77d7b61f440b60e28659d","64eca5b2f88686966f593b43","null","null","<p style=""font-size: 60px; font-family: BACS"">NLQGmdmkv</p>","","","","","","","","",""
"html-keyboard-response","300","1804151","0.0-13.0-0.50","5fd0c81fc79aef1882cbee94","64e77d7b61f440b60e28659d","64eca5b2f88686966f593b43","null","null","<p style=""font-size: 60px; font-family: BACS"">krUQYZUZ</p>","","","","","","","","",""
"html-keyboard-response","301","1805159","0.0-13.0-0.51","5fd0c81fc79aef1882cbee94","64e77d7b61f440b60e28659d","64eca5b2f88686966f593b43","null","null","<p style=""font-size: 60px; font-family: BACS"">kPOtlMck</p>","","","","","","","","",""
"html-keyboard-response","302","1806160","0.0-13.0-0.52","5fd0c81fc79aef1882cbee94","64e77d7b61f440b60e28659d","64eca5b2f88686966f593b43","null","null","<p style=""font-size: 60px; font-family: BACS"">OdYPDbMR</p>","","","","","","","","",""
"html-keyboard-response","303","1807162","0.0-13.0-0.53","5fd0c81fc79aef1882cbee94","64e77d7b61f440b60e28659d","64eca5b2f88686966f593b43","null","null","<p style=""font-size: 60px; font-family: BACS"">GLluArab</p>","","","","","","","","",""
"html-keyboard-response","304","1808164","0.0-13.0-0.54","5fd0c81fc79aef1882cbee94","64e77d7b61f440b60e28659d","64eca5b2f88686966f593b43","null","null","<p style=""font-size: 60px; font-family: BACS"">UaYLrNlZ</p>","","","","","","","","",""
"html-keyboard-response","305","1809174","0.0-13.0-0.55","5fd0c81fc79aef1882cbee94","64e77d7b61f440b60e28659d","64eca5b2f88686966f593b43","null","null","<p style=""font-size: 60px; font-family: BACS"">kcdOtcMRl</p>","","","","","","","","",""
"html-keyboard-response","306","1810175","0.0-13.0-0.56","5fd0c81fc79aef1882cbee94","64e77d7b61f440b60e28659d","64eca5b2f88686966f593b43","null","null","<p style=""font-size: 60px; font-family: BACS"">krUQrNlZ</p>","","","","","","","","",""
"html-keyboard-response","307","1811190","0.0-13.0-0.57","5fd0c81fc79aef1882cbee94","64e77d7b61f440b60e28659d","64eca5b2f88686966f593b43","null","null","<p style=""font-size: 60px; font-family: BACS"">rbYbudmkv</p>","","","","","","","","",""
"html-keyboard-response","308","1812197","0.0-13.0-0.58","5fd0c81fc79aef1882cbee94","64e77d7b61f440b60e28659d","64eca5b2f88686966f593b43","null","null","<p style=""font-size: 60px; font-family: BACS"">tDPRkDbMR</p>","","","","","","","","",""
"html-keyboard-response","309","1813205","0.0-13.0-0.59","5fd0c81fc79aef1882cbee94","64e77d7b61f440b60e28659d","64eca5b2f88686966f593b43","null","null","<p style=""font-size: 60px; font-family: BACS"">RkmdCcMRl</p>","","","","","","","","",""
"html-keyboard-response","310","1814209","0.0-13.0-0.60","5fd0c81fc79aef1882cbee94","64e77d7b61f440b60e28659d","64eca5b2f88686966f593b43","null","null","<p style=""font-size: 60px; font-family: BACS"">dGLAlrNlZ</p>","","","","","","","","",""
"html-keyboard-response","311","1815223","0.0-13.0-0.61","5fd0c81fc79aef1882cbee94","64e77d7b61f440b60e28659d","64eca5b2f88686966f593b43","null","null","<p style=""font-size: 60px; font-family: BACS"">PCPDhdCKc</p>","","","","","","","","",""
"html-keyboard-response","312","1816225","0.0-13.0-0.62","5fd0c81fc79aef1882cbee94","64e77d7b61f440b60e28659d","64eca5b2f88686966f593b43","null","null","<p style=""font-size: 60px; font-family: BACS"">kPkRAlMck</p>","","","","","","","","",""
"html-keyboard-response","313","1817233","0.0-13.0-0.63","5fd0c81fc79aef1882cbee94","64e77d7b61f440b60e28659d","64eca5b2f88686966f593b43","null","null","<p style=""font-size: 60px; font-family: BACS"">NLQGmrab</p>","","","","","","","","",""
"html-keyboard-response","314","1818243","0.0-13.0-0.64","5fd0c81fc79aef1882cbee94","64e77d7b61f440b60e28659d","64eca5b2f88686966f593b43","null","null","<p style=""font-size: 60px; font-family: BACS"">dGLAlJud</p>","","","","","","","","",""
"html-keyboard-response","315","1819253","0.0-13.0-0.65","5fd0c81fc79aef1882cbee94","64e77d7b61f440b60e28659d","64eca5b2f88686966f593b43","null","null","<p style=""font-size: 60px; font-family: BACS"">kPkRAdCKc</p>","","","","","","","","",""
"html-keyboard-response","316","1820258","0.0-13.0-0.66","5fd0c81fc79aef1882cbee94","64e77d7b61f440b60e28659d","64eca5b2f88686966f593b43","null","null","<p style=""font-size: 60px; font-family: BACS"">PCPDhMCkm</p>","","","","","","","","",""
"html-keyboard-response","317","1821265","0.0-13.0-0.67","5fd0c81fc79aef1882cbee94","64e77d7b61f440b60e28659d","64eca5b2f88686966f593b43","null","null","<p style=""font-size: 60px; font-family: BACS"">GLluAJud</p>","","","","","","","","",""
"html-keyboard-response","318","1822277","0.0-13.0-0.68","5fd0c81fc79aef1882cbee94","64e77d7b61f440b60e28659d","64eca5b2f88686966f593b43","null","null","<p style=""font-size: 60px; font-family: BACS"">UaYLYZUZ</p>","","","","","","","","",""
"html-keyboard-response","319","1823286","0.0-13.0-0.69","5fd0c81fc79aef1882cbee94","64e77d7b61f440b60e28659d","64eca5b2f88686966f593b43","null","null","<p style=""font-size: 60px; font-family: BACS"">kcdOtdCKc</p>","","","","","","","","",""
"html-keyboard-response","320","1824288","0.0-13.0-0.70","5fd0c81fc79aef1882cbee94","64e77d7b61f440b60e28659d","64eca5b2f88686966f593b43","null","null","<p style=""font-size: 60px; font-family: BACS"">tKDmhDbMR</p>","","","","","","","","",""
"html-keyboard-response","321","1825301","0.0-13.0-0.71","5fd0c81fc79aef1882cbee94","64e77d7b61f440b60e28659d","64eca5b2f88686966f593b43","null","null","<p style=""font-size: 60px; font-family: BACS"">tDPRklMck</p>","","","","","","","","",""
"html-keyboard-response","322","1826308","0.0-13.0-0.72","5fd0c81fc79aef1882cbee94","64e77d7b61f440b60e28659d","64eca5b2f88686966f593b43","null","null","<p style=""font-size: 60px; font-family: BACS"">GLluArNlZ</p>","","","","","","","","",""
"html-keyboard-response","323","1827310","0.0-13.0-0.73","5fd0c81fc79aef1882cbee94","64e77d7b61f440b60e28659d","64eca5b2f88686966f593b43","null","null","<p style=""font-size: 60px; font-family: BACS"">kcdOtlMck</p>","","","","","","","","",""
"html-keyboard-response","324","1828326","0.0-13.0-0.74","5fd0c81fc79aef1882cbee94","64e77d7b61f440b60e28659d","64eca5b2f88686966f593b43","null","null","<p style=""font-size: 60px; font-family: BACS"">muYNYZUZ</p>","","","","","","","","",""
"html-keyboard-response","325","1829334","0.0-13.0-0.75","5fd0c81fc79aef1882cbee94","64e77d7b61f440b60e28659d","64eca5b2f88686966f593b43","null","null","<p style=""font-size: 60px; font-family: BACS"">krUQrab</p>","","","","","","","","",""
"html-keyboard-response","326","1830342","0.0-13.0-0.76","5fd0c81fc79aef1882cbee94","64e77d7b61f440b60e28659d","64eca5b2f88686966f593b43","null","null","<p style=""font-size: 60px; font-family: BACS"">tKDmhdCKc</p>","","","","","","","","",""
"html-keyboard-response","327","1831343","0.0-13.0-0.77","5fd0c81fc79aef1882cbee94","64e77d7b61f440b60e28659d","64eca5b2f88686966f593b43","null","null","<p style=""font-size: 60px; font-family: BACS"">KBKBEDbMR</p>","","","","","","","","",""
"html-keyboard-response","328","1832358","0.0-13.0-0.78","5fd0c81fc79aef1882cbee94","64e77d7b61f440b60e28659d","64eca5b2f88686966f593b43","null","null","<p style=""font-size: 60px; font-family: BACS"">OdYPlMck</p>","","","","","","","","",""
"html-keyboard-response","329","1833365","0.0-13.0-0.79","5fd0c81fc79aef1882cbee94","64e77d7b61f440b60e28659d","64eca5b2f88686966f593b43","null","null","<p style=""font-size: 60px; font-family: BACS"">GLluAYZUZ</p>","","","","","","","","",""
"html-keyboard-response","330","1836907","0.0-14.0","5fd0c81fc79aef1882cbee94","64e77d7b61f440b60e28659d","64eca5b2f88686966f593b43","3541"," ","<p>Great, you've seen the fourth block of words. You may now take a short break.</p>
      <p>Press the spacebar when you're ready to continue.</p>","","","","","","","","",""
"html-keyboard-response","331","1837909","0.0-15.0-0.0","5fd0c81fc79aef1882cbee94","64e77d7b61f440b60e28659d","64eca5b2f88686966f593b43","null","null","<p style=""font-size: 60px; font-family: BACS"">tKDmhdCKc</p>","","","","","","","","",""
"html-keyboard-response","332","1838919","0.0-15.0-0.1","5fd0c81fc79aef1882cbee94","64e77d7b61f440b60e28659d","64eca5b2f88686966f593b43","null","null","<p style=""font-size: 60px; font-family: BACS"">tKDmhdCKc</p>","","","","","","","","",""
"html-keyboard-response","333","1839926","0.0-15.0-0.2","5fd0c81fc79aef1882cbee94","64e77d7b61f440b60e28659d","64eca5b2f88686966f593b43","null","null","<p style=""font-size: 60px; font-family: BACS"">tKDmhdCKc</p>","","","","","","","","",""
"html-keyboard-response","334","1840934","0.0-15.0-0.3","5fd0c81fc79aef1882cbee94","64e77d7b61f440b60e28659d","64eca5b2f88686966f593b43","null","null","<p style=""font-size: 60px; font-family: BACS"">tKDmhdCKc</p>","","","","","","","","",""
"html-keyboard-response","335","1841941","0.0-15.0-0.4","5fd0c81fc79aef1882cbee94","64e77d7b61f440b60e28659d","64eca5b2f88686966f593b43","null","null","<p style=""font-size: 60px; font-family: BACS"">tKDmhdCKc</p>","","","","","","","","",""
"html-keyboard-response","336","1842947","0.0-15.0-0.5","5fd0c81fc79aef1882cbee94","64e77d7b61f440b60e28659d","64eca5b2f88686966f593b43","null","null","<p style=""font-size: 60px; font-family: BACS"">tKDmhdCKc</p>","","","","","","","","",""
"html-keyboard-response","337","1843957","0.0-15.0-0.6","5fd0c81fc79aef1882cbee94","64e77d7b61f440b60e28659d","64eca5b2f88686966f593b43","null","null","<p style=""font-size: 60px; font-family: BACS"">tKDmhdCKc</p>","","","","","","","","",""
"html-keyboard-response","338","1844965","0.0-15.0-0.7","5fd0c81fc79aef1882cbee94","64e77d7b61f440b60e28659d","64eca5b2f88686966f593b43","null","null","<p style=""font-size: 60px; font-family: BACS"">tKDmhdCKc</p>","","","","","","","","",""
"html-keyboard-response","339","1845972","0.0-15.0-0.8","5fd0c81fc79aef1882cbee94","64e77d7b61f440b60e28659d","64eca5b2f88686966f593b43","null","null","<p style=""font-size: 60px; font-family: BACS"">tKDmhdCKc</p>","","","","","","","","",""
"html-keyboard-response","340","1846982","0.0-15.0-0.9","5fd0c81fc79aef1882cbee94","64e77d7b61f440b60e28659d","64eca5b2f88686966f593b43","null","null","<p style=""font-size: 60px; font-family: BACS"">tKDmhdCKc</p>","","","","","","","","",""
"html-keyboard-response","341","1847991","0.0-15.0-0.10","5fd0c81fc79aef1882cbee94","64e77d7b61f440b60e28659d","64eca5b2f88686966f593b43","null","null","<p style=""font-size: 60px; font-family: BACS"">tKDmhdCKc</p>","","","","","","","","",""
"html-keyboard-response","342","1848992","0.0-15.0-0.11","5fd0c81fc79aef1882cbee94","64e77d7b61f440b60e28659d","64eca5b2f88686966f593b43","null","null","<p style=""font-size: 60px; font-family: BACS"">tKDmhdCKc</p>","","","","","","","","",""
"html-keyboard-response","343","1850006","0.0-15.0-0.12","5fd0c81fc79aef1882cbee94","64e77d7b61f440b60e28659d","64eca5b2f88686966f593b43","null","null","<p style=""font-size: 60px; font-family: BACS"">tKDmhdCKc</p>","","","","","","","","",""
"html-keyboard-response","344","1851011","0.0-15.0-0.13","5fd0c81fc79aef1882cbee94","64e77d7b61f440b60e28659d","64eca5b2f88686966f593b43","null","null","<p style=""font-size: 60px; font-family: BACS"">tKDmhdCKc</p>","","","","","","","","",""
"html-keyboard-response","345","1852020","0.0-15.0-0.14","5fd0c81fc79aef1882cbee94","64e77d7b61f440b60e28659d","64eca5b2f88686966f593b43","null","null","<p style=""font-size: 60px; font-family: BACS"">tKDmhdCKc</p>","","","","","","","","",""
"html-keyboard-response","346","1853022","0.0-15.0-0.15","5fd0c81fc79aef1882cbee94","64e77d7b61f440b60e28659d","64eca5b2f88686966f593b43","null","null","<p style=""font-size: 60px; font-family: BACS"">tKDmhdCKc</p>","","","","","","","","",""
"html-keyboard-response","347","1854023","0.0-15.0-0.16","5fd0c81fc79aef1882cbee94","64e77d7b61f440b60e28659d","64eca5b2f88686966f593b43","null","null","<p style=""font-size: 60px; font-family: BACS"">tKDmhdCKc</p>","","","","","","","","",""
"html-keyboard-response","348","1855025","0.0-15.0-0.17","5fd0c81fc79aef1882cbee94","64e77d7b61f440b60e28659d","64eca5b2f88686966f593b43","null","null","<p style=""font-size: 60px; font-family: BACS"">tKDmhdCKc</p>","","","","","","","","",""
"html-keyboard-response","349","1856037","0.0-15.0-0.18","5fd0c81fc79aef1882cbee94","64e77d7b61f440b60e28659d","64eca5b2f88686966f593b43","null","null","<p style=""font-size: 60px; font-family: BACS"">tKDmhdCKc</p>","","","","","","","","",""
"html-keyboard-response","350","1857039","0.0-15.0-0.19","5fd0c81fc79aef1882cbee94","64e77d7b61f440b60e28659d","64eca5b2f88686966f593b43","null","null","<p style=""font-size: 60px; font-family: BACS"">tKDmhdCKc</p>","","","","","","","","",""
"html-keyboard-response","351","1858040","0.0-15.0-0.20","5fd0c81fc79aef1882cbee94","64e77d7b61f440b60e28659d","64eca5b2f88686966f593b43","null","null","<p style=""font-size: 60px; font-family: BACS"">tKDmhdCKc</p>","","","","","","","","",""
"html-keyboard-response","352","1859045","0.0-15.0-0.21","5fd0c81fc79aef1882cbee94","64e77d7b61f440b60e28659d","64eca5b2f88686966f593b43","null","null","<p style=""font-size: 60px; font-family: BACS"">tKDmhdCKc</p>","","","","","","","","",""
"html-keyboard-response","353","1860053","0.0-15.0-0.22","5fd0c81fc79aef1882cbee94","64e77d7b61f440b60e28659d","64eca5b2f88686966f593b43","null","null","<p style=""font-size: 60px; font-family: BACS"">tKDmhdCKc</p>","","","","","","","","",""
"html-keyboard-response","354","1861062","0.0-15.0-0.23","5fd0c81fc79aef1882cbee94","64e77d7b61f440b60e28659d","64eca5b2f88686966f593b43","null","null","<p style=""font-size: 60px; font-family: BACS"">tKDmhdCKc</p>","","","","","","","","",""
"html-keyboard-response","355","1862076","0.0-15.0-0.24","5fd0c81fc79aef1882cbee94","64e77d7b61f440b60e28659d","64eca5b2f88686966f593b43","null","null","<p style=""font-size: 60px; font-family: BACS"">tKDmhdCKc</p>","","","","","","","","",""
"html-keyboard-response","356","1863078","0.0-15.0-0.25","5fd0c81fc79aef1882cbee94","64e77d7b61f440b60e28659d","64eca5b2f88686966f593b43","null","null","<p style=""font-size: 60px; font-family: BACS"">tKDmhdCKc</p>","","","","","","","","",""
"html-keyboard-response","357","1864080","0.0-15.0-0.26","5fd0c81fc79aef1882cbee94","64e77d7b61f440b60e28659d","64eca5b2f88686966f593b43","null","null","<p style=""font-size: 60px; font-family: BACS"">tKDmhdCKc</p>","","","","","","","","",""
"html-keyboard-response","358","1865095","0.0-15.0-0.27","5fd0c81fc79aef1882cbee94","64e77d7b61f440b60e28659d","64eca5b2f88686966f593b43","null","null","<p style=""font-size: 60px; font-family: BACS"">tKDmhdCKc</p>","","","","","","","","",""
"html-keyboard-response","359","1866097","0.0-15.0-0.28","5fd0c81fc79aef1882cbee94","64e77d7b61f440b60e28659d","64eca5b2f88686966f593b43","null","null","<p style=""font-size: 60px; font-family: BACS"">tKDmhdCKc</p>","","","","","","","","",""
"html-keyboard-response","360","1867112","0.0-15.0-0.29","5fd0c81fc79aef1882cbee94","64e77d7b61f440b60e28659d","64eca5b2f88686966f593b43","null","null","<p style=""font-size: 60px; font-family: BACS"">tKDmhdCKc</p>","","","","","","","","",""
"html-keyboard-response","361","1868114","0.0-15.0-0.30","5fd0c81fc79aef1882cbee94","64e77d7b61f440b60e28659d","64eca5b2f88686966f593b43","null","null","<p style=""font-size: 60px; font-family: BACS"">tKDmhdCKc</p>","","","","","","","","",""
"html-keyboard-response","362","1869128","0.0-15.0-0.31","5fd0c81fc79aef1882cbee94","64e77d7b61f440b60e28659d","64eca5b2f88686966f593b43","null","null","<p style=""font-size: 60px; font-family: BACS"">tKDmhdCKc</p>","","","","","","","","",""
"html-keyboard-response","363","1870129","0.0-15.0-0.32","5fd0c81fc79aef1882cbee94","64e77d7b61f440b60e28659d","64eca5b2f88686966f593b43","null","null","<p style=""font-size: 60px; font-family: BACS"">tKDmhdCKc</p>","","","","","","","","",""
"html-keyboard-response","364","1871142","0.0-15.0-0.33","5fd0c81fc79aef1882cbee94","64e77d7b61f440b60e28659d","64eca5b2f88686966f593b43","null","null","<p style=""font-size: 60px; font-family: BACS"">tKDmhdCKc</p>","","","","","","","","",""
"html-keyboard-response","365","1872144","0.0-15.0-0.34","5fd0c81fc79aef1882cbee94","64e77d7b61f440b60e28659d","64eca5b2f88686966f593b43","null","null","<p style=""font-size: 60px; font-family: BACS"">tKDmhdCKc</p>","","","","","","","","",""
"html-keyboard-response","366","1873156","0.0-15.0-0.35","5fd0c81fc79aef1882cbee94","64e77d7b61f440b60e28659d","64eca5b2f88686966f593b43","null","null","<p style=""font-size: 60px; font-family: BACS"">tKDmhdCKc</p>","","","","","","","","",""
"html-keyboard-response","367","1874164","0.0-15.0-0.36","5fd0c81fc79aef1882cbee94","64e77d7b61f440b60e28659d","64eca5b2f88686966f593b43","null","null","<p style=""font-size: 60px; font-family: BACS"">tKDmhdCKc</p>","","","","","","","","",""
"html-keyboard-response","368","1875169","0.0-15.0-0.37","5fd0c81fc79aef1882cbee94","64e77d7b61f440b60e28659d","64eca5b2f88686966f593b43","null","null","<p style=""font-size: 60px; font-family: BACS"">tKDmhdCKc</p>","","","","","","","","",""
"html-keyboard-response","369","1876170","0.0-15.0-0.38","5fd0c81fc79aef1882cbee94","64e77d7b61f440b60e28659d","64eca5b2f88686966f593b43","null","null","<p style=""font-size: 60px; font-family: BACS"">tKDmhdCKc</p>","","","","","","","","",""
"html-keyboard-response","370","1877178","0.0-15.0-0.39","5fd0c81fc79aef1882cbee94","64e77d7b61f440b60e28659d","64eca5b2f88686966f593b43","null","null","<p style=""font-size: 60px; font-family: BACS"">tKDmhdCKc</p>","","","","","","","","",""
"html-keyboard-response","371","1878181","0.0-15.0-0.40","5fd0c81fc79aef1882cbee94","64e77d7b61f440b60e28659d","64eca5b2f88686966f593b43","null","null","<p style=""font-size: 60px; font-family: BACS"">tKDmhdCKc</p>","","","","","","","","",""
"html-keyboard-response","372","1879183","0.0-15.0-0.41","5fd0c81fc79aef1882cbee94","64e77d7b61f440b60e28659d","64eca5b2f88686966f593b43","null","null","<p style=""font-size: 60px; font-family: BACS"">tKDmhdCKc</p>","","","","","","","","",""
"html-keyboard-response","373","1880196","0.0-15.0-0.42","5fd0c81fc79aef1882cbee94","64e77d7b61f440b60e28659d","64eca5b2f88686966f593b43","null","null","<p style=""font-size: 60px; font-family: BACS"">tKDmhdCKc</p>","","","","","","","","",""
"html-keyboard-response","374","1881202","0.0-15.0-0.43","5fd0c81fc79aef1882cbee94","64e77d7b61f440b60e28659d","64eca5b2f88686966f593b43","null","null","<p style=""font-size: 60px; font-family: BACS"">tKDmhdCKc</p>","","","","","","","","",""
"html-keyboard-response","375","1882203","0.0-15.0-0.44","5fd0c81fc79aef1882cbee94","64e77d7b61f440b60e28659d","64eca5b2f88686966f593b43","null","null","<p style=""font-size: 60px; font-family: BACS"">tKDmhdCKc</p>","","","","","","","","",""
"html-keyboard-response","376","1883220","0.0-15.0-0.45","5fd0c81fc79aef1882cbee94","64e77d7b61f440b60e28659d","64eca5b2f88686966f593b43","null","null","<p style=""font-size: 60px; font-family: BACS"">tKDmhdCKc</p>","","","","","","","","",""
"html-keyboard-response","377","1884229","0.0-15.0-0.46","5fd0c81fc79aef1882cbee94","64e77d7b61f440b60e28659d","64eca5b2f88686966f593b43","null","null","<p style=""font-size: 60px; font-family: BACS"">tKDmhdCKc</p>","","","","","","","","",""
"html-keyboard-response","378","1885237","0.0-15.0-0.47","5fd0c81fc79aef1882cbee94","64e77d7b61f440b60e28659d","64eca5b2f88686966f593b43","null","null","<p style=""font-size: 60px; font-family: BACS"">tKDmhdCKc</p>","","","","","","","","",""
"html-keyboard-response","379","1886240","0.0-15.0-0.48","5fd0c81fc79aef1882cbee94","64e77d7b61f440b60e28659d","64eca5b2f88686966f593b43","null","null","<p style=""font-size: 60px; font-family: BACS"">tKDmhdCKc</p>","","","","","","","","",""
"html-keyboard-response","380","1887255","0.0-15.0-0.49","5fd0c81fc79aef1882cbee94","64e77d7b61f440b60e28659d","64eca5b2f88686966f593b43","null","null","<p style=""font-size: 60px; font-family: BACS"">tKDmhdCKc</p>","","","","","","","","",""
"html-keyboard-response","381","1888258","0.0-15.0-0.50","5fd0c81fc79aef1882cbee94","64e77d7b61f440b60e28659d","64eca5b2f88686966f593b43","null","null","<p style=""font-size: 60px; font-family: BACS"">tKDmhdCKc</p>","","","","","","","","",""
"html-keyboard-response","382","1889267","0.0-15.0-0.51","5fd0c81fc79aef1882cbee94","64e77d7b61f440b60e28659d","64eca5b2f88686966f593b43","null","null","<p style=""font-size: 60px; font-family: BACS"">tKDmhdCKc</p>","","","","","","","","",""
"html-keyboard-response","383","1890268","0.0-15.0-0.52","5fd0c81fc79aef1882cbee94","64e77d7b61f440b60e28659d","64eca5b2f88686966f593b43","null","null","<p style=""font-size: 60px; font-family: BACS"">tKDmhdCKc</p>","","","","","","","","",""
"html-keyboard-response","384","1891285","0.0-15.0-0.53","5fd0c81fc79aef1882cbee94","64e77d7b61f440b60e28659d","64eca5b2f88686966f593b43","null","null","<p style=""font-size: 60px; font-family: BACS"">tKDmhdCKc</p>","","","","","","","","",""
"html-keyboard-response","385","1892297","0.0-15.0-0.54","5fd0c81fc79aef1882cbee94","64e77d7b61f440b60e28659d","64eca5b2f88686966f593b43","null","null","<p style=""font-size: 60px; font-family: BACS"">tKDmhdCKc</p>","","","","","","","","",""
"html-keyboard-response","386","1893303","0.0-15.0-0.55","5fd0c81fc79aef1882cbee94","64e77d7b61f440b60e28659d","64eca5b2f88686966f593b43","null","null","<p style=""font-size: 60px; font-family: BACS"">tKDmhdCKc</p>","","","","","","","","",""
"html-keyboard-response","387","1894307","0.0-15.0-0.56","5fd0c81fc79aef1882cbee94","64e77d7b61f440b60e28659d","64eca5b2f88686966f593b43","null","null","<p style=""font-size: 60px; font-family: BACS"">tKDmhdCKc</p>","","","","","","","","",""
"html-keyboard-response","388","1895309","0.0-15.0-0.57","5fd0c81fc79aef1882cbee94","64e77d7b61f440b60e28659d","64eca5b2f88686966f593b43","null","null","<p style=""font-size: 60px; font-family: BACS"">tKDmhdCKc</p>","","","","","","","","",""
"html-keyboard-response","389","1896311","0.0-15.0-0.58","5fd0c81fc79aef1882cbee94","64e77d7b61f440b60e28659d","64eca5b2f88686966f593b43","null","null","<p style=""font-size: 60px; font-family: BACS"">tKDmhdCKc</p>","","","","","","","","",""
"html-keyboard-response","390","1897312","0.0-15.0-0.59","5fd0c81fc79aef1882cbee94","64e77d7b61f440b60e28659d","64eca5b2f88686966f593b43","null","null","<p style=""font-size: 60px; font-family: BACS"">tKDmhdCKc</p>","","","","","","","","",""
"html-keyboard-response","391","1898325","0.0-15.0-0.60","5fd0c81fc79aef1882cbee94","64e77d7b61f440b60e28659d","64eca5b2f88686966f593b43","null","null","<p style=""font-size: 60px; font-family: BACS"">tKDmhdCKc</p>","","","","","","","","",""
"html-keyboard-response","392","1899326","0.0-15.0-0.61","5fd0c81fc79aef1882cbee94","64e77d7b61f440b60e28659d","64eca5b2f88686966f593b43","null","null","<p style=""font-size: 60px; font-family: BACS"">tKDmhdCKc</p>","","","","","","","","",""
"html-keyboard-response","393","1900329","0.0-15.0-0.62","5fd0c81fc79aef1882cbee94","64e77d7b61f440b60e28659d","64eca5b2f88686966f593b43","null","null","<p style=""font-size: 60px; font-family: BACS"">tKDmhdCKc</p>","","","","","","","","",""
"html-keyboard-response","394","1901334","0.0-15.0-0.63","5fd0c81fc79aef1882cbee94","64e77d7b61f440b60e28659d","64eca5b2f88686966f593b43","null","null","<p style=""font-size: 60px; font-family: BACS"">tKDmhdCKc</p>","","","","","","","","",""
"html-keyboard-response","395","1902343","0.0-15.0-0.64","5fd0c81fc79aef1882cbee94","64e77d7b61f440b60e28659d","64eca5b2f88686966f593b43","null","null","<p style=""font-size: 60px; font-family: BACS"">tKDmhdCKc</p>","","","","","","","","",""
