"trial_type","trial_index","time_elapsed","internal_node_id","subject_id","study_id","session_id","rt","response","stimulus","success","item","task","correct_response","correct","target","confound","name"
"pavlovia","0","2885","0.0-0.0","60d87fdab51e54fe4863f97f","64afc2c9a8732ea92db0087d","64afcdd2c01bbc89293613e7","","","","","","","","","","",""
"survey-html-form","1","101586","0.0-1.0","60d87fdab51e54fe4863f97f","64afc2c9a8732ea92db0087d","64afcdd2c01bbc89293613e7","98700","{""ID"":""60d87fdab51e54fe4863f97f""}","","","","","","","","",""
"html-keyboard-response","2","109520","0.0-2.0","60d87fdab51e54fe4863f97f","64afc2c9a8732ea92db0087d","64afcdd2c01bbc89293613e7","7932"," ","<p style=""font-size: 15px;"">Prima di cominciare, le chiediamo di leggere il modulo di consenso informato e confermare la sua volontà di partecipare all'esperimento.</p>
      <p style=""font-size: 15px;""> La preghiamo di ricordare che questo è un progetto di ricerca e che la sua partecipazione è completamente volontaria. Lei si potra' ritirare in qualunque momento, senza necessariamente dover dare alcuna spiegazione. Lo studio al quale Le si chiede di partecipare ha lo scopo di esaminare come i lettori elaborano le parole scritte. La somministrazione delle prove è individuale. Lei sarà impegnato in una sessione di lavoro della durata media di 10 minuti, e un questionario di 10 minuti. L’ordine delle prove ed il loro svolgimento sono stabiliti in modo tale da evitare un eventuale affaticamento. Tutte le prove saranno precedute da un breve addestramento in modo tale che abbia la possibilità di familiarizzare con il compito. Sono previste alcune pause nel corso dello svolgimento dell’esperimento. Una ricompensa di £4 (£8 per ora) Le verrà consegnata al termine della sessione di testing. Nonostante il testing preveda delle prove cognitive, il presente esperimento non costituisce una prova clinica che permetta la diagnosi di eventuali patologie.</p>
      <p style=""font-size: 15px;"">Tutti i dati raccolti grazie alla partecipazione Sua e di altre persone volontarie saranno custoditi in server sicuri e protetti da password, e non sarà consentito ad alcuna persona non autorizzata di accedervi. Le Sue informazioni personali saranno conservate separatamente dai risultati della presente ricerca, cui saranno associati soltanto attraverso un ID arbitrario. Grazie a questo processo di anonimizzazione dei dati, a nessun ricercatore sarà possibile analizzare i risultati sapendo da quale specifico partecipante essi provengono. Inoltre, questa procedura renderà impossibile la Sua identificazione anche nel momento in cui i risultati della ricerca fossero pubblicati su riviste scientifiche, o presentati a congressi o in qualsiasi altro pubblico consesso. Più in generale, i dati raccolti saranno trattati in accordo con le leggi sulla privacy e in conformità al Decreto Legislativo 30 giugno 2003 n. 196 “Codice in materia di protezione dei dati personali” e al Regolamento Europeo 2016/679 (General Data Protection Regulation - GDPR). Il Responsabile della protezione dei dati (RPD) è l’Avv. Valentina Carollo che può essere contattato ai seguenti indirizzi email: <a href=""mailto:dpo@sissa.it"">dpo@sissa.it</a> oppure <a href=""mailto:rpd@sissa.it"">rpd@sissa.it</a> - PEC: <a href=""mailto:protocollo@pec.sissa.it"">protocollo@pec.sissa.it</a>.</p>
      <p style=""font-size: 15px;""> Prima di esprimere il suo consenso alla partecipazione, Le ricordiamo ancora che in caso Lei abbia bisogno di delucidazioni su qualunque aspetto della procedura sperimentale, il ricercatore è a Sua completa disposizione (<a href=""mailto:aliebelt@sissa.it"">aliebelt@sissa.it</a>, <a href=""mailto:davide.crepaldi@sissa.it"">davide.crepaldi@sissa.it</a>).</p>
      <p style=""font-size: 15px;"">Se vuole scaricare il modulo di consenso informato, clicca qui: <a href=""BASL_modulo_consenso.pdf"" download>modulo di consenso</a>.</p>
      <p style=""font-size: 15px;""> Le chiediamo di premere la barra per continuare al consenso.</p>","","","","","","","",""
"survey-html-form","3","114526","0.0-3.0","60d87fdab51e54fe4863f97f","64afc2c9a8732ea92db0087d","64afcdd2c01bbc89293613e7","5006","{""consent1"":""YES"",""consent2"":""YES"",""consent3"":""YES"",""consent4"":""YES"",""consent5"":""YES"",""consent6"":""YES""}","","","","","","","","",""
"fullscreen","4","122096","0.0-4.0","60d87fdab51e54fe4863f97f","64afc2c9a8732ea92db0087d","64afcdd2c01bbc89293613e7","","","","true","","","","","","",""
"html-keyboard-response","5","153968","0.0-5.0","60d87fdab51e54fe4863f97f","64afc2c9a8732ea92db0087d","64afcdd2c01bbc89293613e7","31872"," ","<p>Benvenuta/o, e grazie mille del tuo tempo!</p>
      <p>In questo esperimento sarai un esperto/un'esperta di linguaggio cui è stato chiesto di dare un'occhiata ad alcuni messaggi che la Terra ha ricevuto dallo spazio. Il tuo compito, in questa prima parte dell'esperimento, sarà di fare molta attenzione alle parole che ti verranno mostrate; più tardi, i leader del mondo ti chiederanno qualche informazione su quello che hai visto. Le parole si susseguiranno abbastanza velocemente; sembra che questi alieni abbiano una certa fretta :-) </p>
      <p>Per favore, chiama lo sperimentatore se ha qualche domanda.</p><p>Premi la barra per continuare.</p>","","","","","","","",""
"html-keyboard-response","6","175463","0.0-6.0","60d87fdab51e54fe4863f97f","64afc2c9a8732ea92db0087d","64afcdd2c01bbc89293613e7","21494"," ","<p>Ecco un esempio delle parole che vedrai:</p>
      <img src='esempio.png' height='400px'>
      <p>Quando sei pronti per iniziare, premi la barra.</p></div>","","","","","","","",""
"html-keyboard-response","7","176465","0.0-7.0-0.0","60d87fdab51e54fe4863f97f","64afc2c9a8732ea92db0087d","64afcdd2c01bbc89293613e7","null","null","<p style=""font-size: 60px; font-family: BACS"">BbODCmYA</p>","","","","","","","",""
"html-keyboard-response","8","177467","0.0-7.0-0.1","60d87fdab51e54fe4863f97f","64afc2c9a8732ea92db0087d","64afcdd2c01bbc89293613e7","null","null","<p style=""font-size: 60px; font-family: BACS"">kdaAJOJNk</p>","","","","","","","",""
"html-keyboard-response","9","178468","0.0-7.0-0.2","60d87fdab51e54fe4863f97f","64afc2c9a8732ea92db0087d","64afcdd2c01bbc89293613e7","null","null","<p style=""font-size: 60px; font-family: BACS"">DOchlABb</p>","","","","","","","",""
"html-keyboard-response","10","179470","0.0-7.0-0.3","60d87fdab51e54fe4863f97f","64afc2c9a8732ea92db0087d","64afcdd2c01bbc89293613e7","null","null","<p style=""font-size: 60px; font-family: BACS"">BbODtAY</p>","","","","","","","",""
"html-keyboard-response","11","180471","0.0-7.0-0.4","60d87fdab51e54fe4863f97f","64afc2c9a8732ea92db0087d","64afcdd2c01bbc89293613e7","null","null","<p style=""font-size: 60px; font-family: BACS"">DBlhCmYA</p>","","","","","","","",""
"html-keyboard-response","12","181472","0.0-7.0-0.5","60d87fdab51e54fe4863f97f","64afc2c9a8732ea92db0087d","64afcdd2c01bbc89293613e7","null","null","<p style=""font-size: 60px; font-family: BACS"">NQZvkJdr</p>","","","","","","","",""
"html-keyboard-response","13","182474","0.0-7.0-0.6","60d87fdab51e54fe4863f97f","64afc2c9a8732ea92db0087d","64afcdd2c01bbc89293613e7","null","null","<p style=""font-size: 60px; font-family: BACS"">LdQvQGb</p>","","","","","","","",""
"html-keyboard-response","14","183475","0.0-7.0-0.7","60d87fdab51e54fe4863f97f","64afc2c9a8732ea92db0087d","64afcdd2c01bbc89293613e7","null","null","<p style=""font-size: 60px; font-family: BACS"">DBlhBRDh</p>","","","","","","","",""
"html-keyboard-response","15","184476","0.0-7.0-0.8","60d87fdab51e54fe4863f97f","64afc2c9a8732ea92db0087d","64afcdd2c01bbc89293613e7","null","null","<p style=""font-size: 60px; font-family: BACS"">NQZvOJNk</p>","","","","","","","",""
"html-keyboard-response","16","185477","0.0-7.0-0.9","60d87fdab51e54fe4863f97f","64afc2c9a8732ea92db0087d","64afcdd2c01bbc89293613e7","null","null","<p style=""font-size: 60px; font-family: BACS"">kdaAJQGb</p>","","","","","","","",""
"html-keyboard-response","17","186478","0.0-7.0-0.10","60d87fdab51e54fe4863f97f","64afc2c9a8732ea92db0087d","64afcdd2c01bbc89293613e7","null","null","<p style=""font-size: 60px; font-family: BACS"">vuJZukJdr</p>","","","","","","","",""
"html-keyboard-response","18","187480","0.0-7.0-0.11","60d87fdab51e54fe4863f97f","64afc2c9a8732ea92db0087d","64afcdd2c01bbc89293613e7","null","null","<p style=""font-size: 60px; font-family: BACS"">MBmECmYA</p>","","","","","","","",""
"html-keyboard-response","19","188482","0.0-7.0-0.12","60d87fdab51e54fe4863f97f","64afc2c9a8732ea92db0087d","64afcdd2c01bbc89293613e7","null","null","<p style=""font-size: 60px; font-family: BACS"">NLQGmQGb</p>","","","","","","","",""
"html-keyboard-response","20","189483","0.0-7.0-0.13","60d87fdab51e54fe4863f97f","64afc2c9a8732ea92db0087d","64afcdd2c01bbc89293613e7","null","null","<p style=""font-size: 60px; font-family: BACS"">MBmEmKcD</p>","","","","","","","",""
"html-keyboard-response","21","190485","0.0-7.0-0.14","60d87fdab51e54fe4863f97f","64afc2c9a8732ea92db0087d","64afcdd2c01bbc89293613e7","null","null","<p style=""font-size: 60px; font-family: BACS"">EPERdCmYA</p>","","","","","","","",""
"html-keyboard-response","22","191486","0.0-7.0-0.15","60d87fdab51e54fe4863f97f","64afc2c9a8732ea92db0087d","64afcdd2c01bbc89293613e7","null","null","<p style=""font-size: 60px; font-family: BACS"">CkBOPABb</p>","","","","","","","",""
"html-keyboard-response","23","192487","0.0-7.0-0.16","60d87fdab51e54fe4863f97f","64afc2c9a8732ea92db0087d","64afcdd2c01bbc89293613e7","null","null","<p style=""font-size: 60px; font-family: BACS"">EPERdBRDh</p>","","","","","","","",""
"html-keyboard-response","24","193487","0.0-7.0-0.17","60d87fdab51e54fe4863f97f","64afc2c9a8732ea92db0087d","64afcdd2c01bbc89293613e7","null","null","<p style=""font-size: 60px; font-family: BACS"">NQZvQGb</p>","","","","","","","",""
"html-keyboard-response","25","194488","0.0-7.0-0.18","60d87fdab51e54fe4863f97f","64afc2c9a8732ea92db0087d","64afcdd2c01bbc89293613e7","null","null","<p style=""font-size: 60px; font-family: BACS"">vJabkGua</p>","","","","","","","",""
"html-keyboard-response","26","195490","0.0-7.0-0.19","60d87fdab51e54fe4863f97f","64afc2c9a8732ea92db0087d","64afcdd2c01bbc89293613e7","null","null","<p style=""font-size: 60px; font-family: BACS"">tmtEMtAY</p>","","","","","","","",""
"html-keyboard-response","27","196492","0.0-7.0-0.20","60d87fdab51e54fe4863f97f","64afc2c9a8732ea92db0087d","64afcdd2c01bbc89293613e7","null","null","<p style=""font-size: 60px; font-family: BACS"">COTKmKcD</p>","","","","","","","",""
"html-keyboard-response","28","197493","0.0-7.0-0.21","60d87fdab51e54fe4863f97f","64afc2c9a8732ea92db0087d","64afcdd2c01bbc89293613e7","null","null","<p style=""font-size: 60px; font-family: BACS"">YLQmGOJNk</p>","","","","","","","",""
"html-keyboard-response","29","198495","0.0-7.0-0.22","60d87fdab51e54fe4863f97f","64afc2c9a8732ea92db0087d","64afcdd2c01bbc89293613e7","null","null","<p style=""font-size: 60px; font-family: BACS"">kdaAJAZbl</p>","","","","","","","",""
"html-keyboard-response","30","199496","0.0-7.0-0.23","60d87fdab51e54fe4863f97f","64afc2c9a8732ea92db0087d","64afcdd2c01bbc89293613e7","null","null","<p style=""font-size: 60px; font-family: BACS"">COTKtAY</p>","","","","","","","",""
"html-keyboard-response","31","200497","0.0-7.0-0.24","60d87fdab51e54fe4863f97f","64afc2c9a8732ea92db0087d","64afcdd2c01bbc89293613e7","null","null","<p style=""font-size: 60px; font-family: BACS"">YLQmGkJdr</p>","","","","","","","",""
"html-keyboard-response","32","201499","0.0-7.0-0.25","60d87fdab51e54fe4863f97f","64afc2c9a8732ea92db0087d","64afcdd2c01bbc89293613e7","null","null","<p style=""font-size: 60px; font-family: BACS"">DBlhtAY</p>","","","","","","","",""
"html-keyboard-response","33","202500","0.0-7.0-0.26","60d87fdab51e54fe4863f97f","64afc2c9a8732ea92db0087d","64afcdd2c01bbc89293613e7","null","null","<p style=""font-size: 60px; font-family: BACS"">vuJZuQGb</p>","","","","","","","",""
"html-keyboard-response","34","203501","0.0-7.0-0.27","60d87fdab51e54fe4863f97f","64afc2c9a8732ea92db0087d","64afcdd2c01bbc89293613e7","null","null","<p style=""font-size: 60px; font-family: BACS"">AlNUkJdr</p>","","","","","","","",""
"html-keyboard-response","35","204502","0.0-7.0-0.28","60d87fdab51e54fe4863f97f","64afc2c9a8732ea92db0087d","64afcdd2c01bbc89293613e7","null","null","<p style=""font-size: 60px; font-family: BACS"">COTKBRDh</p>","","","","","","","",""
"html-keyboard-response","36","205503","0.0-7.0-0.29","60d87fdab51e54fe4863f97f","64afc2c9a8732ea92db0087d","64afcdd2c01bbc89293613e7","null","null","<p style=""font-size: 60px; font-family: BACS"">rGUAYkGua</p>","","","","","","","",""
"html-keyboard-response","37","206504","0.0-7.0-0.30","60d87fdab51e54fe4863f97f","64afc2c9a8732ea92db0087d","64afcdd2c01bbc89293613e7","null","null","<p style=""font-size: 60px; font-family: BACS"">vJabQGb</p>","","","","","","","",""
"html-keyboard-response","38","207504","0.0-7.0-0.31","60d87fdab51e54fe4863f97f","64afc2c9a8732ea92db0087d","64afcdd2c01bbc89293613e7","null","null","<p style=""font-size: 60px; font-family: BACS"">NLQGmkJdr</p>","","","","","","","",""
"html-keyboard-response","39","208505","0.0-7.0-0.32","60d87fdab51e54fe4863f97f","64afc2c9a8732ea92db0087d","64afcdd2c01bbc89293613e7","null","null","<p style=""font-size: 60px; font-family: BACS"">CmcOmKcD</p>","","","","","","","",""
"html-keyboard-response","40","209506","0.0-7.0-0.33","60d87fdab51e54fe4863f97f","64afc2c9a8732ea92db0087d","64afcdd2c01bbc89293613e7","null","null","<p style=""font-size: 60px; font-family: BACS"">CkBOPtAY</p>","","","","","","","",""
"html-keyboard-response","41","210509","0.0-7.0-0.34","60d87fdab51e54fe4863f97f","64afc2c9a8732ea92db0087d","64afcdd2c01bbc89293613e7","null","null","<p style=""font-size: 60px; font-family: BACS"">tmtEMmKcD</p>","","","","","","","",""
"html-keyboard-response","42","211510","0.0-7.0-0.35","60d87fdab51e54fe4863f97f","64afc2c9a8732ea92db0087d","64afcdd2c01bbc89293613e7","null","null","<p style=""font-size: 60px; font-family: BACS"">kdaAJkGua</p>","","","","","","","",""
"html-keyboard-response","43","212513","0.0-7.0-0.36","60d87fdab51e54fe4863f97f","64afc2c9a8732ea92db0087d","64afcdd2c01bbc89293613e7","null","null","<p style=""font-size: 60px; font-family: BACS"">vJabOJNk</p>","","","","","","","",""
"html-keyboard-response","44","213514","0.0-7.0-0.37","60d87fdab51e54fe4863f97f","64afc2c9a8732ea92db0087d","64afcdd2c01bbc89293613e7","null","null","<p style=""font-size: 60px; font-family: BACS"">LdQvkJdr</p>","","","","","","","",""
"html-keyboard-response","45","214515","0.0-7.0-0.38","60d87fdab51e54fe4863f97f","64afc2c9a8732ea92db0087d","64afcdd2c01bbc89293613e7","null","null","<p style=""font-size: 60px; font-family: BACS"">NQZvAZbl</p>","","","","","","","",""
"html-keyboard-response","46","215516","0.0-7.0-0.39","60d87fdab51e54fe4863f97f","64afc2c9a8732ea92db0087d","64afcdd2c01bbc89293613e7","null","null","<p style=""font-size: 60px; font-family: BACS"">CmcOCmYA</p>","","","","","","","",""
"html-keyboard-response","47","216517","0.0-7.0-0.40","60d87fdab51e54fe4863f97f","64afc2c9a8732ea92db0087d","64afcdd2c01bbc89293613e7","null","null","<p style=""font-size: 60px; font-family: BACS"">mdkKABb</p>","","","","","","","",""
"html-keyboard-response","48","217518","0.0-7.0-0.41","60d87fdab51e54fe4863f97f","64afc2c9a8732ea92db0087d","64afcdd2c01bbc89293613e7","null","null","<p style=""font-size: 60px; font-family: BACS"">BbODBRDh</p>","","","","","","","",""
"html-keyboard-response","49","218519","0.0-7.0-0.42","60d87fdab51e54fe4863f97f","64afc2c9a8732ea92db0087d","64afcdd2c01bbc89293613e7","null","null","<p style=""font-size: 60px; font-family: BACS"">EPERdmKcD</p>","","","","","","","",""
"html-keyboard-response","50","219520","0.0-7.0-0.43","60d87fdab51e54fe4863f97f","64afc2c9a8732ea92db0087d","64afcdd2c01bbc89293613e7","null","null","<p style=""font-size: 60px; font-family: BACS"">mdkKtAY</p>","","","","","","","",""
"html-keyboard-response","51","220522","0.0-7.0-0.44","60d87fdab51e54fe4863f97f","64afc2c9a8732ea92db0087d","64afcdd2c01bbc89293613e7","null","null","<p style=""font-size: 60px; font-family: BACS"">vuJZukGua</p>","","","","","","","",""
"html-keyboard-response","52","221524","0.0-7.0-0.45","60d87fdab51e54fe4863f97f","64afc2c9a8732ea92db0087d","64afcdd2c01bbc89293613e7","null","null","<p style=""font-size: 60px; font-family: BACS"">DOchlmKcD</p>","","","","","","","",""
"html-keyboard-response","53","222524","0.0-7.0-0.46","60d87fdab51e54fe4863f97f","64afc2c9a8732ea92db0087d","64afcdd2c01bbc89293613e7","null","null","<p style=""font-size: 60px; font-family: BACS"">EPERdABb</p>","","","","","","","",""
"html-keyboard-response","54","223525","0.0-7.0-0.47","60d87fdab51e54fe4863f97f","64afc2c9a8732ea92db0087d","64afcdd2c01bbc89293613e7","null","null","<p style=""font-size: 60px; font-family: BACS"">AlNUAZbl</p>","","","","","","","",""
"html-keyboard-response","55","224527","0.0-7.0-0.48","60d87fdab51e54fe4863f97f","64afc2c9a8732ea92db0087d","64afcdd2c01bbc89293613e7","null","null","<p style=""font-size: 60px; font-family: BACS"">YZJmOJNk</p>","","","","","","","",""
"html-keyboard-response","56","225527","0.0-7.0-0.49","60d87fdab51e54fe4863f97f","64afc2c9a8732ea92db0087d","64afcdd2c01bbc89293613e7","null","null","<p style=""font-size: 60px; font-family: BACS"">vJabAZbl</p>","","","","","","","",""
"html-keyboard-response","57","226528","0.0-7.0-0.50","60d87fdab51e54fe4863f97f","64afc2c9a8732ea92db0087d","64afcdd2c01bbc89293613e7","null","null","<p style=""font-size: 60px; font-family: BACS"">NLQGmkGua</p>","","","","","","","",""
"html-keyboard-response","58","227529","0.0-7.0-0.51","60d87fdab51e54fe4863f97f","64afc2c9a8732ea92db0087d","64afcdd2c01bbc89293613e7","null","null","<p style=""font-size: 60px; font-family: BACS"">mdkKmKcD</p>","","","","","","","",""
"html-keyboard-response","59","228530","0.0-7.0-0.52","60d87fdab51e54fe4863f97f","64afc2c9a8732ea92db0087d","64afcdd2c01bbc89293613e7","null","null","<p style=""font-size: 60px; font-family: BACS"">tmtEMBRDh</p>","","","","","","","",""
"html-keyboard-response","60","229532","0.0-7.0-0.53","60d87fdab51e54fe4863f97f","64afc2c9a8732ea92db0087d","64afcdd2c01bbc89293613e7","null","null","<p style=""font-size: 60px; font-family: BACS"">COTKCmYA</p>","","","","","","","",""
"html-keyboard-response","61","230533","0.0-7.0-0.54","60d87fdab51e54fe4863f97f","64afc2c9a8732ea92db0087d","64afcdd2c01bbc89293613e7","null","null","<p style=""font-size: 60px; font-family: BACS"">DOchltAY</p>","","","","","","","",""
"html-keyboard-response","62","231534","0.0-7.0-0.55","60d87fdab51e54fe4863f97f","64afc2c9a8732ea92db0087d","64afcdd2c01bbc89293613e7","null","null","<p style=""font-size: 60px; font-family: BACS"">YZJmkJdr</p>","","","","","","","",""
"html-keyboard-response","63","232535","0.0-7.0-0.56","60d87fdab51e54fe4863f97f","64afc2c9a8732ea92db0087d","64afcdd2c01bbc89293613e7","null","null","<p style=""font-size: 60px; font-family: BACS"">tmtEMABb</p>","","","","","","","",""
"html-keyboard-response","64","233536","0.0-7.0-0.57","60d87fdab51e54fe4863f97f","64afc2c9a8732ea92db0087d","64afcdd2c01bbc89293613e7","null","null","<p style=""font-size: 60px; font-family: BACS"">YZJmkGua</p>","","","","","","","",""
"html-keyboard-response","65","234537","0.0-7.0-0.58","60d87fdab51e54fe4863f97f","64afc2c9a8732ea92db0087d","64afcdd2c01bbc89293613e7","null","null","<p style=""font-size: 60px; font-family: BACS"">AlNUOJNk</p>","","","","","","","",""
"html-keyboard-response","66","235538","0.0-7.0-0.59","60d87fdab51e54fe4863f97f","64afc2c9a8732ea92db0087d","64afcdd2c01bbc89293613e7","null","null","<p style=""font-size: 60px; font-family: BACS"">rGUAYkJdr</p>","","","","","","","",""
"html-keyboard-response","67","236538","0.0-7.0-0.60","60d87fdab51e54fe4863f97f","64afc2c9a8732ea92db0087d","64afcdd2c01bbc89293613e7","null","null","<p style=""font-size: 60px; font-family: BACS"">mdkKCmYA</p>","","","","","","","",""
"html-keyboard-response","68","237540","0.0-7.0-0.61","60d87fdab51e54fe4863f97f","64afc2c9a8732ea92db0087d","64afcdd2c01bbc89293613e7","null","null","<p style=""font-size: 60px; font-family: BACS"">MBmEtAY</p>","","","","","","","",""
"html-keyboard-response","69","238541","0.0-7.0-0.62","60d87fdab51e54fe4863f97f","64afc2c9a8732ea92db0087d","64afcdd2c01bbc89293613e7","null","null","<p style=""font-size: 60px; font-family: BACS"">AlNUkGua</p>","","","","","","","",""
"html-keyboard-response","70","239542","0.0-7.0-0.63","60d87fdab51e54fe4863f97f","64afc2c9a8732ea92db0087d","64afcdd2c01bbc89293613e7","null","null","<p style=""font-size: 60px; font-family: BACS"">rGUAYQGb</p>","","","","","","","",""
"html-keyboard-response","71","240543","0.0-7.0-0.64","60d87fdab51e54fe4863f97f","64afc2c9a8732ea92db0087d","64afcdd2c01bbc89293613e7","null","null","<p style=""font-size: 60px; font-family: BACS"">YZJmAZbl</p>","","","","","","","",""
"html-keyboard-response","72","241545","0.0-7.0-0.65","60d87fdab51e54fe4863f97f","64afc2c9a8732ea92db0087d","64afcdd2c01bbc89293613e7","null","null","<p style=""font-size: 60px; font-family: BACS"">DBlhABb</p>","","","","","","","",""
"html-keyboard-response","73","242546","0.0-7.0-0.66","60d87fdab51e54fe4863f97f","64afc2c9a8732ea92db0087d","64afcdd2c01bbc89293613e7","null","null","<p style=""font-size: 60px; font-family: BACS"">LdQvAZbl</p>","","","","","","","",""
"html-keyboard-response","74","243548","0.0-7.0-0.67","60d87fdab51e54fe4863f97f","64afc2c9a8732ea92db0087d","64afcdd2c01bbc89293613e7","null","null","<p style=""font-size: 60px; font-family: BACS"">CmcOBRDh</p>","","","","","","","",""
"html-keyboard-response","75","244549","0.0-7.0-0.68","60d87fdab51e54fe4863f97f","64afc2c9a8732ea92db0087d","64afcdd2c01bbc89293613e7","null","null","<p style=""font-size: 60px; font-family: BACS"">YLQmGQGb</p>","","","","","","","",""
"html-keyboard-response","76","245551","0.0-7.0-0.69","60d87fdab51e54fe4863f97f","64afc2c9a8732ea92db0087d","64afcdd2c01bbc89293613e7","null","null","<p style=""font-size: 60px; font-family: BACS"">CkBOPBRDh</p>","","","","","","","",""
"html-keyboard-response","77","246551","0.0-7.0-0.70","60d87fdab51e54fe4863f97f","64afc2c9a8732ea92db0087d","64afcdd2c01bbc89293613e7","null","null","<p style=""font-size: 60px; font-family: BACS"">rGUAYAZbl</p>","","","","","","","",""
"html-keyboard-response","78","247552","0.0-7.0-0.71","60d87fdab51e54fe4863f97f","64afc2c9a8732ea92db0087d","64afcdd2c01bbc89293613e7","null","null","<p style=""font-size: 60px; font-family: BACS"">MBmEABb</p>","","","","","","","",""
"html-keyboard-response","79","248554","0.0-7.0-0.72","60d87fdab51e54fe4863f97f","64afc2c9a8732ea92db0087d","64afcdd2c01bbc89293613e7","null","null","<p style=""font-size: 60px; font-family: BACS"">CkBOPCmYA</p>","","","","","","","",""
"html-keyboard-response","80","249555","0.0-7.0-0.73","60d87fdab51e54fe4863f97f","64afc2c9a8732ea92db0087d","64afcdd2c01bbc89293613e7","null","null","<p style=""font-size: 60px; font-family: BACS"">DOchlBRDh</p>","","","","","","","",""
"html-keyboard-response","81","250556","0.0-7.0-0.74","60d87fdab51e54fe4863f97f","64afc2c9a8732ea92db0087d","64afcdd2c01bbc89293613e7","null","null","<p style=""font-size: 60px; font-family: BACS"">NLQGmOJNk</p>","","","","","","","",""
"html-keyboard-response","82","251558","0.0-7.0-0.75","60d87fdab51e54fe4863f97f","64afc2c9a8732ea92db0087d","64afcdd2c01bbc89293613e7","null","null","<p style=""font-size: 60px; font-family: BACS"">CmcOABb</p>","","","","","","","",""
"html-keyboard-response","83","252559","0.0-7.0-0.76","60d87fdab51e54fe4863f97f","64afc2c9a8732ea92db0087d","64afcdd2c01bbc89293613e7","null","null","<p style=""font-size: 60px; font-family: BACS"">BbODmKcD</p>","","","","","","","",""
"html-keyboard-response","84","253560","0.0-7.0-0.77","60d87fdab51e54fe4863f97f","64afc2c9a8732ea92db0087d","64afcdd2c01bbc89293613e7","null","null","<p style=""font-size: 60px; font-family: BACS"">vuJZuAZbl</p>","","","","","","","",""
"html-keyboard-response","85","254562","0.0-7.0-0.78","60d87fdab51e54fe4863f97f","64afc2c9a8732ea92db0087d","64afcdd2c01bbc89293613e7","null","null","<p style=""font-size: 60px; font-family: BACS"">YLQmGkGua</p>","","","","","","","",""
"html-keyboard-response","86","255563","0.0-7.0-0.79","60d87fdab51e54fe4863f97f","64afc2c9a8732ea92db0087d","64afcdd2c01bbc89293613e7","null","null","<p style=""font-size: 60px; font-family: BACS"">LdQvOJNk</p>","","","","","","","",""
"html-keyboard-response","87","354804","0.0-8.0","60d87fdab51e54fe4863f97f","64afc2c9a8732ea92db0087d","64afcdd2c01bbc89293613e7","99241"," ","<p>Ottimo, hai visto il primo blocco di parole. Ora puoi prenderti una piccola pausa.</p>
      <p>Premi la barra quando sei pronta/o per riprendere.</p>","","","","","","","",""
"html-keyboard-response","88","355806","0.0-9.0-0.0","60d87fdab51e54fe4863f97f","64afc2c9a8732ea92db0087d","64afcdd2c01bbc89293613e7","null","null","<p style=""font-size: 60px; font-family: BACS"">NQZvkJdr</p>","","","","","","","",""
"html-keyboard-response","89","356807","0.0-9.0-0.1","60d87fdab51e54fe4863f97f","64afc2c9a8732ea92db0087d","64afcdd2c01bbc89293613e7","null","null","<p style=""font-size: 60px; font-family: BACS"">DBlhtAY</p>","","","","","","","",""
"html-keyboard-response","90","357808","0.0-9.0-0.2","60d87fdab51e54fe4863f97f","64afc2c9a8732ea92db0087d","64afcdd2c01bbc89293613e7","null","null","<p style=""font-size: 60px; font-family: BACS"">AlNUkGua</p>","","","","","","","",""
"html-keyboard-response","91","358810","0.0-9.0-0.3","60d87fdab51e54fe4863f97f","64afc2c9a8732ea92db0087d","64afcdd2c01bbc89293613e7","null","null","<p style=""font-size: 60px; font-family: BACS"">kdaAJOJNk</p>","","","","","","","",""
"html-keyboard-response","92","359812","0.0-9.0-0.4","60d87fdab51e54fe4863f97f","64afc2c9a8732ea92db0087d","64afcdd2c01bbc89293613e7","null","null","<p style=""font-size: 60px; font-family: BACS"">EPERdBRDh</p>","","","","","","","",""
"html-keyboard-response","93","360815","0.0-9.0-0.5","60d87fdab51e54fe4863f97f","64afc2c9a8732ea92db0087d","64afcdd2c01bbc89293613e7","null","null","<p style=""font-size: 60px; font-family: BACS"">CkBOPtAY</p>","","","","","","","",""
"html-keyboard-response","94","361816","0.0-9.0-0.6","60d87fdab51e54fe4863f97f","64afc2c9a8732ea92db0087d","64afcdd2c01bbc89293613e7","null","null","<p style=""font-size: 60px; font-family: BACS"">NLQGmkGua</p>","","","","","","","",""
"html-keyboard-response","95","362817","0.0-9.0-0.7","60d87fdab51e54fe4863f97f","64afc2c9a8732ea92db0087d","64afcdd2c01bbc89293613e7","null","null","<p style=""font-size: 60px; font-family: BACS"">NQZvOJNk</p>","","","","","","","",""
"html-keyboard-response","96","363818","0.0-9.0-0.8","60d87fdab51e54fe4863f97f","64afc2c9a8732ea92db0087d","64afcdd2c01bbc89293613e7","null","null","<p style=""font-size: 60px; font-family: BACS"">EPERdmKcD</p>","","","","","","","",""
"html-keyboard-response","97","364819","0.0-9.0-0.9","60d87fdab51e54fe4863f97f","64afc2c9a8732ea92db0087d","64afcdd2c01bbc89293613e7","null","null","<p style=""font-size: 60px; font-family: BACS"">LdQvAZbl</p>","","","","","","","",""
"html-keyboard-response","98","365820","0.0-9.0-0.10","60d87fdab51e54fe4863f97f","64afc2c9a8732ea92db0087d","64afcdd2c01bbc89293613e7","null","null","<p style=""font-size: 60px; font-family: BACS"">kdaAJQGb</p>","","","","","","","",""
"html-keyboard-response","99","366822","0.0-9.0-0.11","60d87fdab51e54fe4863f97f","64afc2c9a8732ea92db0087d","64afcdd2c01bbc89293613e7","null","null","<p style=""font-size: 60px; font-family: BACS"">MBmEtAY</p>","","","","","","","",""
"html-keyboard-response","100","367823","0.0-9.0-0.12","60d87fdab51e54fe4863f97f","64afc2c9a8732ea92db0087d","64afcdd2c01bbc89293613e7","null","null","<p style=""font-size: 60px; font-family: BACS"">COTKBRDh</p>","","","","","","","",""
"html-keyboard-response","101","368825","0.0-9.0-0.13","60d87fdab51e54fe4863f97f","64afc2c9a8732ea92db0087d","64afcdd2c01bbc89293613e7","null","null","<p style=""font-size: 60px; font-family: BACS"">vJabkGua</p>","","","","","","","",""
"html-keyboard-response","102","369826","0.0-9.0-0.14","60d87fdab51e54fe4863f97f","64afc2c9a8732ea92db0087d","64afcdd2c01bbc89293613e7","null","null","<p style=""font-size: 60px; font-family: BACS"">CkBOPBRDh</p>","","","","","","","",""
"html-keyboard-response","103","370828","0.0-9.0-0.15","60d87fdab51e54fe4863f97f","64afc2c9a8732ea92db0087d","64afcdd2c01bbc89293613e7","null","null","<p style=""font-size: 60px; font-family: BACS"">EPERdCmYA</p>","","","","","","","",""
"html-keyboard-response","104","371829","0.0-9.0-0.16","60d87fdab51e54fe4863f97f","64afc2c9a8732ea92db0087d","64afcdd2c01bbc89293613e7","null","null","<p style=""font-size: 60px; font-family: BACS"">DBlhABb</p>","","","","","","","",""
"html-keyboard-response","105","372830","0.0-9.0-0.17","60d87fdab51e54fe4863f97f","64afc2c9a8732ea92db0087d","64afcdd2c01bbc89293613e7","null","null","<p style=""font-size: 60px; font-family: BACS"">kdaAJAZbl</p>","","","","","","","",""
"html-keyboard-response","106","373831","0.0-9.0-0.18","60d87fdab51e54fe4863f97f","64afc2c9a8732ea92db0087d","64afcdd2c01bbc89293613e7","null","null","<p style=""font-size: 60px; font-family: BACS"">CkBOPABb</p>","","","","","","","",""
"html-keyboard-response","107","374833","0.0-9.0-0.19","60d87fdab51e54fe4863f97f","64afc2c9a8732ea92db0087d","64afcdd2c01bbc89293613e7","null","null","<p style=""font-size: 60px; font-family: BACS"">DBlhBRDh</p>","","","","","","","",""
"html-keyboard-response","108","375834","0.0-9.0-0.20","60d87fdab51e54fe4863f97f","64afc2c9a8732ea92db0087d","64afcdd2c01bbc89293613e7","null","null","<p style=""font-size: 60px; font-family: BACS"">mdkKtAY</p>","","","","","","","",""
"html-keyboard-response","109","376835","0.0-9.0-0.21","60d87fdab51e54fe4863f97f","64afc2c9a8732ea92db0087d","64afcdd2c01bbc89293613e7","null","null","<p style=""font-size: 60px; font-family: BACS"">CmcOABb</p>","","","","","","","",""
"html-keyboard-response","110","377837","0.0-9.0-0.22","60d87fdab51e54fe4863f97f","64afc2c9a8732ea92db0087d","64afcdd2c01bbc89293613e7","null","null","<p style=""font-size: 60px; font-family: BACS"">AlNUOJNk</p>","","","","","","","",""
"html-keyboard-response","111","378838","0.0-9.0-0.23","60d87fdab51e54fe4863f97f","64afc2c9a8732ea92db0087d","64afcdd2c01bbc89293613e7","null","null","<p style=""font-size: 60px; font-family: BACS"">EPERdABb</p>","","","","","","","",""
"html-keyboard-response","112","379839","0.0-9.0-0.24","60d87fdab51e54fe4863f97f","64afc2c9a8732ea92db0087d","64afcdd2c01bbc89293613e7","null","null","<p style=""font-size: 60px; font-family: BACS"">vuJZuQGb</p>","","","","","","","",""
"html-keyboard-response","113","380840","0.0-9.0-0.25","60d87fdab51e54fe4863f97f","64afc2c9a8732ea92db0087d","64afcdd2c01bbc89293613e7","null","null","<p style=""font-size: 60px; font-family: BACS"">DOchlBRDh</p>","","","","","","","",""
"html-keyboard-response","114","381841","0.0-9.0-0.26","60d87fdab51e54fe4863f97f","64afc2c9a8732ea92db0087d","64afcdd2c01bbc89293613e7","null","null","<p style=""font-size: 60px; font-family: BACS"">tmtEMtAY</p>","","","","","","","",""
"html-keyboard-response","115","382842","0.0-9.0-0.27","60d87fdab51e54fe4863f97f","64afc2c9a8732ea92db0087d","64afcdd2c01bbc89293613e7","null","null","<p style=""font-size: 60px; font-family: BACS"">COTKCmYA</p>","","","","","","","",""
"html-keyboard-response","116","383844","0.0-9.0-0.28","60d87fdab51e54fe4863f97f","64afc2c9a8732ea92db0087d","64afcdd2c01bbc89293613e7","null","null","<p style=""font-size: 60px; font-family: BACS"">vuJZukGua</p>","","","","","","","",""
"html-keyboard-response","117","384846","0.0-9.0-0.29","60d87fdab51e54fe4863f97f","64afc2c9a8732ea92db0087d","64afcdd2c01bbc89293613e7","null","null","<p style=""font-size: 60px; font-family: BACS"">vJabOJNk</p>","","","","","","","",""
"html-keyboard-response","118","385847","0.0-9.0-0.30","60d87fdab51e54fe4863f97f","64afc2c9a8732ea92db0087d","64afcdd2c01bbc89293613e7","null","null","<p style=""font-size: 60px; font-family: BACS"">YZJmkGua</p>","","","","","","","",""
"html-keyboard-response","119","386848","0.0-9.0-0.31","60d87fdab51e54fe4863f97f","64afc2c9a8732ea92db0087d","64afcdd2c01bbc89293613e7","null","null","<p style=""font-size: 60px; font-family: BACS"">YLQmGQGb</p>","","","","","","","",""
"html-keyboard-response","120","387850","0.0-9.0-0.32","60d87fdab51e54fe4863f97f","64afc2c9a8732ea92db0087d","64afcdd2c01bbc89293613e7","null","null","<p style=""font-size: 60px; font-family: BACS"">COTKmKcD</p>","","","","","","","",""
"html-keyboard-response","121","388852","0.0-9.0-0.33","60d87fdab51e54fe4863f97f","64afc2c9a8732ea92db0087d","64afcdd2c01bbc89293613e7","null","null","<p style=""font-size: 60px; font-family: BACS"">rGUAYAZbl</p>","","","","","","","",""
"html-keyboard-response","122","389853","0.0-9.0-0.34","60d87fdab51e54fe4863f97f","64afc2c9a8732ea92db0087d","64afcdd2c01bbc89293613e7","null","null","<p style=""font-size: 60px; font-family: BACS"">NQZvQGb</p>","","","","","","","",""
"html-keyboard-response","123","390854","0.0-9.0-0.35","60d87fdab51e54fe4863f97f","64afc2c9a8732ea92db0087d","64afcdd2c01bbc89293613e7","null","null","<p style=""font-size: 60px; font-family: BACS"">DBlhCmYA</p>","","","","","","","",""
"html-keyboard-response","124","391856","0.0-9.0-0.36","60d87fdab51e54fe4863f97f","64afc2c9a8732ea92db0087d","64afcdd2c01bbc89293613e7","null","null","<p style=""font-size: 60px; font-family: BACS"">LdQvkJdr</p>","","","","","","","",""
"html-keyboard-response","125","392858","0.0-9.0-0.37","60d87fdab51e54fe4863f97f","64afc2c9a8732ea92db0087d","64afcdd2c01bbc89293613e7","null","null","<p style=""font-size: 60px; font-family: BACS"">NQZvAZbl</p>","","","","","","","",""
"html-keyboard-response","126","393860","0.0-9.0-0.38","60d87fdab51e54fe4863f97f","64afc2c9a8732ea92db0087d","64afcdd2c01bbc89293613e7","null","null","<p style=""font-size: 60px; font-family: BACS"">CkBOPCmYA</p>","","","","","","","",""
"html-keyboard-response","127","394862","0.0-9.0-0.39","60d87fdab51e54fe4863f97f","64afc2c9a8732ea92db0087d","64afcdd2c01bbc89293613e7","null","null","<p style=""font-size: 60px; font-family: BACS"">AlNUAZbl</p>","","","","","","","",""
"html-keyboard-response","128","395864","0.0-9.0-0.40","60d87fdab51e54fe4863f97f","64afc2c9a8732ea92db0087d","64afcdd2c01bbc89293613e7","null","null","<p style=""font-size: 60px; font-family: BACS"">tmtEMABb</p>","","","","","","","",""
"html-keyboard-response","129","396865","0.0-9.0-0.41","60d87fdab51e54fe4863f97f","64afc2c9a8732ea92db0087d","64afcdd2c01bbc89293613e7","null","null","<p style=""font-size: 60px; font-family: BACS"">rGUAYkJdr</p>","","","","","","","",""
"html-keyboard-response","130","397866","0.0-9.0-0.42","60d87fdab51e54fe4863f97f","64afc2c9a8732ea92db0087d","64afcdd2c01bbc89293613e7","null","null","<p style=""font-size: 60px; font-family: BACS"">NLQGmOJNk</p>","","","","","","","",""
"html-keyboard-response","131","398868","0.0-9.0-0.43","60d87fdab51e54fe4863f97f","64afc2c9a8732ea92db0087d","64afcdd2c01bbc89293613e7","null","null","<p style=""font-size: 60px; font-family: BACS"">kdaAJkGua</p>","","","","","","","",""
"html-keyboard-response","132","399869","0.0-9.0-0.44","60d87fdab51e54fe4863f97f","64afc2c9a8732ea92db0087d","64afcdd2c01bbc89293613e7","null","null","<p style=""font-size: 60px; font-family: BACS"">DOchltAY</p>","","","","","","","",""
"html-keyboard-response","133","400870","0.0-9.0-0.45","60d87fdab51e54fe4863f97f","64afc2c9a8732ea92db0087d","64afcdd2c01bbc89293613e7","null","null","<p style=""font-size: 60px; font-family: BACS"">YLQmGOJNk</p>","","","","","","","",""
"html-keyboard-response","134","401871","0.0-9.0-0.46","60d87fdab51e54fe4863f97f","64afc2c9a8732ea92db0087d","64afcdd2c01bbc89293613e7","null","null","<p style=""font-size: 60px; font-family: BACS"">CmcOmKcD</p>","","","","","","","",""
"html-keyboard-response","135","402872","0.0-9.0-0.47","60d87fdab51e54fe4863f97f","64afc2c9a8732ea92db0087d","64afcdd2c01bbc89293613e7","null","null","<p style=""font-size: 60px; font-family: BACS"">NLQGmkJdr</p>","","","","","","","",""
"html-keyboard-response","136","403874","0.0-9.0-0.48","60d87fdab51e54fe4863f97f","64afc2c9a8732ea92db0087d","64afcdd2c01bbc89293613e7","null","null","<p style=""font-size: 60px; font-family: BACS"">mdkKmKcD</p>","","","","","","","",""
"html-keyboard-response","137","404875","0.0-9.0-0.49","60d87fdab51e54fe4863f97f","64afc2c9a8732ea92db0087d","64afcdd2c01bbc89293613e7","null","null","<p style=""font-size: 60px; font-family: BACS"">LdQvOJNk</p>","","","","","","","",""
"html-keyboard-response","138","405876","0.0-9.0-0.50","60d87fdab51e54fe4863f97f","64afc2c9a8732ea92db0087d","64afcdd2c01bbc89293613e7","null","null","<p style=""font-size: 60px; font-family: BACS"">mdkKABb</p>","","","","","","","",""
"html-keyboard-response","139","406877","0.0-9.0-0.51","60d87fdab51e54fe4863f97f","64afc2c9a8732ea92db0087d","64afcdd2c01bbc89293613e7","null","null","<p style=""font-size: 60px; font-family: BACS"">YLQmGkJdr</p>","","","","","","","",""
"html-keyboard-response","140","407879","0.0-9.0-0.52","60d87fdab51e54fe4863f97f","64afc2c9a8732ea92db0087d","64afcdd2c01bbc89293613e7","null","null","<p style=""font-size: 60px; font-family: BACS"">BbODmKcD</p>","","","","","","","",""
"html-keyboard-response","141","408881","0.0-9.0-0.53","60d87fdab51e54fe4863f97f","64afc2c9a8732ea92db0087d","64afcdd2c01bbc89293613e7","null","null","<p style=""font-size: 60px; font-family: BACS"">LdQvQGb</p>","","","","","","","",""
"html-keyboard-response","142","409882","0.0-9.0-0.54","60d87fdab51e54fe4863f97f","64afc2c9a8732ea92db0087d","64afcdd2c01bbc89293613e7","null","null","<p style=""font-size: 60px; font-family: BACS"">rGUAYkGua</p>","","","","","","","",""
"html-keyboard-response","143","410883","0.0-9.0-0.55","60d87fdab51e54fe4863f97f","64afc2c9a8732ea92db0087d","64afcdd2c01bbc89293613e7","null","null","<p style=""font-size: 60px; font-family: BACS"">mdkKCmYA</p>","","","","","","","",""
"html-keyboard-response","144","411884","0.0-9.0-0.56","60d87fdab51e54fe4863f97f","64afc2c9a8732ea92db0087d","64afcdd2c01bbc89293613e7","null","null","<p style=""font-size: 60px; font-family: BACS"">YZJmAZbl</p>","","","","","","","",""
"html-keyboard-response","145","412885","0.0-9.0-0.57","60d87fdab51e54fe4863f97f","64afc2c9a8732ea92db0087d","64afcdd2c01bbc89293613e7","null","null","<p style=""font-size: 60px; font-family: BACS"">DOchlmKcD</p>","","","","","","","",""
"html-keyboard-response","146","413887","0.0-9.0-0.58","60d87fdab51e54fe4863f97f","64afc2c9a8732ea92db0087d","64afcdd2c01bbc89293613e7","null","null","<p style=""font-size: 60px; font-family: BACS"">vJabQGb</p>","","","","","","","",""
"html-keyboard-response","147","414889","0.0-9.0-0.59","60d87fdab51e54fe4863f97f","64afc2c9a8732ea92db0087d","64afcdd2c01bbc89293613e7","null","null","<p style=""font-size: 60px; font-family: BACS"">vuJZuAZbl</p>","","","","","","","",""
"html-keyboard-response","148","415890","0.0-9.0-0.60","60d87fdab51e54fe4863f97f","64afc2c9a8732ea92db0087d","64afcdd2c01bbc89293613e7","null","null","<p style=""font-size: 60px; font-family: BACS"">rGUAYQGb</p>","","","","","","","",""
"html-keyboard-response","149","416892","0.0-9.0-0.61","60d87fdab51e54fe4863f97f","64afc2c9a8732ea92db0087d","64afcdd2c01bbc89293613e7","null","null","<p style=""font-size: 60px; font-family: BACS"">COTKtAY</p>","","","","","","","",""
"html-keyboard-response","150","417894","0.0-9.0-0.62","60d87fdab51e54fe4863f97f","64afc2c9a8732ea92db0087d","64afcdd2c01bbc89293613e7","null","null","<p style=""font-size: 60px; font-family: BACS"">YZJmkJdr</p>","","","","","","","",""
"html-keyboard-response","151","418895","0.0-9.0-0.63","60d87fdab51e54fe4863f97f","64afc2c9a8732ea92db0087d","64afcdd2c01bbc89293613e7","null","null","<p style=""font-size: 60px; font-family: BACS"">DOchlABb</p>","","","","","","","",""
"html-keyboard-response","152","419897","0.0-9.0-0.64","60d87fdab51e54fe4863f97f","64afc2c9a8732ea92db0087d","64afcdd2c01bbc89293613e7","null","null","<p style=""font-size: 60px; font-family: BACS"">MBmEmKcD</p>","","","","","","","",""
"html-keyboard-response","153","420898","0.0-9.0-0.65","60d87fdab51e54fe4863f97f","64afc2c9a8732ea92db0087d","64afcdd2c01bbc89293613e7","null","null","<p style=""font-size: 60px; font-family: BACS"">AlNUkJdr</p>","","","","","","","",""
"html-keyboard-response","154","421899","0.0-9.0-0.66","60d87fdab51e54fe4863f97f","64afc2c9a8732ea92db0087d","64afcdd2c01bbc89293613e7","null","null","<p style=""font-size: 60px; font-family: BACS"">YLQmGkGua</p>","","","","","","","",""
"html-keyboard-response","155","422901","0.0-9.0-0.67","60d87fdab51e54fe4863f97f","64afc2c9a8732ea92db0087d","64afcdd2c01bbc89293613e7","null","null","<p style=""font-size: 60px; font-family: BACS"">BbODBRDh</p>","","","","","","","",""
"html-keyboard-response","156","423903","0.0-9.0-0.68","60d87fdab51e54fe4863f97f","64afc2c9a8732ea92db0087d","64afcdd2c01bbc89293613e7","null","null","<p style=""font-size: 60px; font-family: BACS"">MBmEABb</p>","","","","","","","",""
"html-keyboard-response","157","424904","0.0-9.0-0.69","60d87fdab51e54fe4863f97f","64afc2c9a8732ea92db0087d","64afcdd2c01bbc89293613e7","null","null","<p style=""font-size: 60px; font-family: BACS"">tmtEMmKcD</p>","","","","","","","",""
"html-keyboard-response","158","425906","0.0-9.0-0.70","60d87fdab51e54fe4863f97f","64afc2c9a8732ea92db0087d","64afcdd2c01bbc89293613e7","null","null","<p style=""font-size: 60px; font-family: BACS"">YZJmOJNk</p>","","","","","","","",""
"html-keyboard-response","159","426907","0.0-9.0-0.71","60d87fdab51e54fe4863f97f","64afc2c9a8732ea92db0087d","64afcdd2c01bbc89293613e7","null","null","<p style=""font-size: 60px; font-family: BACS"">MBmECmYA</p>","","","","","","","",""
"html-keyboard-response","160","427909","0.0-9.0-0.72","60d87fdab51e54fe4863f97f","64afc2c9a8732ea92db0087d","64afcdd2c01bbc89293613e7","null","null","<p style=""font-size: 60px; font-family: BACS"">CmcOBRDh</p>","","","","","","","",""
"html-keyboard-response","161","428911","0.0-9.0-0.73","60d87fdab51e54fe4863f97f","64afc2c9a8732ea92db0087d","64afcdd2c01bbc89293613e7","null","null","<p style=""font-size: 60px; font-family: BACS"">vJabAZbl</p>","","","","","","","",""
"html-keyboard-response","162","429913","0.0-9.0-0.74","60d87fdab51e54fe4863f97f","64afc2c9a8732ea92db0087d","64afcdd2c01bbc89293613e7","null","null","<p style=""font-size: 60px; font-family: BACS"">vuJZukJdr</p>","","","","","","","",""
"html-keyboard-response","163","430913","0.0-9.0-0.75","60d87fdab51e54fe4863f97f","64afc2c9a8732ea92db0087d","64afcdd2c01bbc89293613e7","null","null","<p style=""font-size: 60px; font-family: BACS"">CmcOCmYA</p>","","","","","","","",""
"html-keyboard-response","164","431915","0.0-9.0-0.76","60d87fdab51e54fe4863f97f","64afc2c9a8732ea92db0087d","64afcdd2c01bbc89293613e7","null","null","<p style=""font-size: 60px; font-family: BACS"">tmtEMBRDh</p>","","","","","","","",""
"html-keyboard-response","165","432916","0.0-9.0-0.77","60d87fdab51e54fe4863f97f","64afc2c9a8732ea92db0087d","64afcdd2c01bbc89293613e7","null","null","<p style=""font-size: 60px; font-family: BACS"">BbODCmYA</p>","","","","","","","",""
"html-keyboard-response","166","433918","0.0-9.0-0.78","60d87fdab51e54fe4863f97f","64afc2c9a8732ea92db0087d","64afcdd2c01bbc89293613e7","null","null","<p style=""font-size: 60px; font-family: BACS"">NLQGmQGb</p>","","","","","","","",""
"html-keyboard-response","167","434920","0.0-9.0-0.79","60d87fdab51e54fe4863f97f","64afc2c9a8732ea92db0087d","64afcdd2c01bbc89293613e7","null","null","<p style=""font-size: 60px; font-family: BACS"">BbODtAY</p>","","","","","","","",""
"html-keyboard-response","168","457983","0.0-10.0","60d87fdab51e54fe4863f97f","64afc2c9a8732ea92db0087d","64afcdd2c01bbc89293613e7","23062"," ","<p>Ottimo, hai visto il secondo blocco di parole. Ora puoi prenderti una piccola pausa.</p>
      <p>Premi la barra quando sei pronta/o per riprendere.</p>","","","","","","","",""
"html-keyboard-response","169","458984","0.0-11.0-0.0","60d87fdab51e54fe4863f97f","64afc2c9a8732ea92db0087d","64afcdd2c01bbc89293613e7","null","null","<p style=""font-size: 60px; font-family: BACS"">NQZvAZbl</p>","","","","","","","",""
"html-keyboard-response","170","459985","0.0-11.0-0.1","60d87fdab51e54fe4863f97f","64afc2c9a8732ea92db0087d","64afcdd2c01bbc89293613e7","null","null","<p style=""font-size: 60px; font-family: BACS"">COTKCmYA</p>","","","","","","","",""
"html-keyboard-response","171","460987","0.0-11.0-0.2","60d87fdab51e54fe4863f97f","64afc2c9a8732ea92db0087d","64afcdd2c01bbc89293613e7","null","null","<p style=""font-size: 60px; font-family: BACS"">YLQmGOJNk</p>","","","","","","","",""
"html-keyboard-response","172","461988","0.0-11.0-0.3","60d87fdab51e54fe4863f97f","64afc2c9a8732ea92db0087d","64afcdd2c01bbc89293613e7","null","null","<p style=""font-size: 60px; font-family: BACS"">CmcOmKcD</p>","","","","","","","",""
"html-keyboard-response","173","462990","0.0-11.0-0.4","60d87fdab51e54fe4863f97f","64afc2c9a8732ea92db0087d","64afcdd2c01bbc89293613e7","null","null","<p style=""font-size: 60px; font-family: BACS"">CkBOPCmYA</p>","","","","","","","",""
"html-keyboard-response","174","463991","0.0-11.0-0.5","60d87fdab51e54fe4863f97f","64afc2c9a8732ea92db0087d","64afcdd2c01bbc89293613e7","null","null","<p style=""font-size: 60px; font-family: BACS"">tmtEMABb</p>","","","","","","","",""
"html-keyboard-response","175","464992","0.0-11.0-0.6","60d87fdab51e54fe4863f97f","64afc2c9a8732ea92db0087d","64afcdd2c01bbc89293613e7","null","null","<p style=""font-size: 60px; font-family: BACS"">YLQmGkJdr</p>","","","","","","","",""
"html-keyboard-response","176","465993","0.0-11.0-0.7","60d87fdab51e54fe4863f97f","64afc2c9a8732ea92db0087d","64afcdd2c01bbc89293613e7","null","null","<p style=""font-size: 60px; font-family: BACS"">NLQGmkGua</p>","","","","","","","",""
"html-keyboard-response","177","466994","0.0-11.0-0.8","60d87fdab51e54fe4863f97f","64afc2c9a8732ea92db0087d","64afcdd2c01bbc89293613e7","null","null","<p style=""font-size: 60px; font-family: BACS"">LdQvAZbl</p>","","","","","","","",""
"html-keyboard-response","178","467994","0.0-11.0-0.9","60d87fdab51e54fe4863f97f","64afc2c9a8732ea92db0087d","64afcdd2c01bbc89293613e7","null","null","<p style=""font-size: 60px; font-family: BACS"">mdkKABb</p>","","","","","","","",""
"html-keyboard-response","179","468996","0.0-11.0-0.10","60d87fdab51e54fe4863f97f","64afc2c9a8732ea92db0087d","64afcdd2c01bbc89293613e7","null","null","<p style=""font-size: 60px; font-family: BACS"">AlNUkJdr</p>","","","","","","","",""
"html-keyboard-response","180","469998","0.0-11.0-0.11","60d87fdab51e54fe4863f97f","64afc2c9a8732ea92db0087d","64afcdd2c01bbc89293613e7","null","null","<p style=""font-size: 60px; font-family: BACS"">YLQmGQGb</p>","","","","","","","",""
"html-keyboard-response","181","471000","0.0-11.0-0.12","60d87fdab51e54fe4863f97f","64afc2c9a8732ea92db0087d","64afcdd2c01bbc89293613e7","null","null","<p style=""font-size: 60px; font-family: BACS"">BbODmKcD</p>","","","","","","","",""
"html-keyboard-response","182","472000","0.0-11.0-0.13","60d87fdab51e54fe4863f97f","64afc2c9a8732ea92db0087d","64afcdd2c01bbc89293613e7","null","null","<p style=""font-size: 60px; font-family: BACS"">vJabOJNk</p>","","","","","","","",""
"html-keyboard-response","183","473001","0.0-11.0-0.14","60d87fdab51e54fe4863f97f","64afc2c9a8732ea92db0087d","64afcdd2c01bbc89293613e7","null","null","<p style=""font-size: 60px; font-family: BACS"">YLQmGkGua</p>","","","","","","","",""
"html-keyboard-response","184","474003","0.0-11.0-0.15","60d87fdab51e54fe4863f97f","64afc2c9a8732ea92db0087d","64afcdd2c01bbc89293613e7","null","null","<p style=""font-size: 60px; font-family: BACS"">MBmEABb</p>","","","","","","","",""
"html-keyboard-response","185","475005","0.0-11.0-0.16","60d87fdab51e54fe4863f97f","64afc2c9a8732ea92db0087d","64afcdd2c01bbc89293613e7","null","null","<p style=""font-size: 60px; font-family: BACS"">AlNUOJNk</p>","","","","","","","",""
"html-keyboard-response","186","476007","0.0-11.0-0.17","60d87fdab51e54fe4863f97f","64afc2c9a8732ea92db0087d","64afcdd2c01bbc89293613e7","null","null","<p style=""font-size: 60px; font-family: BACS"">rGUAYkJdr</p>","","","","","","","",""
"html-keyboard-response","187","477008","0.0-11.0-0.18","60d87fdab51e54fe4863f97f","64afc2c9a8732ea92db0087d","64afcdd2c01bbc89293613e7","null","null","<p style=""font-size: 60px; font-family: BACS"">vuJZukGua</p>","","","","","","","",""
"html-keyboard-response","188","478009","0.0-11.0-0.19","60d87fdab51e54fe4863f97f","64afc2c9a8732ea92db0087d","64afcdd2c01bbc89293613e7","null","null","<p style=""font-size: 60px; font-family: BACS"">CmcOCmYA</p>","","","","","","","",""
"html-keyboard-response","189","479010","0.0-11.0-0.20","60d87fdab51e54fe4863f97f","64afc2c9a8732ea92db0087d","64afcdd2c01bbc89293613e7","null","null","<p style=""font-size: 60px; font-family: BACS"">rGUAYkGua</p>","","","","","","","",""
"html-keyboard-response","190","480013","0.0-11.0-0.21","60d87fdab51e54fe4863f97f","64afc2c9a8732ea92db0087d","64afcdd2c01bbc89293613e7","null","null","<p style=""font-size: 60px; font-family: BACS"">vuJZuQGb</p>","","","","","","","",""
"html-keyboard-response","191","481014","0.0-11.0-0.22","60d87fdab51e54fe4863f97f","64afc2c9a8732ea92db0087d","64afcdd2c01bbc89293613e7","null","null","<p style=""font-size: 60px; font-family: BACS"">BbODtAY</p>","","","","","","","",""
"html-keyboard-response","192","482016","0.0-11.0-0.23","60d87fdab51e54fe4863f97f","64afc2c9a8732ea92db0087d","64afcdd2c01bbc89293613e7","null","null","<p style=""font-size: 60px; font-family: BACS"">tmtEMBRDh</p>","","","","","","","",""
"html-keyboard-response","193","483024","0.0-11.0-0.24","60d87fdab51e54fe4863f97f","64afc2c9a8732ea92db0087d","64afcdd2c01bbc89293613e7","null","null","<p style=""font-size: 60px; font-family: BACS"">vJabQGb</p>","","","","","","","",""
"html-keyboard-response","194","484025","0.0-11.0-0.25","60d87fdab51e54fe4863f97f","64afc2c9a8732ea92db0087d","64afcdd2c01bbc89293613e7","null","null","<p style=""font-size: 60px; font-family: BACS"">NLQGmOJNk</p>","","","","","","","",""
"html-keyboard-response","195","485026","0.0-11.0-0.26","60d87fdab51e54fe4863f97f","64afc2c9a8732ea92db0087d","64afcdd2c01bbc89293613e7","null","null","<p style=""font-size: 60px; font-family: BACS"">mdkKCmYA</p>","","","","","","","",""
"html-keyboard-response","196","486027","0.0-11.0-0.27","60d87fdab51e54fe4863f97f","64afc2c9a8732ea92db0087d","64afcdd2c01bbc89293613e7","null","null","<p style=""font-size: 60px; font-family: BACS"">LdQvkJdr</p>","","","","","","","",""
"html-keyboard-response","197","487029","0.0-11.0-0.28","60d87fdab51e54fe4863f97f","64afc2c9a8732ea92db0087d","64afcdd2c01bbc89293613e7","null","null","<p style=""font-size: 60px; font-family: BACS"">kdaAJAZbl</p>","","","","","","","",""
"html-keyboard-response","198","488030","0.0-11.0-0.29","60d87fdab51e54fe4863f97f","64afc2c9a8732ea92db0087d","64afcdd2c01bbc89293613e7","null","null","<p style=""font-size: 60px; font-family: BACS"">NLQGmkJdr</p>","","","","","","","",""
"html-keyboard-response","199","489032","0.0-11.0-0.30","60d87fdab51e54fe4863f97f","64afc2c9a8732ea92db0087d","64afcdd2c01bbc89293613e7","null","null","<p style=""font-size: 60px; font-family: BACS"">AlNUkGua</p>","","","","","","","",""
"html-keyboard-response","200","490034","0.0-11.0-0.31","60d87fdab51e54fe4863f97f","64afc2c9a8732ea92db0087d","64afcdd2c01bbc89293613e7","null","null","<p style=""font-size: 60px; font-family: BACS"">vuJZukJdr</p>","","","","","","","",""
"html-keyboard-response","201","491035","0.0-11.0-0.32","60d87fdab51e54fe4863f97f","64afc2c9a8732ea92db0087d","64afcdd2c01bbc89293613e7","null","null","<p style=""font-size: 60px; font-family: BACS"">DBlhtAY</p>","","","","","","","",""
"html-keyboard-response","202","492036","0.0-11.0-0.33","60d87fdab51e54fe4863f97f","64afc2c9a8732ea92db0087d","64afcdd2c01bbc89293613e7","null","null","<p style=""font-size: 60px; font-family: BACS"">vJabAZbl</p>","","","","","","","",""
"html-keyboard-response","203","493037","0.0-11.0-0.34","60d87fdab51e54fe4863f97f","64afc2c9a8732ea92db0087d","64afcdd2c01bbc89293613e7","null","null","<p style=""font-size: 60px; font-family: BACS"">NQZvQGb</p>","","","","","","","",""
"html-keyboard-response","204","494038","0.0-11.0-0.35","60d87fdab51e54fe4863f97f","64afc2c9a8732ea92db0087d","64afcdd2c01bbc89293613e7","null","null","<p style=""font-size: 60px; font-family: BACS"">DOchlABb</p>","","","","","","","",""
"html-keyboard-response","205","495040","0.0-11.0-0.36","60d87fdab51e54fe4863f97f","64afc2c9a8732ea92db0087d","64afcdd2c01bbc89293613e7","null","null","<p style=""font-size: 60px; font-family: BACS"">tmtEMtAY</p>","","","","","","","",""
"html-keyboard-response","206","496041","0.0-11.0-0.37","60d87fdab51e54fe4863f97f","64afc2c9a8732ea92db0087d","64afcdd2c01bbc89293613e7","null","null","<p style=""font-size: 60px; font-family: BACS"">YZJmkGua</p>","","","","","","","",""
"html-keyboard-response","207","497043","0.0-11.0-0.38","60d87fdab51e54fe4863f97f","64afc2c9a8732ea92db0087d","64afcdd2c01bbc89293613e7","null","null","<p style=""font-size: 60px; font-family: BACS"">kdaAJQGb</p>","","","","","","","",""
"html-keyboard-response","208","498045","0.0-11.0-0.39","60d87fdab51e54fe4863f97f","64afc2c9a8732ea92db0087d","64afcdd2c01bbc89293613e7","null","null","<p style=""font-size: 60px; font-family: BACS"">DOchlmKcD</p>","","","","","","","",""
"html-keyboard-response","209","499047","0.0-11.0-0.40","60d87fdab51e54fe4863f97f","64afc2c9a8732ea92db0087d","64afcdd2c01bbc89293613e7","null","null","<p style=""font-size: 60px; font-family: BACS"">CmcOBRDh</p>","","","","","","","",""
"html-keyboard-response","210","500048","0.0-11.0-0.41","60d87fdab51e54fe4863f97f","64afc2c9a8732ea92db0087d","64afcdd2c01bbc89293613e7","null","null","<p style=""font-size: 60px; font-family: BACS"">vuJZuAZbl</p>","","","","","","","",""
"html-keyboard-response","211","501050","0.0-11.0-0.42","60d87fdab51e54fe4863f97f","64afc2c9a8732ea92db0087d","64afcdd2c01bbc89293613e7","null","null","<p style=""font-size: 60px; font-family: BACS"">COTKmKcD</p>","","","","","","","",""
"html-keyboard-response","212","502052","0.0-11.0-0.43","60d87fdab51e54fe4863f97f","64afc2c9a8732ea92db0087d","64afcdd2c01bbc89293613e7","null","null","<p style=""font-size: 60px; font-family: BACS"">LdQvOJNk</p>","","","","","","","",""
"html-keyboard-response","213","503054","0.0-11.0-0.44","60d87fdab51e54fe4863f97f","64afc2c9a8732ea92db0087d","64afcdd2c01bbc89293613e7","null","null","<p style=""font-size: 60px; font-family: BACS"">CmcOABb</p>","","","","","","","",""
"html-keyboard-response","214","504055","0.0-11.0-0.45","60d87fdab51e54fe4863f97f","64afc2c9a8732ea92db0087d","64afcdd2c01bbc89293613e7","null","null","<p style=""font-size: 60px; font-family: BACS"">MBmEtAY</p>","","","","","","","",""
"html-keyboard-response","215","505057","0.0-11.0-0.46","60d87fdab51e54fe4863f97f","64afc2c9a8732ea92db0087d","64afcdd2c01bbc89293613e7","null","null","<p style=""font-size: 60px; font-family: BACS"">BbODCmYA</p>","","","","","","","",""
"html-keyboard-response","216","506058","0.0-11.0-0.47","60d87fdab51e54fe4863f97f","64afc2c9a8732ea92db0087d","64afcdd2c01bbc89293613e7","null","null","<p style=""font-size: 60px; font-family: BACS"">tmtEMmKcD</p>","","","","","","","",""
"html-keyboard-response","217","507059","0.0-11.0-0.48","60d87fdab51e54fe4863f97f","64afc2c9a8732ea92db0087d","64afcdd2c01bbc89293613e7","null","null","<p style=""font-size: 60px; font-family: BACS"">kdaAJOJNk</p>","","","","","","","",""
"html-keyboard-response","218","508061","0.0-11.0-0.49","60d87fdab51e54fe4863f97f","64afc2c9a8732ea92db0087d","64afcdd2c01bbc89293613e7","null","null","<p style=""font-size: 60px; font-family: BACS"">LdQvQGb</p>","","","","","","","",""
"html-keyboard-response","219","509062","0.0-11.0-0.50","60d87fdab51e54fe4863f97f","64afc2c9a8732ea92db0087d","64afcdd2c01bbc89293613e7","null","null","<p style=""font-size: 60px; font-family: BACS"">DOchlBRDh</p>","","","","","","","",""
"html-keyboard-response","220","510064","0.0-11.0-0.51","60d87fdab51e54fe4863f97f","64afc2c9a8732ea92db0087d","64afcdd2c01bbc89293613e7","null","null","<p style=""font-size: 60px; font-family: BACS"">CkBOPtAY</p>","","","","","","","",""
"html-keyboard-response","221","511065","0.0-11.0-0.52","60d87fdab51e54fe4863f97f","64afc2c9a8732ea92db0087d","64afcdd2c01bbc89293613e7","null","null","<p style=""font-size: 60px; font-family: BACS"">EPERdABb</p>","","","","","","","",""
"html-keyboard-response","222","512066","0.0-11.0-0.53","60d87fdab51e54fe4863f97f","64afc2c9a8732ea92db0087d","64afcdd2c01bbc89293613e7","null","null","<p style=""font-size: 60px; font-family: BACS"">mdkKmKcD</p>","","","","","","","",""
"html-keyboard-response","223","513068","0.0-11.0-0.54","60d87fdab51e54fe4863f97f","64afc2c9a8732ea92db0087d","64afcdd2c01bbc89293613e7","null","null","<p style=""font-size: 60px; font-family: BACS"">YZJmkJdr</p>","","","","","","","",""
"html-keyboard-response","224","514069","0.0-11.0-0.55","60d87fdab51e54fe4863f97f","64afc2c9a8732ea92db0087d","64afcdd2c01bbc89293613e7","null","null","<p style=""font-size: 60px; font-family: BACS"">BbODBRDh</p>","","","","","","","",""
"html-keyboard-response","225","515070","0.0-11.0-0.56","60d87fdab51e54fe4863f97f","64afc2c9a8732ea92db0087d","64afcdd2c01bbc89293613e7","null","null","<p style=""font-size: 60px; font-family: BACS"">NLQGmQGb</p>","","","","","","","",""
"html-keyboard-response","226","516072","0.0-11.0-0.57","60d87fdab51e54fe4863f97f","64afc2c9a8732ea92db0087d","64afcdd2c01bbc89293613e7","null","null","<p style=""font-size: 60px; font-family: BACS"">DBlhABb</p>","","","","","","","",""
"html-keyboard-response","227","517073","0.0-11.0-0.58","60d87fdab51e54fe4863f97f","64afc2c9a8732ea92db0087d","64afcdd2c01bbc89293613e7","null","null","<p style=""font-size: 60px; font-family: BACS"">MBmECmYA</p>","","","","","","","",""
"html-keyboard-response","228","518074","0.0-11.0-0.59","60d87fdab51e54fe4863f97f","64afc2c9a8732ea92db0087d","64afcdd2c01bbc89293613e7","null","null","<p style=""font-size: 60px; font-family: BACS"">DOchltAY</p>","","","","","","","",""
"html-keyboard-response","229","519075","0.0-11.0-0.60","60d87fdab51e54fe4863f97f","64afc2c9a8732ea92db0087d","64afcdd2c01bbc89293613e7","null","null","<p style=""font-size: 60px; font-family: BACS"">rGUAYAZbl</p>","","","","","","","",""
"html-keyboard-response","230","520077","0.0-11.0-0.61","60d87fdab51e54fe4863f97f","64afc2c9a8732ea92db0087d","64afcdd2c01bbc89293613e7","null","null","<p style=""font-size: 60px; font-family: BACS"">EPERdBRDh</p>","","","","","","","",""
"html-keyboard-response","231","521078","0.0-11.0-0.62","60d87fdab51e54fe4863f97f","64afc2c9a8732ea92db0087d","64afcdd2c01bbc89293613e7","null","null","<p style=""font-size: 60px; font-family: BACS"">NQZvkJdr</p>","","","","","","","",""
"html-keyboard-response","232","522080","0.0-11.0-0.63","60d87fdab51e54fe4863f97f","64afc2c9a8732ea92db0087d","64afcdd2c01bbc89293613e7","null","null","<p style=""font-size: 60px; font-family: BACS"">YZJmOJNk</p>","","","","","","","",""
"html-keyboard-response","233","523082","0.0-11.0-0.64","60d87fdab51e54fe4863f97f","64afc2c9a8732ea92db0087d","64afcdd2c01bbc89293613e7","null","null","<p style=""font-size: 60px; font-family: BACS"">DBlhCmYA</p>","","","","","","","",""
"html-keyboard-response","234","524086","0.0-11.0-0.65","60d87fdab51e54fe4863f97f","64afc2c9a8732ea92db0087d","64afcdd2c01bbc89293613e7","null","null","<p style=""font-size: 60px; font-family: BACS"">AlNUAZbl</p>","","","","","","","",""
"html-keyboard-response","235","525087","0.0-11.0-0.66","60d87fdab51e54fe4863f97f","64afc2c9a8732ea92db0087d","64afcdd2c01bbc89293613e7","null","null","<p style=""font-size: 60px; font-family: BACS"">CkBOPBRDh</p>","","","","","","","",""
"html-keyboard-response","236","526089","0.0-11.0-0.67","60d87fdab51e54fe4863f97f","64afc2c9a8732ea92db0087d","64afcdd2c01bbc89293613e7","null","null","<p style=""font-size: 60px; font-family: BACS"">kdaAJkGua</p>","","","","","","","",""
"html-keyboard-response","237","527091","0.0-11.0-0.68","60d87fdab51e54fe4863f97f","64afc2c9a8732ea92db0087d","64afcdd2c01bbc89293613e7","null","null","<p style=""font-size: 60px; font-family: BACS"">mdkKtAY</p>","","","","","","","",""
"html-keyboard-response","238","528093","0.0-11.0-0.69","60d87fdab51e54fe4863f97f","64afc2c9a8732ea92db0087d","64afcdd2c01bbc89293613e7","null","null","<p style=""font-size: 60px; font-family: BACS"">vJabkGua</p>","","","","","","","",""
"html-keyboard-response","239","529095","0.0-11.0-0.70","60d87fdab51e54fe4863f97f","64afc2c9a8732ea92db0087d","64afcdd2c01bbc89293613e7","null","null","<p style=""font-size: 60px; font-family: BACS"">CkBOPABb</p>","","","","","","","",""
"html-keyboard-response","240","530096","0.0-11.0-0.71","60d87fdab51e54fe4863f97f","64afc2c9a8732ea92db0087d","64afcdd2c01bbc89293613e7","null","null","<p style=""font-size: 60px; font-family: BACS"">rGUAYQGb</p>","","","","","","","",""
"html-keyboard-response","241","531098","0.0-11.0-0.72","60d87fdab51e54fe4863f97f","64afc2c9a8732ea92db0087d","64afcdd2c01bbc89293613e7","null","null","<p style=""font-size: 60px; font-family: BACS"">COTKBRDh</p>","","","","","","","",""
"html-keyboard-response","242","532099","0.0-11.0-0.73","60d87fdab51e54fe4863f97f","64afc2c9a8732ea92db0087d","64afcdd2c01bbc89293613e7","null","null","<p style=""font-size: 60px; font-family: BACS"">EPERdmKcD</p>","","","","","","","",""
"html-keyboard-response","243","533101","0.0-11.0-0.74","60d87fdab51e54fe4863f97f","64afc2c9a8732ea92db0087d","64afcdd2c01bbc89293613e7","null","null","<p style=""font-size: 60px; font-family: BACS"">COTKtAY</p>","","","","","","","",""
"html-keyboard-response","244","534103","0.0-11.0-0.75","60d87fdab51e54fe4863f97f","64afc2c9a8732ea92db0087d","64afcdd2c01bbc89293613e7","null","null","<p style=""font-size: 60px; font-family: BACS"">YZJmAZbl</p>","","","","","","","",""
"html-keyboard-response","245","535104","0.0-11.0-0.76","60d87fdab51e54fe4863f97f","64afc2c9a8732ea92db0087d","64afcdd2c01bbc89293613e7","null","null","<p style=""font-size: 60px; font-family: BACS"">NQZvOJNk</p>","","","","","","","",""
"html-keyboard-response","246","536106","0.0-11.0-0.77","60d87fdab51e54fe4863f97f","64afc2c9a8732ea92db0087d","64afcdd2c01bbc89293613e7","null","null","<p style=""font-size: 60px; font-family: BACS"">MBmEmKcD</p>","","","","","","","",""
"html-keyboard-response","247","537107","0.0-11.0-0.78","60d87fdab51e54fe4863f97f","64afc2c9a8732ea92db0087d","64afcdd2c01bbc89293613e7","null","null","<p style=""font-size: 60px; font-family: BACS"">DBlhBRDh</p>","","","","","","","",""
"html-keyboard-response","248","538108","0.0-11.0-0.79","60d87fdab51e54fe4863f97f","64afc2c9a8732ea92db0087d","64afcdd2c01bbc89293613e7","null","null","<p style=""font-size: 60px; font-family: BACS"">EPERdCmYA</p>","","","","","","","",""
"html-keyboard-response","249","558502","0.0-12.0","60d87fdab51e54fe4863f97f","64afc2c9a8732ea92db0087d","64afcdd2c01bbc89293613e7","20393"," ","<p>Ottimo, hai visto il terzo blocco di parole. Ora puoi prenderti una piccola pausa.</p>
      <p>Premi la barra quando sei pronta/o per riprendere.</p>","","","","","","","",""
"html-keyboard-response","250","559504","0.0-13.0-0.0","60d87fdab51e54fe4863f97f","64afc2c9a8732ea92db0087d","64afcdd2c01bbc89293613e7","null","null","<p style=""font-size: 60px; font-family: BACS"">mdkKmKcD</p>","","","","","","","",""
"html-keyboard-response","251","560505","0.0-13.0-0.1","60d87fdab51e54fe4863f97f","64afc2c9a8732ea92db0087d","64afcdd2c01bbc89293613e7","null","null","<p style=""font-size: 60px; font-family: BACS"">EPERdBRDh</p>","","","","","","","",""
"html-keyboard-response","252","561507","0.0-13.0-0.2","60d87fdab51e54fe4863f97f","64afc2c9a8732ea92db0087d","64afcdd2c01bbc89293613e7","null","null","<p style=""font-size: 60px; font-family: BACS"">DOchltAY</p>","","","","","","","",""
"html-keyboard-response","253","562508","0.0-13.0-0.3","60d87fdab51e54fe4863f97f","64afc2c9a8732ea92db0087d","64afcdd2c01bbc89293613e7","null","null","<p style=""font-size: 60px; font-family: BACS"">YZJmAZbl</p>","","","","","","","",""
"html-keyboard-response","254","563509","0.0-13.0-0.4","60d87fdab51e54fe4863f97f","64afc2c9a8732ea92db0087d","64afcdd2c01bbc89293613e7","null","null","<p style=""font-size: 60px; font-family: BACS"">COTKCmYA</p>","","","","","","","",""
"html-keyboard-response","255","564510","0.0-13.0-0.5","60d87fdab51e54fe4863f97f","64afc2c9a8732ea92db0087d","64afcdd2c01bbc89293613e7","null","null","<p style=""font-size: 60px; font-family: BACS"">CmcOmKcD</p>","","","","","","","",""
"html-keyboard-response","256","565512","0.0-13.0-0.6","60d87fdab51e54fe4863f97f","64afc2c9a8732ea92db0087d","64afcdd2c01bbc89293613e7","null","null","<p style=""font-size: 60px; font-family: BACS"">BbODtAY</p>","","","","","","","",""
"html-keyboard-response","257","566514","0.0-13.0-0.7","60d87fdab51e54fe4863f97f","64afc2c9a8732ea92db0087d","64afcdd2c01bbc89293613e7","null","null","<p style=""font-size: 60px; font-family: BACS"">YLQmGkJdr</p>","","","","","","","",""
"html-keyboard-response","258","567515","0.0-13.0-0.8","60d87fdab51e54fe4863f97f","64afc2c9a8732ea92db0087d","64afcdd2c01bbc89293613e7","null","null","<p style=""font-size: 60px; font-family: BACS"">LdQvQGb</p>","","","","","","","",""
"html-keyboard-response","259","568516","0.0-13.0-0.9","60d87fdab51e54fe4863f97f","64afc2c9a8732ea92db0087d","64afcdd2c01bbc89293613e7","null","null","<p style=""font-size: 60px; font-family: BACS"">MBmECmYA</p>","","","","","","","",""
"html-keyboard-response","260","569518","0.0-13.0-0.10","60d87fdab51e54fe4863f97f","64afc2c9a8732ea92db0087d","64afcdd2c01bbc89293613e7","null","null","<p style=""font-size: 60px; font-family: BACS"">DBlhtAY</p>","","","","","","","",""
"html-keyboard-response","261","570519","0.0-13.0-0.11","60d87fdab51e54fe4863f97f","64afc2c9a8732ea92db0087d","64afcdd2c01bbc89293613e7","null","null","<p style=""font-size: 60px; font-family: BACS"">LdQvkJdr</p>","","","","","","","",""
"html-keyboard-response","262","571520","0.0-13.0-0.12","60d87fdab51e54fe4863f97f","64afc2c9a8732ea92db0087d","64afcdd2c01bbc89293613e7","null","null","<p style=""font-size: 60px; font-family: BACS"">BbODCmYA</p>","","","","","","","",""
"html-keyboard-response","263","572522","0.0-13.0-0.13","60d87fdab51e54fe4863f97f","64afc2c9a8732ea92db0087d","64afcdd2c01bbc89293613e7","null","null","<p style=""font-size: 60px; font-family: BACS"">tmtEMBRDh</p>","","","","","","","",""
"html-keyboard-response","264","573524","0.0-13.0-0.14","60d87fdab51e54fe4863f97f","64afc2c9a8732ea92db0087d","64afcdd2c01bbc89293613e7","null","null","<p style=""font-size: 60px; font-family: BACS"">rGUAYkJdr</p>","","","","","","","",""
"html-keyboard-response","265","574525","0.0-13.0-0.15","60d87fdab51e54fe4863f97f","64afc2c9a8732ea92db0087d","64afcdd2c01bbc89293613e7","null","null","<p style=""font-size: 60px; font-family: BACS"">vuJZuQGb</p>","","","","","","","",""
"html-keyboard-response","266","575526","0.0-13.0-0.16","60d87fdab51e54fe4863f97f","64afc2c9a8732ea92db0087d","64afcdd2c01bbc89293613e7","null","null","<p style=""font-size: 60px; font-family: BACS"">BbODBRDh</p>","","","","","","","",""
"html-keyboard-response","267","576527","0.0-13.0-0.17","60d87fdab51e54fe4863f97f","64afc2c9a8732ea92db0087d","64afcdd2c01bbc89293613e7","null","null","<p style=""font-size: 60px; font-family: BACS"">mdkKtAY</p>","","","","","","","",""
"html-keyboard-response","268","577528","0.0-13.0-0.18","60d87fdab51e54fe4863f97f","64afc2c9a8732ea92db0087d","64afcdd2c01bbc89293613e7","null","null","<p style=""font-size: 60px; font-family: BACS"">CmcOABb</p>","","","","","","","",""
"html-keyboard-response","269","578529","0.0-13.0-0.19","60d87fdab51e54fe4863f97f","64afc2c9a8732ea92db0087d","64afcdd2c01bbc89293613e7","null","null","<p style=""font-size: 60px; font-family: BACS"">tmtEMtAY</p>","","","","","","","",""
"html-keyboard-response","270","579529","0.0-13.0-0.20","60d87fdab51e54fe4863f97f","64afc2c9a8732ea92db0087d","64afcdd2c01bbc89293613e7","null","null","<p style=""font-size: 60px; font-family: BACS"">DBlhBRDh</p>","","","","","","","",""
"html-keyboard-response","271","580531","0.0-13.0-0.21","60d87fdab51e54fe4863f97f","64afc2c9a8732ea92db0087d","64afcdd2c01bbc89293613e7","null","null","<p style=""font-size: 60px; font-family: BACS"">YLQmGOJNk</p>","","","","","","","",""
"html-keyboard-response","272","581532","0.0-13.0-0.22","60d87fdab51e54fe4863f97f","64afc2c9a8732ea92db0087d","64afcdd2c01bbc89293613e7","null","null","<p style=""font-size: 60px; font-family: BACS"">vuJZukJdr</p>","","","","","","","",""
"html-keyboard-response","273","582533","0.0-13.0-0.23","60d87fdab51e54fe4863f97f","64afc2c9a8732ea92db0087d","64afcdd2c01bbc89293613e7","null","null","<p style=""font-size: 60px; font-family: BACS"">NLQGmOJNk</p>","","","","","","","",""
"html-keyboard-response","274","583534","0.0-13.0-0.24","60d87fdab51e54fe4863f97f","64afc2c9a8732ea92db0087d","64afcdd2c01bbc89293613e7","null","null","<p style=""font-size: 60px; font-family: BACS"">tmtEMABb</p>","","","","","","","",""
"html-keyboard-response","275","584536","0.0-13.0-0.25","60d87fdab51e54fe4863f97f","64afc2c9a8732ea92db0087d","64afcdd2c01bbc89293613e7","null","null","<p style=""font-size: 60px; font-family: BACS"">rGUAYAZbl</p>","","","","","","","",""
"html-keyboard-response","276","585537","0.0-13.0-0.26","60d87fdab51e54fe4863f97f","64afc2c9a8732ea92db0087d","64afcdd2c01bbc89293613e7","null","null","<p style=""font-size: 60px; font-family: BACS"">AlNUOJNk</p>","","","","","","","",""
"html-keyboard-response","277","586538","0.0-13.0-0.27","60d87fdab51e54fe4863f97f","64afc2c9a8732ea92db0087d","64afcdd2c01bbc89293613e7","null","null","<p style=""font-size: 60px; font-family: BACS"">COTKBRDh</p>","","","","","","","",""
"html-keyboard-response","278","587538","0.0-13.0-0.28","60d87fdab51e54fe4863f97f","64afc2c9a8732ea92db0087d","64afcdd2c01bbc89293613e7","null","null","<p style=""font-size: 60px; font-family: BACS"">MBmEtAY</p>","","","","","","","",""
"html-keyboard-response","279","588539","0.0-13.0-0.29","60d87fdab51e54fe4863f97f","64afc2c9a8732ea92db0087d","64afcdd2c01bbc89293613e7","null","null","<p style=""font-size: 60px; font-family: BACS"">CmcOCmYA</p>","","","","","","","",""
"html-keyboard-response","280","589540","0.0-13.0-0.30","60d87fdab51e54fe4863f97f","64afc2c9a8732ea92db0087d","64afcdd2c01bbc89293613e7","null","null","<p style=""font-size: 60px; font-family: BACS"">YZJmkGua</p>","","","","","","","",""
"html-keyboard-response","281","590542","0.0-13.0-0.31","60d87fdab51e54fe4863f97f","64afc2c9a8732ea92db0087d","64afcdd2c01bbc89293613e7","null","null","<p style=""font-size: 60px; font-family: BACS"">mdkKABb</p>","","","","","","","",""
"html-keyboard-response","282","591543","0.0-13.0-0.32","60d87fdab51e54fe4863f97f","64afc2c9a8732ea92db0087d","64afcdd2c01bbc89293613e7","null","null","<p style=""font-size: 60px; font-family: BACS"">YLQmGkGua</p>","","","","","","","",""
"html-keyboard-response","283","592544","0.0-13.0-0.33","60d87fdab51e54fe4863f97f","64afc2c9a8732ea92db0087d","64afcdd2c01bbc89293613e7","null","null","<p style=""font-size: 60px; font-family: BACS"">COTKmKcD</p>","","","","","","","",""
"html-keyboard-response","284","593545","0.0-13.0-0.34","60d87fdab51e54fe4863f97f","64afc2c9a8732ea92db0087d","64afcdd2c01bbc89293613e7","null","null","<p style=""font-size: 60px; font-family: BACS"">mdkKCmYA</p>","","","","","","","",""
"html-keyboard-response","285","594547","0.0-13.0-0.35","60d87fdab51e54fe4863f97f","64afc2c9a8732ea92db0087d","64afcdd2c01bbc89293613e7","null","null","<p style=""font-size: 60px; font-family: BACS"">NQZvkJdr</p>","","","","","","","",""
"html-keyboard-response","286","595548","0.0-13.0-0.36","60d87fdab51e54fe4863f97f","64afc2c9a8732ea92db0087d","64afcdd2c01bbc89293613e7","null","null","<p style=""font-size: 60px; font-family: BACS"">YLQmGQGb</p>","","","","","","","",""
"html-keyboard-response","287","596549","0.0-13.0-0.37","60d87fdab51e54fe4863f97f","64afc2c9a8732ea92db0087d","64afcdd2c01bbc89293613e7","null","null","<p style=""font-size: 60px; font-family: BACS"">YZJmOJNk</p>","","","","","","","",""
"html-keyboard-response","288","597550","0.0-13.0-0.38","60d87fdab51e54fe4863f97f","64afc2c9a8732ea92db0087d","64afcdd2c01bbc89293613e7","null","null","<p style=""font-size: 60px; font-family: BACS"">AlNUkGua</p>","","","","","","","",""
"html-keyboard-response","289","598551","0.0-13.0-0.39","60d87fdab51e54fe4863f97f","64afc2c9a8732ea92db0087d","64afcdd2c01bbc89293613e7","null","null","<p style=""font-size: 60px; font-family: BACS"">kdaAJAZbl</p>","","","","","","","",""
"html-keyboard-response","290","599553","0.0-13.0-0.40","60d87fdab51e54fe4863f97f","64afc2c9a8732ea92db0087d","64afcdd2c01bbc89293613e7","null","null","<p style=""font-size: 60px; font-family: BACS"">CkBOPBRDh</p>","","","","","","","",""
"html-keyboard-response","291","600554","0.0-13.0-0.41","60d87fdab51e54fe4863f97f","64afc2c9a8732ea92db0087d","64afcdd2c01bbc89293613e7","null","null","<p style=""font-size: 60px; font-family: BACS"">AlNUkJdr</p>","","","","","","","",""
"html-keyboard-response","292","601556","0.0-13.0-0.42","60d87fdab51e54fe4863f97f","64afc2c9a8732ea92db0087d","64afcdd2c01bbc89293613e7","null","null","<p style=""font-size: 60px; font-family: BACS"">DBlhCmYA</p>","","","","","","","",""
"html-keyboard-response","293","602557","0.0-13.0-0.43","60d87fdab51e54fe4863f97f","64afc2c9a8732ea92db0087d","64afcdd2c01bbc89293613e7","null","null","<p style=""font-size: 60px; font-family: BACS"">LdQvAZbl</p>","","","","","","","",""
"html-keyboard-response","294","603558","0.0-13.0-0.44","60d87fdab51e54fe4863f97f","64afc2c9a8732ea92db0087d","64afcdd2c01bbc89293613e7","null","null","<p style=""font-size: 60px; font-family: BACS"">DOchlmKcD</p>","","","","","","","",""
"html-keyboard-response","295","604560","0.0-13.0-0.45","60d87fdab51e54fe4863f97f","64afc2c9a8732ea92db0087d","64afcdd2c01bbc89293613e7","null","null","<p style=""font-size: 60px; font-family: BACS"">DBlhABb</p>","","","","","","","",""
"html-keyboard-response","296","605561","0.0-13.0-0.46","60d87fdab51e54fe4863f97f","64afc2c9a8732ea92db0087d","64afcdd2c01bbc89293613e7","null","null","<p style=""font-size: 60px; font-family: BACS"">EPERdmKcD</p>","","","","","","","",""
"html-keyboard-response","297","606563","0.0-13.0-0.47","60d87fdab51e54fe4863f97f","64afc2c9a8732ea92db0087d","64afcdd2c01bbc89293613e7","null","null","<p style=""font-size: 60px; font-family: BACS"">CkBOPtAY</p>","","","","","","","",""
"html-keyboard-response","298","607565","0.0-13.0-0.48","60d87fdab51e54fe4863f97f","64afc2c9a8732ea92db0087d","64afcdd2c01bbc89293613e7","null","null","<p style=""font-size: 60px; font-family: BACS"">vJabAZbl</p>","","","","","","","",""
"html-keyboard-response","299","608566","0.0-13.0-0.49","60d87fdab51e54fe4863f97f","64afc2c9a8732ea92db0087d","64afcdd2c01bbc89293613e7","null","null","<p style=""font-size: 60px; font-family: BACS"">DOchlBRDh</p>","","","","","","","",""
"html-keyboard-response","300","609568","0.0-13.0-0.50","60d87fdab51e54fe4863f97f","64afc2c9a8732ea92db0087d","64afcdd2c01bbc89293613e7","null","null","<p style=""font-size: 60px; font-family: BACS"">kdaAJOJNk</p>","","","","","","","",""
"html-keyboard-response","301","610570","0.0-13.0-0.51","60d87fdab51e54fe4863f97f","64afc2c9a8732ea92db0087d","64afcdd2c01bbc89293613e7","null","null","<p style=""font-size: 60px; font-family: BACS"">COTKtAY</p>","","","","","","","",""
"html-keyboard-response","302","611571","0.0-13.0-0.52","60d87fdab51e54fe4863f97f","64afc2c9a8732ea92db0087d","64afcdd2c01bbc89293613e7","null","null","<p style=""font-size: 60px; font-family: BACS"">BbODmKcD</p>","","","","","","","",""
"html-keyboard-response","303","612572","0.0-13.0-0.53","60d87fdab51e54fe4863f97f","64afc2c9a8732ea92db0087d","64afcdd2c01bbc89293613e7","null","null","<p style=""font-size: 60px; font-family: BACS"">vJabQGb</p>","","","","","","","",""
"html-keyboard-response","304","613573","0.0-13.0-0.54","60d87fdab51e54fe4863f97f","64afc2c9a8732ea92db0087d","64afcdd2c01bbc89293613e7","null","null","<p style=""font-size: 60px; font-family: BACS"">CmcOBRDh</p>","","","","","","","",""
"html-keyboard-response","305","614574","0.0-13.0-0.55","60d87fdab51e54fe4863f97f","64afc2c9a8732ea92db0087d","64afcdd2c01bbc89293613e7","null","null","<p style=""font-size: 60px; font-family: BACS"">vuJZukGua</p>","","","","","","","",""
"html-keyboard-response","306","615575","0.0-13.0-0.56","60d87fdab51e54fe4863f97f","64afc2c9a8732ea92db0087d","64afcdd2c01bbc89293613e7","null","null","<p style=""font-size: 60px; font-family: BACS"">NQZvQGb</p>","","","","","","","",""
"html-keyboard-response","307","616576","0.0-13.0-0.57","60d87fdab51e54fe4863f97f","64afc2c9a8732ea92db0087d","64afcdd2c01bbc89293613e7","null","null","<p style=""font-size: 60px; font-family: BACS"">EPERdABb</p>","","","","","","","",""
"html-keyboard-response","308","617578","0.0-13.0-0.58","60d87fdab51e54fe4863f97f","64afc2c9a8732ea92db0087d","64afcdd2c01bbc89293613e7","null","null","<p style=""font-size: 60px; font-family: BACS"">YZJmkJdr</p>","","","","","","","",""
"html-keyboard-response","309","618579","0.0-13.0-0.59","60d87fdab51e54fe4863f97f","64afc2c9a8732ea92db0087d","64afcdd2c01bbc89293613e7","null","null","<p style=""font-size: 60px; font-family: BACS"">rGUAYQGb</p>","","","","","","","",""
"html-keyboard-response","310","619581","0.0-13.0-0.60","60d87fdab51e54fe4863f97f","64afc2c9a8732ea92db0087d","64afcdd2c01bbc89293613e7","null","null","<p style=""font-size: 60px; font-family: BACS"">vJabOJNk</p>","","","","","","","",""
"html-keyboard-response","311","620583","0.0-13.0-0.61","60d87fdab51e54fe4863f97f","64afc2c9a8732ea92db0087d","64afcdd2c01bbc89293613e7","null","null","<p style=""font-size: 60px; font-family: BACS"">DOchlABb</p>","","","","","","","",""
"html-keyboard-response","312","621585","0.0-13.0-0.62","60d87fdab51e54fe4863f97f","64afc2c9a8732ea92db0087d","64afcdd2c01bbc89293613e7","null","null","<p style=""font-size: 60px; font-family: BACS"">LdQvOJNk</p>","","","","","","","",""
"html-keyboard-response","313","622587","0.0-13.0-0.63","60d87fdab51e54fe4863f97f","64afc2c9a8732ea92db0087d","64afcdd2c01bbc89293613e7","null","null","<p style=""font-size: 60px; font-family: BACS"">EPERdCmYA</p>","","","","","","","",""
"html-keyboard-response","314","623588","0.0-13.0-0.64","60d87fdab51e54fe4863f97f","64afc2c9a8732ea92db0087d","64afcdd2c01bbc89293613e7","null","null","<p style=""font-size: 60px; font-family: BACS"">AlNUAZbl</p>","","","","","","","",""
"html-keyboard-response","315","624589","0.0-13.0-0.65","60d87fdab51e54fe4863f97f","64afc2c9a8732ea92db0087d","64afcdd2c01bbc89293613e7","null","null","<p style=""font-size: 60px; font-family: BACS"">CkBOPCmYA</p>","","","","","","","",""
"html-keyboard-response","316","625591","0.0-13.0-0.66","60d87fdab51e54fe4863f97f","64afc2c9a8732ea92db0087d","64afcdd2c01bbc89293613e7","null","null","<p style=""font-size: 60px; font-family: BACS"">kdaAJkGua</p>","","","","","","","",""
"html-keyboard-response","317","626592","0.0-13.0-0.67","60d87fdab51e54fe4863f97f","64afc2c9a8732ea92db0087d","64afcdd2c01bbc89293613e7","null","null","<p style=""font-size: 60px; font-family: BACS"">NQZvAZbl</p>","","","","","","","",""
"html-keyboard-response","318","627593","0.0-13.0-0.68","60d87fdab51e54fe4863f97f","64afc2c9a8732ea92db0087d","64afcdd2c01bbc89293613e7","null","null","<p style=""font-size: 60px; font-family: BACS"">kdaAJQGb</p>","","","","","","","",""
"html-keyboard-response","319","628594","0.0-13.0-0.69","60d87fdab51e54fe4863f97f","64afc2c9a8732ea92db0087d","64afcdd2c01bbc89293613e7","null","null","<p style=""font-size: 60px; font-family: BACS"">NLQGmkGua</p>","","","","","","","",""
"html-keyboard-response","320","629595","0.0-13.0-0.70","60d87fdab51e54fe4863f97f","64afc2c9a8732ea92db0087d","64afcdd2c01bbc89293613e7","null","null","<p style=""font-size: 60px; font-family: BACS"">MBmEmKcD</p>","","","","","","","",""
"html-keyboard-response","321","630597","0.0-13.0-0.71","60d87fdab51e54fe4863f97f","64afc2c9a8732ea92db0087d","64afcdd2c01bbc89293613e7","null","null","<p style=""font-size: 60px; font-family: BACS"">vJabkGua</p>","","","","","","","",""
"html-keyboard-response","322","631599","0.0-13.0-0.72","60d87fdab51e54fe4863f97f","64afc2c9a8732ea92db0087d","64afcdd2c01bbc89293613e7","null","null","<p style=""font-size: 60px; font-family: BACS"">CkBOPABb</p>","","","","","","","",""
"html-keyboard-response","323","632600","0.0-13.0-0.73","60d87fdab51e54fe4863f97f","64afc2c9a8732ea92db0087d","64afcdd2c01bbc89293613e7","null","null","<p style=""font-size: 60px; font-family: BACS"">NQZvOJNk</p>","","","","","","","",""
"html-keyboard-response","324","633601","0.0-13.0-0.74","60d87fdab51e54fe4863f97f","64afc2c9a8732ea92db0087d","64afcdd2c01bbc89293613e7","null","null","<p style=""font-size: 60px; font-family: BACS"">NLQGmkJdr</p>","","","","","","","",""
"html-keyboard-response","325","634603","0.0-13.0-0.75","60d87fdab51e54fe4863f97f","64afc2c9a8732ea92db0087d","64afcdd2c01bbc89293613e7","null","null","<p style=""font-size: 60px; font-family: BACS"">rGUAYkGua</p>","","","","","","","",""
"html-keyboard-response","326","635605","0.0-13.0-0.76","60d87fdab51e54fe4863f97f","64afc2c9a8732ea92db0087d","64afcdd2c01bbc89293613e7","null","null","<p style=""font-size: 60px; font-family: BACS"">tmtEMmKcD</p>","","","","","","","",""
"html-keyboard-response","327","636607","0.0-13.0-0.77","60d87fdab51e54fe4863f97f","64afc2c9a8732ea92db0087d","64afcdd2c01bbc89293613e7","null","null","<p style=""font-size: 60px; font-family: BACS"">MBmEABb</p>","","","","","","","",""
"html-keyboard-response","328","637609","0.0-13.0-0.78","60d87fdab51e54fe4863f97f","64afc2c9a8732ea92db0087d","64afcdd2c01bbc89293613e7","null","null","<p style=""font-size: 60px; font-family: BACS"">NLQGmQGb</p>","","","","","","","",""
"html-keyboard-response","329","638611","0.0-13.0-0.79","60d87fdab51e54fe4863f97f","64afc2c9a8732ea92db0087d","64afcdd2c01bbc89293613e7","null","null","<p style=""font-size: 60px; font-family: BACS"">vuJZuAZbl</p>","","","","","","","",""
"html-keyboard-response","330","651795","0.0-14.0","60d87fdab51e54fe4863f97f","64afc2c9a8732ea92db0087d","64afcdd2c01bbc89293613e7","13183"," ","<p>Ottimo! Hai visto tutte le parole che abbiamo ricevuto dallo spazio.</p>
      <p>Premi la barra quando sei pronta/o per continuare.</p>","","","","","","","",""
"html-keyboard-response","331","723388","0.0-15.0","60d87fdab51e54fe4863f97f","64afc2c9a8732ea92db0087d","64afcdd2c01bbc89293613e7","71592"," ","<p>In questa seconda parte, vedrai delle nuove parole che abbiamo ricevuto dallo stesso gruppo di alieni, e altre che invece provengono da un'altra comunicazione, con un altro gruppo di alieni. Purtroppo le due comunicazioni non arrivano a noi separatamente, per cui le parole sono mescolate tra loro. Il tuo compito sarà quello di individuare le parole che provengono dal gruppo che hai studiato nella prima parte dell'esperimento.</p>
      <p>Questo compito non è per nulla facile; le due comunicazioni infatti usano gli stessi caratteri. Il tuo meeting con i leader mondiali inizia tra poco, per cui non avrai molto tempo per prendere la tua decisione; dovrai essere veloce. Cerca di fare del tuo meglio usando la tua intuizione; non hai tempo di stare a pensare a lungo su ogni singola parola.</p>
      <p>Premi <strong>k</strong> quando pensi che la parola che stai vedendo sia degli stessi alieni che hai studiato prima, e <strong>d</strong> quando invece pensi che la parola che stai vedendo venga dall'altra comunicazione, con il nuovo gruppo di alieni.</p><p>Premi la barra quando sei pronta/o per iniziare.</p>","","","","","","","",""
"html-keyboard-response","332","730814","0.0-16.0-0.0","60d87fdab51e54fe4863f97f","64afc2c9a8732ea92db0087d","64afcdd2c01bbc89293613e7","7425","k","<p style=""font-size: 30px;"">La parola viene del gruppo di alieni che hai studiato prima?</p><br><p style=""font-size: 60px; font-family: BACS"">kdaAJkJdr<p style=""font-size: 15px"">Premi <strong>k</strong> per sì, <strong>d</strong> per no.</p>","","kdaAJkJdr","testing","k","true","","",""
"html-keyboard-response","333","739914","0.0-16.0-1.0-0.0","60d87fdab51e54fe4863f97f","64afc2c9a8732ea92db0087d","64afcdd2c01bbc89293613e7","9097"," ","<p style=""font-size: 30px; color: red"">Attenzione! Sei stato troppo lento con questa parola.</p>
      <p style=""font-size: 30px; color: red"">Cerca di essere più veloce.</p><p></p><p>Premi la barra per continuare.</p>","","","","","","","",""
"html-keyboard-response","334","742385","0.0-16.0-0.1","60d87fdab51e54fe4863f97f","64afc2c9a8732ea92db0087d","64afcdd2c01bbc89293613e7","2470","k","<p style=""font-size: 30px;"">La parola viene del gruppo di alieni che hai studiato prima?</p><br><p style=""font-size: 60px; font-family: BACS"">vJabABb<p style=""font-size: 15px"">Premi <strong>k</strong> per sì, <strong>d</strong> per no.</p>","","vJabABb","testing","d","false","","",""
"html-keyboard-response","335","745611","0.0-16.0-1.1-0.1","60d87fdab51e54fe4863f97f","64afc2c9a8732ea92db0087d","64afcdd2c01bbc89293613e7","3225"," ","<p style=""font-size: 30px; color: red"">Attenzione! Sei stato troppo lento con questa parola.</p>
      <p style=""font-size: 30px; color: red"">Cerca di essere più veloce.</p><p></p><p>Premi la barra per continuare.</p>","","","","","","","",""
"html-keyboard-response","336","746863","0.0-16.0-0.2","60d87fdab51e54fe4863f97f","64afc2c9a8732ea92db0087d","64afcdd2c01bbc89293613e7","1251","k","<p style=""font-size: 30px;"">La parola viene del gruppo di alieni che hai studiato prima?</p><br><p style=""font-size: 60px; font-family: BACS"">BbODkJdr<p style=""font-size: 15px"">Premi <strong>k</strong> per sì, <strong>d</strong> per no.</p>","","BbODkJdr","testing","d","false","","",""
"html-keyboard-response","337","747832","0.0-16.0-0.3","60d87fdab51e54fe4863f97f","64afc2c9a8732ea92db0087d","64afcdd2c01bbc89293613e7","969","k","<p style=""font-size: 30px"">&emsp;</p><br><p style=""font-size: 60px; font-family: BACS"">MBmEBRDh<p style=""font-size: 15px"">Premi <strong>k</strong> per sì, <strong>d</strong> per no.</p>","","MBmEBRDh","testing","k","true","","",""
"html-keyboard-response","338","749037","0.0-16.0-0.4","60d87fdab51e54fe4863f97f","64afc2c9a8732ea92db0087d","64afcdd2c01bbc89293613e7","1204","d","<p style=""font-size: 30px"">&emsp;</p><br><p style=""font-size: 60px; font-family: BACS"">DOchlAZbl<p style=""font-size: 15px"">Premi <strong>k</strong> per sì, <strong>d</strong> per no.</p>","","DOchlAZbl","testing","d","true","","",""
"html-keyboard-response","339","749913","0.0-16.0-0.5","60d87fdab51e54fe4863f97f","64afc2c9a8732ea92db0087d","64afcdd2c01bbc89293613e7","875","k","<p style=""font-size: 30px"">&emsp;</p><br><p style=""font-size: 60px; font-family: BACS"">AlNUmKcD<p style=""font-size: 15px"">Premi <strong>k</strong> per sì, <strong>d</strong> per no.</p>","","AlNUmKcD","testing","d","false","","",""
"html-keyboard-response","340","750747","0.0-16.0-0.6","60d87fdab51e54fe4863f97f","64afc2c9a8732ea92db0087d","64afcdd2c01bbc89293613e7","833","k","<p style=""font-size: 30px"">&emsp;</p><br><p style=""font-size: 60px; font-family: BACS"">EPERdkGua<p style=""font-size: 15px"">Premi <strong>k</strong> per sì, <strong>d</strong> per no.</p>","","EPERdkGua","testing","d","false","","",""
"html-keyboard-response","341","751621","0.0-16.0-0.7","60d87fdab51e54fe4863f97f","64afc2c9a8732ea92db0087d","64afcdd2c01bbc89293613e7","873","k","<p style=""font-size: 30px"">&emsp;</p><br><p style=""font-size: 60px; font-family: BACS"">MBmEOJNk<p style=""font-size: 15px"">Premi <strong>k</strong> per sì, <strong>d</strong> per no.</p>","","MBmEOJNk","testing","d","false","","",""
"html-keyboard-response","342","752530","0.0-16.0-0.8","60d87fdab51e54fe4863f97f","64afc2c9a8732ea92db0087d","64afcdd2c01bbc89293613e7","908","k","<p style=""font-size: 30px"">&emsp;</p><br><p style=""font-size: 60px; font-family: BACS"">YLQmGCmYA<p style=""font-size: 15px"">Premi <strong>k</strong> per sì, <strong>d</strong> per no.</p>","","YLQmGCmYA","testing","d","false","","",""
"html-keyboard-response","343","753593","0.0-16.0-0.9","60d87fdab51e54fe4863f97f","64afc2c9a8732ea92db0087d","64afcdd2c01bbc89293613e7","1062","k","<p style=""font-size: 30px"">&emsp;</p><br><p style=""font-size: 60px; font-family: BACS"">NLQGmAZbl<p style=""font-size: 15px"">Premi <strong>k</strong> per sì, <strong>d</strong> per no.</p>","","NLQGmAZbl","testing","k","true","","",""
"html-keyboard-response","344","754543","0.0-16.0-0.10","60d87fdab51e54fe4863f97f","64afc2c9a8732ea92db0087d","64afcdd2c01bbc89293613e7","949","d","<p style=""font-size: 30px"">&emsp;</p><br><p style=""font-size: 60px; font-family: BACS"">CkBOPmKcD<p style=""font-size: 15px"">Premi <strong>k</strong> per sì, <strong>d</strong> per no.</p>","","CkBOPmKcD","testing","k","false","","",""
"html-keyboard-response","345","755321","0.0-16.0-0.11","60d87fdab51e54fe4863f97f","64afc2c9a8732ea92db0087d","64afcdd2c01bbc89293613e7","777","k","<p style=""font-size: 30px"">&emsp;</p><br><p style=""font-size: 60px; font-family: BACS"">LdQvkGua<p style=""font-size: 15px"">Premi <strong>k</strong> per sì, <strong>d</strong> per no.</p>","","LdQvkGua","testing","k","true","","",""
"html-keyboard-response","346","756137","0.0-16.0-0.12","60d87fdab51e54fe4863f97f","64afc2c9a8732ea92db0087d","64afcdd2c01bbc89293613e7","816","k","<p style=""font-size: 30px"">&emsp;</p><br><p style=""font-size: 60px; font-family: BACS"">YZJmQGb<p style=""font-size: 15px"">Premi <strong>k</strong> per sì, <strong>d</strong> per no.</p>","","YZJmQGb","testing","k","true","","",""
"html-keyboard-response","347","756931","0.0-16.0-0.13","60d87fdab51e54fe4863f97f","64afc2c9a8732ea92db0087d","64afcdd2c01bbc89293613e7","793","k","<p style=""font-size: 30px"">&emsp;</p><br><p style=""font-size: 60px; font-family: BACS"">BbODABb<p style=""font-size: 15px"">Premi <strong>k</strong> per sì, <strong>d</strong> per no.</p>","","BbODABb","testing","k","true","","",""
"html-keyboard-response","348","757984","0.0-16.0-0.14","60d87fdab51e54fe4863f97f","64afc2c9a8732ea92db0087d","64afcdd2c01bbc89293613e7","1052","k","<p style=""font-size: 30px"">&emsp;</p><br><p style=""font-size: 60px; font-family: BACS"">rGUAYOJNk<p style=""font-size: 15px"">Premi <strong>k</strong> per sì, <strong>d</strong> per no.</p>","","rGUAYOJNk","testing","k","true","","",""
"html-keyboard-response","349","758888","0.0-16.0-0.15","60d87fdab51e54fe4863f97f","64afc2c9a8732ea92db0087d","64afcdd2c01bbc89293613e7","903","d","<p style=""font-size: 30px"">&emsp;</p><br><p style=""font-size: 60px; font-family: BACS"">mdkKBRDh<p style=""font-size: 15px"">Premi <strong>k</strong> per sì, <strong>d</strong> per no.</p>","","mdkKBRDh","testing","k","false","","",""
"html-keyboard-response","350","759326","0.0-16.0-0.16","60d87fdab51e54fe4863f97f","64afc2c9a8732ea92db0087d","64afcdd2c01bbc89293613e7","438","k","<p style=""font-size: 30px"">&emsp;</p><br><p style=""font-size: 60px; font-family: BACS"">tmtEMAZbl<p style=""font-size: 15px"">Premi <strong>k</strong> per sì, <strong>d</strong> per no.</p>","","tmtEMAZbl","testing","d","false","","",""
"html-keyboard-response","351","760304","0.0-16.0-0.17","60d87fdab51e54fe4863f97f","64afc2c9a8732ea92db0087d","64afcdd2c01bbc89293613e7","977","k","<p style=""font-size: 30px"">&emsp;</p><br><p style=""font-size: 60px; font-family: BACS"">NLQGmCmYA<p style=""font-size: 15px"">Premi <strong>k</strong> per sì, <strong>d</strong> per no.</p>","","NLQGmCmYA","testing","d","false","","",""
"html-keyboard-response","352","761479","0.0-16.0-0.18","60d87fdab51e54fe4863f97f","64afc2c9a8732ea92db0087d","64afcdd2c01bbc89293613e7","1174","k","<p style=""font-size: 30px"">&emsp;</p><br><p style=""font-size: 60px; font-family: BACS"">CkBOPQGb<p style=""font-size: 15px"">Premi <strong>k</strong> per sì, <strong>d</strong> per no.</p>","","CkBOPQGb","testing","d","false","","",""
"html-keyboard-response","353","762055","0.0-16.0-0.19","60d87fdab51e54fe4863f97f","64afc2c9a8732ea92db0087d","64afcdd2c01bbc89293613e7","575","d","<p style=""font-size: 30px"">&emsp;</p><br><p style=""font-size: 60px; font-family: BACS"">tmtEMCmYA<p style=""font-size: 15px"">Premi <strong>k</strong> per sì, <strong>d</strong> per no.</p>","","tmtEMCmYA","testing","k","false","","",""
"html-keyboard-response","354","763094","0.0-16.0-0.20","60d87fdab51e54fe4863f97f","64afc2c9a8732ea92db0087d","64afcdd2c01bbc89293613e7","1038","k","<p style=""font-size: 30px"">&emsp;</p><br><p style=""font-size: 60px; font-family: BACS"">vuJZuBRDh<p style=""font-size: 15px"">Premi <strong>k</strong> per sì, <strong>d</strong> per no.</p>","","vuJZuBRDh","testing","d","false","","",""
"html-keyboard-response","355","764009","0.0-16.0-0.21","60d87fdab51e54fe4863f97f","64afc2c9a8732ea92db0087d","64afcdd2c01bbc89293613e7","914","k","<p style=""font-size: 30px"">&emsp;</p><br><p style=""font-size: 60px; font-family: BACS"">YLQmGAZbl<p style=""font-size: 15px"">Premi <strong>k</strong> per sì, <strong>d</strong> per no.</p>","","YLQmGAZbl","testing","k","true","","",""
"html-keyboard-response","356","764857","0.0-16.0-0.22","60d87fdab51e54fe4863f97f","64afc2c9a8732ea92db0087d","64afcdd2c01bbc89293613e7","847","d","<p style=""font-size: 30px"">&emsp;</p><br><p style=""font-size: 60px; font-family: BACS"">DBlhmKcD<p style=""font-size: 15px"">Premi <strong>k</strong> per sì, <strong>d</strong> per no.</p>","","DBlhmKcD","testing","k","false","","",""
"html-keyboard-response","357","765440","0.0-16.0-0.23","60d87fdab51e54fe4863f97f","64afc2c9a8732ea92db0087d","64afcdd2c01bbc89293613e7","582","k","<p style=""font-size: 30px"">&emsp;</p><br><p style=""font-size: 60px; font-family: BACS"">kdaAJABb<p style=""font-size: 15px"">Premi <strong>k</strong> per sì, <strong>d</strong> per no.</p>","","kdaAJABb","testing","d","false","","",""
"html-keyboard-response","358","766482","0.0-16.0-0.24","60d87fdab51e54fe4863f97f","64afc2c9a8732ea92db0087d","64afcdd2c01bbc89293613e7","1041","d","<p style=""font-size: 30px"">&emsp;</p><br><p style=""font-size: 60px; font-family: BACS"">NQZvkGua<p style=""font-size: 15px"">Premi <strong>k</strong> per sì, <strong>d</strong> per no.</p>","","NQZvkGua","testing","k","false","","",""
"html-keyboard-response","359","767116","0.0-16.0-0.25","60d87fdab51e54fe4863f97f","64afc2c9a8732ea92db0087d","64afcdd2c01bbc89293613e7","634","k","<p style=""font-size: 30px"">&emsp;</p><br><p style=""font-size: 60px; font-family: BACS"">EPERdtAY<p style=""font-size: 15px"">Premi <strong>k</strong> per sì, <strong>d</strong> per no.</p>","","EPERdtAY","testing","k","true","","",""
"html-keyboard-response","360","768346","0.0-16.0-0.26","60d87fdab51e54fe4863f97f","64afc2c9a8732ea92db0087d","64afcdd2c01bbc89293613e7","1229","k","<p style=""font-size: 30px"">&emsp;</p><br><p style=""font-size: 60px; font-family: BACS"">COTKABb<p style=""font-size: 15px"">Premi <strong>k</strong> per sì, <strong>d</strong> per no.</p>","","COTKABb","testing","k","true","","",""
"html-keyboard-response","361","769594","0.0-16.0-0.27","60d87fdab51e54fe4863f97f","64afc2c9a8732ea92db0087d","64afcdd2c01bbc89293613e7","1248","d","<p style=""font-size: 30px"">&emsp;</p><br><p style=""font-size: 60px; font-family: BACS"">DBlhQGb<p style=""font-size: 15px"">Premi <strong>k</strong> per sì, <strong>d</strong> per no.</p>","","DBlhQGb","testing","d","true","","",""
"html-keyboard-response","362","770620","0.0-16.0-0.28","60d87fdab51e54fe4863f97f","64afc2c9a8732ea92db0087d","64afcdd2c01bbc89293613e7","1025","k","<p style=""font-size: 30px"">&emsp;</p><br><p style=""font-size: 60px; font-family: BACS"">NQZvtAY<p style=""font-size: 15px"">Premi <strong>k</strong> per sì, <strong>d</strong> per no.</p>","","NQZvtAY","testing","d","false","","",""
"html-keyboard-response","363","772347","0.0-16.0-0.29","60d87fdab51e54fe4863f97f","64afc2c9a8732ea92db0087d","64afcdd2c01bbc89293613e7","1726","k","<p style=""font-size: 30px"">&emsp;</p><br><p style=""font-size: 60px; font-family: BACS"">COTKkJdr<p style=""font-size: 15px"">Premi <strong>k</strong> per sì, <strong>d</strong> per no.</p>","","COTKkJdr","testing","d","false","","",""
"html-keyboard-response","364","773606","0.0-16.0-0.30","60d87fdab51e54fe4863f97f","64afc2c9a8732ea92db0087d","64afcdd2c01bbc89293613e7","1259","k","<p style=""font-size: 30px"">&emsp;</p><br><p style=""font-size: 60px; font-family: BACS"">vuJZuOJNk<p style=""font-size: 15px"">Premi <strong>k</strong> per sì, <strong>d</strong> per no.</p>","","vuJZuOJNk","testing","k","true","","",""
"html-keyboard-response","365","774344","0.0-16.0-0.31","60d87fdab51e54fe4863f97f","64afc2c9a8732ea92db0087d","64afcdd2c01bbc89293613e7","736","d","<p style=""font-size: 30px"">&emsp;</p><br><p style=""font-size: 60px; font-family: BACS"">vJabkJdr<p style=""font-size: 15px"">Premi <strong>k</strong> per sì, <strong>d</strong> per no.</p>","","vJabkJdr","testing","k","false","","",""
"html-keyboard-response","366","775273","0.0-16.0-0.32","60d87fdab51e54fe4863f97f","64afc2c9a8732ea92db0087d","64afcdd2c01bbc89293613e7","929","k","<p style=""font-size: 30px"">&emsp;</p><br><p style=""font-size: 60px; font-family: BACS"">CmcOkGua<p style=""font-size: 15px"">Premi <strong>k</strong> per sì, <strong>d</strong> per no.</p>","","CmcOkGua","testing","d","false","","",""
"html-keyboard-response","367","776092","0.0-16.0-0.33","60d87fdab51e54fe4863f97f","64afc2c9a8732ea92db0087d","64afcdd2c01bbc89293613e7","818","k","<p style=""font-size: 30px"">&emsp;</p><br><p style=""font-size: 60px; font-family: BACS"">rGUAYBRDh<p style=""font-size: 15px"">Premi <strong>k</strong> per sì, <strong>d</strong> per no.</p>","","rGUAYBRDh","testing","d","false","","",""
"html-keyboard-response","368","776988","0.0-16.0-0.34","60d87fdab51e54fe4863f97f","64afc2c9a8732ea92db0087d","64afcdd2c01bbc89293613e7","895","d","<p style=""font-size: 30px"">&emsp;</p><br><p style=""font-size: 60px; font-family: BACS"">YZJmmKcD<p style=""font-size: 15px"">Premi <strong>k</strong> per sì, <strong>d</strong> per no.</p>","","YZJmmKcD","testing","d","true","","",""
"html-keyboard-response","369","778119","0.0-16.0-0.35","60d87fdab51e54fe4863f97f","64afc2c9a8732ea92db0087d","64afcdd2c01bbc89293613e7","1130","k","<p style=""font-size: 30px"">&emsp;</p><br><p style=""font-size: 60px; font-family: BACS"">mdkKOJNk<p style=""font-size: 15px"">Premi <strong>k</strong> per sì, <strong>d</strong> per no.</p>","","mdkKOJNk","testing","d","false","","",""
"html-keyboard-response","370","779117","0.0-16.0-0.36","60d87fdab51e54fe4863f97f","64afc2c9a8732ea92db0087d","64afcdd2c01bbc89293613e7","997","k","<p style=""font-size: 30px"">&emsp;</p><br><p style=""font-size: 60px; font-family: BACS"">LdQvtAY<p style=""font-size: 15px"">Premi <strong>k</strong> per sì, <strong>d</strong> per no.</p>","","LdQvtAY","testing","d","false","","",""
