"trial_type","trial_index","time_elapsed","internal_node_id","subject_id","study_id","session_id","rt","response","stimulus","success","item","task","correct_response","testing_condition","correct","target","confound","name","view_history"
"pavlovia","0","1642","0.0-0.0","615b042301e3a24311563ee4","650c16f0f2faf8d7a0d14c09","651c1ca5a70859f21f006929","","","","","","","","","","","","",""
"survey-html-form","1","15665","0.0-1.0","615b042301e3a24311563ee4","650c16f0f2faf8d7a0d14c09","651c1ca5a70859f21f006929","14018","{""ID"":""615b042301e3a24311563ee4""}","","","","","","","","","","",""
"html-keyboard-response","2","90867","0.0-2.0","615b042301e3a24311563ee4","650c16f0f2faf8d7a0d14c09","651c1ca5a70859f21f006929","75197"," ","<p style=""font-size: 15px;"">Before beginning, we ask that you read the consent information and confirm your agreement to participate in the experiment.</p>
      <p style=""font-size: 15px;""> We ask that you remember that this is a research project and that your participation is entirely voluntary. You can stop your participation at any time, without needing to provide any explanation. The study we're asking you to participate in aims at examining how readers process written words. You will be engaged in a session of apprximately 20 minutes, followed by a brief questionnaire. You will have the opportunity to take a few breaks during the experiment. You will be paid £4 for your participation, corresponding to a rate of £8/hour. While this experiment looks at cognitive faculties, this experiment doesn't constitute clinical proof of eventual pathologies.</p>
      <p style=""font-size: 15px;"">All of the information collected thanks to yours and others' participation will be held in a secure password-protected server, and will not be shared with anyone not authorised to view it. Your personal information will be kept with an arbitrary participant ID. Thanks to this data anonymity process, any researcher analysing the data won't be able to track the information back to a specific participant. Therefore, this process will make identifying you impossibile, even when results from the study will be published in scientific reviews, presented at congresses, or at any other public forum. More generally, the collected data will be treated in accordance with the laws on privacy and conformity to the Legislative Degree n. 196 ""Code regarding the protection of personal data"" of the 30th of June 2003 and to the European Regulation 2016/670 (General Data Protection Regulation - GDPR). The Data Protection Officer is Avv. Valentina Carollo, who can be contacted at the following email addresses: <a href=""mailto:dpo@sissa.it"">dpo@sissa.it</a> or <a href=""mailto:rpd@sissa.it"">rpd@sissa.it</a> - PEC: <a href=""mailto:protocollo@pec.sissa.it"">protocollo@pec.sissa.it</a>.</p>
      <p style=""font-size: 15px;""> Before expressing your consent to participate, we would like to remind you again that in case you need explanations on any aspect of the experimental procedure, the researcher is at your disposition (<a href=""mailto:aliebelt@sissa.it"">aliebelt@sissa.it</a>, <a href=""mailto:davide.crepaldi@sissa.it"">davide.crepaldi@sissa.it</a>).</p>
      <p style=""font-size: 15px;"">If you would like to download the informed consent form, you can do so here: <a href=""BASL-Informed_Consent.pdf"" download>informed consent form</a>.</p>
      <p style=""font-size: 15px;"">We ask that you press the spacebar to proceed to the consent section.</p>","","","","","","","","","",""
"survey-html-form","3","179509","0.0-3.0","615b042301e3a24311563ee4","650c16f0f2faf8d7a0d14c09","651c1ca5a70859f21f006929","88639","{""consent1"":""YES"",""consent2"":""YES"",""consent3"":""YES"",""consent4"":""YES"",""consent5"":""YES"",""consent6"":""YES""}","","","","","","","","","","",""
"fullscreen","4","193945","0.0-4.0","615b042301e3a24311563ee4","650c16f0f2faf8d7a0d14c09","651c1ca5a70859f21f006929","","","","true","","","","","","","","",""
"html-keyboard-response","5","249403","0.0-5.0","615b042301e3a24311563ee4","650c16f0f2faf8d7a0d14c09","651c1ca5a70859f21f006929","55459"," ","<p>Welcome, and thank you very much for your time!</p>
      <p>In this experiment, you'll be a language expert who's been asked to take a look at words that Earth has received in its first communication with aliens. Your task, in this first part of the experiment, is to pay close attention to the words you'll be shown; later, world leaders will ask you questions on what you saw. The words will be shown to you quite quickly; it seems that the aliens were in a hurry :-)</p>
      <p>Press the spacebar to continue.<p>","","","","","","","","","",""
"html-keyboard-response","6","249466","0.0-6.0","615b042301e3a24311563ee4","650c16f0f2faf8d7a0d14c09","651c1ca5a70859f21f006929","null","null","<p style=""font-size: 120px; font-family: BACS""> </p>","","","","","","","","","",""
"html-keyboard-response","7","271586","0.0-7.0","615b042301e3a24311563ee4","650c16f0f2faf8d7a0d14c09","651c1ca5a70859f21f006929","22118"," ","<p>Here is an example of the words you'll see:</p>
      <img src='esempio.png' height='400px'>
      <p>When you're ready to begin, press the spacebar.</p></div>","","","","","","","","","",""
"html-keyboard-response","8","272592","0.0-8.0-0.0","615b042301e3a24311563ee4","650c16f0f2faf8d7a0d14c09","651c1ca5a70859f21f006929","null","null","<p style=""font-size: 60px; font-family: BACS"">YQbcUbG</p>","","","","","","","","","",""
"html-keyboard-response","9","273600","0.0-8.0-0.1","615b042301e3a24311563ee4","650c16f0f2faf8d7a0d14c09","651c1ca5a70859f21f006929","null","null","<p style=""font-size: 60px; font-family: BACS"">CDEmYTbk</p>","","","","","","","","","",""
"html-keyboard-response","10","274617","0.0-8.0-0.2","615b042301e3a24311563ee4","650c16f0f2faf8d7a0d14c09","651c1ca5a70859f21f006929","null","null","<p style=""font-size: 60px; font-family: BACS"">cBROBOdOP</p>","","","","","","","","","",""
"html-keyboard-response","11","275621","0.0-8.0-0.3","615b042301e3a24311563ee4","650c16f0f2faf8d7a0d14c09","651c1ca5a70859f21f006929","null","null","<p style=""font-size: 60px; font-family: BACS"">MTdYhRKm</p>","","","","","","","","","",""
"html-keyboard-response","12","276638","0.0-8.0-0.4","615b042301e3a24311563ee4","650c16f0f2faf8d7a0d14c09","651c1ca5a70859f21f006929","null","null","<p style=""font-size: 60px; font-family: BACS"">cAZuUbG</p>","","","","","","","","","",""
"html-keyboard-response","13","277641","0.0-8.0-0.5","615b042301e3a24311563ee4","650c16f0f2faf8d7a0d14c09","651c1ca5a70859f21f006929","null","null","<p style=""font-size: 60px; font-family: BACS"">lbBDETbk</p>","","","","","","","","","",""
"html-keyboard-response","14","278644","0.0-8.0-0.6","615b042301e3a24311563ee4","650c16f0f2faf8d7a0d14c09","651c1ca5a70859f21f006929","null","null","<p style=""font-size: 60px; font-family: BACS"">JAaGUbG</p>","","","","","","","","","",""
"html-keyboard-response","15","279646","0.0-8.0-0.7","615b042301e3a24311563ee4","650c16f0f2faf8d7a0d14c09","651c1ca5a70859f21f006929","null","null","<p style=""font-size: 60px; font-family: BACS"">MBKREkMEC</p>","","","","","","","","","",""
"html-keyboard-response","16","280663","0.0-8.0-0.8","615b042301e3a24311563ee4","650c16f0f2faf8d7a0d14c09","651c1ca5a70859f21f006929","null","null","<p style=""font-size: 60px; font-family: BACS"">LdrbvkYL</p>","","","","","","","","","",""
"html-keyboard-response","17","281667","0.0-8.0-0.9","615b042301e3a24311563ee4","650c16f0f2faf8d7a0d14c09","651c1ca5a70859f21f006929","null","null","<p style=""font-size: 60px; font-family: BACS"">CDEmYRDM</p>","","","","","","","","","",""
"html-keyboard-response","18","282684","0.0-8.0-0.10","615b042301e3a24311563ee4","650c16f0f2faf8d7a0d14c09","651c1ca5a70859f21f006929","null","null","<p style=""font-size: 60px; font-family: BACS"">YQbckYL</p>","","","","","","","","","",""
"html-keyboard-response","19","283702","0.0-8.0-0.11","615b042301e3a24311563ee4","650c16f0f2faf8d7a0d14c09","651c1ca5a70859f21f006929","null","null","<p style=""font-size: 60px; font-family: BACS"">CYPchRKm</p>","","","","","","","","","",""
"html-keyboard-response","20","284707","0.0-8.0-0.12","615b042301e3a24311563ee4","650c16f0f2faf8d7a0d14c09","651c1ca5a70859f21f006929","null","null","<p style=""font-size: 60px; font-family: BACS"">JAaGQGb</p>","","","","","","","","","",""
"html-keyboard-response","21","285724","0.0-8.0-0.13","615b042301e3a24311563ee4","650c16f0f2faf8d7a0d14c09","651c1ca5a70859f21f006929","null","null","<p style=""font-size: 60px; font-family: BACS"">rvUbQvlZ</p>","","","","","","","","","",""
"html-keyboard-response","22","286730","0.0-8.0-0.14","615b042301e3a24311563ee4","650c16f0f2faf8d7a0d14c09","651c1ca5a70859f21f006929","null","null","<p style=""font-size: 60px; font-family: BACS"">ObOQlkYL</p>","","","","","","","","","",""
"html-keyboard-response","23","287746","0.0-8.0-0.15","615b042301e3a24311563ee4","650c16f0f2faf8d7a0d14c09","651c1ca5a70859f21f006929","null","null","<p style=""font-size: 60px; font-family: BACS"">JAaGQvlZ</p>","","","","","","","","","",""
"html-keyboard-response","24","288749","0.0-8.0-0.16","615b042301e3a24311563ee4","650c16f0f2faf8d7a0d14c09","651c1ca5a70859f21f006929","null","null","<p style=""font-size: 60px; font-family: BACS"">MTdYRDM</p>","","","","","","","","","",""
"html-keyboard-response","25","289766","0.0-8.0-0.17","615b042301e3a24311563ee4","650c16f0f2faf8d7a0d14c09","651c1ca5a70859f21f006929","null","null","<p style=""font-size: 60px; font-family: BACS"">ObOQlQvlZ</p>","","","","","","","","","",""
"html-keyboard-response","26","290770","0.0-8.0-0.18","615b042301e3a24311563ee4","650c16f0f2faf8d7a0d14c09","651c1ca5a70859f21f006929","null","null","<p style=""font-size: 60px; font-family: BACS"">EPERdhRKm</p>","","","","","","","","","",""
"html-keyboard-response","27","291776","0.0-8.0-0.19","615b042301e3a24311563ee4","650c16f0f2faf8d7a0d14c09","651c1ca5a70859f21f006929","null","null","<p style=""font-size: 60px; font-family: BACS"">ckLALQvlZ</p>","","","","","","","","","",""
"html-keyboard-response","28","292791","0.0-8.0-0.20","615b042301e3a24311563ee4","650c16f0f2faf8d7a0d14c09","651c1ca5a70859f21f006929","null","null","<p style=""font-size: 60px; font-family: BACS"">cBROBTbk</p>","","","","","","","","","",""
"html-keyboard-response","29","293793","0.0-8.0-0.21","615b042301e3a24311563ee4","650c16f0f2faf8d7a0d14c09","651c1ca5a70859f21f006929","null","null","<p style=""font-size: 60px; font-family: BACS"">JAaGrAm</p>","","","","","","","","","",""
"html-keyboard-response","30","294811","0.0-8.0-0.22","615b042301e3a24311563ee4","650c16f0f2faf8d7a0d14c09","651c1ca5a70859f21f006929","null","null","<p style=""font-size: 60px; font-family: BACS"">hbkdkMEC</p>","","","","","","","","","",""
"html-keyboard-response","31","295828","0.0-8.0-0.23","615b042301e3a24311563ee4","650c16f0f2faf8d7a0d14c09","651c1ca5a70859f21f006929","null","null","<p style=""font-size: 60px; font-family: BACS"">EPERdOdOP</p>","","","","","","","","","",""
"html-keyboard-response","32","296833","0.0-8.0-0.24","615b042301e3a24311563ee4","650c16f0f2faf8d7a0d14c09","651c1ca5a70859f21f006929","null","null","<p style=""font-size: 60px; font-family: BACS"">cAZukYL</p>","","","","","","","","","",""
"html-keyboard-response","33","297850","0.0-8.0-0.25","615b042301e3a24311563ee4","650c16f0f2faf8d7a0d14c09","651c1ca5a70859f21f006929","null","null","<p style=""font-size: 60px; font-family: BACS"">tRdMOdOP</p>","","","","","","","","","",""
"html-keyboard-response","34","298868","0.0-8.0-0.26","615b042301e3a24311563ee4","650c16f0f2faf8d7a0d14c09","651c1ca5a70859f21f006929","null","null","<p style=""font-size: 60px; font-family: BACS"">KElBkMEC</p>","","","","","","","","","",""
"html-keyboard-response","35","299873","0.0-8.0-0.27","615b042301e3a24311563ee4","650c16f0f2faf8d7a0d14c09","651c1ca5a70859f21f006929","null","null","<p style=""font-size: 60px; font-family: BACS"">MBKREOdOP</p>","","","","","","","","","",""
"html-keyboard-response","36","300879","0.0-8.0-0.28","615b042301e3a24311563ee4","650c16f0f2faf8d7a0d14c09","651c1ca5a70859f21f006929","null","null","<p style=""font-size: 60px; font-family: BACS"">tRdMkMEC</p>","","","","","","","","","",""
"html-keyboard-response","37","301897","0.0-8.0-0.29","615b042301e3a24311563ee4","650c16f0f2faf8d7a0d14c09","651c1ca5a70859f21f006929","null","null","<p style=""font-size: 60px; font-family: BACS"">ZkGmYQGb</p>","","","","","","","","","",""
"html-keyboard-response","38","302901","0.0-8.0-0.30","615b042301e3a24311563ee4","650c16f0f2faf8d7a0d14c09","651c1ca5a70859f21f006929","null","null","<p style=""font-size: 60px; font-family: BACS"">hbkdhRKm</p>","","","","","","","","","",""
"html-keyboard-response","39","303919","0.0-8.0-0.31","615b042301e3a24311563ee4","650c16f0f2faf8d7a0d14c09","651c1ca5a70859f21f006929","null","null","<p style=""font-size: 60px; font-family: BACS"">CDEmYOdOP</p>","","","","","","","","","",""
"html-keyboard-response","40","304922","0.0-8.0-0.32","615b042301e3a24311563ee4","650c16f0f2faf8d7a0d14c09","651c1ca5a70859f21f006929","null","null","<p style=""font-size: 60px; font-family: BACS"">YQbcQvlZ</p>","","","","","","","","","",""
"html-keyboard-response","41","305939","0.0-8.0-0.33","615b042301e3a24311563ee4","650c16f0f2faf8d7a0d14c09","651c1ca5a70859f21f006929","null","null","<p style=""font-size: 60px; font-family: BACS"">LdrbvrAm</p>","","","","","","","","","",""
"html-keyboard-response","42","306958","0.0-8.0-0.34","615b042301e3a24311563ee4","650c16f0f2faf8d7a0d14c09","651c1ca5a70859f21f006929","null","null","<p style=""font-size: 60px; font-family: BACS"">GJZmQvlZ</p>","","","","","","","","","",""
"html-keyboard-response","43","307961","0.0-8.0-0.35","615b042301e3a24311563ee4","650c16f0f2faf8d7a0d14c09","651c1ca5a70859f21f006929","null","null","<p style=""font-size: 60px; font-family: BACS"">LdrbvQGb</p>","","","","","","","","","",""
"html-keyboard-response","44","308963","0.0-8.0-0.36","615b042301e3a24311563ee4","650c16f0f2faf8d7a0d14c09","651c1ca5a70859f21f006929","null","null","<p style=""font-size: 60px; font-family: BACS"">CYPcRDM</p>","","","","","","","","","",""
"html-keyboard-response","45","309981","0.0-8.0-0.37","615b042301e3a24311563ee4","650c16f0f2faf8d7a0d14c09","651c1ca5a70859f21f006929","null","null","<p style=""font-size: 60px; font-family: BACS"">KElBhRKm</p>","","","","","","","","","",""
"html-keyboard-response","46","310985","0.0-8.0-0.38","615b042301e3a24311563ee4","650c16f0f2faf8d7a0d14c09","651c1ca5a70859f21f006929","null","null","<p style=""font-size: 60px; font-family: BACS"">ckLALrAm</p>","","","","","","","","","",""
"html-keyboard-response","47","311986","0.0-8.0-0.39","615b042301e3a24311563ee4","650c16f0f2faf8d7a0d14c09","651c1ca5a70859f21f006929","null","null","<p style=""font-size: 60px; font-family: BACS"">ObOQlUbG</p>","","","","","","","","","",""
"html-keyboard-response","48","312989","0.0-8.0-0.40","615b042301e3a24311563ee4","650c16f0f2faf8d7a0d14c09","651c1ca5a70859f21f006929","null","null","<p style=""font-size: 60px; font-family: BACS"">hbkdOdOP</p>","","","","","","","","","",""
"html-keyboard-response","49","313993","0.0-8.0-0.41","615b042301e3a24311563ee4","650c16f0f2faf8d7a0d14c09","651c1ca5a70859f21f006929","null","null","<p style=""font-size: 60px; font-family: BACS"">cBROBRDM</p>","","","","","","","","","",""
"html-keyboard-response","50","315007","0.0-8.0-0.42","615b042301e3a24311563ee4","650c16f0f2faf8d7a0d14c09","651c1ca5a70859f21f006929","null","null","<p style=""font-size: 60px; font-family: BACS"">rvUbrAm</p>","","","","","","","","","",""
"html-keyboard-response","51","316011","0.0-8.0-0.43","615b042301e3a24311563ee4","650c16f0f2faf8d7a0d14c09","651c1ca5a70859f21f006929","null","null","<p style=""font-size: 60px; font-family: BACS"">lbBDEkMEC</p>","","","","","","","","","",""
"html-keyboard-response","52","317015","0.0-8.0-0.44","615b042301e3a24311563ee4","650c16f0f2faf8d7a0d14c09","651c1ca5a70859f21f006929","null","null","<p style=""font-size: 60px; font-family: BACS"">EPERdTbk</p>","","","","","","","","","",""
"html-keyboard-response","53","318017","0.0-8.0-0.45","615b042301e3a24311563ee4","650c16f0f2faf8d7a0d14c09","651c1ca5a70859f21f006929","null","null","<p style=""font-size: 60px; font-family: BACS"">rvUbkYL</p>","","","","","","","","","",""
"html-keyboard-response","54","319034","0.0-8.0-0.46","615b042301e3a24311563ee4","650c16f0f2faf8d7a0d14c09","651c1ca5a70859f21f006929","null","null","<p style=""font-size: 60px; font-family: BACS"">cAZuQvlZ</p>","","","","","","","","","",""
"html-keyboard-response","55","320036","0.0-8.0-0.47","615b042301e3a24311563ee4","650c16f0f2faf8d7a0d14c09","651c1ca5a70859f21f006929","null","null","<p style=""font-size: 60px; font-family: BACS"">hbkdRDM</p>","","","","","","","","","",""
"html-keyboard-response","56","321039","0.0-8.0-0.48","615b042301e3a24311563ee4","650c16f0f2faf8d7a0d14c09","651c1ca5a70859f21f006929","null","null","<p style=""font-size: 60px; font-family: BACS"">cAZuQGb</p>","","","","","","","","","",""
"html-keyboard-response","57","322056","0.0-8.0-0.49","615b042301e3a24311563ee4","650c16f0f2faf8d7a0d14c09","651c1ca5a70859f21f006929","null","null","<p style=""font-size: 60px; font-family: BACS"">ObOQlrAm</p>","","","","","","","","","",""
"html-keyboard-response","58","323064","0.0-8.0-0.50","615b042301e3a24311563ee4","650c16f0f2faf8d7a0d14c09","651c1ca5a70859f21f006929","null","null","<p style=""font-size: 60px; font-family: BACS"">KElBTbk</p>","","","","","","","","","",""
"html-keyboard-response","59","324080","0.0-8.0-0.51","615b042301e3a24311563ee4","650c16f0f2faf8d7a0d14c09","651c1ca5a70859f21f006929","null","null","<p style=""font-size: 60px; font-family: BACS"">ZkGmYrAm</p>","","","","","","","","","",""
"html-keyboard-response","60","325082","0.0-8.0-0.52","615b042301e3a24311563ee4","650c16f0f2faf8d7a0d14c09","651c1ca5a70859f21f006929","null","null","<p style=""font-size: 60px; font-family: BACS"">ckLALUbG</p>","","","","","","","","","",""
"html-keyboard-response","61","326100","0.0-8.0-0.53","615b042301e3a24311563ee4","650c16f0f2faf8d7a0d14c09","651c1ca5a70859f21f006929","null","null","<p style=""font-size: 60px; font-family: BACS"">MTdYOdOP</p>","","","","","","","","","",""
"html-keyboard-response","62","327105","0.0-8.0-0.54","615b042301e3a24311563ee4","650c16f0f2faf8d7a0d14c09","651c1ca5a70859f21f006929","null","null","<p style=""font-size: 60px; font-family: BACS"">CYPcTbk</p>","","","","","","","","","",""
"html-keyboard-response","63","328121","0.0-8.0-0.55","615b042301e3a24311563ee4","650c16f0f2faf8d7a0d14c09","651c1ca5a70859f21f006929","null","null","<p style=""font-size: 60px; font-family: BACS"">lbBDERDM</p>","","","","","","","","","",""
"html-keyboard-response","64","329139","0.0-8.0-0.56","615b042301e3a24311563ee4","650c16f0f2faf8d7a0d14c09","651c1ca5a70859f21f006929","null","null","<p style=""font-size: 60px; font-family: BACS"">CYPckMEC</p>","","","","","","","","","",""
"html-keyboard-response","65","330143","0.0-8.0-0.57","615b042301e3a24311563ee4","650c16f0f2faf8d7a0d14c09","651c1ca5a70859f21f006929","null","null","<p style=""font-size: 60px; font-family: BACS"">vmuLlUbG</p>","","","","","","","","","",""
"html-keyboard-response","66","331145","0.0-8.0-0.58","615b042301e3a24311563ee4","650c16f0f2faf8d7a0d14c09","651c1ca5a70859f21f006929","null","null","<p style=""font-size: 60px; font-family: BACS"">GJZmrAm</p>","","","","","","","","","",""
"html-keyboard-response","67","332161","0.0-8.0-0.59","615b042301e3a24311563ee4","650c16f0f2faf8d7a0d14c09","651c1ca5a70859f21f006929","null","null","<p style=""font-size: 60px; font-family: BACS"">cBROBhRKm</p>","","","","","","","","","",""
"html-keyboard-response","68","333166","0.0-8.0-0.60","615b042301e3a24311563ee4","650c16f0f2faf8d7a0d14c09","651c1ca5a70859f21f006929","null","null","<p style=""font-size: 60px; font-family: BACS"">MBKRERDM</p>","","","","","","","","","",""
"html-keyboard-response","69","334169","0.0-8.0-0.61","615b042301e3a24311563ee4","650c16f0f2faf8d7a0d14c09","651c1ca5a70859f21f006929","null","null","<p style=""font-size: 60px; font-family: BACS"">vmuLlkYL</p>","","","","","","","","","",""
"html-keyboard-response","70","335187","0.0-8.0-0.62","615b042301e3a24311563ee4","650c16f0f2faf8d7a0d14c09","651c1ca5a70859f21f006929","null","null","<p style=""font-size: 60px; font-family: BACS"">lbBDEhRKm</p>","","","","","","","","","",""
"html-keyboard-response","71","336190","0.0-8.0-0.63","615b042301e3a24311563ee4","650c16f0f2faf8d7a0d14c09","651c1ca5a70859f21f006929","null","null","<p style=""font-size: 60px; font-family: BACS"">vmuLlQGb</p>","","","","","","","","","",""
"html-keyboard-response","72","337207","0.0-8.0-0.64","615b042301e3a24311563ee4","650c16f0f2faf8d7a0d14c09","651c1ca5a70859f21f006929","null","null","<p style=""font-size: 60px; font-family: BACS"">GJZmkYL</p>","","","","","","","","","",""
"html-keyboard-response","73","338210","0.0-8.0-0.65","615b042301e3a24311563ee4","650c16f0f2faf8d7a0d14c09","651c1ca5a70859f21f006929","null","null","<p style=""font-size: 60px; font-family: BACS"">MTdYkMEC</p>","","","","","","","","","",""
"html-keyboard-response","74","339213","0.0-8.0-0.66","615b042301e3a24311563ee4","650c16f0f2faf8d7a0d14c09","651c1ca5a70859f21f006929","null","null","<p style=""font-size: 60px; font-family: BACS"">GJZmQGb</p>","","","","","","","","","",""
"html-keyboard-response","75","340229","0.0-8.0-0.67","615b042301e3a24311563ee4","650c16f0f2faf8d7a0d14c09","651c1ca5a70859f21f006929","null","null","<p style=""font-size: 60px; font-family: BACS"">ZkGmYkYL</p>","","","","","","","","","",""
"html-keyboard-response","76","341232","0.0-8.0-0.68","615b042301e3a24311563ee4","650c16f0f2faf8d7a0d14c09","651c1ca5a70859f21f006929","null","null","<p style=""font-size: 60px; font-family: BACS"">ckLALQGb</p>","","","","","","","","","",""
"html-keyboard-response","77","342237","0.0-8.0-0.69","615b042301e3a24311563ee4","650c16f0f2faf8d7a0d14c09","651c1ca5a70859f21f006929","null","null","<p style=""font-size: 60px; font-family: BACS"">CDEmYhRKm</p>","","","","","","","","","",""
"html-keyboard-response","78","343255","0.0-8.0-0.70","615b042301e3a24311563ee4","650c16f0f2faf8d7a0d14c09","651c1ca5a70859f21f006929","null","null","<p style=""font-size: 60px; font-family: BACS"">LdrbvUbG</p>","","","","","","","","","",""
"html-keyboard-response","79","344257","0.0-8.0-0.71","615b042301e3a24311563ee4","650c16f0f2faf8d7a0d14c09","651c1ca5a70859f21f006929","null","null","<p style=""font-size: 60px; font-family: BACS"">MBKRETbk</p>","","","","","","","","","",""
"html-keyboard-response","80","345274","0.0-8.0-0.72","615b042301e3a24311563ee4","650c16f0f2faf8d7a0d14c09","651c1ca5a70859f21f006929","null","null","<p style=""font-size: 60px; font-family: BACS"">vmuLlrAm</p>","","","","","","","","","",""
"html-keyboard-response","81","346279","0.0-8.0-0.73","615b042301e3a24311563ee4","650c16f0f2faf8d7a0d14c09","651c1ca5a70859f21f006929","null","null","<p style=""font-size: 60px; font-family: BACS"">ZkGmYQvlZ</p>","","","","","","","","","",""
"html-keyboard-response","82","347297","0.0-8.0-0.74","615b042301e3a24311563ee4","650c16f0f2faf8d7a0d14c09","651c1ca5a70859f21f006929","null","null","<p style=""font-size: 60px; font-family: BACS"">KElBOdOP</p>","","","","","","","","","",""
"html-keyboard-response","83","348301","0.0-8.0-0.75","615b042301e3a24311563ee4","650c16f0f2faf8d7a0d14c09","651c1ca5a70859f21f006929","null","null","<p style=""font-size: 60px; font-family: BACS"">EPERdkMEC</p>","","","","","","","","","",""
"html-keyboard-response","84","349315","0.0-8.0-0.76","615b042301e3a24311563ee4","650c16f0f2faf8d7a0d14c09","651c1ca5a70859f21f006929","null","null","<p style=""font-size: 60px; font-family: BACS"">rvUbUbG</p>","","","","","","","","","",""
"html-keyboard-response","85","350319","0.0-8.0-0.77","615b042301e3a24311563ee4","650c16f0f2faf8d7a0d14c09","651c1ca5a70859f21f006929","null","null","<p style=""font-size: 60px; font-family: BACS"">tRdMTbk</p>","","","","","","","","","",""
"html-keyboard-response","86","351339","0.0-8.0-0.78","615b042301e3a24311563ee4","650c16f0f2faf8d7a0d14c09","651c1ca5a70859f21f006929","null","null","<p style=""font-size: 60px; font-family: BACS"">YQbcQGb</p>","","","","","","","","","",""
"html-keyboard-response","87","352343","0.0-8.0-0.79","615b042301e3a24311563ee4","650c16f0f2faf8d7a0d14c09","651c1ca5a70859f21f006929","null","null","<p style=""font-size: 60px; font-family: BACS"">tRdMRDM</p>","","","","","","","","","",""
"html-keyboard-response","88","371598","0.0-9.0","615b042301e3a24311563ee4","650c16f0f2faf8d7a0d14c09","651c1ca5a70859f21f006929","19253"," ","<p>Great, you've seen the first block of words. You may now take a short break.</p>
      <p>Press the spacebar when you're ready to continue.</p>","","","","","","","","","",""
"html-keyboard-response","89","372603","0.0-10.0-0.0","615b042301e3a24311563ee4","650c16f0f2faf8d7a0d14c09","651c1ca5a70859f21f006929","null","null","<p style=""font-size: 60px; font-family: BACS"">ckLALUbG</p>","","","","","","","","","",""
"html-keyboard-response","90","373607","0.0-10.0-0.1","615b042301e3a24311563ee4","650c16f0f2faf8d7a0d14c09","651c1ca5a70859f21f006929","null","null","<p style=""font-size: 60px; font-family: BACS"">CYPcTbk</p>","","","","","","","","","",""
"html-keyboard-response","91","374609","0.0-10.0-0.2","615b042301e3a24311563ee4","650c16f0f2faf8d7a0d14c09","651c1ca5a70859f21f006929","null","null","<p style=""font-size: 60px; font-family: BACS"">cAZuQGb</p>","","","","","","","","","",""
"html-keyboard-response","92","375627","0.0-10.0-0.3","615b042301e3a24311563ee4","650c16f0f2faf8d7a0d14c09","651c1ca5a70859f21f006929","null","null","<p style=""font-size: 60px; font-family: BACS"">LdrbvkYL</p>","","","","","","","","","",""
"html-keyboard-response","93","376643","0.0-10.0-0.4","615b042301e3a24311563ee4","650c16f0f2faf8d7a0d14c09","651c1ca5a70859f21f006929","null","null","<p style=""font-size: 60px; font-family: BACS"">JAaGQGb</p>","","","","","","","","","",""
"html-keyboard-response","94","377646","0.0-10.0-0.5","615b042301e3a24311563ee4","650c16f0f2faf8d7a0d14c09","651c1ca5a70859f21f006929","null","null","<p style=""font-size: 60px; font-family: BACS"">ZkGmYQvlZ</p>","","","","","","","","","",""
"html-keyboard-response","95","378650","0.0-10.0-0.6","615b042301e3a24311563ee4","650c16f0f2faf8d7a0d14c09","651c1ca5a70859f21f006929","null","null","<p style=""font-size: 60px; font-family: BACS"">LdrbvrAm</p>","","","","","","","","","",""
"html-keyboard-response","96","379666","0.0-10.0-0.7","615b042301e3a24311563ee4","650c16f0f2faf8d7a0d14c09","651c1ca5a70859f21f006929","null","null","<p style=""font-size: 60px; font-family: BACS"">MBKRERDM</p>","","","","","","","","","",""
"html-keyboard-response","97","380670","0.0-10.0-0.8","615b042301e3a24311563ee4","650c16f0f2faf8d7a0d14c09","651c1ca5a70859f21f006929","null","null","<p style=""font-size: 60px; font-family: BACS"">rvUbQvlZ</p>","","","","","","","","","",""
"html-keyboard-response","98","381687","0.0-10.0-0.9","615b042301e3a24311563ee4","650c16f0f2faf8d7a0d14c09","651c1ca5a70859f21f006929","null","null","<p style=""font-size: 60px; font-family: BACS"">ObOQlrAm</p>","","","","","","","","","",""
"html-keyboard-response","99","382693","0.0-10.0-0.10","615b042301e3a24311563ee4","650c16f0f2faf8d7a0d14c09","651c1ca5a70859f21f006929","null","null","<p style=""font-size: 60px; font-family: BACS"">MTdYhRKm</p>","","","","","","","","","",""
"html-keyboard-response","100","383709","0.0-10.0-0.11","615b042301e3a24311563ee4","650c16f0f2faf8d7a0d14c09","651c1ca5a70859f21f006929","null","null","<p style=""font-size: 60px; font-family: BACS"">lbBDETbk</p>","","","","","","","","","",""
"html-keyboard-response","101","384712","0.0-10.0-0.12","615b042301e3a24311563ee4","650c16f0f2faf8d7a0d14c09","651c1ca5a70859f21f006929","null","null","<p style=""font-size: 60px; font-family: BACS"">cAZuQvlZ</p>","","","","","","","","","",""
"html-keyboard-response","102","385716","0.0-10.0-0.13","615b042301e3a24311563ee4","650c16f0f2faf8d7a0d14c09","651c1ca5a70859f21f006929","null","null","<p style=""font-size: 60px; font-family: BACS"">vmuLlQGb</p>","","","","","","","","","",""
"html-keyboard-response","103","386733","0.0-10.0-0.14","615b042301e3a24311563ee4","650c16f0f2faf8d7a0d14c09","651c1ca5a70859f21f006929","null","null","<p style=""font-size: 60px; font-family: BACS"">MTdYRDM</p>","","","","","","","","","",""
"html-keyboard-response","104","387738","0.0-10.0-0.15","615b042301e3a24311563ee4","650c16f0f2faf8d7a0d14c09","651c1ca5a70859f21f006929","null","null","<p style=""font-size: 60px; font-family: BACS"">YQbcQvlZ</p>","","","","","","","","","",""
"html-keyboard-response","105","388754","0.0-10.0-0.16","615b042301e3a24311563ee4","650c16f0f2faf8d7a0d14c09","651c1ca5a70859f21f006929","null","null","<p style=""font-size: 60px; font-family: BACS"">CYPchRKm</p>","","","","","","","","","",""
"html-keyboard-response","106","389758","0.0-10.0-0.17","615b042301e3a24311563ee4","650c16f0f2faf8d7a0d14c09","651c1ca5a70859f21f006929","null","null","<p style=""font-size: 60px; font-family: BACS"">JAaGQvlZ</p>","","","","","","","","","",""
"html-keyboard-response","107","390760","0.0-10.0-0.18","615b042301e3a24311563ee4","650c16f0f2faf8d7a0d14c09","651c1ca5a70859f21f006929","null","null","<p style=""font-size: 60px; font-family: BACS"">CDEmYOdOP</p>","","","","","","","","","",""
"html-keyboard-response","108","391777","0.0-10.0-0.19","615b042301e3a24311563ee4","650c16f0f2faf8d7a0d14c09","651c1ca5a70859f21f006929","null","null","<p style=""font-size: 60px; font-family: BACS"">tRdMkMEC</p>","","","","","","","","","",""
"html-keyboard-response","109","392782","0.0-10.0-0.20","615b042301e3a24311563ee4","650c16f0f2faf8d7a0d14c09","651c1ca5a70859f21f006929","null","null","<p style=""font-size: 60px; font-family: BACS"">rvUbkYL</p>","","","","","","","","","",""
"html-keyboard-response","110","393799","0.0-10.0-0.21","615b042301e3a24311563ee4","650c16f0f2faf8d7a0d14c09","651c1ca5a70859f21f006929","null","null","<p style=""font-size: 60px; font-family: BACS"">ObOQlQvlZ</p>","","","","","","","","","",""
"html-keyboard-response","111","394816","0.0-10.0-0.22","615b042301e3a24311563ee4","650c16f0f2faf8d7a0d14c09","651c1ca5a70859f21f006929","null","null","<p style=""font-size: 60px; font-family: BACS"">KElBkMEC</p>","","","","","","","","","",""
"html-keyboard-response","112","395820","0.0-10.0-0.23","615b042301e3a24311563ee4","650c16f0f2faf8d7a0d14c09","651c1ca5a70859f21f006929","null","null","<p style=""font-size: 60px; font-family: BACS"">LdrbvUbG</p>","","","","","","","","","",""
"html-keyboard-response","113","396823","0.0-10.0-0.24","615b042301e3a24311563ee4","650c16f0f2faf8d7a0d14c09","651c1ca5a70859f21f006929","null","null","<p style=""font-size: 60px; font-family: BACS"">rvUbrAm</p>","","","","","","","","","",""
"html-keyboard-response","114","397826","0.0-10.0-0.25","615b042301e3a24311563ee4","650c16f0f2faf8d7a0d14c09","651c1ca5a70859f21f006929","null","null","<p style=""font-size: 60px; font-family: BACS"">EPERdhRKm</p>","","","","","","","","","",""
"html-keyboard-response","115","398828","0.0-10.0-0.26","615b042301e3a24311563ee4","650c16f0f2faf8d7a0d14c09","651c1ca5a70859f21f006929","null","null","<p style=""font-size: 60px; font-family: BACS"">hbkdkMEC</p>","","","","","","","","","",""
"html-keyboard-response","116","399845","0.0-10.0-0.27","615b042301e3a24311563ee4","650c16f0f2faf8d7a0d14c09","651c1ca5a70859f21f006929","null","null","<p style=""font-size: 60px; font-family: BACS"">ckLALQvlZ</p>","","","","","","","","","",""
"html-keyboard-response","117","400848","0.0-10.0-0.28","615b042301e3a24311563ee4","650c16f0f2faf8d7a0d14c09","651c1ca5a70859f21f006929","null","null","<p style=""font-size: 60px; font-family: BACS"">ZkGmYkYL</p>","","","","","","","","","",""
"html-keyboard-response","118","401864","0.0-10.0-0.29","615b042301e3a24311563ee4","650c16f0f2faf8d7a0d14c09","651c1ca5a70859f21f006929","null","null","<p style=""font-size: 60px; font-family: BACS"">KElBTbk</p>","","","","","","","","","",""
"html-keyboard-response","119","402871","0.0-10.0-0.30","615b042301e3a24311563ee4","650c16f0f2faf8d7a0d14c09","651c1ca5a70859f21f006929","null","null","<p style=""font-size: 60px; font-family: BACS"">GJZmkYL</p>","","","","","","","","","",""
"html-keyboard-response","120","403888","0.0-10.0-0.31","615b042301e3a24311563ee4","650c16f0f2faf8d7a0d14c09","651c1ca5a70859f21f006929","null","null","<p style=""font-size: 60px; font-family: BACS"">MTdYOdOP</p>","","","","","","","","","",""
"html-keyboard-response","121","404892","0.0-10.0-0.32","615b042301e3a24311563ee4","650c16f0f2faf8d7a0d14c09","651c1ca5a70859f21f006929","null","null","<p style=""font-size: 60px; font-family: BACS"">tRdMRDM</p>","","","","","","","","","",""
"html-keyboard-response","122","405909","0.0-10.0-0.33","615b042301e3a24311563ee4","650c16f0f2faf8d7a0d14c09","651c1ca5a70859f21f006929","null","null","<p style=""font-size: 60px; font-family: BACS"">CDEmYTbk</p>","","","","","","","","","",""
"html-keyboard-response","123","406914","0.0-10.0-0.34","615b042301e3a24311563ee4","650c16f0f2faf8d7a0d14c09","651c1ca5a70859f21f006929","null","null","<p style=""font-size: 60px; font-family: BACS"">GJZmQvlZ</p>","","","","","","","","","",""
"html-keyboard-response","124","407929","0.0-10.0-0.35","615b042301e3a24311563ee4","650c16f0f2faf8d7a0d14c09","651c1ca5a70859f21f006929","null","null","<p style=""font-size: 60px; font-family: BACS"">LdrbvQGb</p>","","","","","","","","","",""
"html-keyboard-response","125","408933","0.0-10.0-0.36","615b042301e3a24311563ee4","650c16f0f2faf8d7a0d14c09","651c1ca5a70859f21f006929","null","null","<p style=""font-size: 60px; font-family: BACS"">lbBDEkMEC</p>","","","","","","","","","",""
"html-keyboard-response","126","409935","0.0-10.0-0.37","615b042301e3a24311563ee4","650c16f0f2faf8d7a0d14c09","651c1ca5a70859f21f006929","null","null","<p style=""font-size: 60px; font-family: BACS"">KElBhRKm</p>","","","","","","","","","",""
"html-keyboard-response","127","410954","0.0-10.0-0.38","615b042301e3a24311563ee4","650c16f0f2faf8d7a0d14c09","651c1ca5a70859f21f006929","null","null","<p style=""font-size: 60px; font-family: BACS"">tRdMTbk</p>","","","","","","","","","",""
"html-keyboard-response","128","411972","0.0-10.0-0.39","615b042301e3a24311563ee4","650c16f0f2faf8d7a0d14c09","651c1ca5a70859f21f006929","null","null","<p style=""font-size: 60px; font-family: BACS"">vmuLlrAm</p>","","","","","","","","","",""
"html-keyboard-response","129","412977","0.0-10.0-0.40","615b042301e3a24311563ee4","650c16f0f2faf8d7a0d14c09","651c1ca5a70859f21f006929","null","null","<p style=""font-size: 60px; font-family: BACS"">ZkGmYQGb</p>","","","","","","","","","",""
"html-keyboard-response","130","413992","0.0-10.0-0.41","615b042301e3a24311563ee4","650c16f0f2faf8d7a0d14c09","651c1ca5a70859f21f006929","null","null","<p style=""font-size: 60px; font-family: BACS"">MTdYkMEC</p>","","","","","","","","","",""
"html-keyboard-response","131","414996","0.0-10.0-0.42","615b042301e3a24311563ee4","650c16f0f2faf8d7a0d14c09","651c1ca5a70859f21f006929","null","null","<p style=""font-size: 60px; font-family: BACS"">vmuLlkYL</p>","","","","","","","","","",""
"html-keyboard-response","132","415999","0.0-10.0-0.43","615b042301e3a24311563ee4","650c16f0f2faf8d7a0d14c09","651c1ca5a70859f21f006929","null","null","<p style=""font-size: 60px; font-family: BACS"">YQbcUbG</p>","","","","","","","","","",""
"html-keyboard-response","133","417002","0.0-10.0-0.44","615b042301e3a24311563ee4","650c16f0f2faf8d7a0d14c09","651c1ca5a70859f21f006929","null","null","<p style=""font-size: 60px; font-family: BACS"">hbkdRDM</p>","","","","","","","","","",""
"html-keyboard-response","134","418004","0.0-10.0-0.45","615b042301e3a24311563ee4","650c16f0f2faf8d7a0d14c09","651c1ca5a70859f21f006929","null","null","<p style=""font-size: 60px; font-family: BACS"">cBROBOdOP</p>","","","","","","","","","",""
"html-keyboard-response","135","419021","0.0-10.0-0.46","615b042301e3a24311563ee4","650c16f0f2faf8d7a0d14c09","651c1ca5a70859f21f006929","null","null","<p style=""font-size: 60px; font-family: BACS"">cAZuUbG</p>","","","","","","","","","",""
"html-keyboard-response","136","420024","0.0-10.0-0.47","615b042301e3a24311563ee4","650c16f0f2faf8d7a0d14c09","651c1ca5a70859f21f006929","null","null","<p style=""font-size: 60px; font-family: BACS"">ckLALrAm</p>","","","","","","","","","",""
"html-keyboard-response","137","421026","0.0-10.0-0.48","615b042301e3a24311563ee4","650c16f0f2faf8d7a0d14c09","651c1ca5a70859f21f006929","null","null","<p style=""font-size: 60px; font-family: BACS"">CDEmYRDM</p>","","","","","","","","","",""
"html-keyboard-response","138","422042","0.0-10.0-0.49","615b042301e3a24311563ee4","650c16f0f2faf8d7a0d14c09","651c1ca5a70859f21f006929","null","null","<p style=""font-size: 60px; font-family: BACS"">KElBOdOP</p>","","","","","","","","","",""
"html-keyboard-response","139","423046","0.0-10.0-0.50","615b042301e3a24311563ee4","650c16f0f2faf8d7a0d14c09","651c1ca5a70859f21f006929","null","null","<p style=""font-size: 60px; font-family: BACS"">cAZukYL</p>","","","","","","","","","",""
"html-keyboard-response","140","424049","0.0-10.0-0.51","615b042301e3a24311563ee4","650c16f0f2faf8d7a0d14c09","651c1ca5a70859f21f006929","null","null","<p style=""font-size: 60px; font-family: BACS"">lbBDEhRKm</p>","","","","","","","","","",""
"html-keyboard-response","141","425053","0.0-10.0-0.52","615b042301e3a24311563ee4","650c16f0f2faf8d7a0d14c09","651c1ca5a70859f21f006929","null","null","<p style=""font-size: 60px; font-family: BACS"">ckLALQGb</p>","","","","","","","","","",""
"html-keyboard-response","142","426069","0.0-10.0-0.53","615b042301e3a24311563ee4","650c16f0f2faf8d7a0d14c09","651c1ca5a70859f21f006929","null","null","<p style=""font-size: 60px; font-family: BACS"">ZkGmYrAm</p>","","","","","","","","","",""
"html-keyboard-response","143","427074","0.0-10.0-0.54","615b042301e3a24311563ee4","650c16f0f2faf8d7a0d14c09","651c1ca5a70859f21f006929","null","null","<p style=""font-size: 60px; font-family: BACS"">rvUbUbG</p>","","","","","","","","","",""
"html-keyboard-response","144","428081","0.0-10.0-0.55","615b042301e3a24311563ee4","650c16f0f2faf8d7a0d14c09","651c1ca5a70859f21f006929","null","null","<p style=""font-size: 60px; font-family: BACS"">cBROBTbk</p>","","","","","","","","","",""
"html-keyboard-response","145","429094","0.0-10.0-0.56","615b042301e3a24311563ee4","650c16f0f2faf8d7a0d14c09","651c1ca5a70859f21f006929","null","null","<p style=""font-size: 60px; font-family: BACS"">YQbckYL</p>","","","","","","","","","",""
"html-keyboard-response","146","430110","0.0-10.0-0.57","615b042301e3a24311563ee4","650c16f0f2faf8d7a0d14c09","651c1ca5a70859f21f006929","null","null","<p style=""font-size: 60px; font-family: BACS"">CDEmYhRKm</p>","","","","","","","","","",""
"html-keyboard-response","147","431116","0.0-10.0-0.58","615b042301e3a24311563ee4","650c16f0f2faf8d7a0d14c09","651c1ca5a70859f21f006929","null","null","<p style=""font-size: 60px; font-family: BACS"">EPERdOdOP</p>","","","","","","","","","",""
"html-keyboard-response","148","432131","0.0-10.0-0.59","615b042301e3a24311563ee4","650c16f0f2faf8d7a0d14c09","651c1ca5a70859f21f006929","null","null","<p style=""font-size: 60px; font-family: BACS"">MBKREkMEC</p>","","","","","","","","","",""
"html-keyboard-response","149","433136","0.0-10.0-0.60","615b042301e3a24311563ee4","650c16f0f2faf8d7a0d14c09","651c1ca5a70859f21f006929","null","null","<p style=""font-size: 60px; font-family: BACS"">cBROBRDM</p>","","","","","","","","","",""
"html-keyboard-response","150","434140","0.0-10.0-0.61","615b042301e3a24311563ee4","650c16f0f2faf8d7a0d14c09","651c1ca5a70859f21f006929","null","null","<p style=""font-size: 60px; font-family: BACS"">JAaGUbG</p>","","","","","","","","","",""
"html-keyboard-response","151","435155","0.0-10.0-0.62","615b042301e3a24311563ee4","650c16f0f2faf8d7a0d14c09","651c1ca5a70859f21f006929","null","null","<p style=""font-size: 60px; font-family: BACS"">EPERdkMEC</p>","","","","","","","","","",""
"html-keyboard-response","152","436159","0.0-10.0-0.63","615b042301e3a24311563ee4","650c16f0f2faf8d7a0d14c09","651c1ca5a70859f21f006929","null","null","<p style=""font-size: 60px; font-family: BACS"">GJZmrAm</p>","","","","","","","","","",""
"html-keyboard-response","153","437161","0.0-10.0-0.64","615b042301e3a24311563ee4","650c16f0f2faf8d7a0d14c09","651c1ca5a70859f21f006929","null","null","<p style=""font-size: 60px; font-family: BACS"">hbkdhRKm</p>","","","","","","","","","",""
"html-keyboard-response","154","438164","0.0-10.0-0.65","615b042301e3a24311563ee4","650c16f0f2faf8d7a0d14c09","651c1ca5a70859f21f006929","null","null","<p style=""font-size: 60px; font-family: BACS"">vmuLlUbG</p>","","","","","","","","","",""
"html-keyboard-response","155","439181","0.0-10.0-0.66","615b042301e3a24311563ee4","650c16f0f2faf8d7a0d14c09","651c1ca5a70859f21f006929","null","null","<p style=""font-size: 60px; font-family: BACS"">EPERdTbk</p>","","","","","","","","","",""
"html-keyboard-response","156","440185","0.0-10.0-0.67","615b042301e3a24311563ee4","650c16f0f2faf8d7a0d14c09","651c1ca5a70859f21f006929","null","null","<p style=""font-size: 60px; font-family: BACS"">cBROBhRKm</p>","","","","","","","","","",""
"html-keyboard-response","157","441201","0.0-10.0-0.68","615b042301e3a24311563ee4","650c16f0f2faf8d7a0d14c09","651c1ca5a70859f21f006929","null","null","<p style=""font-size: 60px; font-family: BACS"">GJZmQGb</p>","","","","","","","","","",""
"html-keyboard-response","158","442205","0.0-10.0-0.69","615b042301e3a24311563ee4","650c16f0f2faf8d7a0d14c09","651c1ca5a70859f21f006929","null","null","<p style=""font-size: 60px; font-family: BACS"">MBKRETbk</p>","","","","","","","","","",""
"html-keyboard-response","159","443209","0.0-10.0-0.70","615b042301e3a24311563ee4","650c16f0f2faf8d7a0d14c09","651c1ca5a70859f21f006929","null","null","<p style=""font-size: 60px; font-family: BACS"">CYPckMEC</p>","","","","","","","","","",""
"html-keyboard-response","160","444227","0.0-10.0-0.71","615b042301e3a24311563ee4","650c16f0f2faf8d7a0d14c09","651c1ca5a70859f21f006929","null","null","<p style=""font-size: 60px; font-family: BACS"">ObOQlkYL</p>","","","","","","","","","",""
"html-keyboard-response","161","445229","0.0-10.0-0.72","615b042301e3a24311563ee4","650c16f0f2faf8d7a0d14c09","651c1ca5a70859f21f006929","null","null","<p style=""font-size: 60px; font-family: BACS"">hbkdOdOP</p>","","","","","","","","","",""
"html-keyboard-response","162","446232","0.0-10.0-0.73","615b042301e3a24311563ee4","650c16f0f2faf8d7a0d14c09","651c1ca5a70859f21f006929","null","null","<p style=""font-size: 60px; font-family: BACS"">ObOQlUbG</p>","","","","","","","","","",""
"html-keyboard-response","163","447248","0.0-10.0-0.74","615b042301e3a24311563ee4","650c16f0f2faf8d7a0d14c09","651c1ca5a70859f21f006929","null","null","<p style=""font-size: 60px; font-family: BACS"">CYPcRDM</p>","","","","","","","","","",""
"html-keyboard-response","164","448253","0.0-10.0-0.75","615b042301e3a24311563ee4","650c16f0f2faf8d7a0d14c09","651c1ca5a70859f21f006929","null","null","<p style=""font-size: 60px; font-family: BACS"">MBKREOdOP</p>","","","","","","","","","",""
"html-keyboard-response","165","449268","0.0-10.0-0.76","615b042301e3a24311563ee4","650c16f0f2faf8d7a0d14c09","651c1ca5a70859f21f006929","null","null","<p style=""font-size: 60px; font-family: BACS"">JAaGrAm</p>","","","","","","","","","",""
"html-keyboard-response","166","450273","0.0-10.0-0.77","615b042301e3a24311563ee4","650c16f0f2faf8d7a0d14c09","651c1ca5a70859f21f006929","null","null","<p style=""font-size: 60px; font-family: BACS"">YQbcQGb</p>","","","","","","","","","",""
"html-keyboard-response","167","451276","0.0-10.0-0.78","615b042301e3a24311563ee4","650c16f0f2faf8d7a0d14c09","651c1ca5a70859f21f006929","null","null","<p style=""font-size: 60px; font-family: BACS"">tRdMOdOP</p>","","","","","","","","","",""
"html-keyboard-response","168","452279","0.0-10.0-0.79","615b042301e3a24311563ee4","650c16f0f2faf8d7a0d14c09","651c1ca5a70859f21f006929","null","null","<p style=""font-size: 60px; font-family: BACS"">lbBDERDM</p>","","","","","","","","","",""
"html-keyboard-response","169","500315","0.0-11.0","615b042301e3a24311563ee4","650c16f0f2faf8d7a0d14c09","651c1ca5a70859f21f006929","48035"," ","<p>Great, you've seen the second block of words. You may now take a short break.</p>
      <p>Press the spacebar when you're ready to continue.</p>","","","","","","","","","",""
"html-keyboard-response","170","501332","0.0-12.0-0.0","615b042301e3a24311563ee4","650c16f0f2faf8d7a0d14c09","651c1ca5a70859f21f006929","null","null","<p style=""font-size: 60px; font-family: BACS"">MTdYOdOP</p>","","","","","","","","","",""
"html-keyboard-response","171","502337","0.0-12.0-0.1","615b042301e3a24311563ee4","650c16f0f2faf8d7a0d14c09","651c1ca5a70859f21f006929","null","null","<p style=""font-size: 60px; font-family: BACS"">rvUbUbG</p>","","","","","","","","","",""
"html-keyboard-response","172","503339","0.0-12.0-0.2","615b042301e3a24311563ee4","650c16f0f2faf8d7a0d14c09","651c1ca5a70859f21f006929","null","null","<p style=""font-size: 60px; font-family: BACS"">YQbcQGb</p>","","","","","","","","","",""
"html-keyboard-response","173","504354","0.0-12.0-0.3","615b042301e3a24311563ee4","650c16f0f2faf8d7a0d14c09","651c1ca5a70859f21f006929","null","null","<p style=""font-size: 60px; font-family: BACS"">ckLALrAm</p>","","","","","","","","","",""
"html-keyboard-response","174","505359","0.0-12.0-0.4","615b042301e3a24311563ee4","650c16f0f2faf8d7a0d14c09","651c1ca5a70859f21f006929","null","null","<p style=""font-size: 60px; font-family: BACS"">CDEmYhRKm</p>","","","","","","","","","",""
"html-keyboard-response","175","506363","0.0-12.0-0.5","615b042301e3a24311563ee4","650c16f0f2faf8d7a0d14c09","651c1ca5a70859f21f006929","null","null","<p style=""font-size: 60px; font-family: BACS"">cBROBRDM</p>","","","","","","","","","",""
"html-keyboard-response","176","507380","0.0-12.0-0.6","615b042301e3a24311563ee4","650c16f0f2faf8d7a0d14c09","651c1ca5a70859f21f006929","null","null","<p style=""font-size: 60px; font-family: BACS"">MTdYkMEC</p>","","","","","","","","","",""
"html-keyboard-response","177","508397","0.0-12.0-0.7","615b042301e3a24311563ee4","650c16f0f2faf8d7a0d14c09","651c1ca5a70859f21f006929","null","null","<p style=""font-size: 60px; font-family: BACS"">EPERdhRKm</p>","","","","","","","","","",""
"html-keyboard-response","178","509403","0.0-12.0-0.8","615b042301e3a24311563ee4","650c16f0f2faf8d7a0d14c09","651c1ca5a70859f21f006929","null","null","<p style=""font-size: 60px; font-family: BACS"">ObOQlkYL</p>","","","","","","","","","",""
"html-keyboard-response","179","510405","0.0-12.0-0.9","615b042301e3a24311563ee4","650c16f0f2faf8d7a0d14c09","651c1ca5a70859f21f006929","null","null","<p style=""font-size: 60px; font-family: BACS"">cBROBTbk</p>","","","","","","","","","",""
"html-keyboard-response","180","511423","0.0-12.0-0.10","615b042301e3a24311563ee4","650c16f0f2faf8d7a0d14c09","651c1ca5a70859f21f006929","null","null","<p style=""font-size: 60px; font-family: BACS"">CYPchRKm</p>","","","","","","","","","",""
"html-keyboard-response","181","512427","0.0-12.0-0.11","615b042301e3a24311563ee4","650c16f0f2faf8d7a0d14c09","651c1ca5a70859f21f006929","null","null","<p style=""font-size: 60px; font-family: BACS"">lbBDERDM</p>","","","","","","","","","",""
"html-keyboard-response","182","513445","0.0-12.0-0.12","615b042301e3a24311563ee4","650c16f0f2faf8d7a0d14c09","651c1ca5a70859f21f006929","null","null","<p style=""font-size: 60px; font-family: BACS"">ZkGmYQGb</p>","","","","","","","","","",""
"html-keyboard-response","183","514462","0.0-12.0-0.13","615b042301e3a24311563ee4","650c16f0f2faf8d7a0d14c09","651c1ca5a70859f21f006929","null","null","<p style=""font-size: 60px; font-family: BACS"">lbBDETbk</p>","","","","","","","","","",""
"html-keyboard-response","184","515466","0.0-12.0-0.14","615b042301e3a24311563ee4","650c16f0f2faf8d7a0d14c09","651c1ca5a70859f21f006929","null","null","<p style=""font-size: 60px; font-family: BACS"">hbkdRDM</p>","","","","","","","","","",""
"html-keyboard-response","185","516483","0.0-12.0-0.15","615b042301e3a24311563ee4","650c16f0f2faf8d7a0d14c09","651c1ca5a70859f21f006929","null","null","<p style=""font-size: 60px; font-family: BACS"">GJZmkYL</p>","","","","","","","","","",""
"html-keyboard-response","186","517487","0.0-12.0-0.16","615b042301e3a24311563ee4","650c16f0f2faf8d7a0d14c09","651c1ca5a70859f21f006929","null","null","<p style=""font-size: 60px; font-family: BACS"">EPERdTbk</p>","","","","","","","","","",""
"html-keyboard-response","187","518503","0.0-12.0-0.17","615b042301e3a24311563ee4","650c16f0f2faf8d7a0d14c09","651c1ca5a70859f21f006929","null","null","<p style=""font-size: 60px; font-family: BACS"">GJZmQGb</p>","","","","","","","","","",""
"html-keyboard-response","188","519508","0.0-12.0-0.18","615b042301e3a24311563ee4","650c16f0f2faf8d7a0d14c09","651c1ca5a70859f21f006929","null","null","<p style=""font-size: 60px; font-family: BACS"">CDEmYTbk</p>","","","","","","","","","",""
"html-keyboard-response","189","520524","0.0-12.0-0.19","615b042301e3a24311563ee4","650c16f0f2faf8d7a0d14c09","651c1ca5a70859f21f006929","null","null","<p style=""font-size: 60px; font-family: BACS"">ObOQlQvlZ</p>","","","","","","","","","",""
"html-keyboard-response","190","521529","0.0-12.0-0.20","615b042301e3a24311563ee4","650c16f0f2faf8d7a0d14c09","651c1ca5a70859f21f006929","null","null","<p style=""font-size: 60px; font-family: BACS"">vmuLlUbG</p>","","","","","","","","","",""
"html-keyboard-response","191","522531","0.0-12.0-0.21","615b042301e3a24311563ee4","650c16f0f2faf8d7a0d14c09","651c1ca5a70859f21f006929","null","null","<p style=""font-size: 60px; font-family: BACS"">hbkdOdOP</p>","","","","","","","","","",""
"html-keyboard-response","192","523548","0.0-12.0-0.22","615b042301e3a24311563ee4","650c16f0f2faf8d7a0d14c09","651c1ca5a70859f21f006929","null","null","<p style=""font-size: 60px; font-family: BACS"">GJZmrAm</p>","","","","","","","","","",""
"html-keyboard-response","193","524552","0.0-12.0-0.23","615b042301e3a24311563ee4","650c16f0f2faf8d7a0d14c09","651c1ca5a70859f21f006929","null","null","<p style=""font-size: 60px; font-family: BACS"">MBKRERDM</p>","","","","","","","","","",""
"html-keyboard-response","194","525554","0.0-12.0-0.24","615b042301e3a24311563ee4","650c16f0f2faf8d7a0d14c09","651c1ca5a70859f21f006929","null","null","<p style=""font-size: 60px; font-family: BACS"">cBROBOdOP</p>","","","","","","","","","",""
"html-keyboard-response","195","526557","0.0-12.0-0.25","615b042301e3a24311563ee4","650c16f0f2faf8d7a0d14c09","651c1ca5a70859f21f006929","null","null","<p style=""font-size: 60px; font-family: BACS"">MBKREkMEC</p>","","","","","","","","","",""
"html-keyboard-response","196","527574","0.0-12.0-0.26","615b042301e3a24311563ee4","650c16f0f2faf8d7a0d14c09","651c1ca5a70859f21f006929","null","null","<p style=""font-size: 60px; font-family: BACS"">cAZuUbG</p>","","","","","","","","","",""
"html-keyboard-response","197","528578","0.0-12.0-0.27","615b042301e3a24311563ee4","650c16f0f2faf8d7a0d14c09","651c1ca5a70859f21f006929","null","null","<p style=""font-size: 60px; font-family: BACS"">tRdMTbk</p>","","","","","","","","","",""
"html-keyboard-response","198","529593","0.0-12.0-0.28","615b042301e3a24311563ee4","650c16f0f2faf8d7a0d14c09","651c1ca5a70859f21f006929","null","null","<p style=""font-size: 60px; font-family: BACS"">KElBkMEC</p>","","","","","","","","","",""
"html-keyboard-response","199","530597","0.0-12.0-0.29","615b042301e3a24311563ee4","650c16f0f2faf8d7a0d14c09","651c1ca5a70859f21f006929","null","null","<p style=""font-size: 60px; font-family: BACS"">tRdMOdOP</p>","","","","","","","","","",""
"html-keyboard-response","200","531599","0.0-12.0-0.30","615b042301e3a24311563ee4","650c16f0f2faf8d7a0d14c09","651c1ca5a70859f21f006929","null","null","<p style=""font-size: 60px; font-family: BACS"">vmuLlrAm</p>","","","","","","","","","",""
"html-keyboard-response","201","532604","0.0-12.0-0.31","615b042301e3a24311563ee4","650c16f0f2faf8d7a0d14c09","651c1ca5a70859f21f006929","null","null","<p style=""font-size: 60px; font-family: BACS"">CYPcTbk</p>","","","","","","","","","",""
"html-keyboard-response","202","533621","0.0-12.0-0.32","615b042301e3a24311563ee4","650c16f0f2faf8d7a0d14c09","651c1ca5a70859f21f006929","null","null","<p style=""font-size: 60px; font-family: BACS"">vmuLlQGb</p>","","","","","","","","","",""
"html-keyboard-response","203","534624","0.0-12.0-0.33","615b042301e3a24311563ee4","650c16f0f2faf8d7a0d14c09","651c1ca5a70859f21f006929","null","null","<p style=""font-size: 60px; font-family: BACS"">ckLALQvlZ</p>","","","","","","","","","",""
"html-keyboard-response","204","535628","0.0-12.0-0.34","615b042301e3a24311563ee4","650c16f0f2faf8d7a0d14c09","651c1ca5a70859f21f006929","null","null","<p style=""font-size: 60px; font-family: BACS"">ZkGmYrAm</p>","","","","","","","","","",""
"html-keyboard-response","205","536645","0.0-12.0-0.35","615b042301e3a24311563ee4","650c16f0f2faf8d7a0d14c09","651c1ca5a70859f21f006929","null","null","<p style=""font-size: 60px; font-family: BACS"">tRdMkMEC</p>","","","","","","","","","",""
"html-keyboard-response","206","537648","0.0-12.0-0.36","615b042301e3a24311563ee4","650c16f0f2faf8d7a0d14c09","651c1ca5a70859f21f006929","null","null","<p style=""font-size: 60px; font-family: BACS"">YQbckYL</p>","","","","","","","","","",""
"html-keyboard-response","207","538665","0.0-12.0-0.37","615b042301e3a24311563ee4","650c16f0f2faf8d7a0d14c09","651c1ca5a70859f21f006929","null","null","<p style=""font-size: 60px; font-family: BACS"">GJZmQvlZ</p>","","","","","","","","","",""
"html-keyboard-response","208","539682","0.0-12.0-0.38","615b042301e3a24311563ee4","650c16f0f2faf8d7a0d14c09","651c1ca5a70859f21f006929","null","null","<p style=""font-size: 60px; font-family: BACS"">JAaGUbG</p>","","","","","","","","","",""
"html-keyboard-response","209","540687","0.0-12.0-0.39","615b042301e3a24311563ee4","650c16f0f2faf8d7a0d14c09","651c1ca5a70859f21f006929","null","null","<p style=""font-size: 60px; font-family: BACS"">rvUbQvlZ</p>","","","","","","","","","",""
"html-keyboard-response","210","541691","0.0-12.0-0.40","615b042301e3a24311563ee4","650c16f0f2faf8d7a0d14c09","651c1ca5a70859f21f006929","null","null","<p style=""font-size: 60px; font-family: BACS"">tRdMRDM</p>","","","","","","","","","",""
"html-keyboard-response","211","542705","0.0-12.0-0.41","615b042301e3a24311563ee4","650c16f0f2faf8d7a0d14c09","651c1ca5a70859f21f006929","null","null","<p style=""font-size: 60px; font-family: BACS"">cAZuQvlZ</p>","","","","","","","","","",""
"html-keyboard-response","212","543709","0.0-12.0-0.42","615b042301e3a24311563ee4","650c16f0f2faf8d7a0d14c09","651c1ca5a70859f21f006929","null","null","<p style=""font-size: 60px; font-family: BACS"">LdrbvQGb</p>","","","","","","","","","",""
"html-keyboard-response","213","544712","0.0-12.0-0.43","615b042301e3a24311563ee4","650c16f0f2faf8d7a0d14c09","651c1ca5a70859f21f006929","null","null","<p style=""font-size: 60px; font-family: BACS"">lbBDEkMEC</p>","","","","","","","","","",""
"html-keyboard-response","214","545716","0.0-12.0-0.44","615b042301e3a24311563ee4","650c16f0f2faf8d7a0d14c09","651c1ca5a70859f21f006929","null","null","<p style=""font-size: 60px; font-family: BACS"">MTdYhRKm</p>","","","","","","","","","",""
"html-keyboard-response","215","546733","0.0-12.0-0.45","615b042301e3a24311563ee4","650c16f0f2faf8d7a0d14c09","651c1ca5a70859f21f006929","null","null","<p style=""font-size: 60px; font-family: BACS"">MBKRETbk</p>","","","","","","","","","",""
"html-keyboard-response","216","547750","0.0-12.0-0.46","615b042301e3a24311563ee4","650c16f0f2faf8d7a0d14c09","651c1ca5a70859f21f006929","null","null","<p style=""font-size: 60px; font-family: BACS"">CYPckMEC</p>","","","","","","","","","",""
"html-keyboard-response","217","548755","0.0-12.0-0.47","615b042301e3a24311563ee4","650c16f0f2faf8d7a0d14c09","651c1ca5a70859f21f006929","null","null","<p style=""font-size: 60px; font-family: BACS"">LdrbvUbG</p>","","","","","","","","","",""
"html-keyboard-response","218","549757","0.0-12.0-0.48","615b042301e3a24311563ee4","650c16f0f2faf8d7a0d14c09","651c1ca5a70859f21f006929","null","null","<p style=""font-size: 60px; font-family: BACS"">rvUbkYL</p>","","","","","","","","","",""
"html-keyboard-response","219","550774","0.0-12.0-0.49","615b042301e3a24311563ee4","650c16f0f2faf8d7a0d14c09","651c1ca5a70859f21f006929","null","null","<p style=""font-size: 60px; font-family: BACS"">lbBDEhRKm</p>","","","","","","","","","",""
"html-keyboard-response","220","551779","0.0-12.0-0.50","615b042301e3a24311563ee4","650c16f0f2faf8d7a0d14c09","651c1ca5a70859f21f006929","null","null","<p style=""font-size: 60px; font-family: BACS"">cAZuQGb</p>","","","","","","","","","",""
"html-keyboard-response","221","552796","0.0-12.0-0.51","615b042301e3a24311563ee4","650c16f0f2faf8d7a0d14c09","651c1ca5a70859f21f006929","null","null","<p style=""font-size: 60px; font-family: BACS"">LdrbvrAm</p>","","","","","","","","","",""
"html-keyboard-response","222","553800","0.0-12.0-0.52","615b042301e3a24311563ee4","650c16f0f2faf8d7a0d14c09","651c1ca5a70859f21f006929","null","null","<p style=""font-size: 60px; font-family: BACS"">ZkGmYQvlZ</p>","","","","","","","","","",""
"html-keyboard-response","223","554803","0.0-12.0-0.53","615b042301e3a24311563ee4","650c16f0f2faf8d7a0d14c09","651c1ca5a70859f21f006929","null","null","<p style=""font-size: 60px; font-family: BACS"">ckLALQGb</p>","","","","","","","","","",""
"html-keyboard-response","224","555819","0.0-12.0-0.54","615b042301e3a24311563ee4","650c16f0f2faf8d7a0d14c09","651c1ca5a70859f21f006929","null","null","<p style=""font-size: 60px; font-family: BACS"">hbkdkMEC</p>","","","","","","","","","",""
"html-keyboard-response","225","556824","0.0-12.0-0.55","615b042301e3a24311563ee4","650c16f0f2faf8d7a0d14c09","651c1ca5a70859f21f006929","null","null","<p style=""font-size: 60px; font-family: BACS"">JAaGQvlZ</p>","","","","","","","","","",""
"html-keyboard-response","226","557840","0.0-12.0-0.56","615b042301e3a24311563ee4","650c16f0f2faf8d7a0d14c09","651c1ca5a70859f21f006929","null","null","<p style=""font-size: 60px; font-family: BACS"">hbkdhRKm</p>","","","","","","","","","",""
"html-keyboard-response","227","558858","0.0-12.0-0.57","615b042301e3a24311563ee4","650c16f0f2faf8d7a0d14c09","651c1ca5a70859f21f006929","null","null","<p style=""font-size: 60px; font-family: BACS"">CYPcRDM</p>","","","","","","","","","",""
"html-keyboard-response","228","559862","0.0-12.0-0.58","615b042301e3a24311563ee4","650c16f0f2faf8d7a0d14c09","651c1ca5a70859f21f006929","null","null","<p style=""font-size: 60px; font-family: BACS"">rvUbrAm</p>","","","","","","","","","",""
"html-keyboard-response","229","560866","0.0-12.0-0.59","615b042301e3a24311563ee4","650c16f0f2faf8d7a0d14c09","651c1ca5a70859f21f006929","null","null","<p style=""font-size: 60px; font-family: BACS"">ZkGmYkYL</p>","","","","","","","","","",""
"html-keyboard-response","230","561870","0.0-12.0-0.60","615b042301e3a24311563ee4","650c16f0f2faf8d7a0d14c09","651c1ca5a70859f21f006929","null","null","<p style=""font-size: 60px; font-family: BACS"">CDEmYOdOP</p>","","","","","","","","","",""
"html-keyboard-response","231","562885","0.0-12.0-0.61","615b042301e3a24311563ee4","650c16f0f2faf8d7a0d14c09","651c1ca5a70859f21f006929","null","null","<p style=""font-size: 60px; font-family: BACS"">LdrbvkYL</p>","","","","","","","","","",""
"html-keyboard-response","232","563888","0.0-12.0-0.62","615b042301e3a24311563ee4","650c16f0f2faf8d7a0d14c09","651c1ca5a70859f21f006929","null","null","<p style=""font-size: 60px; font-family: BACS"">ckLALUbG</p>","","","","","","","","","",""
"html-keyboard-response","233","564893","0.0-12.0-0.63","615b042301e3a24311563ee4","650c16f0f2faf8d7a0d14c09","651c1ca5a70859f21f006929","null","null","<p style=""font-size: 60px; font-family: BACS"">MBKREOdOP</p>","","","","","","","","","",""
"html-keyboard-response","234","565911","0.0-12.0-0.64","615b042301e3a24311563ee4","650c16f0f2faf8d7a0d14c09","651c1ca5a70859f21f006929","null","null","<p style=""font-size: 60px; font-family: BACS"">EPERdkMEC</p>","","","","","","","","","",""
"html-keyboard-response","235","566914","0.0-12.0-0.65","615b042301e3a24311563ee4","650c16f0f2faf8d7a0d14c09","651c1ca5a70859f21f006929","null","null","<p style=""font-size: 60px; font-family: BACS"">CDEmYRDM</p>","","","","","","","","","",""
"html-keyboard-response","236","567929","0.0-12.0-0.66","615b042301e3a24311563ee4","650c16f0f2faf8d7a0d14c09","651c1ca5a70859f21f006929","null","null","<p style=""font-size: 60px; font-family: BACS"">cBROBhRKm</p>","","","","","","","","","",""
"html-keyboard-response","237","568934","0.0-12.0-0.67","615b042301e3a24311563ee4","650c16f0f2faf8d7a0d14c09","651c1ca5a70859f21f006929","null","null","<p style=""font-size: 60px; font-family: BACS"">YQbcQvlZ</p>","","","","","","","","","",""
"html-keyboard-response","238","569937","0.0-12.0-0.68","615b042301e3a24311563ee4","650c16f0f2faf8d7a0d14c09","651c1ca5a70859f21f006929","null","null","<p style=""font-size: 60px; font-family: BACS"">EPERdOdOP</p>","","","","","","","","","",""
"html-keyboard-response","239","570957","0.0-12.0-0.69","615b042301e3a24311563ee4","650c16f0f2faf8d7a0d14c09","651c1ca5a70859f21f006929","null","null","<p style=""font-size: 60px; font-family: BACS"">KElBhRKm</p>","","","","","","","","","",""
"html-keyboard-response","240","571959","0.0-12.0-0.70","615b042301e3a24311563ee4","650c16f0f2faf8d7a0d14c09","651c1ca5a70859f21f006929","null","null","<p style=""font-size: 60px; font-family: BACS"">vmuLlkYL</p>","","","","","","","","","",""
"html-keyboard-response","241","572975","0.0-12.0-0.71","615b042301e3a24311563ee4","650c16f0f2faf8d7a0d14c09","651c1ca5a70859f21f006929","null","null","<p style=""font-size: 60px; font-family: BACS"">MTdYRDM</p>","","","","","","","","","",""
"html-keyboard-response","242","573979","0.0-12.0-0.72","615b042301e3a24311563ee4","650c16f0f2faf8d7a0d14c09","651c1ca5a70859f21f006929","null","null","<p style=""font-size: 60px; font-family: BACS"">JAaGQGb</p>","","","","","","","","","",""
"html-keyboard-response","243","574997","0.0-12.0-0.73","615b042301e3a24311563ee4","650c16f0f2faf8d7a0d14c09","651c1ca5a70859f21f006929","null","null","<p style=""font-size: 60px; font-family: BACS"">KElBOdOP</p>","","","","","","","","","",""
"html-keyboard-response","244","576000","0.0-12.0-0.74","615b042301e3a24311563ee4","650c16f0f2faf8d7a0d14c09","651c1ca5a70859f21f006929","null","null","<p style=""font-size: 60px; font-family: BACS"">cAZukYL</p>","","","","","","","","","",""
"html-keyboard-response","245","577017","0.0-12.0-0.75","615b042301e3a24311563ee4","650c16f0f2faf8d7a0d14c09","651c1ca5a70859f21f006929","null","null","<p style=""font-size: 60px; font-family: BACS"">ObOQlrAm</p>","","","","","","","","","",""
"html-keyboard-response","246","578022","0.0-12.0-0.76","615b042301e3a24311563ee4","650c16f0f2faf8d7a0d14c09","651c1ca5a70859f21f006929","null","null","<p style=""font-size: 60px; font-family: BACS"">YQbcUbG</p>","","","","","","","","","",""
"html-keyboard-response","247","579038","0.0-12.0-0.77","615b042301e3a24311563ee4","650c16f0f2faf8d7a0d14c09","651c1ca5a70859f21f006929","null","null","<p style=""font-size: 60px; font-family: BACS"">KElBTbk</p>","","","","","","","","","",""
"html-keyboard-response","248","580043","0.0-12.0-0.78","615b042301e3a24311563ee4","650c16f0f2faf8d7a0d14c09","651c1ca5a70859f21f006929","null","null","<p style=""font-size: 60px; font-family: BACS"">JAaGrAm</p>","","","","","","","","","",""
"html-keyboard-response","249","581059","0.0-12.0-0.79","615b042301e3a24311563ee4","650c16f0f2faf8d7a0d14c09","651c1ca5a70859f21f006929","null","null","<p style=""font-size: 60px; font-family: BACS"">ObOQlUbG</p>","","","","","","","","","",""
"html-keyboard-response","250","593363","0.0-13.0","615b042301e3a24311563ee4","650c16f0f2faf8d7a0d14c09","651c1ca5a70859f21f006929","12302"," ","<p>Great, you've seen the third block of words. You may now take a short break.</p>
      <p>Press the spacebar when you're ready to continue.</p>","","","","","","","","","",""
"html-keyboard-response","251","594373","0.0-14.0-0.0","615b042301e3a24311563ee4","650c16f0f2faf8d7a0d14c09","651c1ca5a70859f21f006929","null","null","<p style=""font-size: 60px; font-family: BACS"">MBKRERDM</p>","","","","","","","","","",""
"html-keyboard-response","252","595376","0.0-14.0-0.1","615b042301e3a24311563ee4","650c16f0f2faf8d7a0d14c09","651c1ca5a70859f21f006929","null","null","<p style=""font-size: 60px; font-family: BACS"">JAaGUbG</p>","","","","","","","","","",""
"html-keyboard-response","253","596380","0.0-14.0-0.2","615b042301e3a24311563ee4","650c16f0f2faf8d7a0d14c09","651c1ca5a70859f21f006929","null","null","<p style=""font-size: 60px; font-family: BACS"">cAZukYL</p>","","","","","","","","","",""
"html-keyboard-response","254","597396","0.0-14.0-0.3","615b042301e3a24311563ee4","650c16f0f2faf8d7a0d14c09","651c1ca5a70859f21f006929","null","null","<p style=""font-size: 60px; font-family: BACS"">CYPcRDM</p>","","","","","","","","","",""
"html-keyboard-response","255","598413","0.0-14.0-0.4","615b042301e3a24311563ee4","650c16f0f2faf8d7a0d14c09","651c1ca5a70859f21f006929","null","null","<p style=""font-size: 60px; font-family: BACS"">vmuLlrAm</p>","","","","","","","","","",""
"html-keyboard-response","256","599416","0.0-14.0-0.5","615b042301e3a24311563ee4","650c16f0f2faf8d7a0d14c09","651c1ca5a70859f21f006929","null","null","<p style=""font-size: 60px; font-family: BACS"">CDEmYTbk</p>","","","","","","","","","",""
"html-keyboard-response","257","600420","0.0-14.0-0.6","615b042301e3a24311563ee4","650c16f0f2faf8d7a0d14c09","651c1ca5a70859f21f006929","null","null","<p style=""font-size: 60px; font-family: BACS"">ZkGmYrAm</p>","","","","","","","","","",""
"html-keyboard-response","258","601438","0.0-14.0-0.7","615b042301e3a24311563ee4","650c16f0f2faf8d7a0d14c09","651c1ca5a70859f21f006929","null","null","<p style=""font-size: 60px; font-family: BACS"">YQbcQvlZ</p>","","","","","","","","","",""
"html-keyboard-response","259","602442","0.0-14.0-0.8","615b042301e3a24311563ee4","650c16f0f2faf8d7a0d14c09","651c1ca5a70859f21f006929","null","null","<p style=""font-size: 60px; font-family: BACS"">MBKREkMEC</p>","","","","","","","","","",""
"html-keyboard-response","260","603459","0.0-14.0-0.9","615b042301e3a24311563ee4","650c16f0f2faf8d7a0d14c09","651c1ca5a70859f21f006929","null","null","<p style=""font-size: 60px; font-family: BACS"">LdrbvQGb</p>","","","","","","","","","",""
"html-keyboard-response","261","604463","0.0-14.0-0.10","615b042301e3a24311563ee4","650c16f0f2faf8d7a0d14c09","651c1ca5a70859f21f006929","null","null","<p style=""font-size: 60px; font-family: BACS"">tRdMRDM</p>","","","","","","","","","",""
"html-keyboard-response","262","605479","0.0-14.0-0.11","615b042301e3a24311563ee4","650c16f0f2faf8d7a0d14c09","651c1ca5a70859f21f006929","null","null","<p style=""font-size: 60px; font-family: BACS"">lbBDEhRKm</p>","","","","","","","","","",""
"html-keyboard-response","263","606484","0.0-14.0-0.12","615b042301e3a24311563ee4","650c16f0f2faf8d7a0d14c09","651c1ca5a70859f21f006929","null","null","<p style=""font-size: 60px; font-family: BACS"">EPERdkMEC</p>","","","","","","","","","",""
"html-keyboard-response","264","607501","0.0-14.0-0.13","615b042301e3a24311563ee4","650c16f0f2faf8d7a0d14c09","651c1ca5a70859f21f006929","null","null","<p style=""font-size: 60px; font-family: BACS"">CYPcTbk</p>","","","","","","","","","",""
"html-keyboard-response","265","608505","0.0-14.0-0.14","615b042301e3a24311563ee4","650c16f0f2faf8d7a0d14c09","651c1ca5a70859f21f006929","null","null","<p style=""font-size: 60px; font-family: BACS"">cAZuUbG</p>","","","","","","","","","",""
"html-keyboard-response","266","609521","0.0-14.0-0.15","615b042301e3a24311563ee4","650c16f0f2faf8d7a0d14c09","651c1ca5a70859f21f006929","null","null","<p style=""font-size: 60px; font-family: BACS"">ckLALQGb</p>","","","","","","","","","",""
"html-keyboard-response","267","610525","0.0-14.0-0.16","615b042301e3a24311563ee4","650c16f0f2faf8d7a0d14c09","651c1ca5a70859f21f006929","null","null","<p style=""font-size: 60px; font-family: BACS"">MTdYkMEC</p>","","","","","","","","","",""
"html-keyboard-response","268","611528","0.0-14.0-0.17","615b042301e3a24311563ee4","650c16f0f2faf8d7a0d14c09","651c1ca5a70859f21f006929","null","null","<p style=""font-size: 60px; font-family: BACS"">GJZmQGb</p>","","","","","","","","","",""
"html-keyboard-response","269","612547","0.0-14.0-0.18","615b042301e3a24311563ee4","650c16f0f2faf8d7a0d14c09","651c1ca5a70859f21f006929","null","null","<p style=""font-size: 60px; font-family: BACS"">tRdMOdOP</p>","","","","","","","","","",""
"html-keyboard-response","270","613549","0.0-14.0-0.19","615b042301e3a24311563ee4","650c16f0f2faf8d7a0d14c09","651c1ca5a70859f21f006929","null","null","<p style=""font-size: 60px; font-family: BACS"">YQbckYL</p>","","","","","","","","","",""
"html-keyboard-response","271","614566","0.0-14.0-0.20","615b042301e3a24311563ee4","650c16f0f2faf8d7a0d14c09","651c1ca5a70859f21f006929","null","null","<p style=""font-size: 60px; font-family: BACS"">ckLALUbG</p>","","","","","","","","","",""
"html-keyboard-response","272","615570","0.0-14.0-0.21","615b042301e3a24311563ee4","650c16f0f2faf8d7a0d14c09","651c1ca5a70859f21f006929","null","null","<p style=""font-size: 60px; font-family: BACS"">lbBDEkMEC</p>","","","","","","","","","",""
"html-keyboard-response","273","616587","0.0-14.0-0.22","615b042301e3a24311563ee4","650c16f0f2faf8d7a0d14c09","651c1ca5a70859f21f006929","null","null","<p style=""font-size: 60px; font-family: BACS"">CYPchRKm</p>","","","","","","","","","",""
"html-keyboard-response","274","617591","0.0-14.0-0.23","615b042301e3a24311563ee4","650c16f0f2faf8d7a0d14c09","651c1ca5a70859f21f006929","null","null","<p style=""font-size: 60px; font-family: BACS"">rvUbUbG</p>","","","","","","","","","",""
"html-keyboard-response","275","618607","0.0-14.0-0.24","615b042301e3a24311563ee4","650c16f0f2faf8d7a0d14c09","651c1ca5a70859f21f006929","null","null","<p style=""font-size: 60px; font-family: BACS"">ZkGmYQGb</p>","","","","","","","","","",""
"html-keyboard-response","276","619611","0.0-14.0-0.25","615b042301e3a24311563ee4","650c16f0f2faf8d7a0d14c09","651c1ca5a70859f21f006929","null","null","<p style=""font-size: 60px; font-family: BACS"">EPERdTbk</p>","","","","","","","","","",""
"html-keyboard-response","277","620614","0.0-14.0-0.26","615b042301e3a24311563ee4","650c16f0f2faf8d7a0d14c09","651c1ca5a70859f21f006929","null","null","<p style=""font-size: 60px; font-family: BACS"">YQbcUbG</p>","","","","","","","","","",""
"html-keyboard-response","278","621630","0.0-14.0-0.27","615b042301e3a24311563ee4","650c16f0f2faf8d7a0d14c09","651c1ca5a70859f21f006929","null","null","<p style=""font-size: 60px; font-family: BACS"">ObOQlQvlZ</p>","","","","","","","","","",""
"html-keyboard-response","279","622639","0.0-14.0-0.28","615b042301e3a24311563ee4","650c16f0f2faf8d7a0d14c09","651c1ca5a70859f21f006929","null","null","<p style=""font-size: 60px; font-family: BACS"">rvUbkYL</p>","","","","","","","","","",""
"html-keyboard-response","280","623653","0.0-14.0-0.29","615b042301e3a24311563ee4","650c16f0f2faf8d7a0d14c09","651c1ca5a70859f21f006929","null","null","<p style=""font-size: 60px; font-family: BACS"">GJZmQvlZ</p>","","","","","","","","","",""
"html-keyboard-response","281","624657","0.0-14.0-0.30","615b042301e3a24311563ee4","650c16f0f2faf8d7a0d14c09","651c1ca5a70859f21f006929","null","null","<p style=""font-size: 60px; font-family: BACS"">MTdYhRKm</p>","","","","","","","","","",""
"html-keyboard-response","282","625673","0.0-14.0-0.31","615b042301e3a24311563ee4","650c16f0f2faf8d7a0d14c09","651c1ca5a70859f21f006929","null","null","<p style=""font-size: 60px; font-family: BACS"">hbkdRDM</p>","","","","","","","","","",""
"html-keyboard-response","283","626677","0.0-14.0-0.32","615b042301e3a24311563ee4","650c16f0f2faf8d7a0d14c09","651c1ca5a70859f21f006929","null","null","<p style=""font-size: 60px; font-family: BACS"">ZkGmYkYL</p>","","","","","","","","","",""
"html-keyboard-response","284","627682","0.0-14.0-0.33","615b042301e3a24311563ee4","650c16f0f2faf8d7a0d14c09","651c1ca5a70859f21f006929","null","null","<p style=""font-size: 60px; font-family: BACS"">GJZmrAm</p>","","","","","","","","","",""
"html-keyboard-response","285","628699","0.0-14.0-0.34","615b042301e3a24311563ee4","650c16f0f2faf8d7a0d14c09","651c1ca5a70859f21f006929","null","null","<p style=""font-size: 60px; font-family: BACS"">hbkdOdOP</p>","","","","","","","","","",""
"html-keyboard-response","286","629715","0.0-14.0-0.35","615b042301e3a24311563ee4","650c16f0f2faf8d7a0d14c09","651c1ca5a70859f21f006929","null","null","<p style=""font-size: 60px; font-family: BACS"">rvUbQvlZ</p>","","","","","","","","","",""
"html-keyboard-response","287","630720","0.0-14.0-0.36","615b042301e3a24311563ee4","650c16f0f2faf8d7a0d14c09","651c1ca5a70859f21f006929","null","null","<p style=""font-size: 60px; font-family: BACS"">vmuLlUbG</p>","","","","","","","","","",""
"html-keyboard-response","288","631723","0.0-14.0-0.37","615b042301e3a24311563ee4","650c16f0f2faf8d7a0d14c09","651c1ca5a70859f21f006929","null","null","<p style=""font-size: 60px; font-family: BACS"">CDEmYRDM</p>","","","","","","","","","",""
"html-keyboard-response","289","632742","0.0-14.0-0.38","615b042301e3a24311563ee4","650c16f0f2faf8d7a0d14c09","651c1ca5a70859f21f006929","null","null","<p style=""font-size: 60px; font-family: BACS"">EPERdhRKm</p>","","","","","","","","","",""
"html-keyboard-response","290","633759","0.0-14.0-0.39","615b042301e3a24311563ee4","650c16f0f2faf8d7a0d14c09","651c1ca5a70859f21f006929","null","null","<p style=""font-size: 60px; font-family: BACS"">LdrbvUbG</p>","","","","","","","","","",""
"html-keyboard-response","291","634776","0.0-14.0-0.40","615b042301e3a24311563ee4","650c16f0f2faf8d7a0d14c09","651c1ca5a70859f21f006929","null","null","<p style=""font-size: 60px; font-family: BACS"">MBKRETbk</p>","","","","","","","","","",""
"html-keyboard-response","292","635781","0.0-14.0-0.41","615b042301e3a24311563ee4","650c16f0f2faf8d7a0d14c09","651c1ca5a70859f21f006929","null","null","<p style=""font-size: 60px; font-family: BACS"">MTdYRDM</p>","","","","","","","","","",""
"html-keyboard-response","293","636786","0.0-14.0-0.42","615b042301e3a24311563ee4","650c16f0f2faf8d7a0d14c09","651c1ca5a70859f21f006929","null","null","<p style=""font-size: 60px; font-family: BACS"">ckLALQvlZ</p>","","","","","","","","","",""
"html-keyboard-response","294","637799","0.0-14.0-0.43","615b042301e3a24311563ee4","650c16f0f2faf8d7a0d14c09","651c1ca5a70859f21f006929","null","null","<p style=""font-size: 60px; font-family: BACS"">vmuLlkYL</p>","","","","","","","","","",""
"html-keyboard-response","295","638803","0.0-14.0-0.44","615b042301e3a24311563ee4","650c16f0f2faf8d7a0d14c09","651c1ca5a70859f21f006929","null","null","<p style=""font-size: 60px; font-family: BACS"">MTdYOdOP</p>","","","","","","","","","",""
"html-keyboard-response","296","639808","0.0-14.0-0.45","615b042301e3a24311563ee4","650c16f0f2faf8d7a0d14c09","651c1ca5a70859f21f006929","null","null","<p style=""font-size: 60px; font-family: BACS"">ZkGmYQvlZ</p>","","","","","","","","","",""
"html-keyboard-response","297","640826","0.0-14.0-0.46","615b042301e3a24311563ee4","650c16f0f2faf8d7a0d14c09","651c1ca5a70859f21f006929","null","null","<p style=""font-size: 60px; font-family: BACS"">LdrbvkYL</p>","","","","","","","","","",""
"html-keyboard-response","298","641829","0.0-14.0-0.47","615b042301e3a24311563ee4","650c16f0f2faf8d7a0d14c09","651c1ca5a70859f21f006929","null","null","<p style=""font-size: 60px; font-family: BACS"">KElBTbk</p>","","","","","","","","","",""
"html-keyboard-response","299","642845","0.0-14.0-0.48","615b042301e3a24311563ee4","650c16f0f2faf8d7a0d14c09","651c1ca5a70859f21f006929","null","null","<p style=""font-size: 60px; font-family: BACS"">CYPckMEC</p>","","","","","","","","","",""
"html-keyboard-response","300","643847","0.0-14.0-0.49","615b042301e3a24311563ee4","650c16f0f2faf8d7a0d14c09","651c1ca5a70859f21f006929","null","null","<p style=""font-size: 60px; font-family: BACS"">cBROBRDM</p>","","","","","","","","","",""
"html-keyboard-response","301","644852","0.0-14.0-0.50","615b042301e3a24311563ee4","650c16f0f2faf8d7a0d14c09","651c1ca5a70859f21f006929","null","null","<p style=""font-size: 60px; font-family: BACS"">KElBkMEC</p>","","","","","","","","","",""
"html-keyboard-response","302","645855","0.0-14.0-0.51","615b042301e3a24311563ee4","650c16f0f2faf8d7a0d14c09","651c1ca5a70859f21f006929","null","null","<p style=""font-size: 60px; font-family: BACS"">JAaGrAm</p>","","","","","","","","","",""
"html-keyboard-response","303","646871","0.0-14.0-0.52","615b042301e3a24311563ee4","650c16f0f2faf8d7a0d14c09","651c1ca5a70859f21f006929","null","null","<p style=""font-size: 60px; font-family: BACS"">cBROBhRKm</p>","","","","","","","","","",""
"html-keyboard-response","304","647874","0.0-14.0-0.53","615b042301e3a24311563ee4","650c16f0f2faf8d7a0d14c09","651c1ca5a70859f21f006929","null","null","<p style=""font-size: 60px; font-family: BACS"">lbBDERDM</p>","","","","","","","","","",""
"html-keyboard-response","305","648877","0.0-14.0-0.54","615b042301e3a24311563ee4","650c16f0f2faf8d7a0d14c09","651c1ca5a70859f21f006929","null","null","<p style=""font-size: 60px; font-family: BACS"">cBROBOdOP</p>","","","","","","","","","",""
"html-keyboard-response","306","649895","0.0-14.0-0.55","615b042301e3a24311563ee4","650c16f0f2faf8d7a0d14c09","651c1ca5a70859f21f006929","null","null","<p style=""font-size: 60px; font-family: BACS"">ckLALrAm</p>","","","","","","","","","",""
"html-keyboard-response","307","650899","0.0-14.0-0.56","615b042301e3a24311563ee4","650c16f0f2faf8d7a0d14c09","651c1ca5a70859f21f006929","null","null","<p style=""font-size: 60px; font-family: BACS"">YQbcQGb</p>","","","","","","","","","",""
"html-keyboard-response","308","651915","0.0-14.0-0.57","615b042301e3a24311563ee4","650c16f0f2faf8d7a0d14c09","651c1ca5a70859f21f006929","null","null","<p style=""font-size: 60px; font-family: BACS"">JAaGQvlZ</p>","","","","","","","","","",""
"html-keyboard-response","309","652934","0.0-14.0-0.58","615b042301e3a24311563ee4","650c16f0f2faf8d7a0d14c09","651c1ca5a70859f21f006929","null","null","<p style=""font-size: 60px; font-family: BACS"">ObOQlkYL</p>","","","","","","","","","",""
"html-keyboard-response","310","653952","0.0-14.0-0.59","615b042301e3a24311563ee4","650c16f0f2faf8d7a0d14c09","651c1ca5a70859f21f006929","null","null","<p style=""font-size: 60px; font-family: BACS"">LdrbvrAm</p>","","","","","","","","","",""
"html-keyboard-response","311","654958","0.0-14.0-0.60","615b042301e3a24311563ee4","650c16f0f2faf8d7a0d14c09","651c1ca5a70859f21f006929","null","null","<p style=""font-size: 60px; font-family: BACS"">CDEmYhRKm</p>","","","","","","","","","",""
"html-keyboard-response","312","655973","0.0-14.0-0.61","615b042301e3a24311563ee4","650c16f0f2faf8d7a0d14c09","651c1ca5a70859f21f006929","null","null","<p style=""font-size: 60px; font-family: BACS"">tRdMTbk</p>","","","","","","","","","",""
"html-keyboard-response","313","656978","0.0-14.0-0.62","615b042301e3a24311563ee4","650c16f0f2faf8d7a0d14c09","651c1ca5a70859f21f006929","null","null","<p style=""font-size: 60px; font-family: BACS"">EPERdOdOP</p>","","","","","","","","","",""
"html-keyboard-response","314","657980","0.0-14.0-0.63","615b042301e3a24311563ee4","650c16f0f2faf8d7a0d14c09","651c1ca5a70859f21f006929","null","null","<p style=""font-size: 60px; font-family: BACS"">KElBhRKm</p>","","","","","","","","","",""
"html-keyboard-response","315","658982","0.0-14.0-0.64","615b042301e3a24311563ee4","650c16f0f2faf8d7a0d14c09","651c1ca5a70859f21f006929","null","null","<p style=""font-size: 60px; font-family: BACS"">rvUbrAm</p>","","","","","","","","","",""
"html-keyboard-response","316","659998","0.0-14.0-0.65","615b042301e3a24311563ee4","650c16f0f2faf8d7a0d14c09","651c1ca5a70859f21f006929","null","null","<p style=""font-size: 60px; font-family: BACS"">lbBDETbk</p>","","","","","","","","","",""
"html-keyboard-response","317","661003","0.0-14.0-0.66","615b042301e3a24311563ee4","650c16f0f2faf8d7a0d14c09","651c1ca5a70859f21f006929","null","null","<p style=""font-size: 60px; font-family: BACS"">ObOQlUbG</p>","","","","","","","","","",""
"html-keyboard-response","318","662007","0.0-14.0-0.67","615b042301e3a24311563ee4","650c16f0f2faf8d7a0d14c09","651c1ca5a70859f21f006929","null","null","<p style=""font-size: 60px; font-family: BACS"">JAaGQGb</p>","","","","","","","","","",""
"html-keyboard-response","319","663022","0.0-14.0-0.68","615b042301e3a24311563ee4","650c16f0f2faf8d7a0d14c09","651c1ca5a70859f21f006929","null","null","<p style=""font-size: 60px; font-family: BACS"">KElBOdOP</p>","","","","","","","","","",""
"html-keyboard-response","320","664028","0.0-14.0-0.69","615b042301e3a24311563ee4","650c16f0f2faf8d7a0d14c09","651c1ca5a70859f21f006929","null","null","<p style=""font-size: 60px; font-family: BACS"">hbkdhRKm</p>","","","","","","","","","",""
"html-keyboard-response","321","665045","0.0-14.0-0.70","615b042301e3a24311563ee4","650c16f0f2faf8d7a0d14c09","651c1ca5a70859f21f006929","null","null","<p style=""font-size: 60px; font-family: BACS"">ObOQlrAm</p>","","","","","","","","","",""
"html-keyboard-response","322","666048","0.0-14.0-0.71","615b042301e3a24311563ee4","650c16f0f2faf8d7a0d14c09","651c1ca5a70859f21f006929","null","null","<p style=""font-size: 60px; font-family: BACS"">vmuLlQGb</p>","","","","","","","","","",""
"html-keyboard-response","323","667050","0.0-14.0-0.72","615b042301e3a24311563ee4","650c16f0f2faf8d7a0d14c09","651c1ca5a70859f21f006929","null","null","<p style=""font-size: 60px; font-family: BACS"">GJZmkYL</p>","","","","","","","","","",""
"html-keyboard-response","324","668053","0.0-14.0-0.73","615b042301e3a24311563ee4","650c16f0f2faf8d7a0d14c09","651c1ca5a70859f21f006929","null","null","<p style=""font-size: 60px; font-family: BACS"">cAZuQvlZ</p>","","","","","","","","","",""
"html-keyboard-response","325","669069","0.0-14.0-0.74","615b042301e3a24311563ee4","650c16f0f2faf8d7a0d14c09","651c1ca5a70859f21f006929","null","null","<p style=""font-size: 60px; font-family: BACS"">cBROBTbk</p>","","","","","","","","","",""
"html-keyboard-response","326","670072","0.0-14.0-0.75","615b042301e3a24311563ee4","650c16f0f2faf8d7a0d14c09","651c1ca5a70859f21f006929","null","null","<p style=""font-size: 60px; font-family: BACS"">MBKREOdOP</p>","","","","","","","","","",""
"html-keyboard-response","327","671076","0.0-14.0-0.76","615b042301e3a24311563ee4","650c16f0f2faf8d7a0d14c09","651c1ca5a70859f21f006929","null","null","<p style=""font-size: 60px; font-family: BACS"">cAZuQGb</p>","","","","","","","","","",""
"html-keyboard-response","328","672091","0.0-14.0-0.77","615b042301e3a24311563ee4","650c16f0f2faf8d7a0d14c09","651c1ca5a70859f21f006929","null","null","<p style=""font-size: 60px; font-family: BACS"">hbkdkMEC</p>","","","","","","","","","",""
"html-keyboard-response","329","673096","0.0-14.0-0.78","615b042301e3a24311563ee4","650c16f0f2faf8d7a0d14c09","651c1ca5a70859f21f006929","null","null","<p style=""font-size: 60px; font-family: BACS"">CDEmYOdOP</p>","","","","","","","","","",""
"html-keyboard-response","330","674098","0.0-14.0-0.79","615b042301e3a24311563ee4","650c16f0f2faf8d7a0d14c09","651c1ca5a70859f21f006929","null","null","<p style=""font-size: 60px; font-family: BACS"">tRdMkMEC</p>","","","","","","","","","",""
"html-keyboard-response","331","682283","0.0-15.0","615b042301e3a24311563ee4","650c16f0f2faf8d7a0d14c09","651c1ca5a70859f21f006929","8182"," ","<p>Great, you've seen the fourth block of words. You may now take a short break.</p>
      <p>Press the spacebar when you're ready to continue.</p>","","","","","","","","","",""
"html-keyboard-response","332","683287","0.0-16.0-0.0","615b042301e3a24311563ee4","650c16f0f2faf8d7a0d14c09","651c1ca5a70859f21f006929","null","null","<p style=""font-size: 60px; font-family: BACS"">tRdMRDM</p>","","","","","","","","","",""
"html-keyboard-response","333","684303","0.0-16.0-0.1","615b042301e3a24311563ee4","650c16f0f2faf8d7a0d14c09","651c1ca5a70859f21f006929","null","null","<p style=""font-size: 60px; font-family: BACS"">tRdMRDM</p>","","","","","","","","","",""
"html-keyboard-response","334","685307","0.0-16.0-0.2","615b042301e3a24311563ee4","650c16f0f2faf8d7a0d14c09","651c1ca5a70859f21f006929","null","null","<p style=""font-size: 60px; font-family: BACS"">tRdMRDM</p>","","","","","","","","","",""
"html-keyboard-response","335","686309","0.0-16.0-0.3","615b042301e3a24311563ee4","650c16f0f2faf8d7a0d14c09","651c1ca5a70859f21f006929","null","null","<p style=""font-size: 60px; font-family: BACS"">tRdMRDM</p>","","","","","","","","","",""
"html-keyboard-response","336","687325","0.0-16.0-0.4","615b042301e3a24311563ee4","650c16f0f2faf8d7a0d14c09","651c1ca5a70859f21f006929","null","null","<p style=""font-size: 60px; font-family: BACS"">tRdMRDM</p>","","","","","","","","","",""
"html-keyboard-response","337","688329","0.0-16.0-0.5","615b042301e3a24311563ee4","650c16f0f2faf8d7a0d14c09","651c1ca5a70859f21f006929","null","null","<p style=""font-size: 60px; font-family: BACS"">tRdMRDM</p>","","","","","","","","","",""
"html-keyboard-response","338","689333","0.0-16.0-0.6","615b042301e3a24311563ee4","650c16f0f2faf8d7a0d14c09","651c1ca5a70859f21f006929","null","null","<p style=""font-size: 60px; font-family: BACS"">tRdMRDM</p>","","","","","","","","","",""
"html-keyboard-response","339","690335","0.0-16.0-0.7","615b042301e3a24311563ee4","650c16f0f2faf8d7a0d14c09","651c1ca5a70859f21f006929","null","null","<p style=""font-size: 60px; font-family: BACS"">tRdMRDM</p>","","","","","","","","","",""
"html-keyboard-response","340","691338","0.0-16.0-0.8","615b042301e3a24311563ee4","650c16f0f2faf8d7a0d14c09","651c1ca5a70859f21f006929","null","null","<p style=""font-size: 60px; font-family: BACS"">tRdMRDM</p>","","","","","","","","","",""
"html-keyboard-response","341","692354","0.0-16.0-0.9","615b042301e3a24311563ee4","650c16f0f2faf8d7a0d14c09","651c1ca5a70859f21f006929","null","null","<p style=""font-size: 60px; font-family: BACS"">tRdMRDM</p>","","","","","","","","","",""
"html-keyboard-response","342","693358","0.0-16.0-0.10","615b042301e3a24311563ee4","650c16f0f2faf8d7a0d14c09","651c1ca5a70859f21f006929","null","null","<p style=""font-size: 60px; font-family: BACS"">tRdMRDM</p>","","","","","","","","","",""
"html-keyboard-response","343","694374","0.0-16.0-0.11","615b042301e3a24311563ee4","650c16f0f2faf8d7a0d14c09","651c1ca5a70859f21f006929","null","null","<p style=""font-size: 60px; font-family: BACS"">tRdMRDM</p>","","","","","","","","","",""
"html-keyboard-response","344","695379","0.0-16.0-0.12","615b042301e3a24311563ee4","650c16f0f2faf8d7a0d14c09","651c1ca5a70859f21f006929","null","null","<p style=""font-size: 60px; font-family: BACS"">tRdMRDM</p>","","","","","","","","","",""
"html-keyboard-response","345","696395","0.0-16.0-0.13","615b042301e3a24311563ee4","650c16f0f2faf8d7a0d14c09","651c1ca5a70859f21f006929","null","null","<p style=""font-size: 60px; font-family: BACS"">tRdMRDM</p>","","","","","","","","","",""
"html-keyboard-response","346","697400","0.0-16.0-0.14","615b042301e3a24311563ee4","650c16f0f2faf8d7a0d14c09","651c1ca5a70859f21f006929","null","null","<p style=""font-size: 60px; font-family: BACS"">tRdMRDM</p>","","","","","","","","","",""
"html-keyboard-response","347","698402","0.0-16.0-0.15","615b042301e3a24311563ee4","650c16f0f2faf8d7a0d14c09","651c1ca5a70859f21f006929","null","null","<p style=""font-size: 60px; font-family: BACS"">tRdMRDM</p>","","","","","","","","","",""
"html-keyboard-response","348","699421","0.0-16.0-0.16","615b042301e3a24311563ee4","650c16f0f2faf8d7a0d14c09","651c1ca5a70859f21f006929","null","null","<p style=""font-size: 60px; font-family: BACS"">tRdMRDM</p>","","","","","","","","","",""
"html-keyboard-response","349","700424","0.0-16.0-0.17","615b042301e3a24311563ee4","650c16f0f2faf8d7a0d14c09","651c1ca5a70859f21f006929","null","null","<p style=""font-size: 60px; font-family: BACS"">tRdMRDM</p>","","","","","","","","","",""
"html-keyboard-response","350","701427","0.0-16.0-0.18","615b042301e3a24311563ee4","650c16f0f2faf8d7a0d14c09","651c1ca5a70859f21f006929","null","null","<p style=""font-size: 60px; font-family: BACS"">tRdMRDM</p>","","","","","","","","","",""
"html-keyboard-response","351","702442","0.0-16.0-0.19","615b042301e3a24311563ee4","650c16f0f2faf8d7a0d14c09","651c1ca5a70859f21f006929","null","null","<p style=""font-size: 60px; font-family: BACS"">tRdMRDM</p>","","","","","","","","","",""
"html-keyboard-response","352","703449","0.0-16.0-0.20","615b042301e3a24311563ee4","650c16f0f2faf8d7a0d14c09","651c1ca5a70859f21f006929","null","null","<p style=""font-size: 60px; font-family: BACS"">tRdMRDM</p>","","","","","","","","","",""
"html-keyboard-response","353","704465","0.0-16.0-0.21","615b042301e3a24311563ee4","650c16f0f2faf8d7a0d14c09","651c1ca5a70859f21f006929","null","null","<p style=""font-size: 60px; font-family: BACS"">tRdMRDM</p>","","","","","","","","","",""
"html-keyboard-response","354","705468","0.0-16.0-0.22","615b042301e3a24311563ee4","650c16f0f2faf8d7a0d14c09","651c1ca5a70859f21f006929","null","null","<p style=""font-size: 60px; font-family: BACS"">tRdMRDM</p>","","","","","","","","","",""
"html-keyboard-response","355","706471","0.0-16.0-0.23","615b042301e3a24311563ee4","650c16f0f2faf8d7a0d14c09","651c1ca5a70859f21f006929","null","null","<p style=""font-size: 60px; font-family: BACS"">tRdMRDM</p>","","","","","","","","","",""
"html-keyboard-response","356","707488","0.0-16.0-0.24","615b042301e3a24311563ee4","650c16f0f2faf8d7a0d14c09","651c1ca5a70859f21f006929","null","null","<p style=""font-size: 60px; font-family: BACS"">tRdMRDM</p>","","","","","","","","","",""
"html-keyboard-response","357","708492","0.0-16.0-0.25","615b042301e3a24311563ee4","650c16f0f2faf8d7a0d14c09","651c1ca5a70859f21f006929","null","null","<p style=""font-size: 60px; font-family: BACS"">tRdMRDM</p>","","","","","","","","","",""
"html-keyboard-response","358","709508","0.0-16.0-0.26","615b042301e3a24311563ee4","650c16f0f2faf8d7a0d14c09","651c1ca5a70859f21f006929","null","null","<p style=""font-size: 60px; font-family: BACS"">tRdMRDM</p>","","","","","","","","","",""
"html-keyboard-response","359","710514","0.0-16.0-0.27","615b042301e3a24311563ee4","650c16f0f2faf8d7a0d14c09","651c1ca5a70859f21f006929","null","null","<p style=""font-size: 60px; font-family: BACS"">tRdMRDM</p>","","","","","","","","","",""
"html-keyboard-response","360","711531","0.0-16.0-0.28","615b042301e3a24311563ee4","650c16f0f2faf8d7a0d14c09","651c1ca5a70859f21f006929","null","null","<p style=""font-size: 60px; font-family: BACS"">tRdMRDM</p>","","","","","","","","","",""
"html-keyboard-response","361","712534","0.0-16.0-0.29","615b042301e3a24311563ee4","650c16f0f2faf8d7a0d14c09","651c1ca5a70859f21f006929","null","null","<p style=""font-size: 60px; font-family: BACS"">tRdMRDM</p>","","","","","","","","","",""
"html-keyboard-response","362","713551","0.0-16.0-0.30","615b042301e3a24311563ee4","650c16f0f2faf8d7a0d14c09","651c1ca5a70859f21f006929","null","null","<p style=""font-size: 60px; font-family: BACS"">tRdMRDM</p>","","","","","","","","","",""
"html-keyboard-response","363","714556","0.0-16.0-0.31","615b042301e3a24311563ee4","650c16f0f2faf8d7a0d14c09","651c1ca5a70859f21f006929","null","null","<p style=""font-size: 60px; font-family: BACS"">tRdMRDM</p>","","","","","","","","","",""
"html-keyboard-response","364","715573","0.0-16.0-0.32","615b042301e3a24311563ee4","650c16f0f2faf8d7a0d14c09","651c1ca5a70859f21f006929","null","null","<p style=""font-size: 60px; font-family: BACS"">tRdMRDM</p>","","","","","","","","","",""
"html-keyboard-response","365","716590","0.0-16.0-0.33","615b042301e3a24311563ee4","650c16f0f2faf8d7a0d14c09","651c1ca5a70859f21f006929","null","null","<p style=""font-size: 60px; font-family: BACS"">tRdMRDM</p>","","","","","","","","","",""
"html-keyboard-response","366","717595","0.0-16.0-0.34","615b042301e3a24311563ee4","650c16f0f2faf8d7a0d14c09","651c1ca5a70859f21f006929","null","null","<p style=""font-size: 60px; font-family: BACS"">tRdMRDM</p>","","","","","","","","","",""
"html-keyboard-response","367","718599","0.0-16.0-0.35","615b042301e3a24311563ee4","650c16f0f2faf8d7a0d14c09","651c1ca5a70859f21f006929","null","null","<p style=""font-size: 60px; font-family: BACS"">tRdMRDM</p>","","","","","","","","","",""
"html-keyboard-response","368","719615","0.0-16.0-0.36","615b042301e3a24311563ee4","650c16f0f2faf8d7a0d14c09","651c1ca5a70859f21f006929","null","null","<p style=""font-size: 60px; font-family: BACS"">tRdMRDM</p>","","","","","","","","","",""
"html-keyboard-response","369","720619","0.0-16.0-0.37","615b042301e3a24311563ee4","650c16f0f2faf8d7a0d14c09","651c1ca5a70859f21f006929","null","null","<p style=""font-size: 60px; font-family: BACS"">tRdMRDM</p>","","","","","","","","","",""
"html-keyboard-response","370","721635","0.0-16.0-0.38","615b042301e3a24311563ee4","650c16f0f2faf8d7a0d14c09","651c1ca5a70859f21f006929","null","null","<p style=""font-size: 60px; font-family: BACS"">tRdMRDM</p>","","","","","","","","","",""
"html-keyboard-response","371","722640","0.0-16.0-0.39","615b042301e3a24311563ee4","650c16f0f2faf8d7a0d14c09","651c1ca5a70859f21f006929","null","null","<p style=""font-size: 60px; font-family: BACS"">tRdMRDM</p>","","","","","","","","","",""
"html-keyboard-response","372","723656","0.0-16.0-0.40","615b042301e3a24311563ee4","650c16f0f2faf8d7a0d14c09","651c1ca5a70859f21f006929","null","null","<p style=""font-size: 60px; font-family: BACS"">tRdMRDM</p>","","","","","","","","","",""
"html-keyboard-response","373","724661","0.0-16.0-0.41","615b042301e3a24311563ee4","650c16f0f2faf8d7a0d14c09","651c1ca5a70859f21f006929","null","null","<p style=""font-size: 60px; font-family: BACS"">tRdMRDM</p>","","","","","","","","","",""
"html-keyboard-response","374","725663","0.0-16.0-0.42","615b042301e3a24311563ee4","650c16f0f2faf8d7a0d14c09","651c1ca5a70859f21f006929","null","null","<p style=""font-size: 60px; font-family: BACS"">tRdMRDM</p>","","","","","","","","","",""
"html-keyboard-response","375","726666","0.0-16.0-0.43","615b042301e3a24311563ee4","650c16f0f2faf8d7a0d14c09","651c1ca5a70859f21f006929","null","null","<p style=""font-size: 60px; font-family: BACS"">tRdMRDM</p>","","","","","","","","","",""
"html-keyboard-response","376","727681","0.0-16.0-0.44","615b042301e3a24311563ee4","650c16f0f2faf8d7a0d14c09","651c1ca5a70859f21f006929","null","null","<p style=""font-size: 60px; font-family: BACS"">tRdMRDM</p>","","","","","","","","","",""
"html-keyboard-response","377","728685","0.0-16.0-0.45","615b042301e3a24311563ee4","650c16f0f2faf8d7a0d14c09","651c1ca5a70859f21f006929","null","null","<p style=""font-size: 60px; font-family: BACS"">tRdMRDM</p>","","","","","","","","","",""
"html-keyboard-response","378","729688","0.0-16.0-0.46","615b042301e3a24311563ee4","650c16f0f2faf8d7a0d14c09","651c1ca5a70859f21f006929","null","null","<p style=""font-size: 60px; font-family: BACS"">tRdMRDM</p>","","","","","","","","","",""
"html-keyboard-response","379","730691","0.0-16.0-0.47","615b042301e3a24311563ee4","650c16f0f2faf8d7a0d14c09","651c1ca5a70859f21f006929","null","null","<p style=""font-size: 60px; font-family: BACS"">tRdMRDM</p>","","","","","","","","","",""
"html-keyboard-response","380","731709","0.0-16.0-0.48","615b042301e3a24311563ee4","650c16f0f2faf8d7a0d14c09","651c1ca5a70859f21f006929","null","null","<p style=""font-size: 60px; font-family: BACS"">tRdMRDM</p>","","","","","","","","","",""
"html-keyboard-response","381","732726","0.0-16.0-0.49","615b042301e3a24311563ee4","650c16f0f2faf8d7a0d14c09","651c1ca5a70859f21f006929","null","null","<p style=""font-size: 60px; font-family: BACS"">tRdMRDM</p>","","","","","","","","","",""
"html-keyboard-response","382","733730","0.0-16.0-0.50","615b042301e3a24311563ee4","650c16f0f2faf8d7a0d14c09","651c1ca5a70859f21f006929","null","null","<p style=""font-size: 60px; font-family: BACS"">tRdMRDM</p>","","","","","","","","","",""
"html-keyboard-response","383","734732","0.0-16.0-0.51","615b042301e3a24311563ee4","650c16f0f2faf8d7a0d14c09","651c1ca5a70859f21f006929","null","null","<p style=""font-size: 60px; font-family: BACS"">tRdMRDM</p>","","","","","","","","","",""
"html-keyboard-response","384","735737","0.0-16.0-0.52","615b042301e3a24311563ee4","650c16f0f2faf8d7a0d14c09","651c1ca5a70859f21f006929","null","null","<p style=""font-size: 60px; font-family: BACS"">tRdMRDM</p>","","","","","","","","","",""
"html-keyboard-response","385","736753","0.0-16.0-0.53","615b042301e3a24311563ee4","650c16f0f2faf8d7a0d14c09","651c1ca5a70859f21f006929","null","null","<p style=""font-size: 60px; font-family: BACS"">tRdMRDM</p>","","","","","","","","","",""
"html-keyboard-response","386","737770","0.0-16.0-0.54","615b042301e3a24311563ee4","650c16f0f2faf8d7a0d14c09","651c1ca5a70859f21f006929","null","null","<p style=""font-size: 60px; font-family: BACS"">tRdMRDM</p>","","","","","","","","","",""
"html-keyboard-response","387","738773","0.0-16.0-0.55","615b042301e3a24311563ee4","650c16f0f2faf8d7a0d14c09","651c1ca5a70859f21f006929","null","null","<p style=""font-size: 60px; font-family: BACS"">tRdMRDM</p>","","","","","","","","","",""
"html-keyboard-response","388","739778","0.0-16.0-0.56","615b042301e3a24311563ee4","650c16f0f2faf8d7a0d14c09","651c1ca5a70859f21f006929","null","null","<p style=""font-size: 60px; font-family: BACS"">tRdMRDM</p>","","","","","","","","","",""
"html-keyboard-response","389","740795","0.0-16.0-0.57","615b042301e3a24311563ee4","650c16f0f2faf8d7a0d14c09","651c1ca5a70859f21f006929","null","null","<p style=""font-size: 60px; font-family: BACS"">tRdMRDM</p>","","","","","","","","","",""
"html-keyboard-response","390","741799","0.0-16.0-0.58","615b042301e3a24311563ee4","650c16f0f2faf8d7a0d14c09","651c1ca5a70859f21f006929","null","null","<p style=""font-size: 60px; font-family: BACS"">tRdMRDM</p>","","","","","","","","","",""
"html-keyboard-response","391","742816","0.0-16.0-0.59","615b042301e3a24311563ee4","650c16f0f2faf8d7a0d14c09","651c1ca5a70859f21f006929","null","null","<p style=""font-size: 60px; font-family: BACS"">tRdMRDM</p>","","","","","","","","","",""
"html-keyboard-response","392","743821","0.0-16.0-0.60","615b042301e3a24311563ee4","650c16f0f2faf8d7a0d14c09","651c1ca5a70859f21f006929","null","null","<p style=""font-size: 60px; font-family: BACS"">tRdMRDM</p>","","","","","","","","","",""
"html-keyboard-response","393","744838","0.0-16.0-0.61","615b042301e3a24311563ee4","650c16f0f2faf8d7a0d14c09","651c1ca5a70859f21f006929","null","null","<p style=""font-size: 60px; font-family: BACS"">tRdMRDM</p>","","","","","","","","","",""
