"trial_type","trial_index","time_elapsed","internal_node_id","subject_id","study_id","session_id","rt","response","stimulus","success","item","task","correct_response","correct","target","confound","name"
"pavlovia","0","4391","0.0-0.0","60fd703ecd62eb39eb07c328","64b003020eef62ee308107cc","64b03587c5a6a15cb040094f","","","","","","","","","","",""
"survey-html-form","1","11010","0.0-1.0","60fd703ecd62eb39eb07c328","64b003020eef62ee308107cc","64b03587c5a6a15cb040094f","6616","{""ID"":""60fd703ecd62eb39eb07c328""}","","","","","","","","",""
"html-keyboard-response","2","30101","0.0-2.0","60fd703ecd62eb39eb07c328","64b003020eef62ee308107cc","64b03587c5a6a15cb040094f","19089"," ","<p style=""font-size: 15px;"">Prima di cominciare, le chiediamo di leggere il modulo di consenso informato e confermare la sua volontà di partecipare all'esperimento.</p>
      <p style=""font-size: 15px;""> La preghiamo di ricordare che questo è un progetto di ricerca e che la sua partecipazione è completamente volontaria. Lei si potra' ritirare in qualunque momento, senza necessariamente dover dare alcuna spiegazione. Lo studio al quale Le si chiede di partecipare ha lo scopo di esaminare come i lettori elaborano le parole scritte. La somministrazione delle prove è individuale. Lei sarà impegnato in una sessione di lavoro della durata media di 10 minuti, e un questionario di 10 minuti. L’ordine delle prove ed il loro svolgimento sono stabiliti in modo tale da evitare un eventuale affaticamento. Tutte le prove saranno precedute da un breve addestramento in modo tale che abbia la possibilità di familiarizzare con il compito. Sono previste alcune pause nel corso dello svolgimento dell’esperimento. Una ricompensa di £4 (£8 per ora) Le verrà consegnata al termine della sessione di testing. Nonostante il testing preveda delle prove cognitive, il presente esperimento non costituisce una prova clinica che permetta la diagnosi di eventuali patologie.</p>
      <p style=""font-size: 15px;"">Tutti i dati raccolti grazie alla partecipazione Sua e di altre persone volontarie saranno custoditi in server sicuri e protetti da password, e non sarà consentito ad alcuna persona non autorizzata di accedervi. Le Sue informazioni personali saranno conservate separatamente dai risultati della presente ricerca, cui saranno associati soltanto attraverso un ID arbitrario. Grazie a questo processo di anonimizzazione dei dati, a nessun ricercatore sarà possibile analizzare i risultati sapendo da quale specifico partecipante essi provengono. Inoltre, questa procedura renderà impossibile la Sua identificazione anche nel momento in cui i risultati della ricerca fossero pubblicati su riviste scientifiche, o presentati a congressi o in qualsiasi altro pubblico consesso. Più in generale, i dati raccolti saranno trattati in accordo con le leggi sulla privacy e in conformità al Decreto Legislativo 30 giugno 2003 n. 196 “Codice in materia di protezione dei dati personali” e al Regolamento Europeo 2016/679 (General Data Protection Regulation - GDPR). Il Responsabile della protezione dei dati (RPD) è l’Avv. Valentina Carollo che può essere contattato ai seguenti indirizzi email: <a href=""mailto:dpo@sissa.it"">dpo@sissa.it</a> oppure <a href=""mailto:rpd@sissa.it"">rpd@sissa.it</a> - PEC: <a href=""mailto:protocollo@pec.sissa.it"">protocollo@pec.sissa.it</a>.</p>
      <p style=""font-size: 15px;""> Prima di esprimere il suo consenso alla partecipazione, Le ricordiamo ancora che in caso Lei abbia bisogno di delucidazioni su qualunque aspetto della procedura sperimentale, il ricercatore è a Sua completa disposizione (<a href=""mailto:aliebelt@sissa.it"">aliebelt@sissa.it</a>, <a href=""mailto:davide.crepaldi@sissa.it"">davide.crepaldi@sissa.it</a>).</p>
      <p style=""font-size: 15px;"">Se vuole scaricare il modulo di consenso informato, clicca qui: <a href=""BASL_modulo_consenso.pdf"" download>modulo di consenso</a>.</p>
      <p style=""font-size: 15px;""> Le chiediamo di premere la barra per continuare al consenso.</p>","","","","","","","",""
"survey-html-form","3","42622","0.0-3.0","60fd703ecd62eb39eb07c328","64b003020eef62ee308107cc","64b03587c5a6a15cb040094f","12514","{""consent1"":""YES"",""consent2"":""YES"",""consent3"":""YES"",""consent4"":""YES"",""consent5"":""YES"",""consent6"":""YES""}","","","","","","","","",""
"fullscreen","4","48513","0.0-4.0","60fd703ecd62eb39eb07c328","64b003020eef62ee308107cc","64b03587c5a6a15cb040094f","","","","true","","","","","","",""
"html-keyboard-response","5","72858","0.0-5.0","60fd703ecd62eb39eb07c328","64b003020eef62ee308107cc","64b03587c5a6a15cb040094f","24344"," ","<p>Benvenuta/o, e grazie mille del tuo tempo!</p>
      <p>In questo esperimento sarai un esperto/un'esperta di linguaggio cui è stato chiesto di dare un'occhiata ad alcuni messaggi che la Terra ha ricevuto dallo spazio. Il tuo compito, in questa prima parte dell'esperimento, sarà di fare molta attenzione alle parole che ti verranno mostrate; più tardi, i leader del mondo ti chiederanno qualche informazione su quello che hai visto. Le parole si susseguiranno abbastanza velocemente; sembra che questi alieni abbiano una certa fretta :-) </p>
      <p>Per favore, chiama lo sperimentatore se ha qualche domanda.</p><p>Premi la barra per continuare.</p>","","","","","","","",""
"html-keyboard-response","6","76074","0.0-6.0","60fd703ecd62eb39eb07c328","64b003020eef62ee308107cc","64b03587c5a6a15cb040094f","3215"," ","<p>Ecco un esempio delle parole che vedrai:</p>
      <img src='esempio.png' height='400px'>
      <p>Quando sei pronti per iniziare, premi la barra.</p></div>","","","","","","","",""
"html-keyboard-response","7","77091","0.0-7.0-0.0","60fd703ecd62eb39eb07c328","64b003020eef62ee308107cc","64b03587c5a6a15cb040094f","null","null","<p style=""font-size: 60px; font-family: BACS"">kLvdNrAm</p>","","","","","","","",""
"html-keyboard-response","8","78101","0.0-7.0-0.1","60fd703ecd62eb39eb07c328","64b003020eef62ee308107cc","64b03587c5a6a15cb040094f","null","null","<p style=""font-size: 60px; font-family: BACS"">TKDkEKBO</p>","","","","","","","",""
"html-keyboard-response","9","79105","0.0-7.0-0.2","60fd703ecd62eb39eb07c328","64b003020eef62ee308107cc","64b03587c5a6a15cb040094f","null","null","<p style=""font-size: 60px; font-family: BACS"">bmdABPED</p>","","","","","","","",""
"html-keyboard-response","10","80121","0.0-7.0-0.3","60fd703ecd62eb39eb07c328","64b003020eef62ee308107cc","64b03587c5a6a15cb040094f","null","null","<p style=""font-size: 60px; font-family: BACS"">kcCRtMAB</p>","","","","","","","",""
"html-keyboard-response","11","81133","0.0-7.0-0.4","60fd703ecd62eb39eb07c328","64b003020eef62ee308107cc","64b03587c5a6a15cb040094f","null","null","<p style=""font-size: 60px; font-family: BACS"">GJZmuZc</p>","","","","","","","",""
"html-keyboard-response","12","82146","0.0-7.0-0.5","60fd703ecd62eb39eb07c328","64b003020eef62ee308107cc","64b03587c5a6a15cb040094f","null","null","<p style=""font-size: 60px; font-family: BACS"">KDPAEKBO</p>","","","","","","","",""
"html-keyboard-response","13","83150","0.0-7.0-0.6","60fd703ecd62eb39eb07c328","64b003020eef62ee308107cc","64b03587c5a6a15cb040094f","null","null","<p style=""font-size: 60px; font-family: BACS"">OYuvbrAm</p>","","","","","","","",""
"html-keyboard-response","14","84157","0.0-7.0-0.7","60fd703ecd62eb39eb07c328","64b003020eef62ee308107cc","64b03587c5a6a15cb040094f","null","null","<p style=""font-size: 60px; font-family: BACS"">cuOJbOcN</p>","","","","","","","",""
"html-keyboard-response","15","85164","0.0-7.0-0.8","60fd703ecd62eb39eb07c328","64b003020eef62ee308107cc","64b03587c5a6a15cb040094f","null","null","<p style=""font-size: 60px; font-family: BACS"">UaZmauUY</p>","","","","","","","",""
"html-keyboard-response","16","86171","0.0-7.0-0.9","60fd703ecd62eb39eb07c328","64b003020eef62ee308107cc","64b03587c5a6a15cb040094f","null","null","<p style=""font-size: 60px; font-family: BACS"">JrGvrAm</p>","","","","","","","",""
"html-keyboard-response","17","87187","0.0-7.0-0.10","60fd703ecd62eb39eb07c328","64b003020eef62ee308107cc","64b03587c5a6a15cb040094f","null","null","<p style=""font-size: 60px; font-family: BACS"">GJZmuUY</p>","","","","","","","",""
"html-keyboard-response","18","88203","0.0-7.0-0.11","60fd703ecd62eb39eb07c328","64b003020eef62ee308107cc","64b03587c5a6a15cb040094f","null","null","<p style=""font-size: 60px; font-family: BACS"">bmdABEPBT</p>","","","","","","","",""
"html-keyboard-response","19","89212","0.0-7.0-0.12","60fd703ecd62eb39eb07c328","64b003020eef62ee308107cc","64b03587c5a6a15cb040094f","null","null","<p style=""font-size: 60px; font-family: BACS"">cBROBlRE</p>","","","","","","","",""
"html-keyboard-response","20","90216","0.0-7.0-0.13","60fd703ecd62eb39eb07c328","64b003020eef62ee308107cc","64b03587c5a6a15cb040094f","null","null","<p style=""font-size: 60px; font-family: BACS"">JrGvOcN</p>","","","","","","","",""
"html-keyboard-response","21","91232","0.0-7.0-0.14","60fd703ecd62eb39eb07c328","64b003020eef62ee308107cc","64b03587c5a6a15cb040094f","null","null","<p style=""font-size: 60px; font-family: BACS"">TKDkEPBT</p>","","","","","","","",""
"html-keyboard-response","22","92236","0.0-7.0-0.15","60fd703ecd62eb39eb07c328","64b003020eef62ee308107cc","64b03587c5a6a15cb040094f","null","null","<p style=""font-size: 60px; font-family: BACS"">JrGvrab</p>","","","","","","","",""
"html-keyboard-response","23","93245","0.0-7.0-0.16","60fd703ecd62eb39eb07c328","64b003020eef62ee308107cc","64b03587c5a6a15cb040094f","null","null","<p style=""font-size: 60px; font-family: BACS"">tKDmhEKBO</p>","","","","","","","",""
"html-keyboard-response","24","94255","0.0-7.0-0.17","60fd703ecd62eb39eb07c328","64b003020eef62ee308107cc","64b03587c5a6a15cb040094f","null","null","<p style=""font-size: 60px; font-family: BACS"">CYPcEPBT</p>","","","","","","","",""
"html-keyboard-response","25","95262","0.0-7.0-0.18","60fd703ecd62eb39eb07c328","64b003020eef62ee308107cc","64b03587c5a6a15cb040094f","null","null","<p style=""font-size: 60px; font-family: BACS"">kLvdNrab</p>","","","","","","","",""
"html-keyboard-response","26","96267","0.0-7.0-0.19","60fd703ecd62eb39eb07c328","64b003020eef62ee308107cc","64b03587c5a6a15cb040094f","null","null","<p style=""font-size: 60px; font-family: BACS"">cBROBPED</p>","","","","","","","",""
"html-keyboard-response","27","97280","0.0-7.0-0.20","60fd703ecd62eb39eb07c328","64b003020eef62ee308107cc","64b03587c5a6a15cb040094f","null","null","<p style=""font-size: 60px; font-family: BACS"">hTDdEKBO</p>","","","","","","","",""
"html-keyboard-response","28","98287","0.0-7.0-0.21","60fd703ecd62eb39eb07c328","64b003020eef62ee308107cc","64b03587c5a6a15cb040094f","null","null","<p style=""font-size: 60px; font-family: BACS"">TKDkPED</p>","","","","","","","",""
"html-keyboard-response","29","99297","0.0-7.0-0.22","60fd703ecd62eb39eb07c328","64b003020eef62ee308107cc","64b03587c5a6a15cb040094f","null","null","<p style=""font-size: 60px; font-family: BACS"">KDPAlRE</p>","","","","","","","",""
"html-keyboard-response","30","100304","0.0-7.0-0.23","60fd703ecd62eb39eb07c328","64b003020eef62ee308107cc","64b03587c5a6a15cb040094f","null","null","<p style=""font-size: 60px; font-family: BACS"">hTDdMAB</p>","","","","","","","",""
"html-keyboard-response","31","101313","0.0-7.0-0.24","60fd703ecd62eb39eb07c328","64b003020eef62ee308107cc","64b03587c5a6a15cb040094f","null","null","<p style=""font-size: 60px; font-family: BACS"">YZJmrAm</p>","","","","","","","",""
"html-keyboard-response","32","102320","0.0-7.0-0.25","60fd703ecd62eb39eb07c328","64b003020eef62ee308107cc","64b03587c5a6a15cb040094f","null","null","<p style=""font-size: 60px; font-family: BACS"">CchtdEPBT</p>","","","","","","","",""
"html-keyboard-response","33","103330","0.0-7.0-0.26","60fd703ecd62eb39eb07c328","64b003020eef62ee308107cc","64b03587c5a6a15cb040094f","null","null","<p style=""font-size: 60px; font-family: BACS"">AmacluZc</p>","","","","","","","",""
"html-keyboard-response","34","104337","0.0-7.0-0.27","60fd703ecd62eb39eb07c328","64b003020eef62ee308107cc","64b03587c5a6a15cb040094f","null","null","<p style=""font-size: 60px; font-family: BACS"">OYuvbrab</p>","","","","","","","",""
"html-keyboard-response","35","105346","0.0-7.0-0.28","60fd703ecd62eb39eb07c328","64b003020eef62ee308107cc","64b03587c5a6a15cb040094f","null","null","<p style=""font-size: 60px; font-family: BACS"">UaZmauZc</p>","","","","","","","",""
"html-keyboard-response","36","106357","0.0-7.0-0.29","60fd703ecd62eb39eb07c328","64b003020eef62ee308107cc","64b03587c5a6a15cb040094f","null","null","<p style=""font-size: 60px; font-family: BACS"">KDPAMAB</p>","","","","","","","",""
"html-keyboard-response","37","107371","0.0-7.0-0.30","60fd703ecd62eb39eb07c328","64b003020eef62ee308107cc","64b03587c5a6a15cb040094f","null","null","<p style=""font-size: 60px; font-family: BACS"">AmaclOcN</p>","","","","","","","",""
"html-keyboard-response","38","108386","0.0-7.0-0.31","60fd703ecd62eb39eb07c328","64b003020eef62ee308107cc","64b03587c5a6a15cb040094f","null","null","<p style=""font-size: 60px; font-family: BACS"">UaZmarAm</p>","","","","","","","",""
"html-keyboard-response","39","109399","0.0-7.0-0.32","60fd703ecd62eb39eb07c328","64b003020eef62ee308107cc","64b03587c5a6a15cb040094f","null","null","<p style=""font-size: 60px; font-family: BACS"">CYPclRE</p>","","","","","","","",""
"html-keyboard-response","40","110405","0.0-7.0-0.33","60fd703ecd62eb39eb07c328","64b003020eef62ee308107cc","64b03587c5a6a15cb040094f","null","null","<p style=""font-size: 60px; font-family: BACS"">hTDdPED</p>","","","","","","","",""
"html-keyboard-response","41","111421","0.0-7.0-0.34","60fd703ecd62eb39eb07c328","64b003020eef62ee308107cc","64b03587c5a6a15cb040094f","null","null","<p style=""font-size: 60px; font-family: BACS"">CchtdEKBO</p>","","","","","","","",""
"html-keyboard-response","42","112434","0.0-7.0-0.35","60fd703ecd62eb39eb07c328","64b003020eef62ee308107cc","64b03587c5a6a15cb040094f","null","null","<p style=""font-size: 60px; font-family: BACS"">UaZmaOcN</p>","","","","","","","",""
"html-keyboard-response","43","113441","0.0-7.0-0.36","60fd703ecd62eb39eb07c328","64b003020eef62ee308107cc","64b03587c5a6a15cb040094f","null","null","<p style=""font-size: 60px; font-family: BACS"">GJZmrAm</p>","","","","","","","",""
"html-keyboard-response","44","114456","0.0-7.0-0.37","60fd703ecd62eb39eb07c328","64b003020eef62ee308107cc","64b03587c5a6a15cb040094f","null","null","<p style=""font-size: 60px; font-family: BACS"">cuOJbuUY</p>","","","","","","","",""
"html-keyboard-response","45","115472","0.0-7.0-0.38","60fd703ecd62eb39eb07c328","64b003020eef62ee308107cc","64b03587c5a6a15cb040094f","null","null","<p style=""font-size: 60px; font-family: BACS"">GumLlrAm</p>","","","","","","","",""
"html-keyboard-response","46","116485","0.0-7.0-0.39","60fd703ecd62eb39eb07c328","64b003020eef62ee308107cc","64b03587c5a6a15cb040094f","null","null","<p style=""font-size: 60px; font-family: BACS"">damYbuUY</p>","","","","","","","",""
"html-keyboard-response","47","117497","0.0-7.0-0.40","60fd703ecd62eb39eb07c328","64b003020eef62ee308107cc","64b03587c5a6a15cb040094f","null","null","<p style=""font-size: 60px; font-family: BACS"">hTDdEPBT</p>","","","","","","","",""
"html-keyboard-response","48","118499","0.0-7.0-0.41","60fd703ecd62eb39eb07c328","64b003020eef62ee308107cc","64b03587c5a6a15cb040094f","null","null","<p style=""font-size: 60px; font-family: BACS"">kLvdNuZc</p>","","","","","","","",""
"html-keyboard-response","49","119502","0.0-7.0-0.42","60fd703ecd62eb39eb07c328","64b003020eef62ee308107cc","64b03587c5a6a15cb040094f","null","null","<p style=""font-size: 60px; font-family: BACS"">CchtdlRE</p>","","","","","","","",""
"html-keyboard-response","50","120509","0.0-7.0-0.43","60fd703ecd62eb39eb07c328","64b003020eef62ee308107cc","64b03587c5a6a15cb040094f","null","null","<p style=""font-size: 60px; font-family: BACS"">kcCRtPED</p>","","","","","","","",""
"html-keyboard-response","51","121521","0.0-7.0-0.44","60fd703ecd62eb39eb07c328","64b003020eef62ee308107cc","64b03587c5a6a15cb040094f","null","null","<p style=""font-size: 60px; font-family: BACS"">cuOJbrab</p>","","","","","","","",""
"html-keyboard-response","52","122522","0.0-7.0-0.45","60fd703ecd62eb39eb07c328","64b003020eef62ee308107cc","64b03587c5a6a15cb040094f","null","null","<p style=""font-size: 60px; font-family: BACS"">kcCRtEKBO</p>","","","","","","","",""
"html-keyboard-response","53","123534","0.0-7.0-0.46","60fd703ecd62eb39eb07c328","64b003020eef62ee308107cc","64b03587c5a6a15cb040094f","null","null","<p style=""font-size: 60px; font-family: BACS"">damYbrAm</p>","","","","","","","",""
"html-keyboard-response","54","124544","0.0-7.0-0.47","60fd703ecd62eb39eb07c328","64b003020eef62ee308107cc","64b03587c5a6a15cb040094f","null","null","<p style=""font-size: 60px; font-family: BACS"">GJZmrab</p>","","","","","","","",""
"html-keyboard-response","55","125561","0.0-7.0-0.48","60fd703ecd62eb39eb07c328","64b003020eef62ee308107cc","64b03587c5a6a15cb040094f","null","null","<p style=""font-size: 60px; font-family: BACS"">YZJmuZc</p>","","","","","","","",""
"html-keyboard-response","56","126562","0.0-7.0-0.49","60fd703ecd62eb39eb07c328","64b003020eef62ee308107cc","64b03587c5a6a15cb040094f","null","null","<p style=""font-size: 60px; font-family: BACS"">AmacluUY</p>","","","","","","","",""
"html-keyboard-response","57","127568","0.0-7.0-0.50","60fd703ecd62eb39eb07c328","64b003020eef62ee308107cc","64b03587c5a6a15cb040094f","null","null","<p style=""font-size: 60px; font-family: BACS"">tKDmhMAB</p>","","","","","","","",""
"html-keyboard-response","58","128577","0.0-7.0-0.51","60fd703ecd62eb39eb07c328","64b003020eef62ee308107cc","64b03587c5a6a15cb040094f","null","null","<p style=""font-size: 60px; font-family: BACS"">cuOJbuZc</p>","","","","","","","",""
"html-keyboard-response","59","129579","0.0-7.0-0.52","60fd703ecd62eb39eb07c328","64b003020eef62ee308107cc","64b03587c5a6a15cb040094f","null","null","<p style=""font-size: 60px; font-family: BACS"">kcCRtlRE</p>","","","","","","","",""
"html-keyboard-response","60","130586","0.0-7.0-0.53","60fd703ecd62eb39eb07c328","64b003020eef62ee308107cc","64b03587c5a6a15cb040094f","null","null","<p style=""font-size: 60px; font-family: BACS"">DOBhYPED</p>","","","","","","","",""
"html-keyboard-response","61","131593","0.0-7.0-0.54","60fd703ecd62eb39eb07c328","64b003020eef62ee308107cc","64b03587c5a6a15cb040094f","null","null","<p style=""font-size: 60px; font-family: BACS"">CYPcMAB</p>","","","","","","","",""
"html-keyboard-response","62","132601","0.0-7.0-0.55","60fd703ecd62eb39eb07c328","64b003020eef62ee308107cc","64b03587c5a6a15cb040094f","null","null","<p style=""font-size: 60px; font-family: BACS"">Amaclrab</p>","","","","","","","",""
"html-keyboard-response","63","133608","0.0-7.0-0.56","60fd703ecd62eb39eb07c328","64b003020eef62ee308107cc","64b03587c5a6a15cb040094f","null","null","<p style=""font-size: 60px; font-family: BACS"">YZJmOcN</p>","","","","","","","",""
"html-keyboard-response","64","134625","0.0-7.0-0.57","60fd703ecd62eb39eb07c328","64b003020eef62ee308107cc","64b03587c5a6a15cb040094f","null","null","<p style=""font-size: 60px; font-family: BACS"">cBROBEPBT</p>","","","","","","","",""
"html-keyboard-response","65","135628","0.0-7.0-0.58","60fd703ecd62eb39eb07c328","64b003020eef62ee308107cc","64b03587c5a6a15cb040094f","null","null","<p style=""font-size: 60px; font-family: BACS"">KDPAPED</p>","","","","","","","",""
"html-keyboard-response","66","136642","0.0-7.0-0.59","60fd703ecd62eb39eb07c328","64b003020eef62ee308107cc","64b03587c5a6a15cb040094f","null","null","<p style=""font-size: 60px; font-family: BACS"">TKDklRE</p>","","","","","","","",""
"html-keyboard-response","67","137657","0.0-7.0-0.60","60fd703ecd62eb39eb07c328","64b003020eef62ee308107cc","64b03587c5a6a15cb040094f","null","null","<p style=""font-size: 60px; font-family: BACS"">GumLluZc</p>","","","","","","","",""
"html-keyboard-response","68","138666","0.0-7.0-0.61","60fd703ecd62eb39eb07c328","64b003020eef62ee308107cc","64b03587c5a6a15cb040094f","null","null","<p style=""font-size: 60px; font-family: BACS"">DOBhYEKBO</p>","","","","","","","",""
"html-keyboard-response","69","139678","0.0-7.0-0.62","60fd703ecd62eb39eb07c328","64b003020eef62ee308107cc","64b03587c5a6a15cb040094f","null","null","<p style=""font-size: 60px; font-family: BACS"">CchtdMAB</p>","","","","","","","",""
"html-keyboard-response","70","140688","0.0-7.0-0.63","60fd703ecd62eb39eb07c328","64b003020eef62ee308107cc","64b03587c5a6a15cb040094f","null","null","<p style=""font-size: 60px; font-family: BACS"">kLvdNOcN</p>","","","","","","","",""
"html-keyboard-response","71","141703","0.0-7.0-0.64","60fd703ecd62eb39eb07c328","64b003020eef62ee308107cc","64b03587c5a6a15cb040094f","null","null","<p style=""font-size: 60px; font-family: BACS"">bmdABlRE</p>","","","","","","","",""
"html-keyboard-response","72","142708","0.0-7.0-0.65","60fd703ecd62eb39eb07c328","64b003020eef62ee308107cc","64b03587c5a6a15cb040094f","null","null","<p style=""font-size: 60px; font-family: BACS"">damYbrab</p>","","","","","","","",""
"html-keyboard-response","73","143712","0.0-7.0-0.66","60fd703ecd62eb39eb07c328","64b003020eef62ee308107cc","64b03587c5a6a15cb040094f","null","null","<p style=""font-size: 60px; font-family: BACS"">YZJmuUY</p>","","","","","","","",""
"html-keyboard-response","74","144722","0.0-7.0-0.67","60fd703ecd62eb39eb07c328","64b003020eef62ee308107cc","64b03587c5a6a15cb040094f","null","null","<p style=""font-size: 60px; font-family: BACS"">tKDmhEPBT</p>","","","","","","","",""
"html-keyboard-response","75","145737","0.0-7.0-0.68","60fd703ecd62eb39eb07c328","64b003020eef62ee308107cc","64b03587c5a6a15cb040094f","null","null","<p style=""font-size: 60px; font-family: BACS"">damYbOcN</p>","","","","","","","",""
"html-keyboard-response","76","146753","0.0-7.0-0.69","60fd703ecd62eb39eb07c328","64b003020eef62ee308107cc","64b03587c5a6a15cb040094f","null","null","<p style=""font-size: 60px; font-family: BACS"">DOBhYEPBT</p>","","","","","","","",""
"html-keyboard-response","77","147764","0.0-7.0-0.70","60fd703ecd62eb39eb07c328","64b003020eef62ee308107cc","64b03587c5a6a15cb040094f","null","null","<p style=""font-size: 60px; font-family: BACS"">OYuvbOcN</p>","","","","","","","",""
"html-keyboard-response","78","148770","0.0-7.0-0.71","60fd703ecd62eb39eb07c328","64b003020eef62ee308107cc","64b03587c5a6a15cb040094f","null","null","<p style=""font-size: 60px; font-family: BACS"">GumLlrab</p>","","","","","","","",""
"html-keyboard-response","79","149785","0.0-7.0-0.72","60fd703ecd62eb39eb07c328","64b003020eef62ee308107cc","64b03587c5a6a15cb040094f","null","null","<p style=""font-size: 60px; font-family: BACS"">CYPcPED</p>","","","","","","","",""
"html-keyboard-response","80","150794","0.0-7.0-0.73","60fd703ecd62eb39eb07c328","64b003020eef62ee308107cc","64b03587c5a6a15cb040094f","null","null","<p style=""font-size: 60px; font-family: BACS"">OYuvbuZc</p>","","","","","","","",""
"html-keyboard-response","81","151802","0.0-7.0-0.74","60fd703ecd62eb39eb07c328","64b003020eef62ee308107cc","64b03587c5a6a15cb040094f","null","null","<p style=""font-size: 60px; font-family: BACS"">bmdABMAB</p>","","","","","","","",""
"html-keyboard-response","82","152810","0.0-7.0-0.75","60fd703ecd62eb39eb07c328","64b003020eef62ee308107cc","64b03587c5a6a15cb040094f","null","null","<p style=""font-size: 60px; font-family: BACS"">tKDmhlRE</p>","","","","","","","",""
"html-keyboard-response","83","153821","0.0-7.0-0.76","60fd703ecd62eb39eb07c328","64b003020eef62ee308107cc","64b03587c5a6a15cb040094f","null","null","<p style=""font-size: 60px; font-family: BACS"">JrGvuUY</p>","","","","","","","",""
"html-keyboard-response","84","154829","0.0-7.0-0.77","60fd703ecd62eb39eb07c328","64b003020eef62ee308107cc","64b03587c5a6a15cb040094f","null","null","<p style=""font-size: 60px; font-family: BACS"">DOBhYMAB</p>","","","","","","","",""
"html-keyboard-response","85","155846","0.0-7.0-0.78","60fd703ecd62eb39eb07c328","64b003020eef62ee308107cc","64b03587c5a6a15cb040094f","null","null","<p style=""font-size: 60px; font-family: BACS"">GumLluUY</p>","","","","","","","",""
"html-keyboard-response","86","156861","0.0-7.0-0.79","60fd703ecd62eb39eb07c328","64b003020eef62ee308107cc","64b03587c5a6a15cb040094f","null","null","<p style=""font-size: 60px; font-family: BACS"">cBROBEKBO</p>","","","","","","","",""
"html-keyboard-response","87","168892","0.0-8.0","60fd703ecd62eb39eb07c328","64b003020eef62ee308107cc","64b03587c5a6a15cb040094f","12032"," ","<p>Ottimo, hai visto il primo blocco di parole. Ora puoi prenderti una piccola pausa.</p>
      <p>Premi la barra quando sei pronta/o per riprendere.</p>","","","","","","","",""
"html-keyboard-response","88","169895","0.0-9.0-0.0","60fd703ecd62eb39eb07c328","64b003020eef62ee308107cc","64b03587c5a6a15cb040094f","null","null","<p style=""font-size: 60px; font-family: BACS"">JrGvuUY</p>","","","","","","","",""
"html-keyboard-response","89","170901","0.0-9.0-0.1","60fd703ecd62eb39eb07c328","64b003020eef62ee308107cc","64b03587c5a6a15cb040094f","null","null","<p style=""font-size: 60px; font-family: BACS"">AmacluZc</p>","","","","","","","",""
"html-keyboard-response","90","171918","0.0-9.0-0.2","60fd703ecd62eb39eb07c328","64b003020eef62ee308107cc","64b03587c5a6a15cb040094f","null","null","<p style=""font-size: 60px; font-family: BACS"">kcCRtlRE</p>","","","","","","","",""
"html-keyboard-response","91","172920","0.0-9.0-0.3","60fd703ecd62eb39eb07c328","64b003020eef62ee308107cc","64b03587c5a6a15cb040094f","null","null","<p style=""font-size: 60px; font-family: BACS"">bmdABPED</p>","","","","","","","",""
"html-keyboard-response","92","173934","0.0-9.0-0.4","60fd703ecd62eb39eb07c328","64b003020eef62ee308107cc","64b03587c5a6a15cb040094f","null","null","<p style=""font-size: 60px; font-family: BACS"">KDPAMAB</p>","","","","","","","",""
"html-keyboard-response","93","174946","0.0-9.0-0.5","60fd703ecd62eb39eb07c328","64b003020eef62ee308107cc","64b03587c5a6a15cb040094f","null","null","<p style=""font-size: 60px; font-family: BACS"">JrGvrab</p>","","","","","","","",""
"html-keyboard-response","94","175952","0.0-9.0-0.6","60fd703ecd62eb39eb07c328","64b003020eef62ee308107cc","64b03587c5a6a15cb040094f","null","null","<p style=""font-size: 60px; font-family: BACS"">kcCRtPED</p>","","","","","","","",""
"html-keyboard-response","95","176956","0.0-9.0-0.7","60fd703ecd62eb39eb07c328","64b003020eef62ee308107cc","64b03587c5a6a15cb040094f","null","null","<p style=""font-size: 60px; font-family: BACS"">AmacluUY</p>","","","","","","","",""
"html-keyboard-response","96","177967","0.0-9.0-0.8","60fd703ecd62eb39eb07c328","64b003020eef62ee308107cc","64b03587c5a6a15cb040094f","null","null","<p style=""font-size: 60px; font-family: BACS"">CchtdlRE</p>","","","","","","","",""
"html-keyboard-response","97","178983","0.0-9.0-0.9","60fd703ecd62eb39eb07c328","64b003020eef62ee308107cc","64b03587c5a6a15cb040094f","null","null","<p style=""font-size: 60px; font-family: BACS"">UaZmarAm</p>","","","","","","","",""
"html-keyboard-response","98","179985","0.0-9.0-0.10","60fd703ecd62eb39eb07c328","64b003020eef62ee308107cc","64b03587c5a6a15cb040094f","null","null","<p style=""font-size: 60px; font-family: BACS"">TKDkEPBT</p>","","","","","","","",""
"html-keyboard-response","99","180997","0.0-9.0-0.11","60fd703ecd62eb39eb07c328","64b003020eef62ee308107cc","64b03587c5a6a15cb040094f","null","null","<p style=""font-size: 60px; font-family: BACS"">CYPcPED</p>","","","","","","","",""
"html-keyboard-response","100","182007","0.0-9.0-0.12","60fd703ecd62eb39eb07c328","64b003020eef62ee308107cc","64b03587c5a6a15cb040094f","null","null","<p style=""font-size: 60px; font-family: BACS"">kLvdNrab</p>","","","","","","","",""
"html-keyboard-response","101","183009","0.0-9.0-0.13","60fd703ecd62eb39eb07c328","64b003020eef62ee308107cc","64b03587c5a6a15cb040094f","null","null","<p style=""font-size: 60px; font-family: BACS"">UaZmauUY</p>","","","","","","","",""
"html-keyboard-response","102","184015","0.0-9.0-0.14","60fd703ecd62eb39eb07c328","64b003020eef62ee308107cc","64b03587c5a6a15cb040094f","null","null","<p style=""font-size: 60px; font-family: BACS"">GJZmrAm</p>","","","","","","","",""
"html-keyboard-response","103","185028","0.0-9.0-0.15","60fd703ecd62eb39eb07c328","64b003020eef62ee308107cc","64b03587c5a6a15cb040094f","null","null","<p style=""font-size: 60px; font-family: BACS"">KDPAPED</p>","","","","","","","",""
"html-keyboard-response","104","186033","0.0-9.0-0.16","60fd703ecd62eb39eb07c328","64b003020eef62ee308107cc","64b03587c5a6a15cb040094f","null","null","<p style=""font-size: 60px; font-family: BACS"">tKDmhlRE</p>","","","","","","","",""
"html-keyboard-response","105","187045","0.0-9.0-0.17","60fd703ecd62eb39eb07c328","64b003020eef62ee308107cc","64b03587c5a6a15cb040094f","null","null","<p style=""font-size: 60px; font-family: BACS"">OYuvbOcN</p>","","","","","","","",""
"html-keyboard-response","106","188059","0.0-9.0-0.18","60fd703ecd62eb39eb07c328","64b003020eef62ee308107cc","64b03587c5a6a15cb040094f","null","null","<p style=""font-size: 60px; font-family: BACS"">hTDdEPBT</p>","","","","","","","",""
"html-keyboard-response","107","189072","0.0-9.0-0.19","60fd703ecd62eb39eb07c328","64b003020eef62ee308107cc","64b03587c5a6a15cb040094f","null","null","<p style=""font-size: 60px; font-family: BACS"">kcCRtMAB</p>","","","","","","","",""
"html-keyboard-response","108","190085","0.0-9.0-0.20","60fd703ecd62eb39eb07c328","64b003020eef62ee308107cc","64b03587c5a6a15cb040094f","null","null","<p style=""font-size: 60px; font-family: BACS"">damYbrAm</p>","","","","","","","",""
"html-keyboard-response","109","191099","0.0-9.0-0.21","60fd703ecd62eb39eb07c328","64b003020eef62ee308107cc","64b03587c5a6a15cb040094f","null","null","<p style=""font-size: 60px; font-family: BACS"">cBROBEPBT</p>","","","","","","","",""
"html-keyboard-response","110","192101","0.0-9.0-0.22","60fd703ecd62eb39eb07c328","64b003020eef62ee308107cc","64b03587c5a6a15cb040094f","null","null","<p style=""font-size: 60px; font-family: BACS"">cuOJbuUY</p>","","","","","","","",""
"html-keyboard-response","111","193118","0.0-9.0-0.23","60fd703ecd62eb39eb07c328","64b003020eef62ee308107cc","64b03587c5a6a15cb040094f","null","null","<p style=""font-size: 60px; font-family: BACS"">OYuvbuZc</p>","","","","","","","",""
"html-keyboard-response","112","194134","0.0-9.0-0.24","60fd703ecd62eb39eb07c328","64b003020eef62ee308107cc","64b03587c5a6a15cb040094f","null","null","<p style=""font-size: 60px; font-family: BACS"">DOBhYEKBO</p>","","","","","","","",""
"html-keyboard-response","113","195149","0.0-9.0-0.25","60fd703ecd62eb39eb07c328","64b003020eef62ee308107cc","64b03587c5a6a15cb040094f","null","null","<p style=""font-size: 60px; font-family: BACS"">KDPAlRE</p>","","","","","","","",""
"html-keyboard-response","114","196157","0.0-9.0-0.26","60fd703ecd62eb39eb07c328","64b003020eef62ee308107cc","64b03587c5a6a15cb040094f","null","null","<p style=""font-size: 60px; font-family: BACS"">UaZmauZc</p>","","","","","","","",""
"html-keyboard-response","115","197175","0.0-9.0-0.27","60fd703ecd62eb39eb07c328","64b003020eef62ee308107cc","64b03587c5a6a15cb040094f","null","null","<p style=""font-size: 60px; font-family: BACS"">Amaclrab</p>","","","","","","","",""
"html-keyboard-response","116","198185","0.0-9.0-0.28","60fd703ecd62eb39eb07c328","64b003020eef62ee308107cc","64b03587c5a6a15cb040094f","null","null","<p style=""font-size: 60px; font-family: BACS"">GJZmuUY</p>","","","","","","","",""
"html-keyboard-response","117","199188","0.0-9.0-0.29","60fd703ecd62eb39eb07c328","64b003020eef62ee308107cc","64b03587c5a6a15cb040094f","null","null","<p style=""font-size: 60px; font-family: BACS"">tKDmhEKBO</p>","","","","","","","",""
"html-keyboard-response","118","200193","0.0-9.0-0.30","60fd703ecd62eb39eb07c328","64b003020eef62ee308107cc","64b03587c5a6a15cb040094f","null","null","<p style=""font-size: 60px; font-family: BACS"">damYbrab</p>","","","","","","","",""
"html-keyboard-response","119","201201","0.0-9.0-0.31","60fd703ecd62eb39eb07c328","64b003020eef62ee308107cc","64b03587c5a6a15cb040094f","null","null","<p style=""font-size: 60px; font-family: BACS"">hTDdMAB</p>","","","","","","","",""
"html-keyboard-response","120","202217","0.0-9.0-0.32","60fd703ecd62eb39eb07c328","64b003020eef62ee308107cc","64b03587c5a6a15cb040094f","null","null","<p style=""font-size: 60px; font-family: BACS"">kcCRtEKBO</p>","","","","","","","",""
"html-keyboard-response","121","203233","0.0-9.0-0.33","60fd703ecd62eb39eb07c328","64b003020eef62ee308107cc","64b03587c5a6a15cb040094f","null","null","<p style=""font-size: 60px; font-family: BACS"">CYPclRE</p>","","","","","","","",""
"html-keyboard-response","122","204239","0.0-9.0-0.34","60fd703ecd62eb39eb07c328","64b003020eef62ee308107cc","64b03587c5a6a15cb040094f","null","null","<p style=""font-size: 60px; font-family: BACS"">CchtdEPBT</p>","","","","","","","",""
"html-keyboard-response","123","205241","0.0-9.0-0.35","60fd703ecd62eb39eb07c328","64b003020eef62ee308107cc","64b03587c5a6a15cb040094f","null","null","<p style=""font-size: 60px; font-family: BACS"">GumLlrab</p>","","","","","","","",""
"html-keyboard-response","124","206247","0.0-9.0-0.36","60fd703ecd62eb39eb07c328","64b003020eef62ee308107cc","64b03587c5a6a15cb040094f","null","null","<p style=""font-size: 60px; font-family: BACS"">kLvdNOcN</p>","","","","","","","",""
"html-keyboard-response","125","207251","0.0-9.0-0.37","60fd703ecd62eb39eb07c328","64b003020eef62ee308107cc","64b03587c5a6a15cb040094f","null","null","<p style=""font-size: 60px; font-family: BACS"">cuOJbrab</p>","","","","","","","",""
"html-keyboard-response","126","208266","0.0-9.0-0.38","60fd703ecd62eb39eb07c328","64b003020eef62ee308107cc","64b03587c5a6a15cb040094f","null","null","<p style=""font-size: 60px; font-family: BACS"">CchtdMAB</p>","","","","","","","",""
"html-keyboard-response","127","209273","0.0-9.0-0.39","60fd703ecd62eb39eb07c328","64b003020eef62ee308107cc","64b03587c5a6a15cb040094f","null","null","<p style=""font-size: 60px; font-family: BACS"">YZJmrAm</p>","","","","","","","",""
"html-keyboard-response","128","210276","0.0-9.0-0.40","60fd703ecd62eb39eb07c328","64b003020eef62ee308107cc","64b03587c5a6a15cb040094f","null","null","<p style=""font-size: 60px; font-family: BACS"">GJZmrab</p>","","","","","","","",""
"html-keyboard-response","129","211281","0.0-9.0-0.41","60fd703ecd62eb39eb07c328","64b003020eef62ee308107cc","64b03587c5a6a15cb040094f","null","null","<p style=""font-size: 60px; font-family: BACS"">CchtdEKBO</p>","","","","","","","",""
"html-keyboard-response","130","212294","0.0-9.0-0.42","60fd703ecd62eb39eb07c328","64b003020eef62ee308107cc","64b03587c5a6a15cb040094f","null","null","<p style=""font-size: 60px; font-family: BACS"">kLvdNrAm</p>","","","","","","","",""
"html-keyboard-response","131","213296","0.0-9.0-0.43","60fd703ecd62eb39eb07c328","64b003020eef62ee308107cc","64b03587c5a6a15cb040094f","null","null","<p style=""font-size: 60px; font-family: BACS"">YZJmOcN</p>","","","","","","","",""
"html-keyboard-response","132","214309","0.0-9.0-0.44","60fd703ecd62eb39eb07c328","64b003020eef62ee308107cc","64b03587c5a6a15cb040094f","null","null","<p style=""font-size: 60px; font-family: BACS"">kLvdNuZc</p>","","","","","","","",""
"html-keyboard-response","133","215324","0.0-9.0-0.45","60fd703ecd62eb39eb07c328","64b003020eef62ee308107cc","64b03587c5a6a15cb040094f","null","null","<p style=""font-size: 60px; font-family: BACS"">CYPcMAB</p>","","","","","","","",""
"html-keyboard-response","134","216336","0.0-9.0-0.46","60fd703ecd62eb39eb07c328","64b003020eef62ee308107cc","64b03587c5a6a15cb040094f","null","null","<p style=""font-size: 60px; font-family: BACS"">hTDdEKBO</p>","","","","","","","",""
"html-keyboard-response","135","217350","0.0-9.0-0.47","60fd703ecd62eb39eb07c328","64b003020eef62ee308107cc","64b03587c5a6a15cb040094f","null","null","<p style=""font-size: 60px; font-family: BACS"">TKDkPED</p>","","","","","","","",""
"html-keyboard-response","136","218355","0.0-9.0-0.48","60fd703ecd62eb39eb07c328","64b003020eef62ee308107cc","64b03587c5a6a15cb040094f","null","null","<p style=""font-size: 60px; font-family: BACS"">OYuvbrab</p>","","","","","","","",""
"html-keyboard-response","137","219357","0.0-9.0-0.49","60fd703ecd62eb39eb07c328","64b003020eef62ee308107cc","64b03587c5a6a15cb040094f","null","null","<p style=""font-size: 60px; font-family: BACS"">JrGvOcN</p>","","","","","","","",""
"html-keyboard-response","138","220370","0.0-9.0-0.50","60fd703ecd62eb39eb07c328","64b003020eef62ee308107cc","64b03587c5a6a15cb040094f","null","null","<p style=""font-size: 60px; font-family: BACS"">GumLluZc</p>","","","","","","","",""
"html-keyboard-response","139","221386","0.0-9.0-0.51","60fd703ecd62eb39eb07c328","64b003020eef62ee308107cc","64b03587c5a6a15cb040094f","null","null","<p style=""font-size: 60px; font-family: BACS"">cBROBlRE</p>","","","","","","","",""
"html-keyboard-response","140","222396","0.0-9.0-0.52","60fd703ecd62eb39eb07c328","64b003020eef62ee308107cc","64b03587c5a6a15cb040094f","null","null","<p style=""font-size: 60px; font-family: BACS"">GumLluUY</p>","","","","","","","",""
"html-keyboard-response","141","223401","0.0-9.0-0.53","60fd703ecd62eb39eb07c328","64b003020eef62ee308107cc","64b03587c5a6a15cb040094f","null","null","<p style=""font-size: 60px; font-family: BACS"">TKDkEKBO</p>","","","","","","","",""
"html-keyboard-response","142","224416","0.0-9.0-0.54","60fd703ecd62eb39eb07c328","64b003020eef62ee308107cc","64b03587c5a6a15cb040094f","null","null","<p style=""font-size: 60px; font-family: BACS"">YZJmuUY</p>","","","","","","","",""
"html-keyboard-response","143","225422","0.0-9.0-0.55","60fd703ecd62eb39eb07c328","64b003020eef62ee308107cc","64b03587c5a6a15cb040094f","null","null","<p style=""font-size: 60px; font-family: BACS"">UaZmaOcN</p>","","","","","","","",""
"html-keyboard-response","144","226425","0.0-9.0-0.56","60fd703ecd62eb39eb07c328","64b003020eef62ee308107cc","64b03587c5a6a15cb040094f","null","null","<p style=""font-size: 60px; font-family: BACS"">GumLlrAm</p>","","","","","","","",""
"html-keyboard-response","145","227430","0.0-9.0-0.57","60fd703ecd62eb39eb07c328","64b003020eef62ee308107cc","64b03587c5a6a15cb040094f","null","null","<p style=""font-size: 60px; font-family: BACS"">AmaclOcN</p>","","","","","","","",""
"html-keyboard-response","146","228434","0.0-9.0-0.58","60fd703ecd62eb39eb07c328","64b003020eef62ee308107cc","64b03587c5a6a15cb040094f","null","null","<p style=""font-size: 60px; font-family: BACS"">KDPAEKBO</p>","","","","","","","",""
"html-keyboard-response","147","229439","0.0-9.0-0.59","60fd703ecd62eb39eb07c328","64b003020eef62ee308107cc","64b03587c5a6a15cb040094f","null","null","<p style=""font-size: 60px; font-family: BACS"">cuOJbOcN</p>","","","","","","","",""
"html-keyboard-response","148","230446","0.0-9.0-0.60","60fd703ecd62eb39eb07c328","64b003020eef62ee308107cc","64b03587c5a6a15cb040094f","null","null","<p style=""font-size: 60px; font-family: BACS"">bmdABlRE</p>","","","","","","","",""
"html-keyboard-response","149","231448","0.0-9.0-0.61","60fd703ecd62eb39eb07c328","64b003020eef62ee308107cc","64b03587c5a6a15cb040094f","null","null","<p style=""font-size: 60px; font-family: BACS"">JrGvrAm</p>","","","","","","","",""
"html-keyboard-response","150","232453","0.0-9.0-0.62","60fd703ecd62eb39eb07c328","64b003020eef62ee308107cc","64b03587c5a6a15cb040094f","null","null","<p style=""font-size: 60px; font-family: BACS"">DOBhYPED</p>","","","","","","","",""
"html-keyboard-response","151","233467","0.0-9.0-0.63","60fd703ecd62eb39eb07c328","64b003020eef62ee308107cc","64b03587c5a6a15cb040094f","null","null","<p style=""font-size: 60px; font-family: BACS"">TKDklRE</p>","","","","","","","",""
"html-keyboard-response","152","234469","0.0-9.0-0.64","60fd703ecd62eb39eb07c328","64b003020eef62ee308107cc","64b03587c5a6a15cb040094f","null","null","<p style=""font-size: 60px; font-family: BACS"">YZJmuZc</p>","","","","","","","",""
"html-keyboard-response","153","235474","0.0-9.0-0.65","60fd703ecd62eb39eb07c328","64b003020eef62ee308107cc","64b03587c5a6a15cb040094f","null","null","<p style=""font-size: 60px; font-family: BACS"">tKDmhEPBT</p>","","","","","","","",""
"html-keyboard-response","154","236485","0.0-9.0-0.66","60fd703ecd62eb39eb07c328","64b003020eef62ee308107cc","64b03587c5a6a15cb040094f","null","null","<p style=""font-size: 60px; font-family: BACS"">bmdABMAB</p>","","","","","","","",""
"html-keyboard-response","155","237501","0.0-9.0-0.67","60fd703ecd62eb39eb07c328","64b003020eef62ee308107cc","64b03587c5a6a15cb040094f","null","null","<p style=""font-size: 60px; font-family: BACS"">cBROBEKBO</p>","","","","","","","",""
"html-keyboard-response","156","238504","0.0-9.0-0.68","60fd703ecd62eb39eb07c328","64b003020eef62ee308107cc","64b03587c5a6a15cb040094f","null","null","<p style=""font-size: 60px; font-family: BACS"">bmdABEPBT</p>","","","","","","","",""
"html-keyboard-response","157","239519","0.0-9.0-0.69","60fd703ecd62eb39eb07c328","64b003020eef62ee308107cc","64b03587c5a6a15cb040094f","null","null","<p style=""font-size: 60px; font-family: BACS"">cBROBPED</p>","","","","","","","",""
"html-keyboard-response","158","240529","0.0-9.0-0.70","60fd703ecd62eb39eb07c328","64b003020eef62ee308107cc","64b03587c5a6a15cb040094f","null","null","<p style=""font-size: 60px; font-family: BACS"">DOBhYMAB</p>","","","","","","","",""
"html-keyboard-response","159","241539","0.0-9.0-0.71","60fd703ecd62eb39eb07c328","64b003020eef62ee308107cc","64b03587c5a6a15cb040094f","null","null","<p style=""font-size: 60px; font-family: BACS"">cuOJbuZc</p>","","","","","","","",""
"html-keyboard-response","160","242549","0.0-9.0-0.72","60fd703ecd62eb39eb07c328","64b003020eef62ee308107cc","64b03587c5a6a15cb040094f","null","null","<p style=""font-size: 60px; font-family: BACS"">damYbOcN</p>","","","","","","","",""
"html-keyboard-response","161","243566","0.0-9.0-0.73","60fd703ecd62eb39eb07c328","64b003020eef62ee308107cc","64b03587c5a6a15cb040094f","null","null","<p style=""font-size: 60px; font-family: BACS"">hTDdPED</p>","","","","","","","",""
"html-keyboard-response","162","244579","0.0-9.0-0.74","60fd703ecd62eb39eb07c328","64b003020eef62ee308107cc","64b03587c5a6a15cb040094f","null","null","<p style=""font-size: 60px; font-family: BACS"">GJZmuZc</p>","","","","","","","",""
"html-keyboard-response","163","245596","0.0-9.0-0.75","60fd703ecd62eb39eb07c328","64b003020eef62ee308107cc","64b03587c5a6a15cb040094f","null","null","<p style=""font-size: 60px; font-family: BACS"">CYPcEPBT</p>","","","","","","","",""
"html-keyboard-response","164","246600","0.0-9.0-0.76","60fd703ecd62eb39eb07c328","64b003020eef62ee308107cc","64b03587c5a6a15cb040094f","null","null","<p style=""font-size: 60px; font-family: BACS"">OYuvbrAm</p>","","","","","","","",""
"html-keyboard-response","165","247602","0.0-9.0-0.77","60fd703ecd62eb39eb07c328","64b003020eef62ee308107cc","64b03587c5a6a15cb040094f","null","null","<p style=""font-size: 60px; font-family: BACS"">tKDmhMAB</p>","","","","","","","",""
"html-keyboard-response","166","248618","0.0-9.0-0.78","60fd703ecd62eb39eb07c328","64b003020eef62ee308107cc","64b03587c5a6a15cb040094f","null","null","<p style=""font-size: 60px; font-family: BACS"">DOBhYEPBT</p>","","","","","","","",""
"html-keyboard-response","167","249635","0.0-9.0-0.79","60fd703ecd62eb39eb07c328","64b003020eef62ee308107cc","64b03587c5a6a15cb040094f","null","null","<p style=""font-size: 60px; font-family: BACS"">damYbuUY</p>","","","","","","","",""
"html-keyboard-response","168","263668","0.0-10.0","60fd703ecd62eb39eb07c328","64b003020eef62ee308107cc","64b03587c5a6a15cb040094f","14033"," ","<p>Ottimo, hai visto il secondo blocco di parole. Ora puoi prenderti una piccola pausa.</p>
      <p>Premi la barra quando sei pronta/o per riprendere.</p>","","","","","","","",""
"html-keyboard-response","169","264676","0.0-11.0-0.0","60fd703ecd62eb39eb07c328","64b003020eef62ee308107cc","64b03587c5a6a15cb040094f","null","null","<p style=""font-size: 60px; font-family: BACS"">damYbOcN</p>","","","","","","","",""
"html-keyboard-response","170","265684","0.0-11.0-0.1","60fd703ecd62eb39eb07c328","64b003020eef62ee308107cc","64b03587c5a6a15cb040094f","null","null","<p style=""font-size: 60px; font-family: BACS"">kcCRtPED</p>","","","","","","","",""
"html-keyboard-response","171","266699","0.0-11.0-0.2","60fd703ecd62eb39eb07c328","64b003020eef62ee308107cc","64b03587c5a6a15cb040094f","null","null","<p style=""font-size: 60px; font-family: BACS"">TKDkEPBT</p>","","","","","","","",""
"html-keyboard-response","172","267708","0.0-11.0-0.3","60fd703ecd62eb39eb07c328","64b003020eef62ee308107cc","64b03587c5a6a15cb040094f","null","null","<p style=""font-size: 60px; font-family: BACS"">OYuvbrab</p>","","","","","","","",""
"html-keyboard-response","173","268717","0.0-11.0-0.4","60fd703ecd62eb39eb07c328","64b003020eef62ee308107cc","64b03587c5a6a15cb040094f","null","null","<p style=""font-size: 60px; font-family: BACS"">YZJmrAm</p>","","","","","","","",""
"html-keyboard-response","174","269727","0.0-11.0-0.5","60fd703ecd62eb39eb07c328","64b003020eef62ee308107cc","64b03587c5a6a15cb040094f","null","null","<p style=""font-size: 60px; font-family: BACS"">cuOJbOcN</p>","","","","","","","",""
"html-keyboard-response","175","270734","0.0-11.0-0.6","60fd703ecd62eb39eb07c328","64b003020eef62ee308107cc","64b03587c5a6a15cb040094f","null","null","<p style=""font-size: 60px; font-family: BACS"">CYPcMAB</p>","","","","","","","",""
"html-keyboard-response","176","271748","0.0-11.0-0.7","60fd703ecd62eb39eb07c328","64b003020eef62ee308107cc","64b03587c5a6a15cb040094f","null","null","<p style=""font-size: 60px; font-family: BACS"">GJZmuUY</p>","","","","","","","",""
"html-keyboard-response","177","272750","0.0-11.0-0.8","60fd703ecd62eb39eb07c328","64b003020eef62ee308107cc","64b03587c5a6a15cb040094f","null","null","<p style=""font-size: 60px; font-family: BACS"">kLvdNrAm</p>","","","","","","","",""
"html-keyboard-response","178","273766","0.0-11.0-0.9","60fd703ecd62eb39eb07c328","64b003020eef62ee308107cc","64b03587c5a6a15cb040094f","null","null","<p style=""font-size: 60px; font-family: BACS"">CchtdEPBT</p>","","","","","","","",""
"html-keyboard-response","179","274777","0.0-11.0-0.10","60fd703ecd62eb39eb07c328","64b003020eef62ee308107cc","64b03587c5a6a15cb040094f","null","null","<p style=""font-size: 60px; font-family: BACS"">kLvdNuZc</p>","","","","","","","",""
"html-keyboard-response","180","275778","0.0-11.0-0.11","60fd703ecd62eb39eb07c328","64b003020eef62ee308107cc","64b03587c5a6a15cb040094f","null","null","<p style=""font-size: 60px; font-family: BACS"">cBROBEKBO</p>","","","","","","","",""
"html-keyboard-response","181","276784","0.0-11.0-0.12","60fd703ecd62eb39eb07c328","64b003020eef62ee308107cc","64b03587c5a6a15cb040094f","null","null","<p style=""font-size: 60px; font-family: BACS"">JrGvOcN</p>","","","","","","","",""
"html-keyboard-response","182","277798","0.0-11.0-0.13","60fd703ecd62eb39eb07c328","64b003020eef62ee308107cc","64b03587c5a6a15cb040094f","null","null","<p style=""font-size: 60px; font-family: BACS"">hTDdMAB</p>","","","","","","","",""
"html-keyboard-response","183","278799","0.0-11.0-0.14","60fd703ecd62eb39eb07c328","64b003020eef62ee308107cc","64b03587c5a6a15cb040094f","null","null","<p style=""font-size: 60px; font-family: BACS"">cBROBEPBT</p>","","","","","","","",""
"html-keyboard-response","184","279804","0.0-11.0-0.15","60fd703ecd62eb39eb07c328","64b003020eef62ee308107cc","64b03587c5a6a15cb040094f","null","null","<p style=""font-size: 60px; font-family: BACS"">kcCRtEKBO</p>","","","","","","","",""
"html-keyboard-response","185","280810","0.0-11.0-0.16","60fd703ecd62eb39eb07c328","64b003020eef62ee308107cc","64b03587c5a6a15cb040094f","null","null","<p style=""font-size: 60px; font-family: BACS"">bmdABMAB</p>","","","","","","","",""
"html-keyboard-response","186","281827","0.0-11.0-0.17","60fd703ecd62eb39eb07c328","64b003020eef62ee308107cc","64b03587c5a6a15cb040094f","null","null","<p style=""font-size: 60px; font-family: BACS"">JrGvrAm</p>","","","","","","","",""
"html-keyboard-response","187","282842","0.0-11.0-0.18","60fd703ecd62eb39eb07c328","64b003020eef62ee308107cc","64b03587c5a6a15cb040094f","null","null","<p style=""font-size: 60px; font-family: BACS"">KDPAPED</p>","","","","","","","",""
"html-keyboard-response","188","283844","0.0-11.0-0.19","60fd703ecd62eb39eb07c328","64b003020eef62ee308107cc","64b03587c5a6a15cb040094f","null","null","<p style=""font-size: 60px; font-family: BACS"">AmacluUY</p>","","","","","","","",""
"html-keyboard-response","189","284850","0.0-11.0-0.20","60fd703ecd62eb39eb07c328","64b003020eef62ee308107cc","64b03587c5a6a15cb040094f","null","null","<p style=""font-size: 60px; font-family: BACS"">hTDdEPBT</p>","","","","","","","",""
"html-keyboard-response","190","285859","0.0-11.0-0.21","60fd703ecd62eb39eb07c328","64b003020eef62ee308107cc","64b03587c5a6a15cb040094f","null","null","<p style=""font-size: 60px; font-family: BACS"">UaZmauZc</p>","","","","","","","",""
"html-keyboard-response","191","286875","0.0-11.0-0.22","60fd703ecd62eb39eb07c328","64b003020eef62ee308107cc","64b03587c5a6a15cb040094f","null","null","<p style=""font-size: 60px; font-family: BACS"">cuOJbrab</p>","","","","","","","",""
"html-keyboard-response","192","287879","0.0-11.0-0.23","60fd703ecd62eb39eb07c328","64b003020eef62ee308107cc","64b03587c5a6a15cb040094f","null","null","<p style=""font-size: 60px; font-family: BACS"">CYPcEPBT</p>","","","","","","","",""
"html-keyboard-response","193","288894","0.0-11.0-0.24","60fd703ecd62eb39eb07c328","64b003020eef62ee308107cc","64b03587c5a6a15cb040094f","null","null","<p style=""font-size: 60px; font-family: BACS"">GumLluZc</p>","","","","","","","",""
"html-keyboard-response","194","289908","0.0-11.0-0.25","60fd703ecd62eb39eb07c328","64b003020eef62ee308107cc","64b03587c5a6a15cb040094f","null","null","<p style=""font-size: 60px; font-family: BACS"">bmdABlRE</p>","","","","","","","",""
"html-keyboard-response","195","290922","0.0-11.0-0.26","60fd703ecd62eb39eb07c328","64b003020eef62ee308107cc","64b03587c5a6a15cb040094f","null","null","<p style=""font-size: 60px; font-family: BACS"">hTDdPED</p>","","","","","","","",""
"html-keyboard-response","196","291925","0.0-11.0-0.27","60fd703ecd62eb39eb07c328","64b003020eef62ee308107cc","64b03587c5a6a15cb040094f","null","null","<p style=""font-size: 60px; font-family: BACS"">CchtdMAB</p>","","","","","","","",""
"html-keyboard-response","197","292928","0.0-11.0-0.28","60fd703ecd62eb39eb07c328","64b003020eef62ee308107cc","64b03587c5a6a15cb040094f","null","null","<p style=""font-size: 60px; font-family: BACS"">JrGvuUY</p>","","","","","","","",""
"html-keyboard-response","198","293932","0.0-11.0-0.29","60fd703ecd62eb39eb07c328","64b003020eef62ee308107cc","64b03587c5a6a15cb040094f","null","null","<p style=""font-size: 60px; font-family: BACS"">kcCRtMAB</p>","","","","","","","",""
"html-keyboard-response","199","294939","0.0-11.0-0.30","60fd703ecd62eb39eb07c328","64b003020eef62ee308107cc","64b03587c5a6a15cb040094f","null","null","<p style=""font-size: 60px; font-family: BACS"">hTDdEKBO</p>","","","","","","","",""
"html-keyboard-response","200","295952","0.0-11.0-0.31","60fd703ecd62eb39eb07c328","64b003020eef62ee308107cc","64b03587c5a6a15cb040094f","null","null","<p style=""font-size: 60px; font-family: BACS"">GJZmuZc</p>","","","","","","","",""
"html-keyboard-response","201","296963","0.0-11.0-0.32","60fd703ecd62eb39eb07c328","64b003020eef62ee308107cc","64b03587c5a6a15cb040094f","null","null","<p style=""font-size: 60px; font-family: BACS"">TKDkPED</p>","","","","","","","",""
"html-keyboard-response","202","297966","0.0-11.0-0.33","60fd703ecd62eb39eb07c328","64b003020eef62ee308107cc","64b03587c5a6a15cb040094f","null","null","<p style=""font-size: 60px; font-family: BACS"">UaZmaOcN</p>","","","","","","","",""
"html-keyboard-response","203","298977","0.0-11.0-0.34","60fd703ecd62eb39eb07c328","64b003020eef62ee308107cc","64b03587c5a6a15cb040094f","null","null","<p style=""font-size: 60px; font-family: BACS"">GJZmrAm</p>","","","","","","","",""
"html-keyboard-response","204","299982","0.0-11.0-0.35","60fd703ecd62eb39eb07c328","64b003020eef62ee308107cc","64b03587c5a6a15cb040094f","null","null","<p style=""font-size: 60px; font-family: BACS"">cBROBlRE</p>","","","","","","","",""
"html-keyboard-response","205","300998","0.0-11.0-0.36","60fd703ecd62eb39eb07c328","64b003020eef62ee308107cc","64b03587c5a6a15cb040094f","null","null","<p style=""font-size: 60px; font-family: BACS"">GumLlrab</p>","","","","","","","",""
"html-keyboard-response","206","301999","0.0-11.0-0.37","60fd703ecd62eb39eb07c328","64b003020eef62ee308107cc","64b03587c5a6a15cb040094f","null","null","<p style=""font-size: 60px; font-family: BACS"">tKDmhEPBT</p>","","","","","","","",""
"html-keyboard-response","207","303011","0.0-11.0-0.38","60fd703ecd62eb39eb07c328","64b003020eef62ee308107cc","64b03587c5a6a15cb040094f","null","null","<p style=""font-size: 60px; font-family: BACS"">KDPAEKBO</p>","","","","","","","",""
"html-keyboard-response","208","304022","0.0-11.0-0.39","60fd703ecd62eb39eb07c328","64b003020eef62ee308107cc","64b03587c5a6a15cb040094f","null","null","<p style=""font-size: 60px; font-family: BACS"">kLvdNOcN</p>","","","","","","","",""
"html-keyboard-response","209","305027","0.0-11.0-0.40","60fd703ecd62eb39eb07c328","64b003020eef62ee308107cc","64b03587c5a6a15cb040094f","null","null","<p style=""font-size: 60px; font-family: BACS"">CchtdlRE</p>","","","","","","","",""
"html-keyboard-response","210","306032","0.0-11.0-0.41","60fd703ecd62eb39eb07c328","64b003020eef62ee308107cc","64b03587c5a6a15cb040094f","null","null","<p style=""font-size: 60px; font-family: BACS"">damYbrab</p>","","","","","","","",""
"html-keyboard-response","211","307036","0.0-11.0-0.42","60fd703ecd62eb39eb07c328","64b003020eef62ee308107cc","64b03587c5a6a15cb040094f","null","null","<p style=""font-size: 60px; font-family: BACS"">DOBhYEPBT</p>","","","","","","","",""
"html-keyboard-response","212","308039","0.0-11.0-0.43","60fd703ecd62eb39eb07c328","64b003020eef62ee308107cc","64b03587c5a6a15cb040094f","null","null","<p style=""font-size: 60px; font-family: BACS"">Amaclrab</p>","","","","","","","",""
"html-keyboard-response","213","309041","0.0-11.0-0.44","60fd703ecd62eb39eb07c328","64b003020eef62ee308107cc","64b03587c5a6a15cb040094f","null","null","<p style=""font-size: 60px; font-family: BACS"">YZJmuZc</p>","","","","","","","",""
"html-keyboard-response","214","310043","0.0-11.0-0.45","60fd703ecd62eb39eb07c328","64b003020eef62ee308107cc","64b03587c5a6a15cb040094f","null","null","<p style=""font-size: 60px; font-family: BACS"">TKDklRE</p>","","","","","","","",""
"html-keyboard-response","215","311044","0.0-11.0-0.46","60fd703ecd62eb39eb07c328","64b003020eef62ee308107cc","64b03587c5a6a15cb040094f","null","null","<p style=""font-size: 60px; font-family: BACS"">tKDmhMAB</p>","","","","","","","",""
"html-keyboard-response","216","312056","0.0-11.0-0.47","60fd703ecd62eb39eb07c328","64b003020eef62ee308107cc","64b03587c5a6a15cb040094f","null","null","<p style=""font-size: 60px; font-family: BACS"">AmacluZc</p>","","","","","","","",""
"html-keyboard-response","217","313061","0.0-11.0-0.48","60fd703ecd62eb39eb07c328","64b003020eef62ee308107cc","64b03587c5a6a15cb040094f","null","null","<p style=""font-size: 60px; font-family: BACS"">OYuvbOcN</p>","","","","","","","",""
"html-keyboard-response","218","314067","0.0-11.0-0.49","60fd703ecd62eb39eb07c328","64b003020eef62ee308107cc","64b03587c5a6a15cb040094f","null","null","<p style=""font-size: 60px; font-family: BACS"">JrGvrab</p>","","","","","","","",""
"html-keyboard-response","219","315082","0.0-11.0-0.50","60fd703ecd62eb39eb07c328","64b003020eef62ee308107cc","64b03587c5a6a15cb040094f","null","null","<p style=""font-size: 60px; font-family: BACS"">UaZmarAm</p>","","","","","","","",""
"html-keyboard-response","220","316090","0.0-11.0-0.51","60fd703ecd62eb39eb07c328","64b003020eef62ee308107cc","64b03587c5a6a15cb040094f","null","null","<p style=""font-size: 60px; font-family: BACS"">YZJmuUY</p>","","","","","","","",""
"html-keyboard-response","221","317104","0.0-11.0-0.52","60fd703ecd62eb39eb07c328","64b003020eef62ee308107cc","64b03587c5a6a15cb040094f","null","null","<p style=""font-size: 60px; font-family: BACS"">kcCRtlRE</p>","","","","","","","",""
"html-keyboard-response","222","318119","0.0-11.0-0.53","60fd703ecd62eb39eb07c328","64b003020eef62ee308107cc","64b03587c5a6a15cb040094f","null","null","<p style=""font-size: 60px; font-family: BACS"">cuOJbuUY</p>","","","","","","","",""
"html-keyboard-response","223","319136","0.0-11.0-0.54","60fd703ecd62eb39eb07c328","64b003020eef62ee308107cc","64b03587c5a6a15cb040094f","null","null","<p style=""font-size: 60px; font-family: BACS"">bmdABPED</p>","","","","","","","",""
"html-keyboard-response","224","320144","0.0-11.0-0.55","60fd703ecd62eb39eb07c328","64b003020eef62ee308107cc","64b03587c5a6a15cb040094f","null","null","<p style=""font-size: 60px; font-family: BACS"">KDPAMAB</p>","","","","","","","",""
"html-keyboard-response","225","321158","0.0-11.0-0.56","60fd703ecd62eb39eb07c328","64b003020eef62ee308107cc","64b03587c5a6a15cb040094f","null","null","<p style=""font-size: 60px; font-family: BACS"">cuOJbuZc</p>","","","","","","","",""
"html-keyboard-response","226","322161","0.0-11.0-0.57","60fd703ecd62eb39eb07c328","64b003020eef62ee308107cc","64b03587c5a6a15cb040094f","null","null","<p style=""font-size: 60px; font-family: BACS"">KDPAlRE</p>","","","","","","","",""
"html-keyboard-response","227","323171","0.0-11.0-0.58","60fd703ecd62eb39eb07c328","64b003020eef62ee308107cc","64b03587c5a6a15cb040094f","null","null","<p style=""font-size: 60px; font-family: BACS"">damYbuUY</p>","","","","","","","",""
"html-keyboard-response","228","324173","0.0-11.0-0.59","60fd703ecd62eb39eb07c328","64b003020eef62ee308107cc","64b03587c5a6a15cb040094f","null","null","<p style=""font-size: 60px; font-family: BACS"">tKDmhEKBO</p>","","","","","","","",""
"html-keyboard-response","229","325188","0.0-11.0-0.60","60fd703ecd62eb39eb07c328","64b003020eef62ee308107cc","64b03587c5a6a15cb040094f","null","null","<p style=""font-size: 60px; font-family: BACS"">DOBhYMAB</p>","","","","","","","",""
"html-keyboard-response","230","326205","0.0-11.0-0.61","60fd703ecd62eb39eb07c328","64b003020eef62ee308107cc","64b03587c5a6a15cb040094f","null","null","<p style=""font-size: 60px; font-family: BACS"">YZJmOcN</p>","","","","","","","",""
"html-keyboard-response","231","327211","0.0-11.0-0.62","60fd703ecd62eb39eb07c328","64b003020eef62ee308107cc","64b03587c5a6a15cb040094f","null","null","<p style=""font-size: 60px; font-family: BACS"">damYbrAm</p>","","","","","","","",""
"html-keyboard-response","232","328226","0.0-11.0-0.63","60fd703ecd62eb39eb07c328","64b003020eef62ee308107cc","64b03587c5a6a15cb040094f","null","null","<p style=""font-size: 60px; font-family: BACS"">DOBhYEKBO</p>","","","","","","","",""
"html-keyboard-response","233","329238","0.0-11.0-0.64","60fd703ecd62eb39eb07c328","64b003020eef62ee308107cc","64b03587c5a6a15cb040094f","null","null","<p style=""font-size: 60px; font-family: BACS"">CYPclRE</p>","","","","","","","",""
"html-keyboard-response","234","330252","0.0-11.0-0.65","60fd703ecd62eb39eb07c328","64b003020eef62ee308107cc","64b03587c5a6a15cb040094f","null","null","<p style=""font-size: 60px; font-family: BACS"">UaZmauUY</p>","","","","","","","",""
"html-keyboard-response","235","331261","0.0-11.0-0.66","60fd703ecd62eb39eb07c328","64b003020eef62ee308107cc","64b03587c5a6a15cb040094f","null","null","<p style=""font-size: 60px; font-family: BACS"">AmaclOcN</p>","","","","","","","",""
"html-keyboard-response","236","332273","0.0-11.0-0.67","60fd703ecd62eb39eb07c328","64b003020eef62ee308107cc","64b03587c5a6a15cb040094f","null","null","<p style=""font-size: 60px; font-family: BACS"">tKDmhlRE</p>","","","","","","","",""
"html-keyboard-response","237","333282","0.0-11.0-0.68","60fd703ecd62eb39eb07c328","64b003020eef62ee308107cc","64b03587c5a6a15cb040094f","null","null","<p style=""font-size: 60px; font-family: BACS"">CchtdEKBO</p>","","","","","","","",""
"html-keyboard-response","238","334293","0.0-11.0-0.69","60fd703ecd62eb39eb07c328","64b003020eef62ee308107cc","64b03587c5a6a15cb040094f","null","null","<p style=""font-size: 60px; font-family: BACS"">OYuvbuZc</p>","","","","","","","",""
"html-keyboard-response","239","335309","0.0-11.0-0.70","60fd703ecd62eb39eb07c328","64b003020eef62ee308107cc","64b03587c5a6a15cb040094f","null","null","<p style=""font-size: 60px; font-family: BACS"">GumLlrAm</p>","","","","","","","",""
"html-keyboard-response","240","336325","0.0-11.0-0.71","60fd703ecd62eb39eb07c328","64b003020eef62ee308107cc","64b03587c5a6a15cb040094f","null","null","<p style=""font-size: 60px; font-family: BACS"">kLvdNrab</p>","","","","","","","",""
"html-keyboard-response","241","337335","0.0-11.0-0.72","60fd703ecd62eb39eb07c328","64b003020eef62ee308107cc","64b03587c5a6a15cb040094f","null","null","<p style=""font-size: 60px; font-family: BACS"">CYPcPED</p>","","","","","","","",""
"html-keyboard-response","242","338350","0.0-11.0-0.73","60fd703ecd62eb39eb07c328","64b003020eef62ee308107cc","64b03587c5a6a15cb040094f","null","null","<p style=""font-size: 60px; font-family: BACS"">GumLluUY</p>","","","","","","","",""
"html-keyboard-response","243","339360","0.0-11.0-0.74","60fd703ecd62eb39eb07c328","64b003020eef62ee308107cc","64b03587c5a6a15cb040094f","null","null","<p style=""font-size: 60px; font-family: BACS"">TKDkEKBO</p>","","","","","","","",""
"html-keyboard-response","244","340375","0.0-11.0-0.75","60fd703ecd62eb39eb07c328","64b003020eef62ee308107cc","64b03587c5a6a15cb040094f","null","null","<p style=""font-size: 60px; font-family: BACS"">bmdABEPBT</p>","","","","","","","",""
"html-keyboard-response","245","341390","0.0-11.0-0.76","60fd703ecd62eb39eb07c328","64b003020eef62ee308107cc","64b03587c5a6a15cb040094f","null","null","<p style=""font-size: 60px; font-family: BACS"">cBROBPED</p>","","","","","","","",""
"html-keyboard-response","246","342399","0.0-11.0-0.77","60fd703ecd62eb39eb07c328","64b003020eef62ee308107cc","64b03587c5a6a15cb040094f","null","null","<p style=""font-size: 60px; font-family: BACS"">OYuvbrAm</p>","","","","","","","",""
"html-keyboard-response","247","343414","0.0-11.0-0.78","60fd703ecd62eb39eb07c328","64b003020eef62ee308107cc","64b03587c5a6a15cb040094f","null","null","<p style=""font-size: 60px; font-family: BACS"">DOBhYPED</p>","","","","","","","",""
"html-keyboard-response","248","344431","0.0-11.0-0.79","60fd703ecd62eb39eb07c328","64b003020eef62ee308107cc","64b03587c5a6a15cb040094f","null","null","<p style=""font-size: 60px; font-family: BACS"">GJZmrab</p>","","","","","","","",""
"html-keyboard-response","249","364110","0.0-12.0","60fd703ecd62eb39eb07c328","64b003020eef62ee308107cc","64b03587c5a6a15cb040094f","19683"," ","<p>Ottimo, hai visto il terzo blocco di parole. Ora puoi prenderti una piccola pausa.</p>
      <p>Premi la barra quando sei pronta/o per riprendere.</p>","","","","","","","",""
"html-keyboard-response","250","365128","0.0-13.0-0.0","60fd703ecd62eb39eb07c328","64b003020eef62ee308107cc","64b03587c5a6a15cb040094f","null","null","<p style=""font-size: 60px; font-family: BACS"">cuOJbrab</p>","","","","","","","",""
"html-keyboard-response","251","366132","0.0-13.0-0.1","60fd703ecd62eb39eb07c328","64b003020eef62ee308107cc","64b03587c5a6a15cb040094f","null","null","<p style=""font-size: 60px; font-family: BACS"">CchtdlRE</p>","","","","","","","",""
"html-keyboard-response","252","367143","0.0-13.0-0.2","60fd703ecd62eb39eb07c328","64b003020eef62ee308107cc","64b03587c5a6a15cb040094f","null","null","<p style=""font-size: 60px; font-family: BACS"">bmdABMAB</p>","","","","","","","",""
"html-keyboard-response","253","368155","0.0-13.0-0.3","60fd703ecd62eb39eb07c328","64b003020eef62ee308107cc","64b03587c5a6a15cb040094f","null","null","<p style=""font-size: 60px; font-family: BACS"">TKDkPED</p>","","","","","","","",""
"html-keyboard-response","254","369159","0.0-13.0-0.4","60fd703ecd62eb39eb07c328","64b003020eef62ee308107cc","64b03587c5a6a15cb040094f","null","null","<p style=""font-size: 60px; font-family: BACS"">DOBhYEPBT</p>","","","","","","","",""
"html-keyboard-response","255","370174","0.0-13.0-0.5","60fd703ecd62eb39eb07c328","64b003020eef62ee308107cc","64b03587c5a6a15cb040094f","null","null","<p style=""font-size: 60px; font-family: BACS"">AmacluZc</p>","","","","","","","",""
"html-keyboard-response","256","371184","0.0-13.0-0.6","60fd703ecd62eb39eb07c328","64b003020eef62ee308107cc","64b03587c5a6a15cb040094f","null","null","<p style=""font-size: 60px; font-family: BACS"">JrGvuUY</p>","","","","","","","",""
"html-keyboard-response","257","372198","0.0-13.0-0.7","60fd703ecd62eb39eb07c328","64b003020eef62ee308107cc","64b03587c5a6a15cb040094f","null","null","<p style=""font-size: 60px; font-family: BACS"">GJZmrAm</p>","","","","","","","",""
"html-keyboard-response","258","373212","0.0-13.0-0.8","60fd703ecd62eb39eb07c328","64b003020eef62ee308107cc","64b03587c5a6a15cb040094f","null","null","<p style=""font-size: 60px; font-family: BACS"">hTDdEKBO</p>","","","","","","","",""
"html-keyboard-response","259","374227","0.0-13.0-0.9","60fd703ecd62eb39eb07c328","64b003020eef62ee308107cc","64b03587c5a6a15cb040094f","null","null","<p style=""font-size: 60px; font-family: BACS"">AmacluUY</p>","","","","","","","",""
"html-keyboard-response","260","375230","0.0-13.0-0.10","60fd703ecd62eb39eb07c328","64b003020eef62ee308107cc","64b03587c5a6a15cb040094f","null","null","<p style=""font-size: 60px; font-family: BACS"">tKDmhEKBO</p>","","","","","","","",""
"html-keyboard-response","261","376244","0.0-13.0-0.11","60fd703ecd62eb39eb07c328","64b003020eef62ee308107cc","64b03587c5a6a15cb040094f","null","null","<p style=""font-size: 60px; font-family: BACS"">bmdABPED</p>","","","","","","","",""
"html-keyboard-response","262","377260","0.0-13.0-0.12","60fd703ecd62eb39eb07c328","64b003020eef62ee308107cc","64b03587c5a6a15cb040094f","null","null","<p style=""font-size: 60px; font-family: BACS"">tKDmhMAB</p>","","","","","","","",""
"html-keyboard-response","263","378278","0.0-13.0-0.13","60fd703ecd62eb39eb07c328","64b003020eef62ee308107cc","64b03587c5a6a15cb040094f","null","null","<p style=""font-size: 60px; font-family: BACS"">GumLluZc</p>","","","","","","","",""
"html-keyboard-response","264","379285","0.0-13.0-0.14","60fd703ecd62eb39eb07c328","64b003020eef62ee308107cc","64b03587c5a6a15cb040094f","null","null","<p style=""font-size: 60px; font-family: BACS"">hTDdEPBT</p>","","","","","","","",""
"html-keyboard-response","265","380287","0.0-13.0-0.15","60fd703ecd62eb39eb07c328","64b003020eef62ee308107cc","64b03587c5a6a15cb040094f","null","null","<p style=""font-size: 60px; font-family: BACS"">cBROBEKBO</p>","","","","","","","",""
"html-keyboard-response","266","381301","0.0-13.0-0.16","60fd703ecd62eb39eb07c328","64b003020eef62ee308107cc","64b03587c5a6a15cb040094f","null","null","<p style=""font-size: 60px; font-family: BACS"">GJZmuZc</p>","","","","","","","",""
"html-keyboard-response","267","382310","0.0-13.0-0.17","60fd703ecd62eb39eb07c328","64b003020eef62ee308107cc","64b03587c5a6a15cb040094f","null","null","<p style=""font-size: 60px; font-family: BACS"">CYPcEPBT</p>","","","","","","","",""
"html-keyboard-response","268","383314","0.0-13.0-0.18","60fd703ecd62eb39eb07c328","64b003020eef62ee308107cc","64b03587c5a6a15cb040094f","null","null","<p style=""font-size: 60px; font-family: BACS"">DOBhYMAB</p>","","","","","","","",""
"html-keyboard-response","269","384321","0.0-13.0-0.19","60fd703ecd62eb39eb07c328","64b003020eef62ee308107cc","64b03587c5a6a15cb040094f","null","null","<p style=""font-size: 60px; font-family: BACS"">GumLluUY</p>","","","","","","","",""
"html-keyboard-response","270","385323","0.0-13.0-0.20","60fd703ecd62eb39eb07c328","64b003020eef62ee308107cc","64b03587c5a6a15cb040094f","null","null","<p style=""font-size: 60px; font-family: BACS"">TKDklRE</p>","","","","","","","",""
"html-keyboard-response","271","386326","0.0-13.0-0.21","60fd703ecd62eb39eb07c328","64b003020eef62ee308107cc","64b03587c5a6a15cb040094f","null","null","<p style=""font-size: 60px; font-family: BACS"">UaZmarAm</p>","","","","","","","",""
"html-keyboard-response","272","387338","0.0-13.0-0.22","60fd703ecd62eb39eb07c328","64b003020eef62ee308107cc","64b03587c5a6a15cb040094f","null","null","<p style=""font-size: 60px; font-family: BACS"">CchtdEPBT</p>","","","","","","","",""
"html-keyboard-response","273","388353","0.0-13.0-0.23","60fd703ecd62eb39eb07c328","64b003020eef62ee308107cc","64b03587c5a6a15cb040094f","null","null","<p style=""font-size: 60px; font-family: BACS"">YZJmuUY</p>","","","","","","","",""
"html-keyboard-response","274","389370","0.0-13.0-0.24","60fd703ecd62eb39eb07c328","64b003020eef62ee308107cc","64b03587c5a6a15cb040094f","null","null","<p style=""font-size: 60px; font-family: BACS"">OYuvbOcN</p>","","","","","","","",""
"html-keyboard-response","275","390377","0.0-13.0-0.25","60fd703ecd62eb39eb07c328","64b003020eef62ee308107cc","64b03587c5a6a15cb040094f","null","null","<p style=""font-size: 60px; font-family: BACS"">kcCRtMAB</p>","","","","","","","",""
"html-keyboard-response","276","391386","0.0-13.0-0.26","60fd703ecd62eb39eb07c328","64b003020eef62ee308107cc","64b03587c5a6a15cb040094f","null","null","<p style=""font-size: 60px; font-family: BACS"">YZJmuZc</p>","","","","","","","",""
"html-keyboard-response","277","392392","0.0-13.0-0.27","60fd703ecd62eb39eb07c328","64b003020eef62ee308107cc","64b03587c5a6a15cb040094f","null","null","<p style=""font-size: 60px; font-family: BACS"">UaZmaOcN</p>","","","","","","","",""
"html-keyboard-response","278","393394","0.0-13.0-0.28","60fd703ecd62eb39eb07c328","64b003020eef62ee308107cc","64b03587c5a6a15cb040094f","null","null","<p style=""font-size: 60px; font-family: BACS"">cBROBlRE</p>","","","","","","","",""
"html-keyboard-response","279","394404","0.0-13.0-0.29","60fd703ecd62eb39eb07c328","64b003020eef62ee308107cc","64b03587c5a6a15cb040094f","null","null","<p style=""font-size: 60px; font-family: BACS"">GumLlrAm</p>","","","","","","","",""
"html-keyboard-response","280","395411","0.0-13.0-0.30","60fd703ecd62eb39eb07c328","64b003020eef62ee308107cc","64b03587c5a6a15cb040094f","null","null","<p style=""font-size: 60px; font-family: BACS"">cuOJbuZc</p>","","","","","","","",""
"html-keyboard-response","281","396426","0.0-13.0-0.31","60fd703ecd62eb39eb07c328","64b003020eef62ee308107cc","64b03587c5a6a15cb040094f","null","null","<p style=""font-size: 60px; font-family: BACS"">OYuvbrAm</p>","","","","","","","",""
"html-keyboard-response","282","397440","0.0-13.0-0.32","60fd703ecd62eb39eb07c328","64b003020eef62ee308107cc","64b03587c5a6a15cb040094f","null","null","<p style=""font-size: 60px; font-family: BACS"">cuOJbOcN</p>","","","","","","","",""
"html-keyboard-response","283","398442","0.0-13.0-0.33","60fd703ecd62eb39eb07c328","64b003020eef62ee308107cc","64b03587c5a6a15cb040094f","null","null","<p style=""font-size: 60px; font-family: BACS"">hTDdPED</p>","","","","","","","",""
"html-keyboard-response","284","399443","0.0-13.0-0.34","60fd703ecd62eb39eb07c328","64b003020eef62ee308107cc","64b03587c5a6a15cb040094f","null","null","<p style=""font-size: 60px; font-family: BACS"">JrGvrab</p>","","","","","","","",""
"html-keyboard-response","285","400451","0.0-13.0-0.35","60fd703ecd62eb39eb07c328","64b003020eef62ee308107cc","64b03587c5a6a15cb040094f","null","null","<p style=""font-size: 60px; font-family: BACS"">TKDkEKBO</p>","","","","","","","",""
"html-keyboard-response","286","401461","0.0-13.0-0.36","60fd703ecd62eb39eb07c328","64b003020eef62ee308107cc","64b03587c5a6a15cb040094f","null","null","<p style=""font-size: 60px; font-family: BACS"">kLvdNrab</p>","","","","","","","",""
"html-keyboard-response","287","402476","0.0-13.0-0.37","60fd703ecd62eb39eb07c328","64b003020eef62ee308107cc","64b03587c5a6a15cb040094f","null","null","<p style=""font-size: 60px; font-family: BACS"">damYbOcN</p>","","","","","","","",""
"html-keyboard-response","288","403493","0.0-13.0-0.38","60fd703ecd62eb39eb07c328","64b003020eef62ee308107cc","64b03587c5a6a15cb040094f","null","null","<p style=""font-size: 60px; font-family: BACS"">JrGvrAm</p>","","","","","","","",""
"html-keyboard-response","289","404499","0.0-13.0-0.39","60fd703ecd62eb39eb07c328","64b003020eef62ee308107cc","64b03587c5a6a15cb040094f","null","null","<p style=""font-size: 60px; font-family: BACS"">tKDmhEPBT</p>","","","","","","","",""
"html-keyboard-response","290","405510","0.0-13.0-0.40","60fd703ecd62eb39eb07c328","64b003020eef62ee308107cc","64b03587c5a6a15cb040094f","null","null","<p style=""font-size: 60px; font-family: BACS"">damYbrab</p>","","","","","","","",""
"html-keyboard-response","291","406522","0.0-13.0-0.41","60fd703ecd62eb39eb07c328","64b003020eef62ee308107cc","64b03587c5a6a15cb040094f","null","null","<p style=""font-size: 60px; font-family: BACS"">bmdABlRE</p>","","","","","","","",""
"html-keyboard-response","292","407527","0.0-13.0-0.42","60fd703ecd62eb39eb07c328","64b003020eef62ee308107cc","64b03587c5a6a15cb040094f","null","null","<p style=""font-size: 60px; font-family: BACS"">damYbrAm</p>","","","","","","","",""
"html-keyboard-response","293","408540","0.0-13.0-0.43","60fd703ecd62eb39eb07c328","64b003020eef62ee308107cc","64b03587c5a6a15cb040094f","null","null","<p style=""font-size: 60px; font-family: BACS"">hTDdMAB</p>","","","","","","","",""
"html-keyboard-response","294","409550","0.0-13.0-0.44","60fd703ecd62eb39eb07c328","64b003020eef62ee308107cc","64b03587c5a6a15cb040094f","null","null","<p style=""font-size: 60px; font-family: BACS"">YZJmOcN</p>","","","","","","","",""
"html-keyboard-response","295","410552","0.0-13.0-0.45","60fd703ecd62eb39eb07c328","64b003020eef62ee308107cc","64b03587c5a6a15cb040094f","null","null","<p style=""font-size: 60px; font-family: BACS"">CYPcPED</p>","","","","","","","",""
"html-keyboard-response","296","411560","0.0-13.0-0.46","60fd703ecd62eb39eb07c328","64b003020eef62ee308107cc","64b03587c5a6a15cb040094f","null","null","<p style=""font-size: 60px; font-family: BACS"">AmaclOcN</p>","","","","","","","",""
"html-keyboard-response","297","412564","0.0-13.0-0.47","60fd703ecd62eb39eb07c328","64b003020eef62ee308107cc","64b03587c5a6a15cb040094f","null","null","<p style=""font-size: 60px; font-family: BACS"">YZJmrAm</p>","","","","","","","",""
"html-keyboard-response","298","413577","0.0-13.0-0.48","60fd703ecd62eb39eb07c328","64b003020eef62ee308107cc","64b03587c5a6a15cb040094f","null","null","<p style=""font-size: 60px; font-family: BACS"">kcCRtEKBO</p>","","","","","","","",""
"html-keyboard-response","299","414582","0.0-13.0-0.49","60fd703ecd62eb39eb07c328","64b003020eef62ee308107cc","64b03587c5a6a15cb040094f","null","null","<p style=""font-size: 60px; font-family: BACS"">tKDmhlRE</p>","","","","","","","",""
"html-keyboard-response","300","415584","0.0-13.0-0.50","60fd703ecd62eb39eb07c328","64b003020eef62ee308107cc","64b03587c5a6a15cb040094f","null","null","<p style=""font-size: 60px; font-family: BACS"">Amaclrab</p>","","","","","","","",""
"html-keyboard-response","301","416590","0.0-13.0-0.51","60fd703ecd62eb39eb07c328","64b003020eef62ee308107cc","64b03587c5a6a15cb040094f","null","null","<p style=""font-size: 60px; font-family: BACS"">UaZmauUY</p>","","","","","","","",""
"html-keyboard-response","302","417601","0.0-13.0-0.52","60fd703ecd62eb39eb07c328","64b003020eef62ee308107cc","64b03587c5a6a15cb040094f","null","null","<p style=""font-size: 60px; font-family: BACS"">JrGvOcN</p>","","","","","","","",""
"html-keyboard-response","303","418608","0.0-13.0-0.53","60fd703ecd62eb39eb07c328","64b003020eef62ee308107cc","64b03587c5a6a15cb040094f","null","null","<p style=""font-size: 60px; font-family: BACS"">DOBhYPED</p>","","","","","","","",""
"html-keyboard-response","304","419624","0.0-13.0-0.54","60fd703ecd62eb39eb07c328","64b003020eef62ee308107cc","64b03587c5a6a15cb040094f","null","null","<p style=""font-size: 60px; font-family: BACS"">OYuvbuZc</p>","","","","","","","",""
"html-keyboard-response","305","420636","0.0-13.0-0.55","60fd703ecd62eb39eb07c328","64b003020eef62ee308107cc","64b03587c5a6a15cb040094f","null","null","<p style=""font-size: 60px; font-family: BACS"">GJZmuUY</p>","","","","","","","",""
"html-keyboard-response","306","421650","0.0-13.0-0.56","60fd703ecd62eb39eb07c328","64b003020eef62ee308107cc","64b03587c5a6a15cb040094f","null","null","<p style=""font-size: 60px; font-family: BACS"">kLvdNOcN</p>","","","","","","","",""
"html-keyboard-response","307","422662","0.0-13.0-0.57","60fd703ecd62eb39eb07c328","64b003020eef62ee308107cc","64b03587c5a6a15cb040094f","null","null","<p style=""font-size: 60px; font-family: BACS"">KDPAPED</p>","","","","","","","",""
"html-keyboard-response","308","423675","0.0-13.0-0.58","60fd703ecd62eb39eb07c328","64b003020eef62ee308107cc","64b03587c5a6a15cb040094f","null","null","<p style=""font-size: 60px; font-family: BACS"">bmdABEPBT</p>","","","","","","","",""
"html-keyboard-response","309","424691","0.0-13.0-0.59","60fd703ecd62eb39eb07c328","64b003020eef62ee308107cc","64b03587c5a6a15cb040094f","null","null","<p style=""font-size: 60px; font-family: BACS"">CchtdEKBO</p>","","","","","","","",""
"html-keyboard-response","310","425696","0.0-13.0-0.60","60fd703ecd62eb39eb07c328","64b003020eef62ee308107cc","64b03587c5a6a15cb040094f","null","null","<p style=""font-size: 60px; font-family: BACS"">kLvdNrAm</p>","","","","","","","",""
"html-keyboard-response","311","426703","0.0-13.0-0.61","60fd703ecd62eb39eb07c328","64b003020eef62ee308107cc","64b03587c5a6a15cb040094f","null","null","<p style=""font-size: 60px; font-family: BACS"">cBROBPED</p>","","","","","","","",""
"html-keyboard-response","312","427718","0.0-13.0-0.62","60fd703ecd62eb39eb07c328","64b003020eef62ee308107cc","64b03587c5a6a15cb040094f","null","null","<p style=""font-size: 60px; font-family: BACS"">CYPcMAB</p>","","","","","","","",""
"html-keyboard-response","313","428720","0.0-13.0-0.63","60fd703ecd62eb39eb07c328","64b003020eef62ee308107cc","64b03587c5a6a15cb040094f","null","null","<p style=""font-size: 60px; font-family: BACS"">KDPAlRE</p>","","","","","","","",""
"html-keyboard-response","314","429728","0.0-13.0-0.64","60fd703ecd62eb39eb07c328","64b003020eef62ee308107cc","64b03587c5a6a15cb040094f","null","null","<p style=""font-size: 60px; font-family: BACS"">OYuvbrab</p>","","","","","","","",""
"html-keyboard-response","315","430741","0.0-13.0-0.65","60fd703ecd62eb39eb07c328","64b003020eef62ee308107cc","64b03587c5a6a15cb040094f","null","null","<p style=""font-size: 60px; font-family: BACS"">cuOJbuUY</p>","","","","","","","",""
"html-keyboard-response","316","431748","0.0-13.0-0.66","60fd703ecd62eb39eb07c328","64b003020eef62ee308107cc","64b03587c5a6a15cb040094f","null","null","<p style=""font-size: 60px; font-family: BACS"">KDPAMAB</p>","","","","","","","",""
"html-keyboard-response","317","432753","0.0-13.0-0.67","60fd703ecd62eb39eb07c328","64b003020eef62ee308107cc","64b03587c5a6a15cb040094f","null","null","<p style=""font-size: 60px; font-family: BACS"">kcCRtPED</p>","","","","","","","",""
"html-keyboard-response","318","433765","0.0-13.0-0.68","60fd703ecd62eb39eb07c328","64b003020eef62ee308107cc","64b03587c5a6a15cb040094f","null","null","<p style=""font-size: 60px; font-family: BACS"">GumLlrab</p>","","","","","","","",""
"html-keyboard-response","319","434782","0.0-13.0-0.69","60fd703ecd62eb39eb07c328","64b003020eef62ee308107cc","64b03587c5a6a15cb040094f","null","null","<p style=""font-size: 60px; font-family: BACS"">cBROBEPBT</p>","","","","","","","",""
"html-keyboard-response","320","435791","0.0-13.0-0.70","60fd703ecd62eb39eb07c328","64b003020eef62ee308107cc","64b03587c5a6a15cb040094f","null","null","<p style=""font-size: 60px; font-family: BACS"">DOBhYEKBO</p>","","","","","","","",""
"html-keyboard-response","321","436798","0.0-13.0-0.71","60fd703ecd62eb39eb07c328","64b003020eef62ee308107cc","64b03587c5a6a15cb040094f","null","null","<p style=""font-size: 60px; font-family: BACS"">CYPclRE</p>","","","","","","","",""
"html-keyboard-response","322","437814","0.0-13.0-0.72","60fd703ecd62eb39eb07c328","64b003020eef62ee308107cc","64b03587c5a6a15cb040094f","null","null","<p style=""font-size: 60px; font-family: BACS"">kLvdNuZc</p>","","","","","","","",""
"html-keyboard-response","323","438826","0.0-13.0-0.73","60fd703ecd62eb39eb07c328","64b003020eef62ee308107cc","64b03587c5a6a15cb040094f","null","null","<p style=""font-size: 60px; font-family: BACS"">TKDkEPBT</p>","","","","","","","",""
"html-keyboard-response","324","439830","0.0-13.0-0.74","60fd703ecd62eb39eb07c328","64b003020eef62ee308107cc","64b03587c5a6a15cb040094f","null","null","<p style=""font-size: 60px; font-family: BACS"">GJZmrab</p>","","","","","","","",""
"html-keyboard-response","325","440832","0.0-13.0-0.75","60fd703ecd62eb39eb07c328","64b003020eef62ee308107cc","64b03587c5a6a15cb040094f","null","null","<p style=""font-size: 60px; font-family: BACS"">UaZmauZc</p>","","","","","","","",""
"html-keyboard-response","326","441850","0.0-13.0-0.76","60fd703ecd62eb39eb07c328","64b003020eef62ee308107cc","64b03587c5a6a15cb040094f","null","null","<p style=""font-size: 60px; font-family: BACS"">KDPAEKBO</p>","","","","","","","",""
"html-keyboard-response","327","442859","0.0-13.0-0.77","60fd703ecd62eb39eb07c328","64b003020eef62ee308107cc","64b03587c5a6a15cb040094f","null","null","<p style=""font-size: 60px; font-family: BACS"">kcCRtlRE</p>","","","","","","","",""
"html-keyboard-response","328","443864","0.0-13.0-0.78","60fd703ecd62eb39eb07c328","64b003020eef62ee308107cc","64b03587c5a6a15cb040094f","null","null","<p style=""font-size: 60px; font-family: BACS"">CchtdMAB</p>","","","","","","","",""
"html-keyboard-response","329","444881","0.0-13.0-0.79","60fd703ecd62eb39eb07c328","64b003020eef62ee308107cc","64b03587c5a6a15cb040094f","null","null","<p style=""font-size: 60px; font-family: BACS"">damYbuUY</p>","","","","","","","",""
"html-keyboard-response","330","453558","0.0-14.0","60fd703ecd62eb39eb07c328","64b003020eef62ee308107cc","64b03587c5a6a15cb040094f","8676"," ","<p>Ottimo, hai visto il quarto blocco di parole. Ora puoi prenderti una piccola pausa.</p>
      <p>Premi la barra quando sei pronta/o per riprendere.</p>","","","","","","","",""
"html-keyboard-response","331","454570","0.0-15.0-0.0","60fd703ecd62eb39eb07c328","64b003020eef62ee308107cc","64b03587c5a6a15cb040094f","null","null","<p style=""font-size: 60px; font-family: BACS"">cBROBEKBO</p>","","","","","","","",""
"html-keyboard-response","332","455585","0.0-15.0-0.1","60fd703ecd62eb39eb07c328","64b003020eef62ee308107cc","64b03587c5a6a15cb040094f","null","null","<p style=""font-size: 60px; font-family: BACS"">cBROBEKBO</p>","","","","","","","",""
"html-keyboard-response","333","456601","0.0-15.0-0.2","60fd703ecd62eb39eb07c328","64b003020eef62ee308107cc","64b03587c5a6a15cb040094f","null","null","<p style=""font-size: 60px; font-family: BACS"">cBROBEKBO</p>","","","","","","","",""
"html-keyboard-response","334","457616","0.0-15.0-0.3","60fd703ecd62eb39eb07c328","64b003020eef62ee308107cc","64b03587c5a6a15cb040094f","null","null","<p style=""font-size: 60px; font-family: BACS"">cBROBEKBO</p>","","","","","","","",""
"html-keyboard-response","335","458629","0.0-15.0-0.4","60fd703ecd62eb39eb07c328","64b003020eef62ee308107cc","64b03587c5a6a15cb040094f","null","null","<p style=""font-size: 60px; font-family: BACS"">cBROBEKBO</p>","","","","","","","",""
"html-keyboard-response","336","459642","0.0-15.0-0.5","60fd703ecd62eb39eb07c328","64b003020eef62ee308107cc","64b03587c5a6a15cb040094f","null","null","<p style=""font-size: 60px; font-family: BACS"">cBROBEKBO</p>","","","","","","","",""
"html-keyboard-response","337","460648","0.0-15.0-0.6","60fd703ecd62eb39eb07c328","64b003020eef62ee308107cc","64b03587c5a6a15cb040094f","null","null","<p style=""font-size: 60px; font-family: BACS"">cBROBEKBO</p>","","","","","","","",""
"html-keyboard-response","338","461655","0.0-15.0-0.7","60fd703ecd62eb39eb07c328","64b003020eef62ee308107cc","64b03587c5a6a15cb040094f","null","null","<p style=""font-size: 60px; font-family: BACS"">cBROBEKBO</p>","","","","","","","",""
"html-keyboard-response","339","462669","0.0-15.0-0.8","60fd703ecd62eb39eb07c328","64b003020eef62ee308107cc","64b03587c5a6a15cb040094f","null","null","<p style=""font-size: 60px; font-family: BACS"">cBROBEKBO</p>","","","","","","","",""
"html-keyboard-response","340","463677","0.0-15.0-0.9","60fd703ecd62eb39eb07c328","64b003020eef62ee308107cc","64b03587c5a6a15cb040094f","null","null","<p style=""font-size: 60px; font-family: BACS"">cBROBEKBO</p>","","","","","","","",""
"html-keyboard-response","341","464682","0.0-15.0-0.10","60fd703ecd62eb39eb07c328","64b003020eef62ee308107cc","64b03587c5a6a15cb040094f","null","null","<p style=""font-size: 60px; font-family: BACS"">cBROBEKBO</p>","","","","","","","",""
"html-keyboard-response","342","465689","0.0-15.0-0.11","60fd703ecd62eb39eb07c328","64b003020eef62ee308107cc","64b03587c5a6a15cb040094f","null","null","<p style=""font-size: 60px; font-family: BACS"">cBROBEKBO</p>","","","","","","","",""
"html-keyboard-response","343","466699","0.0-15.0-0.12","60fd703ecd62eb39eb07c328","64b003020eef62ee308107cc","64b03587c5a6a15cb040094f","null","null","<p style=""font-size: 60px; font-family: BACS"">cBROBEKBO</p>","","","","","","","",""
"html-keyboard-response","344","467713","0.0-15.0-0.13","60fd703ecd62eb39eb07c328","64b003020eef62ee308107cc","64b03587c5a6a15cb040094f","null","null","<p style=""font-size: 60px; font-family: BACS"">cBROBEKBO</p>","","","","","","","",""
"html-keyboard-response","345","468723","0.0-15.0-0.14","60fd703ecd62eb39eb07c328","64b003020eef62ee308107cc","64b03587c5a6a15cb040094f","null","null","<p style=""font-size: 60px; font-family: BACS"">cBROBEKBO</p>","","","","","","","",""
"html-keyboard-response","346","469739","0.0-15.0-0.15","60fd703ecd62eb39eb07c328","64b003020eef62ee308107cc","64b03587c5a6a15cb040094f","null","null","<p style=""font-size: 60px; font-family: BACS"">cBROBEKBO</p>","","","","","","","",""
"html-keyboard-response","347","470748","0.0-15.0-0.16","60fd703ecd62eb39eb07c328","64b003020eef62ee308107cc","64b03587c5a6a15cb040094f","null","null","<p style=""font-size: 60px; font-family: BACS"">cBROBEKBO</p>","","","","","","","",""
"html-keyboard-response","348","471764","0.0-15.0-0.17","60fd703ecd62eb39eb07c328","64b003020eef62ee308107cc","64b03587c5a6a15cb040094f","null","null","<p style=""font-size: 60px; font-family: BACS"">cBROBEKBO</p>","","","","","","","",""
"html-keyboard-response","349","472779","0.0-15.0-0.18","60fd703ecd62eb39eb07c328","64b003020eef62ee308107cc","64b03587c5a6a15cb040094f","null","null","<p style=""font-size: 60px; font-family: BACS"">cBROBEKBO</p>","","","","","","","",""
"html-keyboard-response","350","473788","0.0-15.0-0.19","60fd703ecd62eb39eb07c328","64b003020eef62ee308107cc","64b03587c5a6a15cb040094f","null","null","<p style=""font-size: 60px; font-family: BACS"">cBROBEKBO</p>","","","","","","","",""
"html-keyboard-response","351","474803","0.0-15.0-0.20","60fd703ecd62eb39eb07c328","64b003020eef62ee308107cc","64b03587c5a6a15cb040094f","null","null","<p style=""font-size: 60px; font-family: BACS"">cBROBEKBO</p>","","","","","","","",""
"html-keyboard-response","352","475806","0.0-15.0-0.21","60fd703ecd62eb39eb07c328","64b003020eef62ee308107cc","64b03587c5a6a15cb040094f","null","null","<p style=""font-size: 60px; font-family: BACS"">cBROBEKBO</p>","","","","","","","",""
"html-keyboard-response","353","476812","0.0-15.0-0.22","60fd703ecd62eb39eb07c328","64b003020eef62ee308107cc","64b03587c5a6a15cb040094f","null","null","<p style=""font-size: 60px; font-family: BACS"">cBROBEKBO</p>","","","","","","","",""
"html-keyboard-response","354","477815","0.0-15.0-0.23","60fd703ecd62eb39eb07c328","64b003020eef62ee308107cc","64b03587c5a6a15cb040094f","null","null","<p style=""font-size: 60px; font-family: BACS"">cBROBEKBO</p>","","","","","","","",""
"html-keyboard-response","355","478821","0.0-15.0-0.24","60fd703ecd62eb39eb07c328","64b003020eef62ee308107cc","64b03587c5a6a15cb040094f","null","null","<p style=""font-size: 60px; font-family: BACS"">cBROBEKBO</p>","","","","","","","",""
"html-keyboard-response","356","479826","0.0-15.0-0.25","60fd703ecd62eb39eb07c328","64b003020eef62ee308107cc","64b03587c5a6a15cb040094f","null","null","<p style=""font-size: 60px; font-family: BACS"">cBROBEKBO</p>","","","","","","","",""
"html-keyboard-response","357","480828","0.0-15.0-0.26","60fd703ecd62eb39eb07c328","64b003020eef62ee308107cc","64b03587c5a6a15cb040094f","null","null","<p style=""font-size: 60px; font-family: BACS"">cBROBEKBO</p>","","","","","","","",""
"html-keyboard-response","358","481837","0.0-15.0-0.27","60fd703ecd62eb39eb07c328","64b003020eef62ee308107cc","64b03587c5a6a15cb040094f","null","null","<p style=""font-size: 60px; font-family: BACS"">cBROBEKBO</p>","","","","","","","",""
"html-keyboard-response","359","482840","0.0-15.0-0.28","60fd703ecd62eb39eb07c328","64b003020eef62ee308107cc","64b03587c5a6a15cb040094f","null","null","<p style=""font-size: 60px; font-family: BACS"">cBROBEKBO</p>","","","","","","","",""
"html-keyboard-response","360","483854","0.0-15.0-0.29","60fd703ecd62eb39eb07c328","64b003020eef62ee308107cc","64b03587c5a6a15cb040094f","null","null","<p style=""font-size: 60px; font-family: BACS"">cBROBEKBO</p>","","","","","","","",""
"html-keyboard-response","361","484872","0.0-15.0-0.30","60fd703ecd62eb39eb07c328","64b003020eef62ee308107cc","64b03587c5a6a15cb040094f","null","null","<p style=""font-size: 60px; font-family: BACS"">cBROBEKBO</p>","","","","","","","",""
"html-keyboard-response","362","485879","0.0-15.0-0.31","60fd703ecd62eb39eb07c328","64b003020eef62ee308107cc","64b03587c5a6a15cb040094f","null","null","<p style=""font-size: 60px; font-family: BACS"">cBROBEKBO</p>","","","","","","","",""
"html-keyboard-response","363","486883","0.0-15.0-0.32","60fd703ecd62eb39eb07c328","64b003020eef62ee308107cc","64b03587c5a6a15cb040094f","null","null","<p style=""font-size: 60px; font-family: BACS"">cBROBEKBO</p>","","","","","","","",""
"html-keyboard-response","364","487898","0.0-15.0-0.33","60fd703ecd62eb39eb07c328","64b003020eef62ee308107cc","64b03587c5a6a15cb040094f","null","null","<p style=""font-size: 60px; font-family: BACS"">cBROBEKBO</p>","","","","","","","",""
"html-keyboard-response","365","488911","0.0-15.0-0.34","60fd703ecd62eb39eb07c328","64b003020eef62ee308107cc","64b03587c5a6a15cb040094f","null","null","<p style=""font-size: 60px; font-family: BACS"">cBROBEKBO</p>","","","","","","","",""
"html-keyboard-response","366","489921","0.0-15.0-0.35","60fd703ecd62eb39eb07c328","64b003020eef62ee308107cc","64b03587c5a6a15cb040094f","null","null","<p style=""font-size: 60px; font-family: BACS"">cBROBEKBO</p>","","","","","","","",""
"html-keyboard-response","367","490936","0.0-15.0-0.36","60fd703ecd62eb39eb07c328","64b003020eef62ee308107cc","64b03587c5a6a15cb040094f","null","null","<p style=""font-size: 60px; font-family: BACS"">cBROBEKBO</p>","","","","","","","",""
"html-keyboard-response","368","491950","0.0-15.0-0.37","60fd703ecd62eb39eb07c328","64b003020eef62ee308107cc","64b03587c5a6a15cb040094f","null","null","<p style=""font-size: 60px; font-family: BACS"">cBROBEKBO</p>","","","","","","","",""
"html-keyboard-response","369","492953","0.0-15.0-0.38","60fd703ecd62eb39eb07c328","64b003020eef62ee308107cc","64b03587c5a6a15cb040094f","null","null","<p style=""font-size: 60px; font-family: BACS"">cBROBEKBO</p>","","","","","","","",""
"html-keyboard-response","370","493966","0.0-15.0-0.39","60fd703ecd62eb39eb07c328","64b003020eef62ee308107cc","64b03587c5a6a15cb040094f","null","null","<p style=""font-size: 60px; font-family: BACS"">cBROBEKBO</p>","","","","","","","",""
"html-keyboard-response","371","494967","0.0-15.0-0.40","60fd703ecd62eb39eb07c328","64b003020eef62ee308107cc","64b03587c5a6a15cb040094f","null","null","<p style=""font-size: 60px; font-family: BACS"">cBROBEKBO</p>","","","","","","","",""
"html-keyboard-response","372","495970","0.0-15.0-0.41","60fd703ecd62eb39eb07c328","64b003020eef62ee308107cc","64b03587c5a6a15cb040094f","null","null","<p style=""font-size: 60px; font-family: BACS"">cBROBEKBO</p>","","","","","","","",""
"html-keyboard-response","373","496974","0.0-15.0-0.42","60fd703ecd62eb39eb07c328","64b003020eef62ee308107cc","64b03587c5a6a15cb040094f","null","null","<p style=""font-size: 60px; font-family: BACS"">cBROBEKBO</p>","","","","","","","",""
"html-keyboard-response","374","497984","0.0-15.0-0.43","60fd703ecd62eb39eb07c328","64b003020eef62ee308107cc","64b03587c5a6a15cb040094f","null","null","<p style=""font-size: 60px; font-family: BACS"">cBROBEKBO</p>","","","","","","","",""
"html-keyboard-response","375","498990","0.0-15.0-0.44","60fd703ecd62eb39eb07c328","64b003020eef62ee308107cc","64b03587c5a6a15cb040094f","null","null","<p style=""font-size: 60px; font-family: BACS"">cBROBEKBO</p>","","","","","","","",""
"html-keyboard-response","376","499999","0.0-15.0-0.45","60fd703ecd62eb39eb07c328","64b003020eef62ee308107cc","64b03587c5a6a15cb040094f","null","null","<p style=""font-size: 60px; font-family: BACS"">cBROBEKBO</p>","","","","","","","",""
"html-keyboard-response","377","501009","0.0-15.0-0.46","60fd703ecd62eb39eb07c328","64b003020eef62ee308107cc","64b03587c5a6a15cb040094f","null","null","<p style=""font-size: 60px; font-family: BACS"">cBROBEKBO</p>","","","","","","","",""
"html-keyboard-response","378","502025","0.0-15.0-0.47","60fd703ecd62eb39eb07c328","64b003020eef62ee308107cc","64b03587c5a6a15cb040094f","null","null","<p style=""font-size: 60px; font-family: BACS"">cBROBEKBO</p>","","","","","","","",""
"html-keyboard-response","379","503032","0.0-15.0-0.48","60fd703ecd62eb39eb07c328","64b003020eef62ee308107cc","64b03587c5a6a15cb040094f","null","null","<p style=""font-size: 60px; font-family: BACS"">cBROBEKBO</p>","","","","","","","",""
"html-keyboard-response","380","504035","0.0-15.0-0.49","60fd703ecd62eb39eb07c328","64b003020eef62ee308107cc","64b03587c5a6a15cb040094f","null","null","<p style=""font-size: 60px; font-family: BACS"">cBROBEKBO</p>","","","","","","","",""
"html-keyboard-response","381","505046","0.0-15.0-0.50","60fd703ecd62eb39eb07c328","64b003020eef62ee308107cc","64b03587c5a6a15cb040094f","null","null","<p style=""font-size: 60px; font-family: BACS"">cBROBEKBO</p>","","","","","","","",""
"html-keyboard-response","382","506059","0.0-15.0-0.51","60fd703ecd62eb39eb07c328","64b003020eef62ee308107cc","64b03587c5a6a15cb040094f","null","null","<p style=""font-size: 60px; font-family: BACS"">cBROBEKBO</p>","","","","","","","",""
"html-keyboard-response","383","507071","0.0-15.0-0.52","60fd703ecd62eb39eb07c328","64b003020eef62ee308107cc","64b03587c5a6a15cb040094f","null","null","<p style=""font-size: 60px; font-family: BACS"">cBROBEKBO</p>","","","","","","","",""
"html-keyboard-response","384","508081","0.0-15.0-0.53","60fd703ecd62eb39eb07c328","64b003020eef62ee308107cc","64b03587c5a6a15cb040094f","null","null","<p style=""font-size: 60px; font-family: BACS"">cBROBEKBO</p>","","","","","","","",""
"html-keyboard-response","385","509098","0.0-15.0-0.54","60fd703ecd62eb39eb07c328","64b003020eef62ee308107cc","64b03587c5a6a15cb040094f","null","null","<p style=""font-size: 60px; font-family: BACS"">cBROBEKBO</p>","","","","","","","",""
"html-keyboard-response","386","510102","0.0-15.0-0.55","60fd703ecd62eb39eb07c328","64b003020eef62ee308107cc","64b03587c5a6a15cb040094f","null","null","<p style=""font-size: 60px; font-family: BACS"">cBROBEKBO</p>","","","","","","","",""
"html-keyboard-response","387","511119","0.0-15.0-0.56","60fd703ecd62eb39eb07c328","64b003020eef62ee308107cc","64b03587c5a6a15cb040094f","null","null","<p style=""font-size: 60px; font-family: BACS"">cBROBEKBO</p>","","","","","","","",""
"html-keyboard-response","388","512122","0.0-15.0-0.57","60fd703ecd62eb39eb07c328","64b003020eef62ee308107cc","64b03587c5a6a15cb040094f","null","null","<p style=""font-size: 60px; font-family: BACS"">cBROBEKBO</p>","","","","","","","",""
"html-keyboard-response","389","513129","0.0-15.0-0.58","60fd703ecd62eb39eb07c328","64b003020eef62ee308107cc","64b03587c5a6a15cb040094f","null","null","<p style=""font-size: 60px; font-family: BACS"">cBROBEKBO</p>","","","","","","","",""
"html-keyboard-response","390","514150","0.0-15.0-0.59","60fd703ecd62eb39eb07c328","64b003020eef62ee308107cc","64b03587c5a6a15cb040094f","null","null","<p style=""font-size: 60px; font-family: BACS"">cBROBEKBO</p>","","","","","","","",""
"html-keyboard-response","391","515164","0.0-15.0-0.60","60fd703ecd62eb39eb07c328","64b003020eef62ee308107cc","64b03587c5a6a15cb040094f","null","null","<p style=""font-size: 60px; font-family: BACS"">cBROBEKBO</p>","","","","","","","",""
"html-keyboard-response","392","516174","0.0-15.0-0.61","60fd703ecd62eb39eb07c328","64b003020eef62ee308107cc","64b03587c5a6a15cb040094f","null","null","<p style=""font-size: 60px; font-family: BACS"">cBROBEKBO</p>","","","","","","","",""
"html-keyboard-response","393","517182","0.0-15.0-0.62","60fd703ecd62eb39eb07c328","64b003020eef62ee308107cc","64b03587c5a6a15cb040094f","null","null","<p style=""font-size: 60px; font-family: BACS"">cBROBEKBO</p>","","","","","","","",""
"html-keyboard-response","394","518194","0.0-15.0-0.63","60fd703ecd62eb39eb07c328","64b003020eef62ee308107cc","64b03587c5a6a15cb040094f","null","null","<p style=""font-size: 60px; font-family: BACS"">cBROBEKBO</p>","","","","","","","",""
"html-keyboard-response","395","519205","0.0-15.0-0.64","60fd703ecd62eb39eb07c328","64b003020eef62ee308107cc","64b03587c5a6a15cb040094f","null","null","<p style=""font-size: 60px; font-family: BACS"">cBROBEKBO</p>","","","","","","","",""
"html-keyboard-response","396","520209","0.0-15.0-0.65","60fd703ecd62eb39eb07c328","64b003020eef62ee308107cc","64b03587c5a6a15cb040094f","null","null","<p style=""font-size: 60px; font-family: BACS"">cBROBEKBO</p>","","","","","","","",""
"html-keyboard-response","397","521214","0.0-15.0-0.66","60fd703ecd62eb39eb07c328","64b003020eef62ee308107cc","64b03587c5a6a15cb040094f","null","null","<p style=""font-size: 60px; font-family: BACS"">cBROBEKBO</p>","","","","","","","",""
"html-keyboard-response","398","522217","0.0-15.0-0.67","60fd703ecd62eb39eb07c328","64b003020eef62ee308107cc","64b03587c5a6a15cb040094f","null","null","<p style=""font-size: 60px; font-family: BACS"">cBROBEKBO</p>","","","","","","","",""
"html-keyboard-response","399","523226","0.0-15.0-0.68","60fd703ecd62eb39eb07c328","64b003020eef62ee308107cc","64b03587c5a6a15cb040094f","null","null","<p style=""font-size: 60px; font-family: BACS"">cBROBEKBO</p>","","","","","","","",""
"html-keyboard-response","400","524236","0.0-15.0-0.69","60fd703ecd62eb39eb07c328","64b003020eef62ee308107cc","64b03587c5a6a15cb040094f","null","null","<p style=""font-size: 60px; font-family: BACS"">cBROBEKBO</p>","","","","","","","",""
