"trial_type","trial_index","time_elapsed","internal_node_id","subject_id","study_id","session_id","rt","response","stimulus","success","item","task","correct_response","testing_condition","correct","target","confound","name","view_history"
"pavlovia","0","725","0.0-0.0","60957b300f08087b0af0031c","650c16f0f2faf8d7a0d14c09","651c1c043e165a8f0b398013","","","","","","","","","","","","",""
"survey-html-form","1","17654","0.0-1.0","60957b300f08087b0af0031c","650c16f0f2faf8d7a0d14c09","651c1c043e165a8f0b398013","16927","{""ID"":""60957b300f08087b0af0031c""}","","","","","","","","","","",""
"html-keyboard-response","2","19993","0.0-2.0","60957b300f08087b0af0031c","650c16f0f2faf8d7a0d14c09","651c1c043e165a8f0b398013","2338"," ","<p style=""font-size: 15px;"">Before beginning, we ask that you read the consent information and confirm your agreement to participate in the experiment.</p>
      <p style=""font-size: 15px;""> We ask that you remember that this is a research project and that your participation is entirely voluntary. You can stop your participation at any time, without needing to provide any explanation. The study we're asking you to participate in aims at examining how readers process written words. You will be engaged in a session of apprximately 20 minutes, followed by a brief questionnaire. You will have the opportunity to take a few breaks during the experiment. You will be paid £4 for your participation, corresponding to a rate of £8/hour. While this experiment looks at cognitive faculties, this experiment doesn't constitute clinical proof of eventual pathologies.</p>
      <p style=""font-size: 15px;"">All of the information collected thanks to yours and others' participation will be held in a secure password-protected server, and will not be shared with anyone not authorised to view it. Your personal information will be kept with an arbitrary participant ID. Thanks to this data anonymity process, any researcher analysing the data won't be able to track the information back to a specific participant. Therefore, this process will make identifying you impossibile, even when results from the study will be published in scientific reviews, presented at congresses, or at any other public forum. More generally, the collected data will be treated in accordance with the laws on privacy and conformity to the Legislative Degree n. 196 ""Code regarding the protection of personal data"" of the 30th of June 2003 and to the European Regulation 2016/670 (General Data Protection Regulation - GDPR). The Data Protection Officer is Avv. Valentina Carollo, who can be contacted at the following email addresses: <a href=""mailto:dpo@sissa.it"">dpo@sissa.it</a> or <a href=""mailto:rpd@sissa.it"">rpd@sissa.it</a> - PEC: <a href=""mailto:protocollo@pec.sissa.it"">protocollo@pec.sissa.it</a>.</p>
      <p style=""font-size: 15px;""> Before expressing your consent to participate, we would like to remind you again that in case you need explanations on any aspect of the experimental procedure, the researcher is at your disposition (<a href=""mailto:aliebelt@sissa.it"">aliebelt@sissa.it</a>, <a href=""mailto:davide.crepaldi@sissa.it"">davide.crepaldi@sissa.it</a>).</p>
      <p style=""font-size: 15px;"">If you would like to download the informed consent form, you can do so here: <a href=""BASL-Informed_Consent.pdf"" download>informed consent form</a>.</p>
      <p style=""font-size: 15px;"">We ask that you press the spacebar to proceed to the consent section.</p>","","","","","","","","","",""
"survey-html-form","3","24494","0.0-3.0","60957b300f08087b0af0031c","650c16f0f2faf8d7a0d14c09","651c1c043e165a8f0b398013","4499","{""consent1"":""YES"",""consent2"":""YES"",""consent3"":""YES"",""consent4"":""YES"",""consent5"":""YES"",""consent6"":""YES""}","","","","","","","","","","",""
"fullscreen","4","26773","0.0-4.0","60957b300f08087b0af0031c","650c16f0f2faf8d7a0d14c09","651c1c043e165a8f0b398013","","","","true","","","","","","","","",""
"html-keyboard-response","5","27306","0.0-5.0","60957b300f08087b0af0031c","650c16f0f2faf8d7a0d14c09","651c1c043e165a8f0b398013","532"," ","<p>Welcome, and thank you very much for your time!</p>
      <p>In this experiment, you'll be a language expert who's been asked to take a look at words that Earth has received in its first communication with aliens. Your task, in this first part of the experiment, is to pay close attention to the words you'll be shown; later, world leaders will ask you questions on what you saw. The words will be shown to you quite quickly; it seems that the aliens were in a hurry :-)</p>
      <p>Press the spacebar to continue.<p>","","","","","","","","","",""
"html-keyboard-response","6","27358","0.0-6.0","60957b300f08087b0af0031c","650c16f0f2faf8d7a0d14c09","651c1c043e165a8f0b398013","null","null","<p style=""font-size: 120px; font-family: BACS""> </p>","","","","","","","","","",""
"html-keyboard-response","7","27919","0.0-7.0","60957b300f08087b0af0031c","650c16f0f2faf8d7a0d14c09","651c1c043e165a8f0b398013","560"," ","<p>Here is an example of the words you'll see:</p>
      <img src='esempio.png' height='400px'>
      <p>When you're ready to begin, press the spacebar.</p></div>","","","","","","","","","",""
"html-keyboard-response","8","28925","0.0-8.0-0.0","60957b300f08087b0af0031c","650c16f0f2faf8d7a0d14c09","651c1c043e165a8f0b398013","null","null","<p style=""font-size: 60px; font-family: BACS"">bdUNumZb</p>","","","","","","","","","",""
"html-keyboard-response","9","29935","0.0-8.0-0.1","60957b300f08087b0af0031c","650c16f0f2faf8d7a0d14c09","651c1c043e165a8f0b398013","null","null","<p style=""font-size: 60px; font-family: BACS"">TdTDEKBO</p>","","","","","","","","","",""
"html-keyboard-response","10","30939","0.0-8.0-0.2","60957b300f08087b0af0031c","650c16f0f2faf8d7a0d14c09","651c1c043e165a8f0b398013","null","null","<p style=""font-size: 60px; font-family: BACS"">EMbDPcDR</p>","","","","","","","","","",""
"html-keyboard-response","11","31945","0.0-8.0-0.3","60957b300f08087b0af0031c","650c16f0f2faf8d7a0d14c09","651c1c043e165a8f0b398013","null","null","<p style=""font-size: 60px; font-family: BACS"">EhRmEKBO</p>","","","","","","","","","",""
"html-keyboard-response","12","32961","0.0-8.0-0.4","60957b300f08087b0af0031c","650c16f0f2faf8d7a0d14c09","651c1c043e165a8f0b398013","null","null","<p style=""font-size: 60px; font-family: BACS"">kcCRtkBD</p>","","","","","","","","","",""
"html-keyboard-response","13","33967","0.0-8.0-0.5","60957b300f08087b0af0031c","650c16f0f2faf8d7a0d14c09","651c1c043e165a8f0b398013","null","null","<p style=""font-size: 60px; font-family: BACS"">UmNJUbG</p>","","","","","","","","","",""
"html-keyboard-response","14","34972","0.0-8.0-0.6","60957b300f08087b0af0031c","650c16f0f2faf8d7a0d14c09","651c1c043e165a8f0b398013","null","null","<p style=""font-size: 60px; font-family: BACS"">EMbDPOPE</p>","","","","","","","","","",""
"html-keyboard-response","15","35978","0.0-8.0-0.7","60957b300f08087b0af0031c","650c16f0f2faf8d7a0d14c09","651c1c043e165a8f0b398013","null","null","<p style=""font-size: 60px; font-family: BACS"">DCmhEKBO</p>","","","","","","","","","",""
"html-keyboard-response","16","36981","0.0-8.0-0.8","60957b300f08087b0af0031c","650c16f0f2faf8d7a0d14c09","651c1c043e165a8f0b398013","null","null","<p style=""font-size: 60px; font-family: BACS"">uQkrdmZb</p>","","","","","","","","","",""
"html-keyboard-response","17","37987","0.0-8.0-0.9","60957b300f08087b0af0031c","650c16f0f2faf8d7a0d14c09","651c1c043e165a8f0b398013","null","null","<p style=""font-size: 60px; font-family: BACS"">kcdOtcDR</p>","","","","","","","","","",""
"html-keyboard-response","18","38991","0.0-8.0-0.10","60957b300f08087b0af0031c","650c16f0f2faf8d7a0d14c09","651c1c043e165a8f0b398013","null","null","<p style=""font-size: 60px; font-family: BACS"">PctRCkBD</p>","","","","","","","","","",""
"html-keyboard-response","19","40000","0.0-8.0-0.11","60957b300f08087b0af0031c","650c16f0f2faf8d7a0d14c09","651c1c043e165a8f0b398013","null","null","<p style=""font-size: 60px; font-family: BACS"">OZkbNmAG</p>","","","","","","","","","",""
"html-keyboard-response","20","41002","0.0-8.0-0.12","60957b300f08087b0af0031c","650c16f0f2faf8d7a0d14c09","651c1c043e165a8f0b398013","null","null","<p style=""font-size: 60px; font-family: BACS"">Zvalvkuvb</p>","","","","","","","","","",""
"html-keyboard-response","21","42006","0.0-8.0-0.13","60957b300f08087b0af0031c","650c16f0f2faf8d7a0d14c09","651c1c043e165a8f0b398013","null","null","<p style=""font-size: 60px; font-family: BACS"">MlthcDR</p>","","","","","","","","","",""
"html-keyboard-response","22","43015","0.0-8.0-0.14","60957b300f08087b0af0031c","650c16f0f2faf8d7a0d14c09","651c1c043e165a8f0b398013","null","null","<p style=""font-size: 60px; font-family: BACS"">EhRmOPE</p>","","","","","","","","","",""
"html-keyboard-response","23","44024","0.0-8.0-0.15","60957b300f08087b0af0031c","650c16f0f2faf8d7a0d14c09","651c1c043e165a8f0b398013","null","null","<p style=""font-size: 60px; font-family: BACS"">cAZuUbG</p>","","","","","","","","","",""
"html-keyboard-response","24","45027","0.0-8.0-0.16","60957b300f08087b0af0031c","650c16f0f2faf8d7a0d14c09","651c1c043e165a8f0b398013","null","null","<p style=""font-size: 60px; font-family: BACS"">kdaAJNmAG</p>","","","","","","","","","",""
"html-keyboard-response","25","46037","0.0-8.0-0.17","60957b300f08087b0af0031c","650c16f0f2faf8d7a0d14c09","651c1c043e165a8f0b398013","null","null","<p style=""font-size: 60px; font-family: BACS"">DCmhcDR</p>","","","","","","","","","",""
"html-keyboard-response","26","47051","0.0-8.0-0.18","60957b300f08087b0af0031c","650c16f0f2faf8d7a0d14c09","651c1c043e165a8f0b398013","null","null","<p style=""font-size: 60px; font-family: BACS"">vAuNlNmAG</p>","","","","","","","","","",""
"html-keyboard-response","27","48060","0.0-8.0-0.19","60957b300f08087b0af0031c","650c16f0f2faf8d7a0d14c09","651c1c043e165a8f0b398013","null","null","<p style=""font-size: 60px; font-family: BACS"">bdUNukuvb</p>","","","","","","","","","",""
"html-keyboard-response","28","49073","0.0-8.0-0.20","60957b300f08087b0af0031c","650c16f0f2faf8d7a0d14c09","651c1c043e165a8f0b398013","null","null","<p style=""font-size: 60px; font-family: BACS"">EMbDPkBD</p>","","","","","","","","","",""
"html-keyboard-response","29","50075","0.0-8.0-0.21","60957b300f08087b0af0031c","650c16f0f2faf8d7a0d14c09","651c1c043e165a8f0b398013","null","null","<p style=""font-size: 60px; font-family: BACS"">dJNrNmAG</p>","","","","","","","","","",""
"html-keyboard-response","30","51090","0.0-8.0-0.22","60957b300f08087b0af0031c","650c16f0f2faf8d7a0d14c09","651c1c043e165a8f0b398013","null","null","<p style=""font-size: 60px; font-family: BACS"">MlthAPEM</p>","","","","","","","","","",""
"html-keyboard-response","31","52107","0.0-8.0-0.23","60957b300f08087b0af0031c","650c16f0f2faf8d7a0d14c09","651c1c043e165a8f0b398013","null","null","<p style=""font-size: 60px; font-family: BACS"">kdaAJkuvb</p>","","","","","","","","","",""
"html-keyboard-response","32","53118","0.0-8.0-0.24","60957b300f08087b0af0031c","650c16f0f2faf8d7a0d14c09","651c1c043e165a8f0b398013","null","null","<p style=""font-size: 60px; font-family: BACS"">JmvmOcrdY</p>","","","","","","","","","",""
"html-keyboard-response","33","54120","0.0-8.0-0.25","60957b300f08087b0af0031c","650c16f0f2faf8d7a0d14c09","651c1c043e165a8f0b398013","null","null","<p style=""font-size: 60px; font-family: BACS"">ZvalvNmAG</p>","","","","","","","","","",""
"html-keyboard-response","34","55125","0.0-8.0-0.26","60957b300f08087b0af0031c","650c16f0f2faf8d7a0d14c09","651c1c043e165a8f0b398013","null","null","<p style=""font-size: 60px; font-family: BACS"">UmNJkuvb</p>","","","","","","","","","",""
"html-keyboard-response","35","56131","0.0-8.0-0.27","60957b300f08087b0af0031c","650c16f0f2faf8d7a0d14c09","651c1c043e165a8f0b398013","null","null","<p style=""font-size: 60px; font-family: BACS"">JmvmONmAG</p>","","","","","","","","","",""
"html-keyboard-response","36","57139","0.0-8.0-0.28","60957b300f08087b0af0031c","650c16f0f2faf8d7a0d14c09","651c1c043e165a8f0b398013","null","null","<p style=""font-size: 60px; font-family: BACS"">EhRmcDR</p>","","","","","","","","","",""
"html-keyboard-response","37","58150","0.0-8.0-0.29","60957b300f08087b0af0031c","650c16f0f2faf8d7a0d14c09","651c1c043e165a8f0b398013","null","null","<p style=""font-size: 60px; font-family: BACS"">EtMDMEKBO</p>","","","","","","","","","",""
"html-keyboard-response","38","59151","0.0-8.0-0.30","60957b300f08087b0af0031c","650c16f0f2faf8d7a0d14c09","651c1c043e165a8f0b398013","null","null","<p style=""font-size: 60px; font-family: BACS"">uQkrdUbG</p>","","","","","","","","","",""
"html-keyboard-response","39","60158","0.0-8.0-0.31","60957b300f08087b0af0031c","650c16f0f2faf8d7a0d14c09","651c1c043e165a8f0b398013","null","null","<p style=""font-size: 60px; font-family: BACS"">DCmhOPE</p>","","","","","","","","","",""
"html-keyboard-response","40","61161","0.0-8.0-0.32","60957b300f08087b0af0031c","650c16f0f2faf8d7a0d14c09","651c1c043e165a8f0b398013","null","null","<p style=""font-size: 60px; font-family: BACS"">UmNJcrdY</p>","","","","","","","","","",""
"html-keyboard-response","41","62170","0.0-8.0-0.33","60957b300f08087b0af0031c","650c16f0f2faf8d7a0d14c09","651c1c043e165a8f0b398013","null","null","<p style=""font-size: 60px; font-family: BACS"">kcCRtEKBO</p>","","","","","","","","","",""
"html-keyboard-response","42","63183","0.0-8.0-0.34","60957b300f08087b0af0031c","650c16f0f2faf8d7a0d14c09","651c1c043e165a8f0b398013","null","null","<p style=""font-size: 60px; font-family: BACS"">dJNrcrdY</p>","","","","","","","","","",""
"html-keyboard-response","43","64185","0.0-8.0-0.35","60957b300f08087b0af0031c","650c16f0f2faf8d7a0d14c09","651c1c043e165a8f0b398013","null","null","<p style=""font-size: 60px; font-family: BACS"">TDKhcDR</p>","","","","","","","","","",""
"html-keyboard-response","44","65199","0.0-8.0-0.36","60957b300f08087b0af0031c","650c16f0f2faf8d7a0d14c09","651c1c043e165a8f0b398013","null","null","<p style=""font-size: 60px; font-family: BACS"">TdTDkBD</p>","","","","","","","","","",""
"html-keyboard-response","45","66201","0.0-8.0-0.37","60957b300f08087b0af0031c","650c16f0f2faf8d7a0d14c09","651c1c043e165a8f0b398013","null","null","<p style=""font-size: 60px; font-family: BACS"">kcCRtAPEM</p>","","","","","","","","","",""
"html-keyboard-response","46","67211","0.0-8.0-0.38","60957b300f08087b0af0031c","650c16f0f2faf8d7a0d14c09","651c1c043e165a8f0b398013","null","null","<p style=""font-size: 60px; font-family: BACS"">PctRCcDR</p>","","","","","","","","","",""
"html-keyboard-response","47","68216","0.0-8.0-0.39","60957b300f08087b0af0031c","650c16f0f2faf8d7a0d14c09","651c1c043e165a8f0b398013","null","null","<p style=""font-size: 60px; font-family: BACS"">EhRmkBD</p>","","","","","","","","","",""
"html-keyboard-response","48","69221","0.0-8.0-0.40","60957b300f08087b0af0031c","650c16f0f2faf8d7a0d14c09","651c1c043e165a8f0b398013","null","null","<p style=""font-size: 60px; font-family: BACS"">kcdOtEKBO</p>","","","","","","","","","",""
"html-keyboard-response","49","70231","0.0-8.0-0.41","60957b300f08087b0af0031c","650c16f0f2faf8d7a0d14c09","651c1c043e165a8f0b398013","null","null","<p style=""font-size: 60px; font-family: BACS"">kdaAJUbG</p>","","","","","","","","","",""
"html-keyboard-response","50","71234","0.0-8.0-0.42","60957b300f08087b0af0031c","650c16f0f2faf8d7a0d14c09","651c1c043e165a8f0b398013","null","null","<p style=""font-size: 60px; font-family: BACS"">EtMDMkBD</p>","","","","","","","","","",""
"html-keyboard-response","51","72237","0.0-8.0-0.43","60957b300f08087b0af0031c","650c16f0f2faf8d7a0d14c09","651c1c043e165a8f0b398013","null","null","<p style=""font-size: 60px; font-family: BACS"">bdUNuUbG</p>","","","","","","","","","",""
"html-keyboard-response","52","73253","0.0-8.0-0.44","60957b300f08087b0af0031c","650c16f0f2faf8d7a0d14c09","651c1c043e165a8f0b398013","null","null","<p style=""font-size: 60px; font-family: BACS"">ZvalvmZb</p>","","","","","","","","","",""
"html-keyboard-response","53","74256","0.0-8.0-0.45","60957b300f08087b0af0031c","650c16f0f2faf8d7a0d14c09","651c1c043e165a8f0b398013","null","null","<p style=""font-size: 60px; font-family: BACS"">PctRCOPE</p>","","","","","","","","","",""
"html-keyboard-response","54","75257","0.0-8.0-0.46","60957b300f08087b0af0031c","650c16f0f2faf8d7a0d14c09","651c1c043e165a8f0b398013","null","null","<p style=""font-size: 60px; font-family: BACS"">JmvmOUbG</p>","","","","","","","","","",""
"html-keyboard-response","55","76270","0.0-8.0-0.47","60957b300f08087b0af0031c","650c16f0f2faf8d7a0d14c09","651c1c043e165a8f0b398013","null","null","<p style=""font-size: 60px; font-family: BACS"">cAZuNmAG</p>","","","","","","","","","",""
"html-keyboard-response","56","77275","0.0-8.0-0.48","60957b300f08087b0af0031c","650c16f0f2faf8d7a0d14c09","651c1c043e165a8f0b398013","null","null","<p style=""font-size: 60px; font-family: BACS"">DCmhAPEM</p>","","","","","","","","","",""
"html-keyboard-response","57","78280","0.0-8.0-0.49","60957b300f08087b0af0031c","650c16f0f2faf8d7a0d14c09","651c1c043e165a8f0b398013","null","null","<p style=""font-size: 60px; font-family: BACS"">kdaAJmZb</p>","","","","","","","","","",""
"html-keyboard-response","58","79286","0.0-8.0-0.50","60957b300f08087b0af0031c","650c16f0f2faf8d7a0d14c09","651c1c043e165a8f0b398013","null","null","<p style=""font-size: 60px; font-family: BACS"">TdTDcDR</p>","","","","","","","","","",""
"html-keyboard-response","59","80302","0.0-8.0-0.51","60957b300f08087b0af0031c","650c16f0f2faf8d7a0d14c09","651c1c043e165a8f0b398013","null","null","<p style=""font-size: 60px; font-family: BACS"">EtMDMAPEM</p>","","","","","","","","","",""
"html-keyboard-response","60","81316","0.0-8.0-0.52","60957b300f08087b0af0031c","650c16f0f2faf8d7a0d14c09","651c1c043e165a8f0b398013","null","null","<p style=""font-size: 60px; font-family: BACS"">EMbDPEKBO</p>","","","","","","","","","",""
"html-keyboard-response","61","82317","0.0-8.0-0.53","60957b300f08087b0af0031c","650c16f0f2faf8d7a0d14c09","651c1c043e165a8f0b398013","null","null","<p style=""font-size: 60px; font-family: BACS"">cAZucrdY</p>","","","","","","","","","",""
"html-keyboard-response","62","83319","0.0-8.0-0.54","60957b300f08087b0af0031c","650c16f0f2faf8d7a0d14c09","651c1c043e165a8f0b398013","null","null","<p style=""font-size: 60px; font-family: BACS"">PctRCAPEM</p>","","","","","","","","","",""
"html-keyboard-response","63","84328","0.0-8.0-0.55","60957b300f08087b0af0031c","650c16f0f2faf8d7a0d14c09","651c1c043e165a8f0b398013","null","null","<p style=""font-size: 60px; font-family: BACS"">TDKhEKBO</p>","","","","","","","","","",""
"html-keyboard-response","64","85336","0.0-8.0-0.56","60957b300f08087b0af0031c","650c16f0f2faf8d7a0d14c09","651c1c043e165a8f0b398013","null","null","<p style=""font-size: 60px; font-family: BACS"">uQkrdNmAG</p>","","","","","","","","","",""
"html-keyboard-response","65","86345","0.0-8.0-0.57","60957b300f08087b0af0031c","650c16f0f2faf8d7a0d14c09","651c1c043e165a8f0b398013","null","null","<p style=""font-size: 60px; font-family: BACS"">dJNrkuvb</p>","","","","","","","","","",""
"html-keyboard-response","66","87349","0.0-8.0-0.58","60957b300f08087b0af0031c","650c16f0f2faf8d7a0d14c09","651c1c043e165a8f0b398013","null","null","<p style=""font-size: 60px; font-family: BACS"">bdUNucrdY</p>","","","","","","","","","",""
"html-keyboard-response","67","88362","0.0-8.0-0.59","60957b300f08087b0af0031c","650c16f0f2faf8d7a0d14c09","651c1c043e165a8f0b398013","null","null","<p style=""font-size: 60px; font-family: BACS"">TDKhOPE</p>","","","","","","","","","",""
"html-keyboard-response","68","89369","0.0-8.0-0.60","60957b300f08087b0af0031c","650c16f0f2faf8d7a0d14c09","651c1c043e165a8f0b398013","null","null","<p style=""font-size: 60px; font-family: BACS"">UmNJmZb</p>","","","","","","","","","",""
"html-keyboard-response","69","90383","0.0-8.0-0.61","60957b300f08087b0af0031c","650c16f0f2faf8d7a0d14c09","651c1c043e165a8f0b398013","null","null","<p style=""font-size: 60px; font-family: BACS"">OZkbkuvb</p>","","","","","","","","","",""
"html-keyboard-response","70","91395","0.0-8.0-0.62","60957b300f08087b0af0031c","650c16f0f2faf8d7a0d14c09","651c1c043e165a8f0b398013","null","null","<p style=""font-size: 60px; font-family: BACS"">TDKhAPEM</p>","","","","","","","","","",""
"html-keyboard-response","71","92399","0.0-8.0-0.63","60957b300f08087b0af0031c","650c16f0f2faf8d7a0d14c09","651c1c043e165a8f0b398013","null","null","<p style=""font-size: 60px; font-family: BACS"">OZkbUbG</p>","","","","","","","","","",""
"html-keyboard-response","72","93412","0.0-8.0-0.64","60957b300f08087b0af0031c","650c16f0f2faf8d7a0d14c09","651c1c043e165a8f0b398013","null","null","<p style=""font-size: 60px; font-family: BACS"">vAuNlcrdY</p>","","","","","","","","","",""
"html-keyboard-response","73","94425","0.0-8.0-0.65","60957b300f08087b0af0031c","650c16f0f2faf8d7a0d14c09","651c1c043e165a8f0b398013","null","null","<p style=""font-size: 60px; font-family: BACS"">JmvmOkuvb</p>","","","","","","","","","",""
"html-keyboard-response","74","95436","0.0-8.0-0.66","60957b300f08087b0af0031c","650c16f0f2faf8d7a0d14c09","651c1c043e165a8f0b398013","null","null","<p style=""font-size: 60px; font-family: BACS"">cAZumZb</p>","","","","","","","","","",""
"html-keyboard-response","75","96442","0.0-8.0-0.67","60957b300f08087b0af0031c","650c16f0f2faf8d7a0d14c09","651c1c043e165a8f0b398013","null","null","<p style=""font-size: 60px; font-family: BACS"">TdTDAPEM</p>","","","","","","","","","",""
"html-keyboard-response","76","97446","0.0-8.0-0.68","60957b300f08087b0af0031c","650c16f0f2faf8d7a0d14c09","651c1c043e165a8f0b398013","null","null","<p style=""font-size: 60px; font-family: BACS"">dJNrmZb</p>","","","","","","","","","",""
"html-keyboard-response","77","98455","0.0-8.0-0.69","60957b300f08087b0af0031c","650c16f0f2faf8d7a0d14c09","651c1c043e165a8f0b398013","null","null","<p style=""font-size: 60px; font-family: BACS"">kcdOtAPEM</p>","","","","","","","","","",""
"html-keyboard-response","78","99462","0.0-8.0-0.70","60957b300f08087b0af0031c","650c16f0f2faf8d7a0d14c09","651c1c043e165a8f0b398013","null","null","<p style=""font-size: 60px; font-family: BACS"">MlthkBD</p>","","","","","","","","","",""
"html-keyboard-response","79","100471","0.0-8.0-0.71","60957b300f08087b0af0031c","650c16f0f2faf8d7a0d14c09","651c1c043e165a8f0b398013","null","null","<p style=""font-size: 60px; font-family: BACS"">kcCRtOPE</p>","","","","","","","","","",""
"html-keyboard-response","80","101482","0.0-8.0-0.72","60957b300f08087b0af0031c","650c16f0f2faf8d7a0d14c09","651c1c043e165a8f0b398013","null","null","<p style=""font-size: 60px; font-family: BACS"">uQkrdcrdY</p>","","","","","","","","","",""
"html-keyboard-response","81","102485","0.0-8.0-0.73","60957b300f08087b0af0031c","650c16f0f2faf8d7a0d14c09","651c1c043e165a8f0b398013","null","null","<p style=""font-size: 60px; font-family: BACS"">EtMDMOPE</p>","","","","","","","","","",""
"html-keyboard-response","82","103501","0.0-8.0-0.74","60957b300f08087b0af0031c","650c16f0f2faf8d7a0d14c09","651c1c043e165a8f0b398013","null","null","<p style=""font-size: 60px; font-family: BACS"">vAuNlmZb</p>","","","","","","","","","",""
"html-keyboard-response","83","104515","0.0-8.0-0.75","60957b300f08087b0af0031c","650c16f0f2faf8d7a0d14c09","651c1c043e165a8f0b398013","null","null","<p style=""font-size: 60px; font-family: BACS"">ZvalvUbG</p>","","","","","","","","","",""
"html-keyboard-response","84","105525","0.0-8.0-0.76","60957b300f08087b0af0031c","650c16f0f2faf8d7a0d14c09","651c1c043e165a8f0b398013","null","null","<p style=""font-size: 60px; font-family: BACS"">vAuNlkuvb</p>","","","","","","","","","",""
"html-keyboard-response","85","106527","0.0-8.0-0.77","60957b300f08087b0af0031c","650c16f0f2faf8d7a0d14c09","651c1c043e165a8f0b398013","null","null","<p style=""font-size: 60px; font-family: BACS"">OZkbcrdY</p>","","","","","","","","","",""
"html-keyboard-response","86","107534","0.0-8.0-0.78","60957b300f08087b0af0031c","650c16f0f2faf8d7a0d14c09","651c1c043e165a8f0b398013","null","null","<p style=""font-size: 60px; font-family: BACS"">MlthOPE</p>","","","","","","","","","",""
"html-keyboard-response","87","108544","0.0-8.0-0.79","60957b300f08087b0af0031c","650c16f0f2faf8d7a0d14c09","651c1c043e165a8f0b398013","null","null","<p style=""font-size: 60px; font-family: BACS"">kcdOtkBD</p>","","","","","","","","","",""
"html-keyboard-response","88","112936","0.0-9.0","60957b300f08087b0af0031c","650c16f0f2faf8d7a0d14c09","651c1c043e165a8f0b398013","4389"," ","<p>Great, you've seen the first block of words. You may now take a short break.</p>
      <p>Press the spacebar when you're ready to continue.</p>","","","","","","","","","",""
"html-keyboard-response","89","113940","0.0-10.0-0.0","60957b300f08087b0af0031c","650c16f0f2faf8d7a0d14c09","651c1c043e165a8f0b398013","null","null","<p style=""font-size: 60px; font-family: BACS"">vAuNlkuvb</p>","","","","","","","","","",""
"html-keyboard-response","90","114952","0.0-10.0-0.1","60957b300f08087b0af0031c","650c16f0f2faf8d7a0d14c09","651c1c043e165a8f0b398013","null","null","<p style=""font-size: 60px; font-family: BACS"">TDKhEKBO</p>","","","","","","","","","",""
"html-keyboard-response","91","115955","0.0-10.0-0.2","60957b300f08087b0af0031c","650c16f0f2faf8d7a0d14c09","651c1c043e165a8f0b398013","null","null","<p style=""font-size: 60px; font-family: BACS"">bdUNukuvb</p>","","","","","","","","","",""
"html-keyboard-response","92","116964","0.0-10.0-0.3","60957b300f08087b0af0031c","650c16f0f2faf8d7a0d14c09","651c1c043e165a8f0b398013","null","null","<p style=""font-size: 60px; font-family: BACS"">kdaAJUbG</p>","","","","","","","","","",""
"html-keyboard-response","93","117968","0.0-10.0-0.4","60957b300f08087b0af0031c","650c16f0f2faf8d7a0d14c09","651c1c043e165a8f0b398013","null","null","<p style=""font-size: 60px; font-family: BACS"">UmNJmZb</p>","","","","","","","","","",""
"html-keyboard-response","94","118978","0.0-10.0-0.5","60957b300f08087b0af0031c","650c16f0f2faf8d7a0d14c09","651c1c043e165a8f0b398013","null","null","<p style=""font-size: 60px; font-family: BACS"">OZkbkuvb</p>","","","","","","","","","",""
"html-keyboard-response","95","119987","0.0-10.0-0.6","60957b300f08087b0af0031c","650c16f0f2faf8d7a0d14c09","651c1c043e165a8f0b398013","null","null","<p style=""font-size: 60px; font-family: BACS"">vAuNlcrdY</p>","","","","","","","","","",""
"html-keyboard-response","96","120990","0.0-10.0-0.7","60957b300f08087b0af0031c","650c16f0f2faf8d7a0d14c09","651c1c043e165a8f0b398013","null","null","<p style=""font-size: 60px; font-family: BACS"">dJNrmZb</p>","","","","","","","","","",""
"html-keyboard-response","97","122004","0.0-10.0-0.8","60957b300f08087b0af0031c","650c16f0f2faf8d7a0d14c09","651c1c043e165a8f0b398013","null","null","<p style=""font-size: 60px; font-family: BACS"">JmvmOUbG</p>","","","","","","","","","",""
"html-keyboard-response","98","123015","0.0-10.0-0.9","60957b300f08087b0af0031c","650c16f0f2faf8d7a0d14c09","651c1c043e165a8f0b398013","null","null","<p style=""font-size: 60px; font-family: BACS"">TdTDkBD</p>","","","","","","","","","",""
"html-keyboard-response","99","124028","0.0-10.0-0.10","60957b300f08087b0af0031c","650c16f0f2faf8d7a0d14c09","651c1c043e165a8f0b398013","null","null","<p style=""font-size: 60px; font-family: BACS"">EhRmEKBO</p>","","","","","","","","","",""
"html-keyboard-response","100","125040","0.0-10.0-0.11","60957b300f08087b0af0031c","650c16f0f2faf8d7a0d14c09","651c1c043e165a8f0b398013","null","null","<p style=""font-size: 60px; font-family: BACS"">cAZucrdY</p>","","","","","","","","","",""
"html-keyboard-response","101","126047","0.0-10.0-0.12","60957b300f08087b0af0031c","650c16f0f2faf8d7a0d14c09","651c1c043e165a8f0b398013","null","null","<p style=""font-size: 60px; font-family: BACS"">vAuNlmZb</p>","","","","","","","","","",""
"html-keyboard-response","102","127060","0.0-10.0-0.13","60957b300f08087b0af0031c","650c16f0f2faf8d7a0d14c09","651c1c043e165a8f0b398013","null","null","<p style=""font-size: 60px; font-family: BACS"">OZkbNmAG</p>","","","","","","","","","",""
"html-keyboard-response","103","128071","0.0-10.0-0.14","60957b300f08087b0af0031c","650c16f0f2faf8d7a0d14c09","651c1c043e165a8f0b398013","null","null","<p style=""font-size: 60px; font-family: BACS"">DCmhOPE</p>","","","","","","","","","",""
"html-keyboard-response","104","129080","0.0-10.0-0.15","60957b300f08087b0af0031c","650c16f0f2faf8d7a0d14c09","651c1c043e165a8f0b398013","null","null","<p style=""font-size: 60px; font-family: BACS"">PctRCAPEM</p>","","","","","","","","","",""
"html-keyboard-response","105","130090","0.0-10.0-0.16","60957b300f08087b0af0031c","650c16f0f2faf8d7a0d14c09","651c1c043e165a8f0b398013","null","null","<p style=""font-size: 60px; font-family: BACS"">kdaAJNmAG</p>","","","","","","","","","",""
"html-keyboard-response","106","131104","0.0-10.0-0.17","60957b300f08087b0af0031c","650c16f0f2faf8d7a0d14c09","651c1c043e165a8f0b398013","null","null","<p style=""font-size: 60px; font-family: BACS"">EMbDPcDR</p>","","","","","","","","","",""
"html-keyboard-response","107","132106","0.0-10.0-0.18","60957b300f08087b0af0031c","650c16f0f2faf8d7a0d14c09","651c1c043e165a8f0b398013","null","null","<p style=""font-size: 60px; font-family: BACS"">JmvmOcrdY</p>","","","","","","","","","",""
"html-keyboard-response","108","133113","0.0-10.0-0.19","60957b300f08087b0af0031c","650c16f0f2faf8d7a0d14c09","651c1c043e165a8f0b398013","null","null","<p style=""font-size: 60px; font-family: BACS"">bdUNuUbG</p>","","","","","","","","","",""
"html-keyboard-response","109","134116","0.0-10.0-0.20","60957b300f08087b0af0031c","650c16f0f2faf8d7a0d14c09","651c1c043e165a8f0b398013","null","null","<p style=""font-size: 60px; font-family: BACS"">kcdOtAPEM</p>","","","","","","","","","",""
"html-keyboard-response","110","135121","0.0-10.0-0.21","60957b300f08087b0af0031c","650c16f0f2faf8d7a0d14c09","651c1c043e165a8f0b398013","null","null","<p style=""font-size: 60px; font-family: BACS"">uQkrdNmAG</p>","","","","","","","","","",""
"html-keyboard-response","111","136136","0.0-10.0-0.22","60957b300f08087b0af0031c","650c16f0f2faf8d7a0d14c09","651c1c043e165a8f0b398013","null","null","<p style=""font-size: 60px; font-family: BACS"">kcCRtOPE</p>","","","","","","","","","",""
"html-keyboard-response","112","137140","0.0-10.0-0.23","60957b300f08087b0af0031c","650c16f0f2faf8d7a0d14c09","651c1c043e165a8f0b398013","null","null","<p style=""font-size: 60px; font-family: BACS"">bdUNumZb</p>","","","","","","","","","",""
"html-keyboard-response","113","138146","0.0-10.0-0.24","60957b300f08087b0af0031c","650c16f0f2faf8d7a0d14c09","651c1c043e165a8f0b398013","null","null","<p style=""font-size: 60px; font-family: BACS"">EhRmcDR</p>","","","","","","","","","",""
"html-keyboard-response","114","139151","0.0-10.0-0.25","60957b300f08087b0af0031c","650c16f0f2faf8d7a0d14c09","651c1c043e165a8f0b398013","null","null","<p style=""font-size: 60px; font-family: BACS"">dJNrNmAG</p>","","","","","","","","","",""
"html-keyboard-response","115","140166","0.0-10.0-0.26","60957b300f08087b0af0031c","650c16f0f2faf8d7a0d14c09","651c1c043e165a8f0b398013","null","null","<p style=""font-size: 60px; font-family: BACS"">kdaAJmZb</p>","","","","","","","","","",""
"html-keyboard-response","116","141178","0.0-10.0-0.27","60957b300f08087b0af0031c","650c16f0f2faf8d7a0d14c09","651c1c043e165a8f0b398013","null","null","<p style=""font-size: 60px; font-family: BACS"">kcCRtAPEM</p>","","","","","","","","","",""
"html-keyboard-response","117","142192","0.0-10.0-0.28","60957b300f08087b0af0031c","650c16f0f2faf8d7a0d14c09","651c1c043e165a8f0b398013","null","null","<p style=""font-size: 60px; font-family: BACS"">vAuNlNmAG</p>","","","","","","","","","",""
"html-keyboard-response","118","143204","0.0-10.0-0.29","60957b300f08087b0af0031c","650c16f0f2faf8d7a0d14c09","651c1c043e165a8f0b398013","null","null","<p style=""font-size: 60px; font-family: BACS"">OZkbcrdY</p>","","","","","","","","","",""
"html-keyboard-response","119","144219","0.0-10.0-0.30","60957b300f08087b0af0031c","650c16f0f2faf8d7a0d14c09","651c1c043e165a8f0b398013","null","null","<p style=""font-size: 60px; font-family: BACS"">ZvalvUbG</p>","","","","","","","","","",""
"html-keyboard-response","120","145235","0.0-10.0-0.31","60957b300f08087b0af0031c","650c16f0f2faf8d7a0d14c09","651c1c043e165a8f0b398013","null","null","<p style=""font-size: 60px; font-family: BACS"">PctRCcDR</p>","","","","","","","","","",""
"html-keyboard-response","121","146247","0.0-10.0-0.32","60957b300f08087b0af0031c","650c16f0f2faf8d7a0d14c09","651c1c043e165a8f0b398013","null","null","<p style=""font-size: 60px; font-family: BACS"">uQkrdUbG</p>","","","","","","","","","",""
"html-keyboard-response","122","147250","0.0-10.0-0.33","60957b300f08087b0af0031c","650c16f0f2faf8d7a0d14c09","651c1c043e165a8f0b398013","null","null","<p style=""font-size: 60px; font-family: BACS"">DCmhEKBO</p>","","","","","","","","","",""
"html-keyboard-response","123","148255","0.0-10.0-0.34","60957b300f08087b0af0031c","650c16f0f2faf8d7a0d14c09","651c1c043e165a8f0b398013","null","null","<p style=""font-size: 60px; font-family: BACS"">TdTDcDR</p>","","","","","","","","","",""
"html-keyboard-response","124","149264","0.0-10.0-0.35","60957b300f08087b0af0031c","650c16f0f2faf8d7a0d14c09","651c1c043e165a8f0b398013","null","null","<p style=""font-size: 60px; font-family: BACS"">EtMDMkBD</p>","","","","","","","","","",""
"html-keyboard-response","125","150266","0.0-10.0-0.36","60957b300f08087b0af0031c","650c16f0f2faf8d7a0d14c09","651c1c043e165a8f0b398013","null","null","<p style=""font-size: 60px; font-family: BACS"">EhRmOPE</p>","","","","","","","","","",""
"html-keyboard-response","126","151270","0.0-10.0-0.37","60957b300f08087b0af0031c","650c16f0f2faf8d7a0d14c09","651c1c043e165a8f0b398013","null","null","<p style=""font-size: 60px; font-family: BACS"">TDKhcDR</p>","","","","","","","","","",""
"html-keyboard-response","127","152284","0.0-10.0-0.38","60957b300f08087b0af0031c","650c16f0f2faf8d7a0d14c09","651c1c043e165a8f0b398013","null","null","<p style=""font-size: 60px; font-family: BACS"">kdaAJkuvb</p>","","","","","","","","","",""
"html-keyboard-response","128","153298","0.0-10.0-0.39","60957b300f08087b0af0031c","650c16f0f2faf8d7a0d14c09","651c1c043e165a8f0b398013","null","null","<p style=""font-size: 60px; font-family: BACS"">kcdOtEKBO</p>","","","","","","","","","",""
"html-keyboard-response","129","154311","0.0-10.0-0.40","60957b300f08087b0af0031c","650c16f0f2faf8d7a0d14c09","651c1c043e165a8f0b398013","null","null","<p style=""font-size: 60px; font-family: BACS"">OZkbUbG</p>","","","","","","","","","",""
"html-keyboard-response","130","155317","0.0-10.0-0.41","60957b300f08087b0af0031c","650c16f0f2faf8d7a0d14c09","651c1c043e165a8f0b398013","null","null","<p style=""font-size: 60px; font-family: BACS"">cAZumZb</p>","","","","","","","","","",""
"html-keyboard-response","131","156333","0.0-10.0-0.42","60957b300f08087b0af0031c","650c16f0f2faf8d7a0d14c09","651c1c043e165a8f0b398013","null","null","<p style=""font-size: 60px; font-family: BACS"">TDKhAPEM</p>","","","","","","","","","",""
"html-keyboard-response","132","157338","0.0-10.0-0.43","60957b300f08087b0af0031c","650c16f0f2faf8d7a0d14c09","651c1c043e165a8f0b398013","null","null","<p style=""font-size: 60px; font-family: BACS"">uQkrdmZb</p>","","","","","","","","","",""
"html-keyboard-response","133","158343","0.0-10.0-0.44","60957b300f08087b0af0031c","650c16f0f2faf8d7a0d14c09","651c1c043e165a8f0b398013","null","null","<p style=""font-size: 60px; font-family: BACS"">EtMDMEKBO</p>","","","","","","","","","",""
"html-keyboard-response","134","159351","0.0-10.0-0.45","60957b300f08087b0af0031c","650c16f0f2faf8d7a0d14c09","651c1c043e165a8f0b398013","null","null","<p style=""font-size: 60px; font-family: BACS"">cAZuNmAG</p>","","","","","","","","","",""
"html-keyboard-response","135","160365","0.0-10.0-0.46","60957b300f08087b0af0031c","650c16f0f2faf8d7a0d14c09","651c1c043e165a8f0b398013","null","null","<p style=""font-size: 60px; font-family: BACS"">JmvmOkuvb</p>","","","","","","","","","",""
"html-keyboard-response","136","161369","0.0-10.0-0.47","60957b300f08087b0af0031c","650c16f0f2faf8d7a0d14c09","651c1c043e165a8f0b398013","null","null","<p style=""font-size: 60px; font-family: BACS"">DCmhcDR</p>","","","","","","","","","",""
"html-keyboard-response","137","162379","0.0-10.0-0.48","60957b300f08087b0af0031c","650c16f0f2faf8d7a0d14c09","651c1c043e165a8f0b398013","null","null","<p style=""font-size: 60px; font-family: BACS"">UmNJUbG</p>","","","","","","","","","",""
"html-keyboard-response","138","163381","0.0-10.0-0.49","60957b300f08087b0af0031c","650c16f0f2faf8d7a0d14c09","651c1c043e165a8f0b398013","null","null","<p style=""font-size: 60px; font-family: BACS"">MlthAPEM</p>","","","","","","","","","",""
"html-keyboard-response","139","164383","0.0-10.0-0.50","60957b300f08087b0af0031c","650c16f0f2faf8d7a0d14c09","651c1c043e165a8f0b398013","null","null","<p style=""font-size: 60px; font-family: BACS"">dJNrcrdY</p>","","","","","","","","","",""
"html-keyboard-response","140","165392","0.0-10.0-0.51","60957b300f08087b0af0031c","650c16f0f2faf8d7a0d14c09","651c1c043e165a8f0b398013","null","null","<p style=""font-size: 60px; font-family: BACS"">PctRCOPE</p>","","","","","","","","","",""
"html-keyboard-response","141","166405","0.0-10.0-0.52","60957b300f08087b0af0031c","650c16f0f2faf8d7a0d14c09","651c1c043e165a8f0b398013","null","null","<p style=""font-size: 60px; font-family: BACS"">MlthkBD</p>","","","","","","","","","",""
"html-keyboard-response","142","167413","0.0-10.0-0.53","60957b300f08087b0af0031c","650c16f0f2faf8d7a0d14c09","651c1c043e165a8f0b398013","null","null","<p style=""font-size: 60px; font-family: BACS"">JmvmONmAG</p>","","","","","","","","","",""
"html-keyboard-response","143","168427","0.0-10.0-0.54","60957b300f08087b0af0031c","650c16f0f2faf8d7a0d14c09","651c1c043e165a8f0b398013","null","null","<p style=""font-size: 60px; font-family: BACS"">EtMDMOPE</p>","","","","","","","","","",""
"html-keyboard-response","144","169437","0.0-10.0-0.55","60957b300f08087b0af0031c","650c16f0f2faf8d7a0d14c09","651c1c043e165a8f0b398013","null","null","<p style=""font-size: 60px; font-family: BACS"">PctRCkBD</p>","","","","","","","","","",""
"html-keyboard-response","145","170448","0.0-10.0-0.56","60957b300f08087b0af0031c","650c16f0f2faf8d7a0d14c09","651c1c043e165a8f0b398013","null","null","<p style=""font-size: 60px; font-family: BACS"">kcCRtEKBO</p>","","","","","","","","","",""
"html-keyboard-response","146","171458","0.0-10.0-0.57","60957b300f08087b0af0031c","650c16f0f2faf8d7a0d14c09","651c1c043e165a8f0b398013","null","null","<p style=""font-size: 60px; font-family: BACS"">bdUNucrdY</p>","","","","","","","","","",""
"html-keyboard-response","147","172465","0.0-10.0-0.58","60957b300f08087b0af0031c","650c16f0f2faf8d7a0d14c09","651c1c043e165a8f0b398013","null","null","<p style=""font-size: 60px; font-family: BACS"">MlthcDR</p>","","","","","","","","","",""
"html-keyboard-response","148","173471","0.0-10.0-0.59","60957b300f08087b0af0031c","650c16f0f2faf8d7a0d14c09","651c1c043e165a8f0b398013","null","null","<p style=""font-size: 60px; font-family: BACS"">ZvalvNmAG</p>","","","","","","","","","",""
"html-keyboard-response","149","174481","0.0-10.0-0.60","60957b300f08087b0af0031c","650c16f0f2faf8d7a0d14c09","651c1c043e165a8f0b398013","null","null","<p style=""font-size: 60px; font-family: BACS"">kcCRtkBD</p>","","","","","","","","","",""
"html-keyboard-response","150","175493","0.0-10.0-0.61","60957b300f08087b0af0031c","650c16f0f2faf8d7a0d14c09","651c1c043e165a8f0b398013","null","null","<p style=""font-size: 60px; font-family: BACS"">UmNJcrdY</p>","","","","","","","","","",""
"html-keyboard-response","151","176495","0.0-10.0-0.62","60957b300f08087b0af0031c","650c16f0f2faf8d7a0d14c09","651c1c043e165a8f0b398013","null","null","<p style=""font-size: 60px; font-family: BACS"">EtMDMAPEM</p>","","","","","","","","","",""
"html-keyboard-response","152","177506","0.0-10.0-0.63","60957b300f08087b0af0031c","650c16f0f2faf8d7a0d14c09","651c1c043e165a8f0b398013","null","null","<p style=""font-size: 60px; font-family: BACS"">ZvalvmZb</p>","","","","","","","","","",""
"html-keyboard-response","153","178520","0.0-10.0-0.64","60957b300f08087b0af0031c","650c16f0f2faf8d7a0d14c09","651c1c043e165a8f0b398013","null","null","<p style=""font-size: 60px; font-family: BACS"">DCmhAPEM</p>","","","","","","","","","",""
"html-keyboard-response","154","179534","0.0-10.0-0.65","60957b300f08087b0af0031c","650c16f0f2faf8d7a0d14c09","651c1c043e165a8f0b398013","null","null","<p style=""font-size: 60px; font-family: BACS"">kcdOtkBD</p>","","","","","","","","","",""
"html-keyboard-response","155","180543","0.0-10.0-0.66","60957b300f08087b0af0031c","650c16f0f2faf8d7a0d14c09","651c1c043e165a8f0b398013","null","null","<p style=""font-size: 60px; font-family: BACS"">EMbDPOPE</p>","","","","","","","","","",""
"html-keyboard-response","156","181557","0.0-10.0-0.67","60957b300f08087b0af0031c","650c16f0f2faf8d7a0d14c09","651c1c043e165a8f0b398013","null","null","<p style=""font-size: 60px; font-family: BACS"">kcdOtcDR</p>","","","","","","","","","",""
"html-keyboard-response","157","182570","0.0-10.0-0.68","60957b300f08087b0af0031c","650c16f0f2faf8d7a0d14c09","651c1c043e165a8f0b398013","null","null","<p style=""font-size: 60px; font-family: BACS"">TdTDEKBO</p>","","","","","","","","","",""
"html-keyboard-response","158","183577","0.0-10.0-0.69","60957b300f08087b0af0031c","650c16f0f2faf8d7a0d14c09","651c1c043e165a8f0b398013","null","null","<p style=""font-size: 60px; font-family: BACS"">MlthOPE</p>","","","","","","","","","",""
"html-keyboard-response","159","184591","0.0-10.0-0.70","60957b300f08087b0af0031c","650c16f0f2faf8d7a0d14c09","651c1c043e165a8f0b398013","null","null","<p style=""font-size: 60px; font-family: BACS"">dJNrkuvb</p>","","","","","","","","","",""
"html-keyboard-response","160","185604","0.0-10.0-0.71","60957b300f08087b0af0031c","650c16f0f2faf8d7a0d14c09","651c1c043e165a8f0b398013","null","null","<p style=""font-size: 60px; font-family: BACS"">TdTDAPEM</p>","","","","","","","","","",""
"html-keyboard-response","161","186610","0.0-10.0-0.72","60957b300f08087b0af0031c","650c16f0f2faf8d7a0d14c09","651c1c043e165a8f0b398013","null","null","<p style=""font-size: 60px; font-family: BACS"">uQkrdcrdY</p>","","","","","","","","","",""
"html-keyboard-response","162","187623","0.0-10.0-0.73","60957b300f08087b0af0031c","650c16f0f2faf8d7a0d14c09","651c1c043e165a8f0b398013","null","null","<p style=""font-size: 60px; font-family: BACS"">TDKhOPE</p>","","","","","","","","","",""
"html-keyboard-response","163","188633","0.0-10.0-0.74","60957b300f08087b0af0031c","650c16f0f2faf8d7a0d14c09","651c1c043e165a8f0b398013","null","null","<p style=""font-size: 60px; font-family: BACS"">EhRmkBD</p>","","","","","","","","","",""
"html-keyboard-response","164","189637","0.0-10.0-0.75","60957b300f08087b0af0031c","650c16f0f2faf8d7a0d14c09","651c1c043e165a8f0b398013","null","null","<p style=""font-size: 60px; font-family: BACS"">EMbDPEKBO</p>","","","","","","","","","",""
"html-keyboard-response","165","190644","0.0-10.0-0.76","60957b300f08087b0af0031c","650c16f0f2faf8d7a0d14c09","651c1c043e165a8f0b398013","null","null","<p style=""font-size: 60px; font-family: BACS"">cAZuUbG</p>","","","","","","","","","",""
"html-keyboard-response","166","191654","0.0-10.0-0.77","60957b300f08087b0af0031c","650c16f0f2faf8d7a0d14c09","651c1c043e165a8f0b398013","null","null","<p style=""font-size: 60px; font-family: BACS"">UmNJkuvb</p>","","","","","","","","","",""
"html-keyboard-response","167","192663","0.0-10.0-0.78","60957b300f08087b0af0031c","650c16f0f2faf8d7a0d14c09","651c1c043e165a8f0b398013","null","null","<p style=""font-size: 60px; font-family: BACS"">EMbDPkBD</p>","","","","","","","","","",""
"html-keyboard-response","168","193673","0.0-10.0-0.79","60957b300f08087b0af0031c","650c16f0f2faf8d7a0d14c09","651c1c043e165a8f0b398013","null","null","<p style=""font-size: 60px; font-family: BACS"">Zvalvkuvb</p>","","","","","","","","","",""
"html-keyboard-response","169","213665","0.0-11.0","60957b300f08087b0af0031c","650c16f0f2faf8d7a0d14c09","651c1c043e165a8f0b398013","19991"," ","<p>Great, you've seen the second block of words. You may now take a short break.</p>
      <p>Press the spacebar when you're ready to continue.</p>","","","","","","","","","",""
"html-keyboard-response","170","214676","0.0-12.0-0.0","60957b300f08087b0af0031c","650c16f0f2faf8d7a0d14c09","651c1c043e165a8f0b398013","null","null","<p style=""font-size: 60px; font-family: BACS"">kcCRtkBD</p>","","","","","","","","","",""
"html-keyboard-response","171","215689","0.0-12.0-0.1","60957b300f08087b0af0031c","650c16f0f2faf8d7a0d14c09","651c1c043e165a8f0b398013","null","null","<p style=""font-size: 60px; font-family: BACS"">MlthcDR</p>","","","","","","","","","",""
"html-keyboard-response","172","216700","0.0-12.0-0.2","60957b300f08087b0af0031c","650c16f0f2faf8d7a0d14c09","651c1c043e165a8f0b398013","null","null","<p style=""font-size: 60px; font-family: BACS"">kdaAJNmAG</p>","","","","","","","","","",""
"html-keyboard-response","173","217713","0.0-12.0-0.3","60957b300f08087b0af0031c","650c16f0f2faf8d7a0d14c09","651c1c043e165a8f0b398013","null","null","<p style=""font-size: 60px; font-family: BACS"">uQkrdUbG</p>","","","","","","","","","",""
"html-keyboard-response","174","218727","0.0-12.0-0.4","60957b300f08087b0af0031c","650c16f0f2faf8d7a0d14c09","651c1c043e165a8f0b398013","null","null","<p style=""font-size: 60px; font-family: BACS"">dJNrmZb</p>","","","","","","","","","",""
"html-keyboard-response","175","219738","0.0-12.0-0.5","60957b300f08087b0af0031c","650c16f0f2faf8d7a0d14c09","651c1c043e165a8f0b398013","null","null","<p style=""font-size: 60px; font-family: BACS"">JmvmOcrdY</p>","","","","","","","","","",""
"html-keyboard-response","176","220748","0.0-12.0-0.6","60957b300f08087b0af0031c","650c16f0f2faf8d7a0d14c09","651c1c043e165a8f0b398013","null","null","<p style=""font-size: 60px; font-family: BACS"">EtMDMAPEM</p>","","","","","","","","","",""
"html-keyboard-response","177","221763","0.0-12.0-0.7","60957b300f08087b0af0031c","650c16f0f2faf8d7a0d14c09","651c1c043e165a8f0b398013","null","null","<p style=""font-size: 60px; font-family: BACS"">cAZumZb</p>","","","","","","","","","",""
"html-keyboard-response","178","222774","0.0-12.0-0.8","60957b300f08087b0af0031c","650c16f0f2faf8d7a0d14c09","651c1c043e165a8f0b398013","null","null","<p style=""font-size: 60px; font-family: BACS"">uQkrdNmAG</p>","","","","","","","","","",""
"html-keyboard-response","179","223779","0.0-12.0-0.9","60957b300f08087b0af0031c","650c16f0f2faf8d7a0d14c09","651c1c043e165a8f0b398013","null","null","<p style=""font-size: 60px; font-family: BACS"">kcdOtcDR</p>","","","","","","","","","",""
"html-keyboard-response","180","224784","0.0-12.0-0.10","60957b300f08087b0af0031c","650c16f0f2faf8d7a0d14c09","651c1c043e165a8f0b398013","null","null","<p style=""font-size: 60px; font-family: BACS"">kdaAJUbG</p>","","","","","","","","","",""
"html-keyboard-response","181","225785","0.0-12.0-0.11","60957b300f08087b0af0031c","650c16f0f2faf8d7a0d14c09","651c1c043e165a8f0b398013","null","null","<p style=""font-size: 60px; font-family: BACS"">TDKhOPE</p>","","","","","","","","","",""
"html-keyboard-response","182","226798","0.0-12.0-0.12","60957b300f08087b0af0031c","650c16f0f2faf8d7a0d14c09","651c1c043e165a8f0b398013","null","null","<p style=""font-size: 60px; font-family: BACS"">DCmhcDR</p>","","","","","","","","","",""
"html-keyboard-response","183","227801","0.0-12.0-0.13","60957b300f08087b0af0031c","650c16f0f2faf8d7a0d14c09","651c1c043e165a8f0b398013","null","null","<p style=""font-size: 60px; font-family: BACS"">EhRmOPE</p>","","","","","","","","","",""
"html-keyboard-response","184","228811","0.0-12.0-0.14","60957b300f08087b0af0031c","650c16f0f2faf8d7a0d14c09","651c1c043e165a8f0b398013","null","null","<p style=""font-size: 60px; font-family: BACS"">kdaAJmZb</p>","","","","","","","","","",""
"html-keyboard-response","185","229814","0.0-12.0-0.15","60957b300f08087b0af0031c","650c16f0f2faf8d7a0d14c09","651c1c043e165a8f0b398013","null","null","<p style=""font-size: 60px; font-family: BACS"">ZvalvUbG</p>","","","","","","","","","",""
"html-keyboard-response","186","230829","0.0-12.0-0.16","60957b300f08087b0af0031c","650c16f0f2faf8d7a0d14c09","651c1c043e165a8f0b398013","null","null","<p style=""font-size: 60px; font-family: BACS"">kcdOtEKBO</p>","","","","","","","","","",""
"html-keyboard-response","187","231832","0.0-12.0-0.17","60957b300f08087b0af0031c","650c16f0f2faf8d7a0d14c09","651c1c043e165a8f0b398013","null","null","<p style=""font-size: 60px; font-family: BACS"">JmvmOkuvb</p>","","","","","","","","","",""
"html-keyboard-response","188","232834","0.0-12.0-0.18","60957b300f08087b0af0031c","650c16f0f2faf8d7a0d14c09","651c1c043e165a8f0b398013","null","null","<p style=""font-size: 60px; font-family: BACS"">MlthAPEM</p>","","","","","","","","","",""
"html-keyboard-response","189","233839","0.0-12.0-0.19","60957b300f08087b0af0031c","650c16f0f2faf8d7a0d14c09","651c1c043e165a8f0b398013","null","null","<p style=""font-size: 60px; font-family: BACS"">vAuNlNmAG</p>","","","","","","","","","",""
"html-keyboard-response","190","234851","0.0-12.0-0.20","60957b300f08087b0af0031c","650c16f0f2faf8d7a0d14c09","651c1c043e165a8f0b398013","null","null","<p style=""font-size: 60px; font-family: BACS"">JmvmOUbG</p>","","","","","","","","","",""
"html-keyboard-response","191","235853","0.0-12.0-0.21","60957b300f08087b0af0031c","650c16f0f2faf8d7a0d14c09","651c1c043e165a8f0b398013","null","null","<p style=""font-size: 60px; font-family: BACS"">kcCRtAPEM</p>","","","","","","","","","",""
"html-keyboard-response","192","236861","0.0-12.0-0.22","60957b300f08087b0af0031c","650c16f0f2faf8d7a0d14c09","651c1c043e165a8f0b398013","null","null","<p style=""font-size: 60px; font-family: BACS"">TdTDkBD</p>","","","","","","","","","",""
"html-keyboard-response","193","237874","0.0-12.0-0.23","60957b300f08087b0af0031c","650c16f0f2faf8d7a0d14c09","651c1c043e165a8f0b398013","null","null","<p style=""font-size: 60px; font-family: BACS"">cAZuUbG</p>","","","","","","","","","",""
"html-keyboard-response","194","238881","0.0-12.0-0.24","60957b300f08087b0af0031c","650c16f0f2faf8d7a0d14c09","651c1c043e165a8f0b398013","null","null","<p style=""font-size: 60px; font-family: BACS"">vAuNlcrdY</p>","","","","","","","","","",""
"html-keyboard-response","195","239883","0.0-12.0-0.25","60957b300f08087b0af0031c","650c16f0f2faf8d7a0d14c09","651c1c043e165a8f0b398013","null","null","<p style=""font-size: 60px; font-family: BACS"">EMbDPkBD</p>","","","","","","","","","",""
"html-keyboard-response","196","240890","0.0-12.0-0.26","60957b300f08087b0af0031c","650c16f0f2faf8d7a0d14c09","651c1c043e165a8f0b398013","null","null","<p style=""font-size: 60px; font-family: BACS"">bdUNucrdY</p>","","","","","","","","","",""
"html-keyboard-response","197","241906","0.0-12.0-0.27","60957b300f08087b0af0031c","650c16f0f2faf8d7a0d14c09","651c1c043e165a8f0b398013","null","null","<p style=""font-size: 60px; font-family: BACS"">UmNJkuvb</p>","","","","","","","","","",""
"html-keyboard-response","198","242912","0.0-12.0-0.28","60957b300f08087b0af0031c","650c16f0f2faf8d7a0d14c09","651c1c043e165a8f0b398013","null","null","<p style=""font-size: 60px; font-family: BACS"">OZkbcrdY</p>","","","","","","","","","",""
"html-keyboard-response","199","243919","0.0-12.0-0.29","60957b300f08087b0af0031c","650c16f0f2faf8d7a0d14c09","651c1c043e165a8f0b398013","null","null","<p style=""font-size: 60px; font-family: BACS"">kcCRtEKBO</p>","","","","","","","","","",""
"html-keyboard-response","200","244930","0.0-12.0-0.30","60957b300f08087b0af0031c","650c16f0f2faf8d7a0d14c09","651c1c043e165a8f0b398013","null","null","<p style=""font-size: 60px; font-family: BACS"">TdTDAPEM</p>","","","","","","","","","",""
"html-keyboard-response","201","245931","0.0-12.0-0.31","60957b300f08087b0af0031c","650c16f0f2faf8d7a0d14c09","651c1c043e165a8f0b398013","null","null","<p style=""font-size: 60px; font-family: BACS"">MlthOPE</p>","","","","","","","","","",""
"html-keyboard-response","202","246934","0.0-12.0-0.32","60957b300f08087b0af0031c","650c16f0f2faf8d7a0d14c09","651c1c043e165a8f0b398013","null","null","<p style=""font-size: 60px; font-family: BACS"">EMbDPcDR</p>","","","","","","","","","",""
"html-keyboard-response","203","247948","0.0-12.0-0.33","60957b300f08087b0af0031c","650c16f0f2faf8d7a0d14c09","651c1c043e165a8f0b398013","null","null","<p style=""font-size: 60px; font-family: BACS"">kcCRtOPE</p>","","","","","","","","","",""
"html-keyboard-response","204","248961","0.0-12.0-0.34","60957b300f08087b0af0031c","650c16f0f2faf8d7a0d14c09","651c1c043e165a8f0b398013","null","null","<p style=""font-size: 60px; font-family: BACS"">MlthkBD</p>","","","","","","","","","",""
"html-keyboard-response","205","249976","0.0-12.0-0.35","60957b300f08087b0af0031c","650c16f0f2faf8d7a0d14c09","651c1c043e165a8f0b398013","null","null","<p style=""font-size: 60px; font-family: BACS"">EtMDMEKBO</p>","","","","","","","","","",""
"html-keyboard-response","206","250990","0.0-12.0-0.36","60957b300f08087b0af0031c","650c16f0f2faf8d7a0d14c09","651c1c043e165a8f0b398013","null","null","<p style=""font-size: 60px; font-family: BACS"">OZkbNmAG</p>","","","","","","","","","",""
"html-keyboard-response","207","251997","0.0-12.0-0.37","60957b300f08087b0af0031c","650c16f0f2faf8d7a0d14c09","651c1c043e165a8f0b398013","null","null","<p style=""font-size: 60px; font-family: BACS"">dJNrcrdY</p>","","","","","","","","","",""
"html-keyboard-response","208","253001","0.0-12.0-0.38","60957b300f08087b0af0031c","650c16f0f2faf8d7a0d14c09","651c1c043e165a8f0b398013","null","null","<p style=""font-size: 60px; font-family: BACS"">ZvalvNmAG</p>","","","","","","","","","",""
"html-keyboard-response","209","254007","0.0-12.0-0.39","60957b300f08087b0af0031c","650c16f0f2faf8d7a0d14c09","651c1c043e165a8f0b398013","null","null","<p style=""font-size: 60px; font-family: BACS"">TdTDcDR</p>","","","","","","","","","",""
"html-keyboard-response","210","255016","0.0-12.0-0.40","60957b300f08087b0af0031c","650c16f0f2faf8d7a0d14c09","651c1c043e165a8f0b398013","null","null","<p style=""font-size: 60px; font-family: BACS"">TDKhEKBO</p>","","","","","","","","","",""
"html-keyboard-response","211","256033","0.0-12.0-0.41","60957b300f08087b0af0031c","650c16f0f2faf8d7a0d14c09","651c1c043e165a8f0b398013","null","null","<p style=""font-size: 60px; font-family: BACS"">kcdOtkBD</p>","","","","","","","","","",""
"html-keyboard-response","212","257048","0.0-12.0-0.42","60957b300f08087b0af0031c","650c16f0f2faf8d7a0d14c09","651c1c043e165a8f0b398013","null","null","<p style=""font-size: 60px; font-family: BACS"">uQkrdcrdY</p>","","","","","","","","","",""
"html-keyboard-response","213","258061","0.0-12.0-0.43","60957b300f08087b0af0031c","650c16f0f2faf8d7a0d14c09","651c1c043e165a8f0b398013","null","null","<p style=""font-size: 60px; font-family: BACS"">kdaAJkuvb</p>","","","","","","","","","",""
"html-keyboard-response","214","259072","0.0-12.0-0.44","60957b300f08087b0af0031c","650c16f0f2faf8d7a0d14c09","651c1c043e165a8f0b398013","null","null","<p style=""font-size: 60px; font-family: BACS"">TdTDEKBO</p>","","","","","","","","","",""
"html-keyboard-response","215","260089","0.0-12.0-0.45","60957b300f08087b0af0031c","650c16f0f2faf8d7a0d14c09","651c1c043e165a8f0b398013","null","null","<p style=""font-size: 60px; font-family: BACS"">cAZucrdY</p>","","","","","","","","","",""
"html-keyboard-response","216","261105","0.0-12.0-0.46","60957b300f08087b0af0031c","650c16f0f2faf8d7a0d14c09","651c1c043e165a8f0b398013","null","null","<p style=""font-size: 60px; font-family: BACS"">PctRCOPE</p>","","","","","","","","","",""
"html-keyboard-response","217","262113","0.0-12.0-0.47","60957b300f08087b0af0031c","650c16f0f2faf8d7a0d14c09","651c1c043e165a8f0b398013","null","null","<p style=""font-size: 60px; font-family: BACS"">vAuNlkuvb</p>","","","","","","","","","",""
"html-keyboard-response","218","263124","0.0-12.0-0.48","60957b300f08087b0af0031c","650c16f0f2faf8d7a0d14c09","651c1c043e165a8f0b398013","null","null","<p style=""font-size: 60px; font-family: BACS"">cAZuNmAG</p>","","","","","","","","","",""
"html-keyboard-response","219","264139","0.0-12.0-0.49","60957b300f08087b0af0031c","650c16f0f2faf8d7a0d14c09","651c1c043e165a8f0b398013","null","null","<p style=""font-size: 60px; font-family: BACS"">EMbDPOPE</p>","","","","","","","","","",""
"html-keyboard-response","220","265141","0.0-12.0-0.50","60957b300f08087b0af0031c","650c16f0f2faf8d7a0d14c09","651c1c043e165a8f0b398013","null","null","<p style=""font-size: 60px; font-family: BACS"">PctRCAPEM</p>","","","","","","","","","",""
"html-keyboard-response","221","266150","0.0-12.0-0.51","60957b300f08087b0af0031c","650c16f0f2faf8d7a0d14c09","651c1c043e165a8f0b398013","null","null","<p style=""font-size: 60px; font-family: BACS"">EhRmkBD</p>","","","","","","","","","",""
"html-keyboard-response","222","267158","0.0-12.0-0.52","60957b300f08087b0af0031c","650c16f0f2faf8d7a0d14c09","651c1c043e165a8f0b398013","null","null","<p style=""font-size: 60px; font-family: BACS"">DCmhAPEM</p>","","","","","","","","","",""
"html-keyboard-response","223","268162","0.0-12.0-0.53","60957b300f08087b0af0031c","650c16f0f2faf8d7a0d14c09","651c1c043e165a8f0b398013","null","null","<p style=""font-size: 60px; font-family: BACS"">vAuNlmZb</p>","","","","","","","","","",""
"html-keyboard-response","224","269176","0.0-12.0-0.54","60957b300f08087b0af0031c","650c16f0f2faf8d7a0d14c09","651c1c043e165a8f0b398013","null","null","<p style=""font-size: 60px; font-family: BACS"">OZkbkuvb</p>","","","","","","","","","",""
"html-keyboard-response","225","270189","0.0-12.0-0.55","60957b300f08087b0af0031c","650c16f0f2faf8d7a0d14c09","651c1c043e165a8f0b398013","null","null","<p style=""font-size: 60px; font-family: BACS"">EtMDMkBD</p>","","","","","","","","","",""
"html-keyboard-response","226","271198","0.0-12.0-0.56","60957b300f08087b0af0031c","650c16f0f2faf8d7a0d14c09","651c1c043e165a8f0b398013","null","null","<p style=""font-size: 60px; font-family: BACS"">OZkbUbG</p>","","","","","","","","","",""
"html-keyboard-response","227","272210","0.0-12.0-0.57","60957b300f08087b0af0031c","650c16f0f2faf8d7a0d14c09","651c1c043e165a8f0b398013","null","null","<p style=""font-size: 60px; font-family: BACS"">bdUNumZb</p>","","","","","","","","","",""
"html-keyboard-response","228","273226","0.0-12.0-0.58","60957b300f08087b0af0031c","650c16f0f2faf8d7a0d14c09","651c1c043e165a8f0b398013","null","null","<p style=""font-size: 60px; font-family: BACS"">EtMDMOPE</p>","","","","","","","","","",""
"html-keyboard-response","229","274232","0.0-12.0-0.59","60957b300f08087b0af0031c","650c16f0f2faf8d7a0d14c09","651c1c043e165a8f0b398013","null","null","<p style=""font-size: 60px; font-family: BACS"">DCmhEKBO</p>","","","","","","","","","",""
"html-keyboard-response","230","275234","0.0-12.0-0.60","60957b300f08087b0af0031c","650c16f0f2faf8d7a0d14c09","651c1c043e165a8f0b398013","null","null","<p style=""font-size: 60px; font-family: BACS"">bdUNukuvb</p>","","","","","","","","","",""
"html-keyboard-response","231","276249","0.0-12.0-0.61","60957b300f08087b0af0031c","650c16f0f2faf8d7a0d14c09","651c1c043e165a8f0b398013","null","null","<p style=""font-size: 60px; font-family: BACS"">UmNJUbG</p>","","","","","","","","","",""
"html-keyboard-response","232","277253","0.0-12.0-0.62","60957b300f08087b0af0031c","650c16f0f2faf8d7a0d14c09","651c1c043e165a8f0b398013","null","null","<p style=""font-size: 60px; font-family: BACS"">EhRmEKBO</p>","","","","","","","","","",""
"html-keyboard-response","233","278266","0.0-12.0-0.63","60957b300f08087b0af0031c","650c16f0f2faf8d7a0d14c09","651c1c043e165a8f0b398013","null","null","<p style=""font-size: 60px; font-family: BACS"">kcdOtAPEM</p>","","","","","","","","","",""
"html-keyboard-response","234","279273","0.0-12.0-0.64","60957b300f08087b0af0031c","650c16f0f2faf8d7a0d14c09","651c1c043e165a8f0b398013","null","null","<p style=""font-size: 60px; font-family: BACS"">EMbDPEKBO</p>","","","","","","","","","",""
"html-keyboard-response","235","280283","0.0-12.0-0.65","60957b300f08087b0af0031c","650c16f0f2faf8d7a0d14c09","651c1c043e165a8f0b398013","null","null","<p style=""font-size: 60px; font-family: BACS"">Zvalvkuvb</p>","","","","","","","","","",""
"html-keyboard-response","236","281291","0.0-12.0-0.66","60957b300f08087b0af0031c","650c16f0f2faf8d7a0d14c09","651c1c043e165a8f0b398013","null","null","<p style=""font-size: 60px; font-family: BACS"">DCmhOPE</p>","","","","","","","","","",""
"html-keyboard-response","237","282296","0.0-12.0-0.67","60957b300f08087b0af0031c","650c16f0f2faf8d7a0d14c09","651c1c043e165a8f0b398013","null","null","<p style=""font-size: 60px; font-family: BACS"">JmvmONmAG</p>","","","","","","","","","",""
"html-keyboard-response","238","283311","0.0-12.0-0.68","60957b300f08087b0af0031c","650c16f0f2faf8d7a0d14c09","651c1c043e165a8f0b398013","null","null","<p style=""font-size: 60px; font-family: BACS"">TDKhAPEM</p>","","","","","","","","","",""
"html-keyboard-response","239","284318","0.0-12.0-0.69","60957b300f08087b0af0031c","650c16f0f2faf8d7a0d14c09","651c1c043e165a8f0b398013","null","null","<p style=""font-size: 60px; font-family: BACS"">dJNrNmAG</p>","","","","","","","","","",""
"html-keyboard-response","240","285326","0.0-12.0-0.70","60957b300f08087b0af0031c","650c16f0f2faf8d7a0d14c09","651c1c043e165a8f0b398013","null","null","<p style=""font-size: 60px; font-family: BACS"">UmNJcrdY</p>","","","","","","","","","",""
"html-keyboard-response","241","286337","0.0-12.0-0.71","60957b300f08087b0af0031c","650c16f0f2faf8d7a0d14c09","651c1c043e165a8f0b398013","null","null","<p style=""font-size: 60px; font-family: BACS"">PctRCkBD</p>","","","","","","","","","",""
"html-keyboard-response","242","287350","0.0-12.0-0.72","60957b300f08087b0af0031c","650c16f0f2faf8d7a0d14c09","651c1c043e165a8f0b398013","null","null","<p style=""font-size: 60px; font-family: BACS"">EhRmcDR</p>","","","","","","","","","",""
"html-keyboard-response","243","288362","0.0-12.0-0.73","60957b300f08087b0af0031c","650c16f0f2faf8d7a0d14c09","651c1c043e165a8f0b398013","null","null","<p style=""font-size: 60px; font-family: BACS"">dJNrkuvb</p>","","","","","","","","","",""
"html-keyboard-response","244","289376","0.0-12.0-0.74","60957b300f08087b0af0031c","650c16f0f2faf8d7a0d14c09","651c1c043e165a8f0b398013","null","null","<p style=""font-size: 60px; font-family: BACS"">PctRCcDR</p>","","","","","","","","","",""
"html-keyboard-response","245","290384","0.0-12.0-0.75","60957b300f08087b0af0031c","650c16f0f2faf8d7a0d14c09","651c1c043e165a8f0b398013","null","null","<p style=""font-size: 60px; font-family: BACS"">UmNJmZb</p>","","","","","","","","","",""
"html-keyboard-response","246","291390","0.0-12.0-0.76","60957b300f08087b0af0031c","650c16f0f2faf8d7a0d14c09","651c1c043e165a8f0b398013","null","null","<p style=""font-size: 60px; font-family: BACS"">bdUNuUbG</p>","","","","","","","","","",""
"html-keyboard-response","247","292398","0.0-12.0-0.77","60957b300f08087b0af0031c","650c16f0f2faf8d7a0d14c09","651c1c043e165a8f0b398013","null","null","<p style=""font-size: 60px; font-family: BACS"">ZvalvmZb</p>","","","","","","","","","",""
"html-keyboard-response","248","293409","0.0-12.0-0.78","60957b300f08087b0af0031c","650c16f0f2faf8d7a0d14c09","651c1c043e165a8f0b398013","null","null","<p style=""font-size: 60px; font-family: BACS"">TDKhcDR</p>","","","","","","","","","",""
"html-keyboard-response","249","294423","0.0-12.0-0.79","60957b300f08087b0af0031c","650c16f0f2faf8d7a0d14c09","651c1c043e165a8f0b398013","null","null","<p style=""font-size: 60px; font-family: BACS"">uQkrdmZb</p>","","","","","","","","","",""
"html-keyboard-response","250","301777","0.0-13.0","60957b300f08087b0af0031c","650c16f0f2faf8d7a0d14c09","651c1c043e165a8f0b398013","7354"," ","<p>Great, you've seen the third block of words. You may now take a short break.</p>
      <p>Press the spacebar when you're ready to continue.</p>","","","","","","","","","",""
"html-keyboard-response","251","302781","0.0-14.0-0.0","60957b300f08087b0af0031c","650c16f0f2faf8d7a0d14c09","651c1c043e165a8f0b398013","null","null","<p style=""font-size: 60px; font-family: BACS"">kcdOtAPEM</p>","","","","","","","","","",""
"html-keyboard-response","252","303788","0.0-14.0-0.1","60957b300f08087b0af0031c","650c16f0f2faf8d7a0d14c09","651c1c043e165a8f0b398013","null","null","<p style=""font-size: 60px; font-family: BACS"">EtMDMOPE</p>","","","","","","","","","",""
"html-keyboard-response","253","304801","0.0-14.0-0.2","60957b300f08087b0af0031c","650c16f0f2faf8d7a0d14c09","651c1c043e165a8f0b398013","null","null","<p style=""font-size: 60px; font-family: BACS"">EhRmcDR</p>","","","","","","","","","",""
"html-keyboard-response","254","305806","0.0-14.0-0.3","60957b300f08087b0af0031c","650c16f0f2faf8d7a0d14c09","651c1c043e165a8f0b398013","null","null","<p style=""font-size: 60px; font-family: BACS"">OZkbUbG</p>","","","","","","","","","",""
"html-keyboard-response","255","306809","0.0-14.0-0.4","60957b300f08087b0af0031c","650c16f0f2faf8d7a0d14c09","651c1c043e165a8f0b398013","null","null","<p style=""font-size: 60px; font-family: BACS"">TDKhEKBO</p>","","","","","","","","","",""
"html-keyboard-response","256","307818","0.0-14.0-0.5","60957b300f08087b0af0031c","650c16f0f2faf8d7a0d14c09","651c1c043e165a8f0b398013","null","null","<p style=""font-size: 60px; font-family: BACS"">JmvmOkuvb</p>","","","","","","","","","",""
"html-keyboard-response","257","308820","0.0-14.0-0.6","60957b300f08087b0af0031c","650c16f0f2faf8d7a0d14c09","651c1c043e165a8f0b398013","null","null","<p style=""font-size: 60px; font-family: BACS"">ZvalvNmAG</p>","","","","","","","","","",""
"html-keyboard-response","258","309823","0.0-14.0-0.7","60957b300f08087b0af0031c","650c16f0f2faf8d7a0d14c09","651c1c043e165a8f0b398013","null","null","<p style=""font-size: 60px; font-family: BACS"">JmvmOUbG</p>","","","","","","","","","",""
"html-keyboard-response","259","310836","0.0-14.0-0.8","60957b300f08087b0af0031c","650c16f0f2faf8d7a0d14c09","651c1c043e165a8f0b398013","null","null","<p style=""font-size: 60px; font-family: BACS"">uQkrdNmAG</p>","","","","","","","","","",""
"html-keyboard-response","260","311843","0.0-14.0-0.9","60957b300f08087b0af0031c","650c16f0f2faf8d7a0d14c09","651c1c043e165a8f0b398013","null","null","<p style=""font-size: 60px; font-family: BACS"">bdUNucrdY</p>","","","","","","","","","",""
"html-keyboard-response","261","312846","0.0-14.0-0.10","60957b300f08087b0af0031c","650c16f0f2faf8d7a0d14c09","651c1c043e165a8f0b398013","null","null","<p style=""font-size: 60px; font-family: BACS"">EhRmOPE</p>","","","","","","","","","",""
"html-keyboard-response","262","313851","0.0-14.0-0.11","60957b300f08087b0af0031c","650c16f0f2faf8d7a0d14c09","651c1c043e165a8f0b398013","null","null","<p style=""font-size: 60px; font-family: BACS"">uQkrdmZb</p>","","","","","","","","","",""
"html-keyboard-response","263","314861","0.0-14.0-0.12","60957b300f08087b0af0031c","650c16f0f2faf8d7a0d14c09","651c1c043e165a8f0b398013","null","null","<p style=""font-size: 60px; font-family: BACS"">dJNrcrdY</p>","","","","","","","","","",""
"html-keyboard-response","264","315871","0.0-14.0-0.13","60957b300f08087b0af0031c","650c16f0f2faf8d7a0d14c09","651c1c043e165a8f0b398013","null","null","<p style=""font-size: 60px; font-family: BACS"">kcdOtEKBO</p>","","","","","","","","","",""
"html-keyboard-response","265","316876","0.0-14.0-0.14","60957b300f08087b0af0031c","650c16f0f2faf8d7a0d14c09","651c1c043e165a8f0b398013","null","null","<p style=""font-size: 60px; font-family: BACS"">kdaAJkuvb</p>","","","","","","","","","",""
"html-keyboard-response","266","317890","0.0-14.0-0.15","60957b300f08087b0af0031c","650c16f0f2faf8d7a0d14c09","651c1c043e165a8f0b398013","null","null","<p style=""font-size: 60px; font-family: BACS"">TdTDEKBO</p>","","","","","","","","","",""
"html-keyboard-response","267","318905","0.0-14.0-0.16","60957b300f08087b0af0031c","650c16f0f2faf8d7a0d14c09","651c1c043e165a8f0b398013","null","null","<p style=""font-size: 60px; font-family: BACS"">OZkbNmAG</p>","","","","","","","","","",""
"html-keyboard-response","268","319908","0.0-14.0-0.17","60957b300f08087b0af0031c","650c16f0f2faf8d7a0d14c09","651c1c043e165a8f0b398013","null","null","<p style=""font-size: 60px; font-family: BACS"">EMbDPcDR</p>","","","","","","","","","",""
"html-keyboard-response","269","320922","0.0-14.0-0.18","60957b300f08087b0af0031c","650c16f0f2faf8d7a0d14c09","651c1c043e165a8f0b398013","null","null","<p style=""font-size: 60px; font-family: BACS"">UmNJcrdY</p>","","","","","","","","","",""
"html-keyboard-response","270","321928","0.0-14.0-0.19","60957b300f08087b0af0031c","650c16f0f2faf8d7a0d14c09","651c1c043e165a8f0b398013","null","null","<p style=""font-size: 60px; font-family: BACS"">PctRCOPE</p>","","","","","","","","","",""
"html-keyboard-response","271","322938","0.0-14.0-0.20","60957b300f08087b0af0031c","650c16f0f2faf8d7a0d14c09","651c1c043e165a8f0b398013","null","null","<p style=""font-size: 60px; font-family: BACS"">dJNrNmAG</p>","","","","","","","","","",""
"html-keyboard-response","272","323951","0.0-14.0-0.21","60957b300f08087b0af0031c","650c16f0f2faf8d7a0d14c09","651c1c043e165a8f0b398013","null","null","<p style=""font-size: 60px; font-family: BACS"">bdUNukuvb</p>","","","","","","","","","",""
"html-keyboard-response","273","324965","0.0-14.0-0.22","60957b300f08087b0af0031c","650c16f0f2faf8d7a0d14c09","651c1c043e165a8f0b398013","null","null","<p style=""font-size: 60px; font-family: BACS"">kcdOtcDR</p>","","","","","","","","","",""
"html-keyboard-response","274","325978","0.0-14.0-0.23","60957b300f08087b0af0031c","650c16f0f2faf8d7a0d14c09","651c1c043e165a8f0b398013","null","null","<p style=""font-size: 60px; font-family: BACS"">bdUNuUbG</p>","","","","","","","","","",""
"html-keyboard-response","275","326987","0.0-14.0-0.24","60957b300f08087b0af0031c","650c16f0f2faf8d7a0d14c09","651c1c043e165a8f0b398013","null","null","<p style=""font-size: 60px; font-family: BACS"">uQkrdcrdY</p>","","","","","","","","","",""
"html-keyboard-response","276","328001","0.0-14.0-0.25","60957b300f08087b0af0031c","650c16f0f2faf8d7a0d14c09","651c1c043e165a8f0b398013","null","null","<p style=""font-size: 60px; font-family: BACS"">MlthOPE</p>","","","","","","","","","",""
"html-keyboard-response","277","329006","0.0-14.0-0.26","60957b300f08087b0af0031c","650c16f0f2faf8d7a0d14c09","651c1c043e165a8f0b398013","null","null","<p style=""font-size: 60px; font-family: BACS"">EhRmEKBO</p>","","","","","","","","","",""
"html-keyboard-response","278","330020","0.0-14.0-0.27","60957b300f08087b0af0031c","650c16f0f2faf8d7a0d14c09","651c1c043e165a8f0b398013","null","null","<p style=""font-size: 60px; font-family: BACS"">PctRCAPEM</p>","","","","","","","","","",""
"html-keyboard-response","279","331031","0.0-14.0-0.28","60957b300f08087b0af0031c","650c16f0f2faf8d7a0d14c09","651c1c043e165a8f0b398013","null","null","<p style=""font-size: 60px; font-family: BACS"">kcdOtkBD</p>","","","","","","","","","",""
"html-keyboard-response","280","332041","0.0-14.0-0.29","60957b300f08087b0af0031c","650c16f0f2faf8d7a0d14c09","651c1c043e165a8f0b398013","null","null","<p style=""font-size: 60px; font-family: BACS"">DCmhAPEM</p>","","","","","","","","","",""
"html-keyboard-response","281","333049","0.0-14.0-0.30","60957b300f08087b0af0031c","650c16f0f2faf8d7a0d14c09","651c1c043e165a8f0b398013","null","null","<p style=""font-size: 60px; font-family: BACS"">uQkrdUbG</p>","","","","","","","","","",""
"html-keyboard-response","282","334059","0.0-14.0-0.31","60957b300f08087b0af0031c","650c16f0f2faf8d7a0d14c09","651c1c043e165a8f0b398013","null","null","<p style=""font-size: 60px; font-family: BACS"">UmNJmZb</p>","","","","","","","","","",""
"html-keyboard-response","283","335071","0.0-14.0-0.32","60957b300f08087b0af0031c","650c16f0f2faf8d7a0d14c09","651c1c043e165a8f0b398013","null","null","<p style=""font-size: 60px; font-family: BACS"">EtMDMEKBO</p>","","","","","","","","","",""
"html-keyboard-response","284","336075","0.0-14.0-0.33","60957b300f08087b0af0031c","650c16f0f2faf8d7a0d14c09","651c1c043e165a8f0b398013","null","null","<p style=""font-size: 60px; font-family: BACS"">OZkbkuvb</p>","","","","","","","","","",""
"html-keyboard-response","285","337083","0.0-14.0-0.34","60957b300f08087b0af0031c","650c16f0f2faf8d7a0d14c09","651c1c043e165a8f0b398013","null","null","<p style=""font-size: 60px; font-family: BACS"">ZvalvUbG</p>","","","","","","","","","",""
"html-keyboard-response","286","338090","0.0-14.0-0.35","60957b300f08087b0af0031c","650c16f0f2faf8d7a0d14c09","651c1c043e165a8f0b398013","null","null","<p style=""font-size: 60px; font-family: BACS"">OZkbcrdY</p>","","","","","","","","","",""
"html-keyboard-response","287","339095","0.0-14.0-0.36","60957b300f08087b0af0031c","650c16f0f2faf8d7a0d14c09","651c1c043e165a8f0b398013","null","null","<p style=""font-size: 60px; font-family: BACS"">UmNJkuvb</p>","","","","","","","","","",""
"html-keyboard-response","288","340106","0.0-14.0-0.37","60957b300f08087b0af0031c","650c16f0f2faf8d7a0d14c09","651c1c043e165a8f0b398013","null","null","<p style=""font-size: 60px; font-family: BACS"">cAZuUbG</p>","","","","","","","","","",""
"html-keyboard-response","289","341120","0.0-14.0-0.38","60957b300f08087b0af0031c","650c16f0f2faf8d7a0d14c09","651c1c043e165a8f0b398013","null","null","<p style=""font-size: 60px; font-family: BACS"">EtMDMAPEM</p>","","","","","","","","","",""
"html-keyboard-response","290","342124","0.0-14.0-0.39","60957b300f08087b0af0031c","650c16f0f2faf8d7a0d14c09","651c1c043e165a8f0b398013","null","null","<p style=""font-size: 60px; font-family: BACS"">MlthcDR</p>","","","","","","","","","",""
"html-keyboard-response","291","343127","0.0-14.0-0.40","60957b300f08087b0af0031c","650c16f0f2faf8d7a0d14c09","651c1c043e165a8f0b398013","null","null","<p style=""font-size: 60px; font-family: BACS"">JmvmOcrdY</p>","","","","","","","","","",""
"html-keyboard-response","292","344139","0.0-14.0-0.41","60957b300f08087b0af0031c","650c16f0f2faf8d7a0d14c09","651c1c043e165a8f0b398013","null","null","<p style=""font-size: 60px; font-family: BACS"">TdTDcDR</p>","","","","","","","","","",""
"html-keyboard-response","293","345152","0.0-14.0-0.42","60957b300f08087b0af0031c","650c16f0f2faf8d7a0d14c09","651c1c043e165a8f0b398013","null","null","<p style=""font-size: 60px; font-family: BACS"">vAuNlkuvb</p>","","","","","","","","","",""
"html-keyboard-response","294","346161","0.0-14.0-0.43","60957b300f08087b0af0031c","650c16f0f2faf8d7a0d14c09","651c1c043e165a8f0b398013","null","null","<p style=""font-size: 60px; font-family: BACS"">JmvmONmAG</p>","","","","","","","","","",""
"html-keyboard-response","295","347170","0.0-14.0-0.44","60957b300f08087b0af0031c","650c16f0f2faf8d7a0d14c09","651c1c043e165a8f0b398013","null","null","<p style=""font-size: 60px; font-family: BACS"">PctRCcDR</p>","","","","","","","","","",""
"html-keyboard-response","296","348179","0.0-14.0-0.45","60957b300f08087b0af0031c","650c16f0f2faf8d7a0d14c09","651c1c043e165a8f0b398013","null","null","<p style=""font-size: 60px; font-family: BACS"">MlthkBD</p>","","","","","","","","","",""
"html-keyboard-response","297","349192","0.0-14.0-0.46","60957b300f08087b0af0031c","650c16f0f2faf8d7a0d14c09","651c1c043e165a8f0b398013","null","null","<p style=""font-size: 60px; font-family: BACS"">vAuNlmZb</p>","","","","","","","","","",""
"html-keyboard-response","298","350199","0.0-14.0-0.47","60957b300f08087b0af0031c","650c16f0f2faf8d7a0d14c09","651c1c043e165a8f0b398013","null","null","<p style=""font-size: 60px; font-family: BACS"">EMbDPEKBO</p>","","","","","","","","","",""
"html-keyboard-response","299","351213","0.0-14.0-0.48","60957b300f08087b0af0031c","650c16f0f2faf8d7a0d14c09","651c1c043e165a8f0b398013","null","null","<p style=""font-size: 60px; font-family: BACS"">TdTDkBD</p>","","","","","","","","","",""
"html-keyboard-response","300","352215","0.0-14.0-0.49","60957b300f08087b0af0031c","650c16f0f2faf8d7a0d14c09","651c1c043e165a8f0b398013","null","null","<p style=""font-size: 60px; font-family: BACS"">DCmhEKBO</p>","","","","","","","","","",""
"html-keyboard-response","301","353227","0.0-14.0-0.50","60957b300f08087b0af0031c","650c16f0f2faf8d7a0d14c09","651c1c043e165a8f0b398013","null","null","<p style=""font-size: 60px; font-family: BACS"">ZvalvmZb</p>","","","","","","","","","",""
"html-keyboard-response","302","354238","0.0-14.0-0.51","60957b300f08087b0af0031c","650c16f0f2faf8d7a0d14c09","651c1c043e165a8f0b398013","null","null","<p style=""font-size: 60px; font-family: BACS"">MlthAPEM</p>","","","","","","","","","",""
"html-keyboard-response","303","355249","0.0-14.0-0.52","60957b300f08087b0af0031c","650c16f0f2faf8d7a0d14c09","651c1c043e165a8f0b398013","null","null","<p style=""font-size: 60px; font-family: BACS"">bdUNumZb</p>","","","","","","","","","",""
"html-keyboard-response","304","356259","0.0-14.0-0.53","60957b300f08087b0af0031c","650c16f0f2faf8d7a0d14c09","651c1c043e165a8f0b398013","null","null","<p style=""font-size: 60px; font-family: BACS"">kcCRtEKBO</p>","","","","","","","","","",""
"html-keyboard-response","305","357275","0.0-14.0-0.54","60957b300f08087b0af0031c","650c16f0f2faf8d7a0d14c09","651c1c043e165a8f0b398013","null","null","<p style=""font-size: 60px; font-family: BACS"">kdaAJUbG</p>","","","","","","","","","",""
"html-keyboard-response","306","358277","0.0-14.0-0.55","60957b300f08087b0af0031c","650c16f0f2faf8d7a0d14c09","651c1c043e165a8f0b398013","null","null","<p style=""font-size: 60px; font-family: BACS"">TDKhAPEM</p>","","","","","","","","","",""
"html-keyboard-response","307","359284","0.0-14.0-0.56","60957b300f08087b0af0031c","650c16f0f2faf8d7a0d14c09","651c1c043e165a8f0b398013","null","null","<p style=""font-size: 60px; font-family: BACS"">kdaAJmZb</p>","","","","","","","","","",""
"html-keyboard-response","308","360287","0.0-14.0-0.57","60957b300f08087b0af0031c","650c16f0f2faf8d7a0d14c09","651c1c043e165a8f0b398013","null","null","<p style=""font-size: 60px; font-family: BACS"">DCmhOPE</p>","","","","","","","","","",""
"html-keyboard-response","309","361293","0.0-14.0-0.58","60957b300f08087b0af0031c","650c16f0f2faf8d7a0d14c09","651c1c043e165a8f0b398013","null","null","<p style=""font-size: 60px; font-family: BACS"">Zvalvkuvb</p>","","","","","","","","","",""
"html-keyboard-response","310","362297","0.0-14.0-0.59","60957b300f08087b0af0031c","650c16f0f2faf8d7a0d14c09","651c1c043e165a8f0b398013","null","null","<p style=""font-size: 60px; font-family: BACS"">vAuNlNmAG</p>","","","","","","","","","",""
"html-keyboard-response","311","363302","0.0-14.0-0.60","60957b300f08087b0af0031c","650c16f0f2faf8d7a0d14c09","651c1c043e165a8f0b398013","null","null","<p style=""font-size: 60px; font-family: BACS"">dJNrmZb</p>","","","","","","","","","",""
"html-keyboard-response","312","364315","0.0-14.0-0.61","60957b300f08087b0af0031c","650c16f0f2faf8d7a0d14c09","651c1c043e165a8f0b398013","null","null","<p style=""font-size: 60px; font-family: BACS"">EMbDPkBD</p>","","","","","","","","","",""
"html-keyboard-response","313","365322","0.0-14.0-0.62","60957b300f08087b0af0031c","650c16f0f2faf8d7a0d14c09","651c1c043e165a8f0b398013","null","null","<p style=""font-size: 60px; font-family: BACS"">kdaAJNmAG</p>","","","","","","","","","",""
"html-keyboard-response","314","366327","0.0-14.0-0.63","60957b300f08087b0af0031c","650c16f0f2faf8d7a0d14c09","651c1c043e165a8f0b398013","null","null","<p style=""font-size: 60px; font-family: BACS"">TDKhOPE</p>","","","","","","","","","",""
"html-keyboard-response","315","367339","0.0-14.0-0.64","60957b300f08087b0af0031c","650c16f0f2faf8d7a0d14c09","651c1c043e165a8f0b398013","null","null","<p style=""font-size: 60px; font-family: BACS"">kcCRtkBD</p>","","","","","","","","","",""
"html-keyboard-response","316","368341","0.0-14.0-0.65","60957b300f08087b0af0031c","650c16f0f2faf8d7a0d14c09","651c1c043e165a8f0b398013","null","null","<p style=""font-size: 60px; font-family: BACS"">DCmhcDR</p>","","","","","","","","","",""
"html-keyboard-response","317","369354","0.0-14.0-0.66","60957b300f08087b0af0031c","650c16f0f2faf8d7a0d14c09","651c1c043e165a8f0b398013","null","null","<p style=""font-size: 60px; font-family: BACS"">vAuNlcrdY</p>","","","","","","","","","",""
"html-keyboard-response","318","370360","0.0-14.0-0.67","60957b300f08087b0af0031c","650c16f0f2faf8d7a0d14c09","651c1c043e165a8f0b398013","null","null","<p style=""font-size: 60px; font-family: BACS"">cAZuNmAG</p>","","","","","","","","","",""
"html-keyboard-response","319","371364","0.0-14.0-0.68","60957b300f08087b0af0031c","650c16f0f2faf8d7a0d14c09","651c1c043e165a8f0b398013","null","null","<p style=""font-size: 60px; font-family: BACS"">kcCRtOPE</p>","","","","","","","","","",""
"html-keyboard-response","320","372375","0.0-14.0-0.69","60957b300f08087b0af0031c","650c16f0f2faf8d7a0d14c09","651c1c043e165a8f0b398013","null","null","<p style=""font-size: 60px; font-family: BACS"">dJNrkuvb</p>","","","","","","","","","",""
"html-keyboard-response","321","373379","0.0-14.0-0.70","60957b300f08087b0af0031c","650c16f0f2faf8d7a0d14c09","651c1c043e165a8f0b398013","null","null","<p style=""font-size: 60px; font-family: BACS"">kcCRtAPEM</p>","","","","","","","","","",""
"html-keyboard-response","322","374393","0.0-14.0-0.71","60957b300f08087b0af0031c","650c16f0f2faf8d7a0d14c09","651c1c043e165a8f0b398013","null","null","<p style=""font-size: 60px; font-family: BACS"">cAZucrdY</p>","","","","","","","","","",""
"html-keyboard-response","323","375401","0.0-14.0-0.72","60957b300f08087b0af0031c","650c16f0f2faf8d7a0d14c09","651c1c043e165a8f0b398013","null","null","<p style=""font-size: 60px; font-family: BACS"">TdTDAPEM</p>","","","","","","","","","",""
"html-keyboard-response","324","376409","0.0-14.0-0.73","60957b300f08087b0af0031c","650c16f0f2faf8d7a0d14c09","651c1c043e165a8f0b398013","null","null","<p style=""font-size: 60px; font-family: BACS"">TDKhcDR</p>","","","","","","","","","",""
"html-keyboard-response","325","377424","0.0-14.0-0.74","60957b300f08087b0af0031c","650c16f0f2faf8d7a0d14c09","651c1c043e165a8f0b398013","null","null","<p style=""font-size: 60px; font-family: BACS"">PctRCkBD</p>","","","","","","","","","",""
"html-keyboard-response","326","378430","0.0-14.0-0.75","60957b300f08087b0af0031c","650c16f0f2faf8d7a0d14c09","651c1c043e165a8f0b398013","null","null","<p style=""font-size: 60px; font-family: BACS"">EMbDPOPE</p>","","","","","","","","","",""
"html-keyboard-response","327","379437","0.0-14.0-0.76","60957b300f08087b0af0031c","650c16f0f2faf8d7a0d14c09","651c1c043e165a8f0b398013","null","null","<p style=""font-size: 60px; font-family: BACS"">UmNJUbG</p>","","","","","","","","","",""
"html-keyboard-response","328","380445","0.0-14.0-0.77","60957b300f08087b0af0031c","650c16f0f2faf8d7a0d14c09","651c1c043e165a8f0b398013","null","null","<p style=""font-size: 60px; font-family: BACS"">EhRmkBD</p>","","","","","","","","","",""
"html-keyboard-response","329","381457","0.0-14.0-0.78","60957b300f08087b0af0031c","650c16f0f2faf8d7a0d14c09","651c1c043e165a8f0b398013","null","null","<p style=""font-size: 60px; font-family: BACS"">cAZumZb</p>","","","","","","","","","",""
"html-keyboard-response","330","382466","0.0-14.0-0.79","60957b300f08087b0af0031c","650c16f0f2faf8d7a0d14c09","651c1c043e165a8f0b398013","null","null","<p style=""font-size: 60px; font-family: BACS"">EtMDMkBD</p>","","","","","","","","","",""
"html-keyboard-response","331","402746","0.0-15.0","60957b300f08087b0af0031c","650c16f0f2faf8d7a0d14c09","651c1c043e165a8f0b398013","20278"," ","<p>Great, you've seen the fourth block of words. You may now take a short break.</p>
      <p>Press the spacebar when you're ready to continue.</p>","","","","","","","","","",""
"html-keyboard-response","332","403758","0.0-16.0-0.0","60957b300f08087b0af0031c","650c16f0f2faf8d7a0d14c09","651c1c043e165a8f0b398013","null","null","<p style=""font-size: 60px; font-family: BACS"">kcdOtkBD</p>","","","","","","","","","",""
"html-keyboard-response","333","404766","0.0-16.0-0.1","60957b300f08087b0af0031c","650c16f0f2faf8d7a0d14c09","651c1c043e165a8f0b398013","null","null","<p style=""font-size: 60px; font-family: BACS"">kcdOtkBD</p>","","","","","","","","","",""
"html-keyboard-response","334","405775","0.0-16.0-0.2","60957b300f08087b0af0031c","650c16f0f2faf8d7a0d14c09","651c1c043e165a8f0b398013","null","null","<p style=""font-size: 60px; font-family: BACS"">kcdOtkBD</p>","","","","","","","","","",""
"html-keyboard-response","335","406780","0.0-16.0-0.3","60957b300f08087b0af0031c","650c16f0f2faf8d7a0d14c09","651c1c043e165a8f0b398013","null","null","<p style=""font-size: 60px; font-family: BACS"">kcdOtkBD</p>","","","","","","","","","",""
"html-keyboard-response","336","407785","0.0-16.0-0.4","60957b300f08087b0af0031c","650c16f0f2faf8d7a0d14c09","651c1c043e165a8f0b398013","null","null","<p style=""font-size: 60px; font-family: BACS"">kcdOtkBD</p>","","","","","","","","","",""
"html-keyboard-response","337","408788","0.0-16.0-0.5","60957b300f08087b0af0031c","650c16f0f2faf8d7a0d14c09","651c1c043e165a8f0b398013","null","null","<p style=""font-size: 60px; font-family: BACS"">kcdOtkBD</p>","","","","","","","","","",""
"html-keyboard-response","338","409797","0.0-16.0-0.6","60957b300f08087b0af0031c","650c16f0f2faf8d7a0d14c09","651c1c043e165a8f0b398013","null","null","<p style=""font-size: 60px; font-family: BACS"">kcdOtkBD</p>","","","","","","","","","",""
"html-keyboard-response","339","410807","0.0-16.0-0.7","60957b300f08087b0af0031c","650c16f0f2faf8d7a0d14c09","651c1c043e165a8f0b398013","null","null","<p style=""font-size: 60px; font-family: BACS"">kcdOtkBD</p>","","","","","","","","","",""
"html-keyboard-response","340","411817","0.0-16.0-0.8","60957b300f08087b0af0031c","650c16f0f2faf8d7a0d14c09","651c1c043e165a8f0b398013","null","null","<p style=""font-size: 60px; font-family: BACS"">kcdOtkBD</p>","","","","","","","","","",""
"html-keyboard-response","341","412820","0.0-16.0-0.9","60957b300f08087b0af0031c","650c16f0f2faf8d7a0d14c09","651c1c043e165a8f0b398013","null","null","<p style=""font-size: 60px; font-family: BACS"">kcdOtkBD</p>","","","","","","","","","",""
"html-keyboard-response","342","413827","0.0-16.0-0.10","60957b300f08087b0af0031c","650c16f0f2faf8d7a0d14c09","651c1c043e165a8f0b398013","null","null","<p style=""font-size: 60px; font-family: BACS"">kcdOtkBD</p>","","","","","","","","","",""
"html-keyboard-response","343","414833","0.0-16.0-0.11","60957b300f08087b0af0031c","650c16f0f2faf8d7a0d14c09","651c1c043e165a8f0b398013","null","null","<p style=""font-size: 60px; font-family: BACS"">kcdOtkBD</p>","","","","","","","","","",""
"html-keyboard-response","344","415850","0.0-16.0-0.12","60957b300f08087b0af0031c","650c16f0f2faf8d7a0d14c09","651c1c043e165a8f0b398013","null","null","<p style=""font-size: 60px; font-family: BACS"">kcdOtkBD</p>","","","","","","","","","",""
"html-keyboard-response","345","416867","0.0-16.0-0.13","60957b300f08087b0af0031c","650c16f0f2faf8d7a0d14c09","651c1c043e165a8f0b398013","null","null","<p style=""font-size: 60px; font-family: BACS"">kcdOtkBD</p>","","","","","","","","","",""
"html-keyboard-response","346","417881","0.0-16.0-0.14","60957b300f08087b0af0031c","650c16f0f2faf8d7a0d14c09","651c1c043e165a8f0b398013","null","null","<p style=""font-size: 60px; font-family: BACS"">kcdOtkBD</p>","","","","","","","","","",""
"html-keyboard-response","347","418893","0.0-16.0-0.15","60957b300f08087b0af0031c","650c16f0f2faf8d7a0d14c09","651c1c043e165a8f0b398013","null","null","<p style=""font-size: 60px; font-family: BACS"">kcdOtkBD</p>","","","","","","","","","",""
"html-keyboard-response","348","419903","0.0-16.0-0.16","60957b300f08087b0af0031c","650c16f0f2faf8d7a0d14c09","651c1c043e165a8f0b398013","null","null","<p style=""font-size: 60px; font-family: BACS"">kcdOtkBD</p>","","","","","","","","","",""
"html-keyboard-response","349","420915","0.0-16.0-0.17","60957b300f08087b0af0031c","650c16f0f2faf8d7a0d14c09","651c1c043e165a8f0b398013","null","null","<p style=""font-size: 60px; font-family: BACS"">kcdOtkBD</p>","","","","","","","","","",""
"html-keyboard-response","350","421921","0.0-16.0-0.18","60957b300f08087b0af0031c","650c16f0f2faf8d7a0d14c09","651c1c043e165a8f0b398013","null","null","<p style=""font-size: 60px; font-family: BACS"">kcdOtkBD</p>","","","","","","","","","",""
"html-keyboard-response","351","422931","0.0-16.0-0.19","60957b300f08087b0af0031c","650c16f0f2faf8d7a0d14c09","651c1c043e165a8f0b398013","null","null","<p style=""font-size: 60px; font-family: BACS"">kcdOtkBD</p>","","","","","","","","","",""
"html-keyboard-response","352","423939","0.0-16.0-0.20","60957b300f08087b0af0031c","650c16f0f2faf8d7a0d14c09","651c1c043e165a8f0b398013","null","null","<p style=""font-size: 60px; font-family: BACS"">kcdOtkBD</p>","","","","","","","","","",""
"html-keyboard-response","353","424951","0.0-16.0-0.21","60957b300f08087b0af0031c","650c16f0f2faf8d7a0d14c09","651c1c043e165a8f0b398013","null","null","<p style=""font-size: 60px; font-family: BACS"">kcdOtkBD</p>","","","","","","","","","",""
"html-keyboard-response","354","425958","0.0-16.0-0.22","60957b300f08087b0af0031c","650c16f0f2faf8d7a0d14c09","651c1c043e165a8f0b398013","null","null","<p style=""font-size: 60px; font-family: BACS"">kcdOtkBD</p>","","","","","","","","","",""
"html-keyboard-response","355","426969","0.0-16.0-0.23","60957b300f08087b0af0031c","650c16f0f2faf8d7a0d14c09","651c1c043e165a8f0b398013","null","null","<p style=""font-size: 60px; font-family: BACS"">kcdOtkBD</p>","","","","","","","","","",""
"html-keyboard-response","356","427983","0.0-16.0-0.24","60957b300f08087b0af0031c","650c16f0f2faf8d7a0d14c09","651c1c043e165a8f0b398013","null","null","<p style=""font-size: 60px; font-family: BACS"">kcdOtkBD</p>","","","","","","","","","",""
"html-keyboard-response","357","428986","0.0-16.0-0.25","60957b300f08087b0af0031c","650c16f0f2faf8d7a0d14c09","651c1c043e165a8f0b398013","null","null","<p style=""font-size: 60px; font-family: BACS"">kcdOtkBD</p>","","","","","","","","","",""
"html-keyboard-response","358","429991","0.0-16.0-0.26","60957b300f08087b0af0031c","650c16f0f2faf8d7a0d14c09","651c1c043e165a8f0b398013","null","null","<p style=""font-size: 60px; font-family: BACS"">kcdOtkBD</p>","","","","","","","","","",""
"html-keyboard-response","359","430993","0.0-16.0-0.27","60957b300f08087b0af0031c","650c16f0f2faf8d7a0d14c09","651c1c043e165a8f0b398013","null","null","<p style=""font-size: 60px; font-family: BACS"">kcdOtkBD</p>","","","","","","","","","",""
"html-keyboard-response","360","432006","0.0-16.0-0.28","60957b300f08087b0af0031c","650c16f0f2faf8d7a0d14c09","651c1c043e165a8f0b398013","null","null","<p style=""font-size: 60px; font-family: BACS"">kcdOtkBD</p>","","","","","","","","","",""
"html-keyboard-response","361","433011","0.0-16.0-0.29","60957b300f08087b0af0031c","650c16f0f2faf8d7a0d14c09","651c1c043e165a8f0b398013","null","null","<p style=""font-size: 60px; font-family: BACS"">kcdOtkBD</p>","","","","","","","","","",""
"html-keyboard-response","362","434025","0.0-16.0-0.30","60957b300f08087b0af0031c","650c16f0f2faf8d7a0d14c09","651c1c043e165a8f0b398013","null","null","<p style=""font-size: 60px; font-family: BACS"">kcdOtkBD</p>","","","","","","","","","",""
"html-keyboard-response","363","435031","0.0-16.0-0.31","60957b300f08087b0af0031c","650c16f0f2faf8d7a0d14c09","651c1c043e165a8f0b398013","null","null","<p style=""font-size: 60px; font-family: BACS"">kcdOtkBD</p>","","","","","","","","","",""
"html-keyboard-response","364","436044","0.0-16.0-0.32","60957b300f08087b0af0031c","650c16f0f2faf8d7a0d14c09","651c1c043e165a8f0b398013","null","null","<p style=""font-size: 60px; font-family: BACS"">kcdOtkBD</p>","","","","","","","","","",""
"html-keyboard-response","365","437050","0.0-16.0-0.33","60957b300f08087b0af0031c","650c16f0f2faf8d7a0d14c09","651c1c043e165a8f0b398013","null","null","<p style=""font-size: 60px; font-family: BACS"">kcdOtkBD</p>","","","","","","","","","",""
"html-keyboard-response","366","438051","0.0-16.0-0.34","60957b300f08087b0af0031c","650c16f0f2faf8d7a0d14c09","651c1c043e165a8f0b398013","null","null","<p style=""font-size: 60px; font-family: BACS"">kcdOtkBD</p>","","","","","","","","","",""
"html-keyboard-response","367","439060","0.0-16.0-0.35","60957b300f08087b0af0031c","650c16f0f2faf8d7a0d14c09","651c1c043e165a8f0b398013","null","null","<p style=""font-size: 60px; font-family: BACS"">kcdOtkBD</p>","","","","","","","","","",""
"html-keyboard-response","368","440067","0.0-16.0-0.36","60957b300f08087b0af0031c","650c16f0f2faf8d7a0d14c09","651c1c043e165a8f0b398013","null","null","<p style=""font-size: 60px; font-family: BACS"">kcdOtkBD</p>","","","","","","","","","",""
"html-keyboard-response","369","441081","0.0-16.0-0.37","60957b300f08087b0af0031c","650c16f0f2faf8d7a0d14c09","651c1c043e165a8f0b398013","null","null","<p style=""font-size: 60px; font-family: BACS"">kcdOtkBD</p>","","","","","","","","","",""
"html-keyboard-response","370","442090","0.0-16.0-0.38","60957b300f08087b0af0031c","650c16f0f2faf8d7a0d14c09","651c1c043e165a8f0b398013","null","null","<p style=""font-size: 60px; font-family: BACS"">kcdOtkBD</p>","","","","","","","","","",""
"html-keyboard-response","371","443102","0.0-16.0-0.39","60957b300f08087b0af0031c","650c16f0f2faf8d7a0d14c09","651c1c043e165a8f0b398013","null","null","<p style=""font-size: 60px; font-family: BACS"">kcdOtkBD</p>","","","","","","","","","",""
"html-keyboard-response","372","444113","0.0-16.0-0.40","60957b300f08087b0af0031c","650c16f0f2faf8d7a0d14c09","651c1c043e165a8f0b398013","null","null","<p style=""font-size: 60px; font-family: BACS"">kcdOtkBD</p>","","","","","","","","","",""
"html-keyboard-response","373","445124","0.0-16.0-0.41","60957b300f08087b0af0031c","650c16f0f2faf8d7a0d14c09","651c1c043e165a8f0b398013","null","null","<p style=""font-size: 60px; font-family: BACS"">kcdOtkBD</p>","","","","","","","","","",""
"html-keyboard-response","374","446128","0.0-16.0-0.42","60957b300f08087b0af0031c","650c16f0f2faf8d7a0d14c09","651c1c043e165a8f0b398013","null","null","<p style=""font-size: 60px; font-family: BACS"">kcdOtkBD</p>","","","","","","","","","",""
"html-keyboard-response","375","447133","0.0-16.0-0.43","60957b300f08087b0af0031c","650c16f0f2faf8d7a0d14c09","651c1c043e165a8f0b398013","null","null","<p style=""font-size: 60px; font-family: BACS"">kcdOtkBD</p>","","","","","","","","","",""
"html-keyboard-response","376","448139","0.0-16.0-0.44","60957b300f08087b0af0031c","650c16f0f2faf8d7a0d14c09","651c1c043e165a8f0b398013","null","null","<p style=""font-size: 60px; font-family: BACS"">kcdOtkBD</p>","","","","","","","","","",""
"html-keyboard-response","377","449156","0.0-16.0-0.45","60957b300f08087b0af0031c","650c16f0f2faf8d7a0d14c09","651c1c043e165a8f0b398013","null","null","<p style=""font-size: 60px; font-family: BACS"">kcdOtkBD</p>","","","","","","","","","",""
"html-keyboard-response","378","450166","0.0-16.0-0.46","60957b300f08087b0af0031c","650c16f0f2faf8d7a0d14c09","651c1c043e165a8f0b398013","null","null","<p style=""font-size: 60px; font-family: BACS"">kcdOtkBD</p>","","","","","","","","","",""
"html-keyboard-response","379","451172","0.0-16.0-0.47","60957b300f08087b0af0031c","650c16f0f2faf8d7a0d14c09","651c1c043e165a8f0b398013","null","null","<p style=""font-size: 60px; font-family: BACS"">kcdOtkBD</p>","","","","","","","","","",""
"html-keyboard-response","380","452181","0.0-16.0-0.48","60957b300f08087b0af0031c","650c16f0f2faf8d7a0d14c09","651c1c043e165a8f0b398013","null","null","<p style=""font-size: 60px; font-family: BACS"">kcdOtkBD</p>","","","","","","","","","",""
"html-keyboard-response","381","453186","0.0-16.0-0.49","60957b300f08087b0af0031c","650c16f0f2faf8d7a0d14c09","651c1c043e165a8f0b398013","null","null","<p style=""font-size: 60px; font-family: BACS"">kcdOtkBD</p>","","","","","","","","","",""
"html-keyboard-response","382","454191","0.0-16.0-0.50","60957b300f08087b0af0031c","650c16f0f2faf8d7a0d14c09","651c1c043e165a8f0b398013","null","null","<p style=""font-size: 60px; font-family: BACS"">kcdOtkBD</p>","","","","","","","","","",""
"html-keyboard-response","383","455198","0.0-16.0-0.51","60957b300f08087b0af0031c","650c16f0f2faf8d7a0d14c09","651c1c043e165a8f0b398013","null","null","<p style=""font-size: 60px; font-family: BACS"">kcdOtkBD</p>","","","","","","","","","",""
"html-keyboard-response","384","456211","0.0-16.0-0.52","60957b300f08087b0af0031c","650c16f0f2faf8d7a0d14c09","651c1c043e165a8f0b398013","null","null","<p style=""font-size: 60px; font-family: BACS"">kcdOtkBD</p>","","","","","","","","","",""
"html-keyboard-response","385","457224","0.0-16.0-0.53","60957b300f08087b0af0031c","650c16f0f2faf8d7a0d14c09","651c1c043e165a8f0b398013","null","null","<p style=""font-size: 60px; font-family: BACS"">kcdOtkBD</p>","","","","","","","","","",""
"html-keyboard-response","386","458236","0.0-16.0-0.54","60957b300f08087b0af0031c","650c16f0f2faf8d7a0d14c09","651c1c043e165a8f0b398013","null","null","<p style=""font-size: 60px; font-family: BACS"">kcdOtkBD</p>","","","","","","","","","",""
"html-keyboard-response","387","459241","0.0-16.0-0.55","60957b300f08087b0af0031c","650c16f0f2faf8d7a0d14c09","651c1c043e165a8f0b398013","null","null","<p style=""font-size: 60px; font-family: BACS"">kcdOtkBD</p>","","","","","","","","","",""
"html-keyboard-response","388","460253","0.0-16.0-0.56","60957b300f08087b0af0031c","650c16f0f2faf8d7a0d14c09","651c1c043e165a8f0b398013","null","null","<p style=""font-size: 60px; font-family: BACS"">kcdOtkBD</p>","","","","","","","","","",""
"html-keyboard-response","389","461260","0.0-16.0-0.57","60957b300f08087b0af0031c","650c16f0f2faf8d7a0d14c09","651c1c043e165a8f0b398013","null","null","<p style=""font-size: 60px; font-family: BACS"">kcdOtkBD</p>","","","","","","","","","",""
"html-keyboard-response","390","462264","0.0-16.0-0.58","60957b300f08087b0af0031c","650c16f0f2faf8d7a0d14c09","651c1c043e165a8f0b398013","null","null","<p style=""font-size: 60px; font-family: BACS"">kcdOtkBD</p>","","","","","","","","","",""
"html-keyboard-response","391","463269","0.0-16.0-0.59","60957b300f08087b0af0031c","650c16f0f2faf8d7a0d14c09","651c1c043e165a8f0b398013","null","null","<p style=""font-size: 60px; font-family: BACS"">kcdOtkBD</p>","","","","","","","","","",""
"html-keyboard-response","392","464282","0.0-16.0-0.60","60957b300f08087b0af0031c","650c16f0f2faf8d7a0d14c09","651c1c043e165a8f0b398013","null","null","<p style=""font-size: 60px; font-family: BACS"">kcdOtkBD</p>","","","","","","","","","",""
"html-keyboard-response","393","465283","0.0-16.0-0.61","60957b300f08087b0af0031c","650c16f0f2faf8d7a0d14c09","651c1c043e165a8f0b398013","null","null","<p style=""font-size: 60px; font-family: BACS"">kcdOtkBD</p>","","","","","","","","","",""
