"trial_type","trial_index","time_elapsed","internal_node_id","subject_id","study_id","session_id","rt","response","stimulus","success","item","task","correct_response","testing_condition","correct","target","confound","name"
"pavlovia","0","842","0.0-0.0","5fdf808af53c7a7e9199b430","64e77d7b61f440b60e28659d","64eca31f4623ccd21e98cecc","","","","","","","","","","","",""
"survey-html-form","1","152133","0.0-1.0","5fdf808af53c7a7e9199b430","64e77d7b61f440b60e28659d","64eca31f4623ccd21e98cecc","151290","{""ID"":""5fdf808af53c7a7e9199b430""}","","","","","","","","","",""
"html-keyboard-response","2","160132","0.0-2.0","5fdf808af53c7a7e9199b430","64e77d7b61f440b60e28659d","64eca31f4623ccd21e98cecc","7994"," ","<p style=""font-size: 15px;"">Before beginning, we ask that you read the consent information and confirm your agreement to participate in the experiment.</p>
      <p style=""font-size: 15px;""> We ask that you remember that this is a research project and that your participation is entirely voluntary. You can stop your participation at any time, without needing to provide any explanation. The study we're asking you to participate in aims at examining how readers process written words. You will be engaged in a session of apprximately 20 minutes, followed by a brief questionnaire. You will have the opportunity to take a few breaks during the experiment. You will be paid £4 for your participation, corresponding to a rate of £8/hour. While this experiment looks at cognitive faculties, this experiment doesn't constitute clinical proof of eventual pathologies.</p>
      <p style=""font-size: 15px;"">All of the information collected thanks to yours and others' participation will be held in a secure password-protected server, and will not be shared with anyone not authorised to view it. Your personal information will be kept with an arbitrary participant ID. Thanks to this data anonymity process, any researcher analysing the data won't be able to track the information back to a specific participant. Therefore, this process will make identifying you impossibile, even when results from the study will be published in scientific reviews, presented at congresses, or at any other public forum. More generally, the collected data will be treated in accordance with the laws on privacy and conformity to the Legislative Degree n. 196 ""Code regarding the protection of personal data"" of the 30th of June 2003 and to the European Regulation 2016/670 (General Data Protection Regulation - GDPR). The Data Protection Officer is Avv. Valentina Carollo, who can be contacted at the following email addresses: <a href=""mailto:dpo@sissa.it"">dpo@sissa.it</a> or <a href=""mailto:rpd@sissa.it"">rpd@sissa.it</a> - PEC: <a href=""mailto:protocollo@pec.sissa.it"">protocollo@pec.sissa.it</a>.</p>
      <p style=""font-size: 15px;""> Before expressing your consent to participate, we would like to remind you again that in case you need explanations on any aspect of the experimental procedure, the researcher is at your disposition (<a href=""mailto:aliebelt@sissa.it"">aliebelt@sissa.it</a>, <a href=""mailto:davide.crepaldi@sissa.it"">davide.crepaldi@sissa.it</a>).</p>
      <p style=""font-size: 15px;"">If you would like to download the informed consent form, you can do so here: <a href=""BASL-Informed_Consent.pdf"" download>informed consent form</a>.</p>
      <p style=""font-size: 15px;"">We ask that you press the spacebar to proceed to the consent section.</p>","","","","","","","","",""
"survey-html-form","3","303382","0.0-3.0","5fdf808af53c7a7e9199b430","64e77d7b61f440b60e28659d","64eca31f4623ccd21e98cecc","143249","{""consent1"":""YES"",""consent2"":""YES"",""consent3"":""YES"",""consent4"":""YES"",""consent5"":""YES"",""consent6"":""YES""}","","","","","","","","","",""
"fullscreen","4","360473","0.0-4.0","5fdf808af53c7a7e9199b430","64e77d7b61f440b60e28659d","64eca31f4623ccd21e98cecc","","","","true","","","","","","","",""
"html-keyboard-response","5","374036","0.0-5.0","5fdf808af53c7a7e9199b430","64e77d7b61f440b60e28659d","64eca31f4623ccd21e98cecc","13561"," ","<p>Welcome, and thank you very much for your time!</p>
      <p>In this experiment, you'll be a language expert who's been asked to take a look at words that Earth has received in its first communication with aliens. Your task, in this first part of the experiment, is to pay close attention to the words you'll be shown; later, world leaders will ask you questions on what you saw. The words will be shown to you quite quickly; it seems that the aliens were in a hurry :-)</p>
      <p>Press the spacebar to continue.<p>","","","","","","","","",""
"html-keyboard-response","6","378499","0.0-6.0","5fdf808af53c7a7e9199b430","64e77d7b61f440b60e28659d","64eca31f4623ccd21e98cecc","4462"," ","<p>Here is an example of the words you'll see:</p>
      <img src='esempio.png' height='400px'>
      <p>When you're ready to begin, press the spacebar.</p></div>","","","","","","","","",""
"html-keyboard-response","7","379514","0.0-7.0-0.0","5fdf808af53c7a7e9199b430","64e77d7b61f440b60e28659d","64eca31f4623ccd21e98cecc","null","null","<p style=""font-size: 60px; font-family: BACS"">bvuZYLU</p>","","","","","","","","",""
"html-keyboard-response","8","380524","0.0-7.0-0.1","5fdf808af53c7a7e9199b430","64e77d7b61f440b60e28659d","64eca31f4623ccd21e98cecc","null","null","<p style=""font-size: 60px; font-family: BACS"">JAaGYZUZ</p>","","","","","","","","",""
"html-keyboard-response","9","381534","0.0-7.0-0.2","5fdf808af53c7a7e9199b430","64e77d7b61f440b60e28659d","64eca31f4623ccd21e98cecc","null","null","<p style=""font-size: 60px; font-family: BACS"">rLkmlvk</p>","","","","","","","","",""
"html-keyboard-response","10","382542","0.0-7.0-0.3","5fdf808af53c7a7e9199b430","64e77d7b61f440b60e28659d","64eca31f4623ccd21e98cecc","null","null","<p style=""font-size: 60px; font-family: BACS"">TEBKhRKm</p>","","","","","","","","",""
"html-keyboard-response","11","383544","0.0-7.0-0.4","5fdf808af53c7a7e9199b430","64e77d7b61f440b60e28659d","64eca31f4623ccd21e98cecc","null","null","<p style=""font-size: 60px; font-family: BACS"">dCtMABbM</p>","","","","","","","","",""
"html-keyboard-response","12","384558","0.0-7.0-0.5","5fdf808af53c7a7e9199b430","64e77d7b61f440b60e28659d","64eca31f4623ccd21e98cecc","null","null","<p style=""font-size: 60px; font-family: BACS"">OdlNmvJQ</p>","","","","","","","","",""
"html-keyboard-response","13","385575","0.0-7.0-0.6","5fdf808af53c7a7e9199b430","64e77d7b61f440b60e28659d","64eca31f4623ccd21e98cecc","null","null","<p style=""font-size: 60px; font-family: BACS"">cROMthRKm</p>","","","","","","","","",""
"html-keyboard-response","14","386581","0.0-7.0-0.7","5fdf808af53c7a7e9199b430","64e77d7b61f440b60e28659d","64eca31f4623ccd21e98cecc","null","null","<p style=""font-size: 60px; font-family: BACS"">bROCBbM</p>","","","","","","","","",""
"html-keyboard-response","15","387587","0.0-7.0-0.8","5fdf808af53c7a7e9199b430","64e77d7b61f440b60e28659d","64eca31f4623ccd21e98cecc","null","null","<p style=""font-size: 60px; font-family: BACS"">cAZuvJQ</p>","","","","","","","","",""
"html-keyboard-response","16","388589","0.0-7.0-0.9","5fdf808af53c7a7e9199b430","64e77d7b61f440b60e28659d","64eca31f4623ccd21e98cecc","null","null","<p style=""font-size: 60px; font-family: BACS"">hYDmtdRA</p>","","","","","","","","",""
"html-keyboard-response","17","389596","0.0-7.0-0.10","5fdf808af53c7a7e9199b430","64e77d7b61f440b60e28659d","64eca31f4623ccd21e98cecc","null","null","<p style=""font-size: 60px; font-family: BACS"">rLkmYLU</p>","","","","","","","","",""
"html-keyboard-response","18","390604","0.0-7.0-0.11","5fdf808af53c7a7e9199b430","64e77d7b61f440b60e28659d","64eca31f4623ccd21e98cecc","null","null","<p style=""font-size: 60px; font-family: BACS"">tRdMBbM</p>","","","","","","","","",""
"html-keyboard-response","19","391619","0.0-7.0-0.12","5fdf808af53c7a7e9199b430","64e77d7b61f440b60e28659d","64eca31f4623ccd21e98cecc","null","null","<p style=""font-size: 60px; font-family: BACS"">JAaGcYUv</p>","","","","","","","","",""
"html-keyboard-response","20","392625","0.0-7.0-0.13","5fdf808af53c7a7e9199b430","64e77d7b61f440b60e28659d","64eca31f4623ccd21e98cecc","null","null","<p style=""font-size: 60px; font-family: BACS"">bROChRKm</p>","","","","","","","","",""
"html-keyboard-response","21","393629","0.0-7.0-0.14","5fdf808af53c7a7e9199b430","64e77d7b61f440b60e28659d","64eca31f4623ccd21e98cecc","null","null","<p style=""font-size: 60px; font-family: BACS"">YJLcAvJQ</p>","","","","","","","","",""
"html-keyboard-response","22","394631","0.0-7.0-0.15","5fdf808af53c7a7e9199b430","64e77d7b61f440b60e28659d","64eca31f4623ccd21e98cecc","null","null","<p style=""font-size: 60px; font-family: BACS"">QcladYZUZ</p>","","","","","","","","",""
"html-keyboard-response","23","395647","0.0-7.0-0.16","5fdf808af53c7a7e9199b430","64e77d7b61f440b60e28659d","64eca31f4623ccd21e98cecc","null","null","<p style=""font-size: 60px; font-family: BACS"">PEtEBbM</p>","","","","","","","","",""
"html-keyboard-response","24","396654","0.0-7.0-0.17","5fdf808af53c7a7e9199b430","64e77d7b61f440b60e28659d","64eca31f4623ccd21e98cecc","null","null","<p style=""font-size: 60px; font-family: BACS"">hYDmthRKm</p>","","","","","","","","",""
"html-keyboard-response","25","397669","0.0-7.0-0.18","5fdf808af53c7a7e9199b430","64e77d7b61f440b60e28659d","64eca31f4623ccd21e98cecc","null","null","<p style=""font-size: 60px; font-family: BACS"">damYbYLU</p>","","","","","","","","",""
"html-keyboard-response","26","398673","0.0-7.0-0.19","5fdf808af53c7a7e9199b430","64e77d7b61f440b60e28659d","64eca31f4623ccd21e98cecc","null","null","<p style=""font-size: 60px; font-family: BACS"">BKDRYhRKm</p>","","","","","","","","",""
"html-keyboard-response","27","399674","0.0-7.0-0.20","5fdf808af53c7a7e9199b430","64e77d7b61f440b60e28659d","64eca31f4623ccd21e98cecc","null","null","<p style=""font-size: 60px; font-family: BACS"">TEBKmAM</p>","","","","","","","","",""
"html-keyboard-response","28","400689","0.0-7.0-0.21","5fdf808af53c7a7e9199b430","64e77d7b61f440b60e28659d","64eca31f4623ccd21e98cecc","null","null","<p style=""font-size: 60px; font-family: BACS"">GJGcZYLU</p>","","","","","","","","",""
"html-keyboard-response","29","401698","0.0-7.0-0.22","5fdf808af53c7a7e9199b430","64e77d7b61f440b60e28659d","64eca31f4623ccd21e98cecc","null","null","<p style=""font-size: 60px; font-family: BACS"">TEBKdTAh</p>","","","","","","","","",""
"html-keyboard-response","30","402713","0.0-7.0-0.23","5fdf808af53c7a7e9199b430","64e77d7b61f440b60e28659d","64eca31f4623ccd21e98cecc","null","null","<p style=""font-size: 60px; font-family: BACS"">damYbcYUv</p>","","","","","","","","",""
"html-keyboard-response","31","403722","0.0-7.0-0.24","5fdf808af53c7a7e9199b430","64e77d7b61f440b60e28659d","64eca31f4623ccd21e98cecc","null","null","<p style=""font-size: 60px; font-family: BACS"">YlYcmAM</p>","","","","","","","","",""
"html-keyboard-response","32","404729","0.0-7.0-0.25","5fdf808af53c7a7e9199b430","64e77d7b61f440b60e28659d","64eca31f4623ccd21e98cecc","null","null","<p style=""font-size: 60px; font-family: BACS"">YJLcAlvk</p>","","","","","","","","",""
"html-keyboard-response","33","405745","0.0-7.0-0.26","5fdf808af53c7a7e9199b430","64e77d7b61f440b60e28659d","64eca31f4623ccd21e98cecc","null","null","<p style=""font-size: 60px; font-family: BACS"">OYuvbYLU</p>","","","","","","","","",""
"html-keyboard-response","34","406760","0.0-7.0-0.27","5fdf808af53c7a7e9199b430","64e77d7b61f440b60e28659d","64eca31f4623ccd21e98cecc","null","null","<p style=""font-size: 60px; font-family: BACS"">BKDRYmAM</p>","","","","","","","","",""
"html-keyboard-response","35","407766","0.0-7.0-0.28","5fdf808af53c7a7e9199b430","64e77d7b61f440b60e28659d","64eca31f4623ccd21e98cecc","null","null","<p style=""font-size: 60px; font-family: BACS"">OYuvbYZUZ</p>","","","","","","","","",""
"html-keyboard-response","36","408771","0.0-7.0-0.29","5fdf808af53c7a7e9199b430","64e77d7b61f440b60e28659d","64eca31f4623ccd21e98cecc","null","null","<p style=""font-size: 60px; font-family: BACS"">PEtEmAM</p>","","","","","","","","",""
"html-keyboard-response","37","409773","0.0-7.0-0.30","5fdf808af53c7a7e9199b430","64e77d7b61f440b60e28659d","64eca31f4623ccd21e98cecc","null","null","<p style=""font-size: 60px; font-family: BACS"">OdlNmcYUv</p>","","","","","","","","",""
"html-keyboard-response","38","410777","0.0-7.0-0.31","5fdf808af53c7a7e9199b430","64e77d7b61f440b60e28659d","64eca31f4623ccd21e98cecc","null","null","<p style=""font-size: 60px; font-family: BACS"">dCtMAdRA</p>","","","","","","","","",""
"html-keyboard-response","39","411791","0.0-7.0-0.32","5fdf808af53c7a7e9199b430","64e77d7b61f440b60e28659d","64eca31f4623ccd21e98cecc","null","null","<p style=""font-size: 60px; font-family: BACS"">tRdMdTAh</p>","","","","","","","","",""
"html-keyboard-response","40","412797","0.0-7.0-0.33","5fdf808af53c7a7e9199b430","64e77d7b61f440b60e28659d","64eca31f4623ccd21e98cecc","null","null","<p style=""font-size: 60px; font-family: BACS"">cROMtdRA</p>","","","","","","","","",""
"html-keyboard-response","41","413813","0.0-7.0-0.34","5fdf808af53c7a7e9199b430","64e77d7b61f440b60e28659d","64eca31f4623ccd21e98cecc","null","null","<p style=""font-size: 60px; font-family: BACS"">bROCdTAh</p>","","","","","","","","",""
"html-keyboard-response","42","414815","0.0-7.0-0.35","5fdf808af53c7a7e9199b430","64e77d7b61f440b60e28659d","64eca31f4623ccd21e98cecc","null","null","<p style=""font-size: 60px; font-family: BACS"">GJGcZvJQ</p>","","","","","","","","",""
"html-keyboard-response","43","415818","0.0-7.0-0.36","5fdf808af53c7a7e9199b430","64e77d7b61f440b60e28659d","64eca31f4623ccd21e98cecc","null","null","<p style=""font-size: 60px; font-family: BACS"">YlYcdRA</p>","","","","","","","","",""
"html-keyboard-response","44","416828","0.0-7.0-0.37","5fdf808af53c7a7e9199b430","64e77d7b61f440b60e28659d","64eca31f4623ccd21e98cecc","null","null","<p style=""font-size: 60px; font-family: BACS"">BECkBbM</p>","","","","","","","","",""
"html-keyboard-response","45","417833","0.0-7.0-0.38","5fdf808af53c7a7e9199b430","64e77d7b61f440b60e28659d","64eca31f4623ccd21e98cecc","null","null","<p style=""font-size: 60px; font-family: BACS"">Qcladlvk</p>","","","","","","","","",""
"html-keyboard-response","46","418843","0.0-7.0-0.39","5fdf808af53c7a7e9199b430","64e77d7b61f440b60e28659d","64eca31f4623ccd21e98cecc","null","null","<p style=""font-size: 60px; font-family: BACS"">YJLcAcYUv</p>","","","","","","","","",""
"html-keyboard-response","47","419851","0.0-7.0-0.40","5fdf808af53c7a7e9199b430","64e77d7b61f440b60e28659d","64eca31f4623ccd21e98cecc","null","null","<p style=""font-size: 60px; font-family: BACS"">BECkmAM</p>","","","","","","","","",""
"html-keyboard-response","48","420858","0.0-7.0-0.41","5fdf808af53c7a7e9199b430","64e77d7b61f440b60e28659d","64eca31f4623ccd21e98cecc","null","null","<p style=""font-size: 60px; font-family: BACS"">OdlNmYLU</p>","","","","","","","","",""
"html-keyboard-response","49","421871","0.0-7.0-0.42","5fdf808af53c7a7e9199b430","64e77d7b61f440b60e28659d","64eca31f4623ccd21e98cecc","null","null","<p style=""font-size: 60px; font-family: BACS"">cAZulvk</p>","","","","","","","","",""
"html-keyboard-response","50","422882","0.0-7.0-0.43","5fdf808af53c7a7e9199b430","64e77d7b61f440b60e28659d","64eca31f4623ccd21e98cecc","null","null","<p style=""font-size: 60px; font-family: BACS"">OYuvbcYUv</p>","","","","","","","","",""
"html-keyboard-response","51","423899","0.0-7.0-0.44","5fdf808af53c7a7e9199b430","64e77d7b61f440b60e28659d","64eca31f4623ccd21e98cecc","null","null","<p style=""font-size: 60px; font-family: BACS"">damYblvk</p>","","","","","","","","",""
"html-keyboard-response","52","424906","0.0-7.0-0.45","5fdf808af53c7a7e9199b430","64e77d7b61f440b60e28659d","64eca31f4623ccd21e98cecc","null","null","<p style=""font-size: 60px; font-family: BACS"">YJLcAYZUZ</p>","","","","","","","","",""
"html-keyboard-response","53","425914","0.0-7.0-0.46","5fdf808af53c7a7e9199b430","64e77d7b61f440b60e28659d","64eca31f4623ccd21e98cecc","null","null","<p style=""font-size: 60px; font-family: BACS"">cROMtBbM</p>","","","","","","","","",""
"html-keyboard-response","54","426925","0.0-7.0-0.47","5fdf808af53c7a7e9199b430","64e77d7b61f440b60e28659d","64eca31f4623ccd21e98cecc","null","null","<p style=""font-size: 60px; font-family: BACS"">rLkmvJQ</p>","","","","","","","","",""
"html-keyboard-response","55","427927","0.0-7.0-0.48","5fdf808af53c7a7e9199b430","64e77d7b61f440b60e28659d","64eca31f4623ccd21e98cecc","null","null","<p style=""font-size: 60px; font-family: BACS"">BECkdRA</p>","","","","","","","","",""
"html-keyboard-response","56","428934","0.0-7.0-0.49","5fdf808af53c7a7e9199b430","64e77d7b61f440b60e28659d","64eca31f4623ccd21e98cecc","null","null","<p style=""font-size: 60px; font-family: BACS"">dCtMAmAM</p>","","","","","","","","",""
"html-keyboard-response","57","429947","0.0-7.0-0.50","5fdf808af53c7a7e9199b430","64e77d7b61f440b60e28659d","64eca31f4623ccd21e98cecc","null","null","<p style=""font-size: 60px; font-family: BACS"">JAaGYLU</p>","","","","","","","","",""
"html-keyboard-response","58","430963","0.0-7.0-0.51","5fdf808af53c7a7e9199b430","64e77d7b61f440b60e28659d","64eca31f4623ccd21e98cecc","null","null","<p style=""font-size: 60px; font-family: BACS"">cAZuYZUZ</p>","","","","","","","","",""
"html-keyboard-response","59","431970","0.0-7.0-0.52","5fdf808af53c7a7e9199b430","64e77d7b61f440b60e28659d","64eca31f4623ccd21e98cecc","null","null","<p style=""font-size: 60px; font-family: BACS"">bvuZlvk</p>","","","","","","","","",""
"html-keyboard-response","60","432977","0.0-7.0-0.53","5fdf808af53c7a7e9199b430","64e77d7b61f440b60e28659d","64eca31f4623ccd21e98cecc","null","null","<p style=""font-size: 60px; font-family: BACS"">damYbvJQ</p>","","","","","","","","",""
"html-keyboard-response","61","433979","0.0-7.0-0.54","5fdf808af53c7a7e9199b430","64e77d7b61f440b60e28659d","64eca31f4623ccd21e98cecc","null","null","<p style=""font-size: 60px; font-family: BACS"">tRdMhRKm</p>","","","","","","","","",""
"html-keyboard-response","62","434983","0.0-7.0-0.55","5fdf808af53c7a7e9199b430","64e77d7b61f440b60e28659d","64eca31f4623ccd21e98cecc","null","null","<p style=""font-size: 60px; font-family: BACS"">rLkmcYUv</p>","","","","","","","","",""
"html-keyboard-response","63","435989","0.0-7.0-0.56","5fdf808af53c7a7e9199b430","64e77d7b61f440b60e28659d","64eca31f4623ccd21e98cecc","null","null","<p style=""font-size: 60px; font-family: BACS"">YlYcBbM</p>","","","","","","","","",""
"html-keyboard-response","64","437001","0.0-7.0-0.57","5fdf808af53c7a7e9199b430","64e77d7b61f440b60e28659d","64eca31f4623ccd21e98cecc","null","null","<p style=""font-size: 60px; font-family: BACS"">GJGcZlvk</p>","","","","","","","","",""
"html-keyboard-response","65","438007","0.0-7.0-0.58","5fdf808af53c7a7e9199b430","64e77d7b61f440b60e28659d","64eca31f4623ccd21e98cecc","null","null","<p style=""font-size: 60px; font-family: BACS"">bvuZYZUZ</p>","","","","","","","","",""
"html-keyboard-response","66","439022","0.0-7.0-0.59","5fdf808af53c7a7e9199b430","64e77d7b61f440b60e28659d","64eca31f4623ccd21e98cecc","null","null","<p style=""font-size: 60px; font-family: BACS"">BKDRYdTAh</p>","","","","","","","","",""
"html-keyboard-response","67","440032","0.0-7.0-0.60","5fdf808af53c7a7e9199b430","64e77d7b61f440b60e28659d","64eca31f4623ccd21e98cecc","null","null","<p style=""font-size: 60px; font-family: BACS"">PEtEhRKm</p>","","","","","","","","",""
"html-keyboard-response","68","441038","0.0-7.0-0.61","5fdf808af53c7a7e9199b430","64e77d7b61f440b60e28659d","64eca31f4623ccd21e98cecc","null","null","<p style=""font-size: 60px; font-family: BACS"">OYuvblvk</p>","","","","","","","","",""
"html-keyboard-response","69","442054","0.0-7.0-0.62","5fdf808af53c7a7e9199b430","64e77d7b61f440b60e28659d","64eca31f4623ccd21e98cecc","null","null","<p style=""font-size: 60px; font-family: BACS"">JAaGvJQ</p>","","","","","","","","",""
"html-keyboard-response","70","443070","0.0-7.0-0.63","5fdf808af53c7a7e9199b430","64e77d7b61f440b60e28659d","64eca31f4623ccd21e98cecc","null","null","<p style=""font-size: 60px; font-family: BACS"">cROMtmAM</p>","","","","","","","","",""
"html-keyboard-response","71","444083","0.0-7.0-0.64","5fdf808af53c7a7e9199b430","64e77d7b61f440b60e28659d","64eca31f4623ccd21e98cecc","null","null","<p style=""font-size: 60px; font-family: BACS"">OdlNmYZUZ</p>","","","","","","","","",""
"html-keyboard-response","72","445095","0.0-7.0-0.65","5fdf808af53c7a7e9199b430","64e77d7b61f440b60e28659d","64eca31f4623ccd21e98cecc","null","null","<p style=""font-size: 60px; font-family: BACS"">hYDmtdTAh</p>","","","","","","","","",""
"html-keyboard-response","73","446109","0.0-7.0-0.66","5fdf808af53c7a7e9199b430","64e77d7b61f440b60e28659d","64eca31f4623ccd21e98cecc","null","null","<p style=""font-size: 60px; font-family: BACS"">QcladYLU</p>","","","","","","","","",""
"html-keyboard-response","74","447113","0.0-7.0-0.67","5fdf808af53c7a7e9199b430","64e77d7b61f440b60e28659d","64eca31f4623ccd21e98cecc","null","null","<p style=""font-size: 60px; font-family: BACS"">dCtMAdTAh</p>","","","","","","","","",""
"html-keyboard-response","75","448120","0.0-7.0-0.68","5fdf808af53c7a7e9199b430","64e77d7b61f440b60e28659d","64eca31f4623ccd21e98cecc","null","null","<p style=""font-size: 60px; font-family: BACS"">bvuZcYUv</p>","","","","","","","","",""
"html-keyboard-response","76","449130","0.0-7.0-0.69","5fdf808af53c7a7e9199b430","64e77d7b61f440b60e28659d","64eca31f4623ccd21e98cecc","null","null","<p style=""font-size: 60px; font-family: BACS"">GJGcZYZUZ</p>","","","","","","","","",""
"html-keyboard-response","77","450144","0.0-7.0-0.70","5fdf808af53c7a7e9199b430","64e77d7b61f440b60e28659d","64eca31f4623ccd21e98cecc","null","null","<p style=""font-size: 60px; font-family: BACS"">YlYchRKm</p>","","","","","","","","",""
"html-keyboard-response","78","451161","0.0-7.0-0.71","5fdf808af53c7a7e9199b430","64e77d7b61f440b60e28659d","64eca31f4623ccd21e98cecc","null","null","<p style=""font-size: 60px; font-family: BACS"">BKDRYBbM</p>","","","","","","","","",""
"html-keyboard-response","79","452168","0.0-7.0-0.72","5fdf808af53c7a7e9199b430","64e77d7b61f440b60e28659d","64eca31f4623ccd21e98cecc","null","null","<p style=""font-size: 60px; font-family: BACS"">BECkdTAh</p>","","","","","","","","",""
"html-keyboard-response","80","453174","0.0-7.0-0.73","5fdf808af53c7a7e9199b430","64e77d7b61f440b60e28659d","64eca31f4623ccd21e98cecc","null","null","<p style=""font-size: 60px; font-family: BACS"">hYDmtmAM</p>","","","","","","","","",""
"html-keyboard-response","81","454191","0.0-7.0-0.74","5fdf808af53c7a7e9199b430","64e77d7b61f440b60e28659d","64eca31f4623ccd21e98cecc","null","null","<p style=""font-size: 60px; font-family: BACS"">bROCdRA</p>","","","","","","","","",""
"html-keyboard-response","82","455200","0.0-7.0-0.75","5fdf808af53c7a7e9199b430","64e77d7b61f440b60e28659d","64eca31f4623ccd21e98cecc","null","null","<p style=""font-size: 60px; font-family: BACS"">cAZucYUv</p>","","","","","","","","",""
"html-keyboard-response","83","456211","0.0-7.0-0.76","5fdf808af53c7a7e9199b430","64e77d7b61f440b60e28659d","64eca31f4623ccd21e98cecc","null","null","<p style=""font-size: 60px; font-family: BACS"">TEBKdRA</p>","","","","","","","","",""
"html-keyboard-response","84","457225","0.0-7.0-0.77","5fdf808af53c7a7e9199b430","64e77d7b61f440b60e28659d","64eca31f4623ccd21e98cecc","null","null","<p style=""font-size: 60px; font-family: BACS"">PEtEdTAh</p>","","","","","","","","",""
"html-keyboard-response","85","458237","0.0-7.0-0.78","5fdf808af53c7a7e9199b430","64e77d7b61f440b60e28659d","64eca31f4623ccd21e98cecc","null","null","<p style=""font-size: 60px; font-family: BACS"">tRdMdRA</p>","","","","","","","","",""
"html-keyboard-response","86","459239","0.0-7.0-0.79","5fdf808af53c7a7e9199b430","64e77d7b61f440b60e28659d","64eca31f4623ccd21e98cecc","null","null","<p style=""font-size: 60px; font-family: BACS"">QcladvJQ</p>","","","","","","","","",""
"html-keyboard-response","87","491692","0.0-8.0","5fdf808af53c7a7e9199b430","64e77d7b61f440b60e28659d","64eca31f4623ccd21e98cecc","32452"," ","<p>Great, you've seen the first block of words. You may now take a short break.</p>
      <p>Press the spacebar when you're ready to continue.</p>","","","","","","","","",""
"html-keyboard-response","88","492694","0.0-9.0-0.0","5fdf808af53c7a7e9199b430","64e77d7b61f440b60e28659d","64eca31f4623ccd21e98cecc","null","null","<p style=""font-size: 60px; font-family: BACS"">bROChRKm</p>","","","","","","","","",""
"html-keyboard-response","89","493708","0.0-9.0-0.1","5fdf808af53c7a7e9199b430","64e77d7b61f440b60e28659d","64eca31f4623ccd21e98cecc","null","null","<p style=""font-size: 60px; font-family: BACS"">PEtEBbM</p>","","","","","","","","",""
"html-keyboard-response","90","494716","0.0-9.0-0.2","5fdf808af53c7a7e9199b430","64e77d7b61f440b60e28659d","64eca31f4623ccd21e98cecc","null","null","<p style=""font-size: 60px; font-family: BACS"">TEBKdTAh</p>","","","","","","","","",""
"html-keyboard-response","91","495724","0.0-9.0-0.3","5fdf808af53c7a7e9199b430","64e77d7b61f440b60e28659d","64eca31f4623ccd21e98cecc","null","null","<p style=""font-size: 60px; font-family: BACS"">OdlNmvJQ</p>","","","","","","","","",""
"html-keyboard-response","92","496728","0.0-9.0-0.4","5fdf808af53c7a7e9199b430","64e77d7b61f440b60e28659d","64eca31f4623ccd21e98cecc","null","null","<p style=""font-size: 60px; font-family: BACS"">rLkmlvk</p>","","","","","","","","",""
"html-keyboard-response","93","497738","0.0-9.0-0.5","5fdf808af53c7a7e9199b430","64e77d7b61f440b60e28659d","64eca31f4623ccd21e98cecc","null","null","<p style=""font-size: 60px; font-family: BACS"">cAZuYZUZ</p>","","","","","","","","",""
"html-keyboard-response","94","498739","0.0-9.0-0.6","5fdf808af53c7a7e9199b430","64e77d7b61f440b60e28659d","64eca31f4623ccd21e98cecc","null","null","<p style=""font-size: 60px; font-family: BACS"">PEtEmAM</p>","","","","","","","","",""
"html-keyboard-response","95","499740","0.0-9.0-0.7","5fdf808af53c7a7e9199b430","64e77d7b61f440b60e28659d","64eca31f4623ccd21e98cecc","null","null","<p style=""font-size: 60px; font-family: BACS"">bvuZYLU</p>","","","","","","","","",""
"html-keyboard-response","96","500742","0.0-9.0-0.8","5fdf808af53c7a7e9199b430","64e77d7b61f440b60e28659d","64eca31f4623ccd21e98cecc","null","null","<p style=""font-size: 60px; font-family: BACS"">QcladvJQ</p>","","","","","","","","",""
"html-keyboard-response","97","501752","0.0-9.0-0.9","5fdf808af53c7a7e9199b430","64e77d7b61f440b60e28659d","64eca31f4623ccd21e98cecc","null","null","<p style=""font-size: 60px; font-family: BACS"">cROMthRKm</p>","","","","","","","","",""
"html-keyboard-response","98","502753","0.0-9.0-0.10","5fdf808af53c7a7e9199b430","64e77d7b61f440b60e28659d","64eca31f4623ccd21e98cecc","null","null","<p style=""font-size: 60px; font-family: BACS"">YlYcdRA</p>","","","","","","","","",""
"html-keyboard-response","99","503756","0.0-9.0-0.11","5fdf808af53c7a7e9199b430","64e77d7b61f440b60e28659d","64eca31f4623ccd21e98cecc","null","null","<p style=""font-size: 60px; font-family: BACS"">BECkmAM</p>","","","","","","","","",""
"html-keyboard-response","100","504757","0.0-9.0-0.12","5fdf808af53c7a7e9199b430","64e77d7b61f440b60e28659d","64eca31f4623ccd21e98cecc","null","null","<p style=""font-size: 60px; font-family: BACS"">TEBKdRA</p>","","","","","","","","",""
"html-keyboard-response","101","505770","0.0-9.0-0.13","5fdf808af53c7a7e9199b430","64e77d7b61f440b60e28659d","64eca31f4623ccd21e98cecc","null","null","<p style=""font-size: 60px; font-family: BACS"">hYDmthRKm</p>","","","","","","","","",""
"html-keyboard-response","102","506781","0.0-9.0-0.14","5fdf808af53c7a7e9199b430","64e77d7b61f440b60e28659d","64eca31f4623ccd21e98cecc","null","null","<p style=""font-size: 60px; font-family: BACS"">Qcladlvk</p>","","","","","","","","",""
"html-keyboard-response","103","507782","0.0-9.0-0.15","5fdf808af53c7a7e9199b430","64e77d7b61f440b60e28659d","64eca31f4623ccd21e98cecc","null","null","<p style=""font-size: 60px; font-family: BACS"">TEBKhRKm</p>","","","","","","","","",""
"html-keyboard-response","104","508783","0.0-9.0-0.16","5fdf808af53c7a7e9199b430","64e77d7b61f440b60e28659d","64eca31f4623ccd21e98cecc","null","null","<p style=""font-size: 60px; font-family: BACS"">BKDRYmAM</p>","","","","","","","","",""
"html-keyboard-response","105","509795","0.0-9.0-0.17","5fdf808af53c7a7e9199b430","64e77d7b61f440b60e28659d","64eca31f4623ccd21e98cecc","null","null","<p style=""font-size: 60px; font-family: BACS"">rLkmvJQ</p>","","","","","","","","",""
"html-keyboard-response","106","510802","0.0-9.0-0.18","5fdf808af53c7a7e9199b430","64e77d7b61f440b60e28659d","64eca31f4623ccd21e98cecc","null","null","<p style=""font-size: 60px; font-family: BACS"">BKDRYBbM</p>","","","","","","","","",""
"html-keyboard-response","107","511804","0.0-9.0-0.19","5fdf808af53c7a7e9199b430","64e77d7b61f440b60e28659d","64eca31f4623ccd21e98cecc","null","null","<p style=""font-size: 60px; font-family: BACS"">cROMtdRA</p>","","","","","","","","",""
"html-keyboard-response","108","512810","0.0-9.0-0.20","5fdf808af53c7a7e9199b430","64e77d7b61f440b60e28659d","64eca31f4623ccd21e98cecc","null","null","<p style=""font-size: 60px; font-family: BACS"">bvuZYZUZ</p>","","","","","","","","",""
"html-keyboard-response","109","513822","0.0-9.0-0.21","5fdf808af53c7a7e9199b430","64e77d7b61f440b60e28659d","64eca31f4623ccd21e98cecc","null","null","<p style=""font-size: 60px; font-family: BACS"">cAZucYUv</p>","","","","","","","","",""
"html-keyboard-response","110","514833","0.0-9.0-0.22","5fdf808af53c7a7e9199b430","64e77d7b61f440b60e28659d","64eca31f4623ccd21e98cecc","null","null","<p style=""font-size: 60px; font-family: BACS"">cROMtmAM</p>","","","","","","","","",""
"html-keyboard-response","111","515840","0.0-9.0-0.23","5fdf808af53c7a7e9199b430","64e77d7b61f440b60e28659d","64eca31f4623ccd21e98cecc","null","null","<p style=""font-size: 60px; font-family: BACS"">cAZuvJQ</p>","","","","","","","","",""
"html-keyboard-response","112","516842","0.0-9.0-0.24","5fdf808af53c7a7e9199b430","64e77d7b61f440b60e28659d","64eca31f4623ccd21e98cecc","null","null","<p style=""font-size: 60px; font-family: BACS"">JAaGYZUZ</p>","","","","","","","","",""
"html-keyboard-response","113","517842","0.0-9.0-0.25","5fdf808af53c7a7e9199b430","64e77d7b61f440b60e28659d","64eca31f4623ccd21e98cecc","null","null","<p style=""font-size: 60px; font-family: BACS"">dCtMAdRA</p>","","","","","","","","",""
"html-keyboard-response","114","518844","0.0-9.0-0.26","5fdf808af53c7a7e9199b430","64e77d7b61f440b60e28659d","64eca31f4623ccd21e98cecc","null","null","<p style=""font-size: 60px; font-family: BACS"">damYblvk</p>","","","","","","","","",""
"html-keyboard-response","115","519849","0.0-9.0-0.27","5fdf808af53c7a7e9199b430","64e77d7b61f440b60e28659d","64eca31f4623ccd21e98cecc","null","null","<p style=""font-size: 60px; font-family: BACS"">OYuvbcYUv</p>","","","","","","","","",""
"html-keyboard-response","116","520856","0.0-9.0-0.28","5fdf808af53c7a7e9199b430","64e77d7b61f440b60e28659d","64eca31f4623ccd21e98cecc","null","null","<p style=""font-size: 60px; font-family: BACS"">damYbYLU</p>","","","","","","","","",""
"html-keyboard-response","117","521857","0.0-9.0-0.29","5fdf808af53c7a7e9199b430","64e77d7b61f440b60e28659d","64eca31f4623ccd21e98cecc","null","null","<p style=""font-size: 60px; font-family: BACS"">bvuZcYUv</p>","","","","","","","","",""
"html-keyboard-response","118","522858","0.0-9.0-0.30","5fdf808af53c7a7e9199b430","64e77d7b61f440b60e28659d","64eca31f4623ccd21e98cecc","null","null","<p style=""font-size: 60px; font-family: BACS"">damYbvJQ</p>","","","","","","","","",""
"html-keyboard-response","119","523860","0.0-9.0-0.31","5fdf808af53c7a7e9199b430","64e77d7b61f440b60e28659d","64eca31f4623ccd21e98cecc","null","null","<p style=""font-size: 60px; font-family: BACS"">BECkBbM</p>","","","","","","","","",""
"html-keyboard-response","120","524866","0.0-9.0-0.32","5fdf808af53c7a7e9199b430","64e77d7b61f440b60e28659d","64eca31f4623ccd21e98cecc","null","null","<p style=""font-size: 60px; font-family: BACS"">JAaGcYUv</p>","","","","","","","","",""
"html-keyboard-response","121","525868","0.0-9.0-0.33","5fdf808af53c7a7e9199b430","64e77d7b61f440b60e28659d","64eca31f4623ccd21e98cecc","null","null","<p style=""font-size: 60px; font-family: BACS"">TEBKmAM</p>","","","","","","","","",""
"html-keyboard-response","122","526869","0.0-9.0-0.34","5fdf808af53c7a7e9199b430","64e77d7b61f440b60e28659d","64eca31f4623ccd21e98cecc","null","null","<p style=""font-size: 60px; font-family: BACS"">tRdMBbM</p>","","","","","","","","",""
"html-keyboard-response","123","527871","0.0-9.0-0.35","5fdf808af53c7a7e9199b430","64e77d7b61f440b60e28659d","64eca31f4623ccd21e98cecc","null","null","<p style=""font-size: 60px; font-family: BACS"">OdlNmYLU</p>","","","","","","","","",""
"html-keyboard-response","124","528872","0.0-9.0-0.36","5fdf808af53c7a7e9199b430","64e77d7b61f440b60e28659d","64eca31f4623ccd21e98cecc","null","null","<p style=""font-size: 60px; font-family: BACS"">damYbcYUv</p>","","","","","","","","",""
"html-keyboard-response","125","529872","0.0-9.0-0.37","5fdf808af53c7a7e9199b430","64e77d7b61f440b60e28659d","64eca31f4623ccd21e98cecc","null","null","<p style=""font-size: 60px; font-family: BACS"">dCtMAdTAh</p>","","","","","","","","",""
"html-keyboard-response","126","530873","0.0-9.0-0.38","5fdf808af53c7a7e9199b430","64e77d7b61f440b60e28659d","64eca31f4623ccd21e98cecc","null","null","<p style=""font-size: 60px; font-family: BACS"">YJLcAlvk</p>","","","","","","","","",""
"html-keyboard-response","127","531889","0.0-9.0-0.39","5fdf808af53c7a7e9199b430","64e77d7b61f440b60e28659d","64eca31f4623ccd21e98cecc","null","null","<p style=""font-size: 60px; font-family: BACS"">bROCdTAh</p>","","","","","","","","",""
"html-keyboard-response","128","532897","0.0-9.0-0.40","5fdf808af53c7a7e9199b430","64e77d7b61f440b60e28659d","64eca31f4623ccd21e98cecc","null","null","<p style=""font-size: 60px; font-family: BACS"">hYDmtmAM</p>","","","","","","","","",""
"html-keyboard-response","129","533899","0.0-9.0-0.41","5fdf808af53c7a7e9199b430","64e77d7b61f440b60e28659d","64eca31f4623ccd21e98cecc","null","null","<p style=""font-size: 60px; font-family: BACS"">tRdMdRA</p>","","","","","","","","",""
"html-keyboard-response","130","534900","0.0-9.0-0.42","5fdf808af53c7a7e9199b430","64e77d7b61f440b60e28659d","64eca31f4623ccd21e98cecc","null","null","<p style=""font-size: 60px; font-family: BACS"">BKDRYhRKm</p>","","","","","","","","",""
"html-keyboard-response","131","535900","0.0-9.0-0.43","5fdf808af53c7a7e9199b430","64e77d7b61f440b60e28659d","64eca31f4623ccd21e98cecc","null","null","<p style=""font-size: 60px; font-family: BACS"">OdlNmcYUv</p>","","","","","","","","",""
"html-keyboard-response","132","536902","0.0-9.0-0.44","5fdf808af53c7a7e9199b430","64e77d7b61f440b60e28659d","64eca31f4623ccd21e98cecc","null","null","<p style=""font-size: 60px; font-family: BACS"">hYDmtdRA</p>","","","","","","","","",""
"html-keyboard-response","133","537903","0.0-9.0-0.45","5fdf808af53c7a7e9199b430","64e77d7b61f440b60e28659d","64eca31f4623ccd21e98cecc","null","null","<p style=""font-size: 60px; font-family: BACS"">dCtMABbM</p>","","","","","","","","",""
"html-keyboard-response","134","538917","0.0-9.0-0.46","5fdf808af53c7a7e9199b430","64e77d7b61f440b60e28659d","64eca31f4623ccd21e98cecc","null","null","<p style=""font-size: 60px; font-family: BACS"">PEtEhRKm</p>","","","","","","","","",""
"html-keyboard-response","135","539919","0.0-9.0-0.47","5fdf808af53c7a7e9199b430","64e77d7b61f440b60e28659d","64eca31f4623ccd21e98cecc","null","null","<p style=""font-size: 60px; font-family: BACS"">GJGcZvJQ</p>","","","","","","","","",""
"html-keyboard-response","136","540935","0.0-9.0-0.48","5fdf808af53c7a7e9199b430","64e77d7b61f440b60e28659d","64eca31f4623ccd21e98cecc","null","null","<p style=""font-size: 60px; font-family: BACS"">OYuvbYZUZ</p>","","","","","","","","",""
"html-keyboard-response","137","541936","0.0-9.0-0.49","5fdf808af53c7a7e9199b430","64e77d7b61f440b60e28659d","64eca31f4623ccd21e98cecc","null","null","<p style=""font-size: 60px; font-family: BACS"">YlYchRKm</p>","","","","","","","","",""
"html-keyboard-response","138","542937","0.0-9.0-0.50","5fdf808af53c7a7e9199b430","64e77d7b61f440b60e28659d","64eca31f4623ccd21e98cecc","null","null","<p style=""font-size: 60px; font-family: BACS"">OYuvbYLU</p>","","","","","","","","",""
"html-keyboard-response","139","543939","0.0-9.0-0.51","5fdf808af53c7a7e9199b430","64e77d7b61f440b60e28659d","64eca31f4623ccd21e98cecc","null","null","<p style=""font-size: 60px; font-family: BACS"">bvuZlvk</p>","","","","","","","","",""
"html-keyboard-response","140","544940","0.0-9.0-0.52","5fdf808af53c7a7e9199b430","64e77d7b61f440b60e28659d","64eca31f4623ccd21e98cecc","null","null","<p style=""font-size: 60px; font-family: BACS"">YJLcAYZUZ</p>","","","","","","","","",""
"html-keyboard-response","141","545951","0.0-9.0-0.53","5fdf808af53c7a7e9199b430","64e77d7b61f440b60e28659d","64eca31f4623ccd21e98cecc","null","null","<p style=""font-size: 60px; font-family: BACS"">GJGcZlvk</p>","","","","","","","","",""
"html-keyboard-response","142","546960","0.0-9.0-0.54","5fdf808af53c7a7e9199b430","64e77d7b61f440b60e28659d","64eca31f4623ccd21e98cecc","null","null","<p style=""font-size: 60px; font-family: BACS"">BKDRYdTAh</p>","","","","","","","","",""
"html-keyboard-response","143","547970","0.0-9.0-0.55","5fdf808af53c7a7e9199b430","64e77d7b61f440b60e28659d","64eca31f4623ccd21e98cecc","null","null","<p style=""font-size: 60px; font-family: BACS"">GJGcZYZUZ</p>","","","","","","","","",""
"html-keyboard-response","144","548979","0.0-9.0-0.56","5fdf808af53c7a7e9199b430","64e77d7b61f440b60e28659d","64eca31f4623ccd21e98cecc","null","null","<p style=""font-size: 60px; font-family: BACS"">YJLcAcYUv</p>","","","","","","","","",""
"html-keyboard-response","145","549992","0.0-9.0-0.57","5fdf808af53c7a7e9199b430","64e77d7b61f440b60e28659d","64eca31f4623ccd21e98cecc","null","null","<p style=""font-size: 60px; font-family: BACS"">dCtMAmAM</p>","","","","","","","","",""
"html-keyboard-response","146","551006","0.0-9.0-0.58","5fdf808af53c7a7e9199b430","64e77d7b61f440b60e28659d","64eca31f4623ccd21e98cecc","null","null","<p style=""font-size: 60px; font-family: BACS"">YJLcAvJQ</p>","","","","","","","","",""
"html-keyboard-response","147","552007","0.0-9.0-0.59","5fdf808af53c7a7e9199b430","64e77d7b61f440b60e28659d","64eca31f4623ccd21e98cecc","null","null","<p style=""font-size: 60px; font-family: BACS"">JAaGYLU</p>","","","","","","","","",""
"html-keyboard-response","148","553008","0.0-9.0-0.60","5fdf808af53c7a7e9199b430","64e77d7b61f440b60e28659d","64eca31f4623ccd21e98cecc","null","null","<p style=""font-size: 60px; font-family: BACS"">QcladYZUZ</p>","","","","","","","","",""
"html-keyboard-response","149","554011","0.0-9.0-0.61","5fdf808af53c7a7e9199b430","64e77d7b61f440b60e28659d","64eca31f4623ccd21e98cecc","null","null","<p style=""font-size: 60px; font-family: BACS"">tRdMdTAh</p>","","","","","","","","",""
"html-keyboard-response","150","555021","0.0-9.0-0.62","5fdf808af53c7a7e9199b430","64e77d7b61f440b60e28659d","64eca31f4623ccd21e98cecc","null","null","<p style=""font-size: 60px; font-family: BACS"">GJGcZYLU</p>","","","","","","","","",""
"html-keyboard-response","151","556030","0.0-9.0-0.63","5fdf808af53c7a7e9199b430","64e77d7b61f440b60e28659d","64eca31f4623ccd21e98cecc","null","null","<p style=""font-size: 60px; font-family: BACS"">BECkdRA</p>","","","","","","","","",""
"html-keyboard-response","152","557030","0.0-9.0-0.64","5fdf808af53c7a7e9199b430","64e77d7b61f440b60e28659d","64eca31f4623ccd21e98cecc","null","null","<p style=""font-size: 60px; font-family: BACS"">QcladYLU</p>","","","","","","","","",""
"html-keyboard-response","153","558032","0.0-9.0-0.65","5fdf808af53c7a7e9199b430","64e77d7b61f440b60e28659d","64eca31f4623ccd21e98cecc","null","null","<p style=""font-size: 60px; font-family: BACS"">YlYcBbM</p>","","","","","","","","",""
"html-keyboard-response","154","559033","0.0-9.0-0.66","5fdf808af53c7a7e9199b430","64e77d7b61f440b60e28659d","64eca31f4623ccd21e98cecc","null","null","<p style=""font-size: 60px; font-family: BACS"">tRdMhRKm</p>","","","","","","","","",""
"html-keyboard-response","155","560039","0.0-9.0-0.67","5fdf808af53c7a7e9199b430","64e77d7b61f440b60e28659d","64eca31f4623ccd21e98cecc","null","null","<p style=""font-size: 60px; font-family: BACS"">bROCdRA</p>","","","","","","","","",""
"html-keyboard-response","156","561046","0.0-9.0-0.68","5fdf808af53c7a7e9199b430","64e77d7b61f440b60e28659d","64eca31f4623ccd21e98cecc","null","null","<p style=""font-size: 60px; font-family: BACS"">PEtEdTAh</p>","","","","","","","","",""
"html-keyboard-response","157","562056","0.0-9.0-0.69","5fdf808af53c7a7e9199b430","64e77d7b61f440b60e28659d","64eca31f4623ccd21e98cecc","null","null","<p style=""font-size: 60px; font-family: BACS"">OYuvblvk</p>","","","","","","","","",""
"html-keyboard-response","158","563057","0.0-9.0-0.70","5fdf808af53c7a7e9199b430","64e77d7b61f440b60e28659d","64eca31f4623ccd21e98cecc","null","null","<p style=""font-size: 60px; font-family: BACS"">BECkdTAh</p>","","","","","","","","",""
"html-keyboard-response","159","564058","0.0-9.0-0.71","5fdf808af53c7a7e9199b430","64e77d7b61f440b60e28659d","64eca31f4623ccd21e98cecc","null","null","<p style=""font-size: 60px; font-family: BACS"">cAZulvk</p>","","","","","","","","",""
"html-keyboard-response","160","565059","0.0-9.0-0.72","5fdf808af53c7a7e9199b430","64e77d7b61f440b60e28659d","64eca31f4623ccd21e98cecc","null","null","<p style=""font-size: 60px; font-family: BACS"">bROCBbM</p>","","","","","","","","",""
"html-keyboard-response","161","566075","0.0-9.0-0.73","5fdf808af53c7a7e9199b430","64e77d7b61f440b60e28659d","64eca31f4623ccd21e98cecc","null","null","<p style=""font-size: 60px; font-family: BACS"">JAaGvJQ</p>","","","","","","","","",""
"html-keyboard-response","162","567077","0.0-9.0-0.74","5fdf808af53c7a7e9199b430","64e77d7b61f440b60e28659d","64eca31f4623ccd21e98cecc","null","null","<p style=""font-size: 60px; font-family: BACS"">rLkmcYUv</p>","","","","","","","","",""
"html-keyboard-response","163","568078","0.0-9.0-0.75","5fdf808af53c7a7e9199b430","64e77d7b61f440b60e28659d","64eca31f4623ccd21e98cecc","null","null","<p style=""font-size: 60px; font-family: BACS"">OdlNmYZUZ</p>","","","","","","","","",""
"html-keyboard-response","164","569091","0.0-9.0-0.76","5fdf808af53c7a7e9199b430","64e77d7b61f440b60e28659d","64eca31f4623ccd21e98cecc","null","null","<p style=""font-size: 60px; font-family: BACS"">cROMtBbM</p>","","","","","","","","",""
"html-keyboard-response","165","570098","0.0-9.0-0.77","5fdf808af53c7a7e9199b430","64e77d7b61f440b60e28659d","64eca31f4623ccd21e98cecc","null","null","<p style=""font-size: 60px; font-family: BACS"">rLkmYLU</p>","","","","","","","","",""
"html-keyboard-response","166","571099","0.0-9.0-0.78","5fdf808af53c7a7e9199b430","64e77d7b61f440b60e28659d","64eca31f4623ccd21e98cecc","null","null","<p style=""font-size: 60px; font-family: BACS"">YlYcmAM</p>","","","","","","","","",""
"html-keyboard-response","167","572100","0.0-9.0-0.79","5fdf808af53c7a7e9199b430","64e77d7b61f440b60e28659d","64eca31f4623ccd21e98cecc","null","null","<p style=""font-size: 60px; font-family: BACS"">hYDmtdTAh</p>","","","","","","","","",""
"html-keyboard-response","168","594415","0.0-10.0","5fdf808af53c7a7e9199b430","64e77d7b61f440b60e28659d","64eca31f4623ccd21e98cecc","22314"," ","<p>Great, you've seen the second block of words. You may now take a short break.</p>
      <p>Press the spacebar when you're ready to continue.</p>","","","","","","","","",""
"html-keyboard-response","169","595416","0.0-11.0-0.0","5fdf808af53c7a7e9199b430","64e77d7b61f440b60e28659d","64eca31f4623ccd21e98cecc","null","null","<p style=""font-size: 60px; font-family: BACS"">BECkdRA</p>","","","","","","","","",""
"html-keyboard-response","170","596418","0.0-11.0-0.1","5fdf808af53c7a7e9199b430","64e77d7b61f440b60e28659d","64eca31f4623ccd21e98cecc","null","null","<p style=""font-size: 60px; font-family: BACS"">OYuvblvk</p>","","","","","","","","",""
"html-keyboard-response","171","597433","0.0-11.0-0.2","5fdf808af53c7a7e9199b430","64e77d7b61f440b60e28659d","64eca31f4623ccd21e98cecc","null","null","<p style=""font-size: 60px; font-family: BACS"">YlYcBbM</p>","","","","","","","","",""
"html-keyboard-response","172","598434","0.0-11.0-0.3","5fdf808af53c7a7e9199b430","64e77d7b61f440b60e28659d","64eca31f4623ccd21e98cecc","null","null","<p style=""font-size: 60px; font-family: BACS"">hYDmtmAM</p>","","","","","","","","",""
"html-keyboard-response","173","599446","0.0-11.0-0.4","5fdf808af53c7a7e9199b430","64e77d7b61f440b60e28659d","64eca31f4623ccd21e98cecc","null","null","<p style=""font-size: 60px; font-family: BACS"">dCtMAdRA</p>","","","","","","","","",""
"html-keyboard-response","174","600447","0.0-11.0-0.5","5fdf808af53c7a7e9199b430","64e77d7b61f440b60e28659d","64eca31f4623ccd21e98cecc","null","null","<p style=""font-size: 60px; font-family: BACS"">BECkmAM</p>","","","","","","","","",""
"html-keyboard-response","175","601448","0.0-11.0-0.6","5fdf808af53c7a7e9199b430","64e77d7b61f440b60e28659d","64eca31f4623ccd21e98cecc","null","null","<p style=""font-size: 60px; font-family: BACS"">JAaGYZUZ</p>","","","","","","","","",""
"html-keyboard-response","176","602449","0.0-11.0-0.7","5fdf808af53c7a7e9199b430","64e77d7b61f440b60e28659d","64eca31f4623ccd21e98cecc","null","null","<p style=""font-size: 60px; font-family: BACS"">YJLcAvJQ</p>","","","","","","","","",""
"html-keyboard-response","177","603450","0.0-11.0-0.8","5fdf808af53c7a7e9199b430","64e77d7b61f440b60e28659d","64eca31f4623ccd21e98cecc","null","null","<p style=""font-size: 60px; font-family: BACS"">PEtEhRKm</p>","","","","","","","","",""
"html-keyboard-response","178","604451","0.0-11.0-0.9","5fdf808af53c7a7e9199b430","64e77d7b61f440b60e28659d","64eca31f4623ccd21e98cecc","null","null","<p style=""font-size: 60px; font-family: BACS"">YJLcAlvk</p>","","","","","","","","",""
"html-keyboard-response","179","605459","0.0-11.0-0.10","5fdf808af53c7a7e9199b430","64e77d7b61f440b60e28659d","64eca31f4623ccd21e98cecc","null","null","<p style=""font-size: 60px; font-family: BACS"">tRdMdRA</p>","","","","","","","","",""
"html-keyboard-response","180","606461","0.0-11.0-0.11","5fdf808af53c7a7e9199b430","64e77d7b61f440b60e28659d","64eca31f4623ccd21e98cecc","null","null","<p style=""font-size: 60px; font-family: BACS"">TEBKdTAh</p>","","","","","","","","",""
"html-keyboard-response","181","607462","0.0-11.0-0.12","5fdf808af53c7a7e9199b430","64e77d7b61f440b60e28659d","64eca31f4623ccd21e98cecc","null","null","<p style=""font-size: 60px; font-family: BACS"">GJGcZlvk</p>","","","","","","","","",""
"html-keyboard-response","182","608471","0.0-11.0-0.13","5fdf808af53c7a7e9199b430","64e77d7b61f440b60e28659d","64eca31f4623ccd21e98cecc","null","null","<p style=""font-size: 60px; font-family: BACS"">JAaGcYUv</p>","","","","","","","","",""
"html-keyboard-response","183","609472","0.0-11.0-0.14","5fdf808af53c7a7e9199b430","64e77d7b61f440b60e28659d","64eca31f4623ccd21e98cecc","null","null","<p style=""font-size: 60px; font-family: BACS"">YlYcmAM</p>","","","","","","","","",""
"html-keyboard-response","184","610485","0.0-11.0-0.15","5fdf808af53c7a7e9199b430","64e77d7b61f440b60e28659d","64eca31f4623ccd21e98cecc","null","null","<p style=""font-size: 60px; font-family: BACS"">TEBKdRA</p>","","","","","","","","",""
"html-keyboard-response","185","611495","0.0-11.0-0.16","5fdf808af53c7a7e9199b430","64e77d7b61f440b60e28659d","64eca31f4623ccd21e98cecc","null","null","<p style=""font-size: 60px; font-family: BACS"">BKDRYdTAh</p>","","","","","","","","",""
"html-keyboard-response","186","612500","0.0-11.0-0.17","5fdf808af53c7a7e9199b430","64e77d7b61f440b60e28659d","64eca31f4623ccd21e98cecc","null","null","<p style=""font-size: 60px; font-family: BACS"">YlYchRKm</p>","","","","","","","","",""
"html-keyboard-response","187","613501","0.0-11.0-0.18","5fdf808af53c7a7e9199b430","64e77d7b61f440b60e28659d","64eca31f4623ccd21e98cecc","null","null","<p style=""font-size: 60px; font-family: BACS"">dCtMAdTAh</p>","","","","","","","","",""
"html-keyboard-response","188","614506","0.0-11.0-0.19","5fdf808af53c7a7e9199b430","64e77d7b61f440b60e28659d","64eca31f4623ccd21e98cecc","null","null","<p style=""font-size: 60px; font-family: BACS"">QcladvJQ</p>","","","","","","","","",""
"html-keyboard-response","189","615515","0.0-11.0-0.20","5fdf808af53c7a7e9199b430","64e77d7b61f440b60e28659d","64eca31f4623ccd21e98cecc","null","null","<p style=""font-size: 60px; font-family: BACS"">TEBKmAM</p>","","","","","","","","",""
"html-keyboard-response","190","616522","0.0-11.0-0.21","5fdf808af53c7a7e9199b430","64e77d7b61f440b60e28659d","64eca31f4623ccd21e98cecc","null","null","<p style=""font-size: 60px; font-family: BACS"">rLkmcYUv</p>","","","","","","","","",""
"html-keyboard-response","191","617530","0.0-11.0-0.22","5fdf808af53c7a7e9199b430","64e77d7b61f440b60e28659d","64eca31f4623ccd21e98cecc","null","null","<p style=""font-size: 60px; font-family: BACS"">hYDmtdRA</p>","","","","","","","","",""
"html-keyboard-response","192","618537","0.0-11.0-0.23","5fdf808af53c7a7e9199b430","64e77d7b61f440b60e28659d","64eca31f4623ccd21e98cecc","null","null","<p style=""font-size: 60px; font-family: BACS"">cROMtBbM</p>","","","","","","","","",""
"html-keyboard-response","193","619538","0.0-11.0-0.24","5fdf808af53c7a7e9199b430","64e77d7b61f440b60e28659d","64eca31f4623ccd21e98cecc","null","null","<p style=""font-size: 60px; font-family: BACS"">OYuvbYLU</p>","","","","","","","","",""
"html-keyboard-response","194","620540","0.0-11.0-0.25","5fdf808af53c7a7e9199b430","64e77d7b61f440b60e28659d","64eca31f4623ccd21e98cecc","null","null","<p style=""font-size: 60px; font-family: BACS"">Qcladlvk</p>","","","","","","","","",""
"html-keyboard-response","195","621541","0.0-11.0-0.26","5fdf808af53c7a7e9199b430","64e77d7b61f440b60e28659d","64eca31f4623ccd21e98cecc","null","null","<p style=""font-size: 60px; font-family: BACS"">hYDmtdTAh</p>","","","","","","","","",""
"html-keyboard-response","196","622542","0.0-11.0-0.27","5fdf808af53c7a7e9199b430","64e77d7b61f440b60e28659d","64eca31f4623ccd21e98cecc","null","null","<p style=""font-size: 60px; font-family: BACS"">PEtEmAM</p>","","","","","","","","",""
"html-keyboard-response","197","623543","0.0-11.0-0.28","5fdf808af53c7a7e9199b430","64e77d7b61f440b60e28659d","64eca31f4623ccd21e98cecc","null","null","<p style=""font-size: 60px; font-family: BACS"">dCtMABbM</p>","","","","","","","","",""
"html-keyboard-response","198","624545","0.0-11.0-0.29","5fdf808af53c7a7e9199b430","64e77d7b61f440b60e28659d","64eca31f4623ccd21e98cecc","null","null","<p style=""font-size: 60px; font-family: BACS"">JAaGvJQ</p>","","","","","","","","",""
"html-keyboard-response","199","625545","0.0-11.0-0.30","5fdf808af53c7a7e9199b430","64e77d7b61f440b60e28659d","64eca31f4623ccd21e98cecc","null","null","<p style=""font-size: 60px; font-family: BACS"">PEtEdTAh</p>","","","","","","","","",""
"html-keyboard-response","200","626546","0.0-11.0-0.31","5fdf808af53c7a7e9199b430","64e77d7b61f440b60e28659d","64eca31f4623ccd21e98cecc","null","null","<p style=""font-size: 60px; font-family: BACS"">bROCdRA</p>","","","","","","","","",""
"html-keyboard-response","201","627547","0.0-11.0-0.32","5fdf808af53c7a7e9199b430","64e77d7b61f440b60e28659d","64eca31f4623ccd21e98cecc","null","null","<p style=""font-size: 60px; font-family: BACS"">damYbYLU</p>","","","","","","","","",""
"html-keyboard-response","202","628561","0.0-11.0-0.33","5fdf808af53c7a7e9199b430","64e77d7b61f440b60e28659d","64eca31f4623ccd21e98cecc","null","null","<p style=""font-size: 60px; font-family: BACS"">rLkmvJQ</p>","","","","","","","","",""
"html-keyboard-response","203","629561","0.0-11.0-0.34","5fdf808af53c7a7e9199b430","64e77d7b61f440b60e28659d","64eca31f4623ccd21e98cecc","null","null","<p style=""font-size: 60px; font-family: BACS"">YlYcdRA</p>","","","","","","","","",""
"html-keyboard-response","204","630562","0.0-11.0-0.35","5fdf808af53c7a7e9199b430","64e77d7b61f440b60e28659d","64eca31f4623ccd21e98cecc","null","null","<p style=""font-size: 60px; font-family: BACS"">cAZulvk</p>","","","","","","","","",""
"html-keyboard-response","205","631570","0.0-11.0-0.36","5fdf808af53c7a7e9199b430","64e77d7b61f440b60e28659d","64eca31f4623ccd21e98cecc","null","null","<p style=""font-size: 60px; font-family: BACS"">OdlNmYZUZ</p>","","","","","","","","",""
"html-keyboard-response","206","632571","0.0-11.0-0.37","5fdf808af53c7a7e9199b430","64e77d7b61f440b60e28659d","64eca31f4623ccd21e98cecc","null","null","<p style=""font-size: 60px; font-family: BACS"">BKDRYBbM</p>","","","","","","","","",""
"html-keyboard-response","207","633583","0.0-11.0-0.38","5fdf808af53c7a7e9199b430","64e77d7b61f440b60e28659d","64eca31f4623ccd21e98cecc","null","null","<p style=""font-size: 60px; font-family: BACS"">GJGcZYZUZ</p>","","","","","","","","",""
"html-keyboard-response","208","634584","0.0-11.0-0.39","5fdf808af53c7a7e9199b430","64e77d7b61f440b60e28659d","64eca31f4623ccd21e98cecc","null","null","<p style=""font-size: 60px; font-family: BACS"">YJLcAcYUv</p>","","","","","","","","",""
"html-keyboard-response","209","635586","0.0-11.0-0.40","5fdf808af53c7a7e9199b430","64e77d7b61f440b60e28659d","64eca31f4623ccd21e98cecc","null","null","<p style=""font-size: 60px; font-family: BACS"">tRdMdTAh</p>","","","","","","","","",""
"html-keyboard-response","210","636597","0.0-11.0-0.41","5fdf808af53c7a7e9199b430","64e77d7b61f440b60e28659d","64eca31f4623ccd21e98cecc","null","null","<p style=""font-size: 60px; font-family: BACS"">damYblvk</p>","","","","","","","","",""
"html-keyboard-response","211","637601","0.0-11.0-0.42","5fdf808af53c7a7e9199b430","64e77d7b61f440b60e28659d","64eca31f4623ccd21e98cecc","null","null","<p style=""font-size: 60px; font-family: BACS"">OdlNmYLU</p>","","","","","","","","",""
"html-keyboard-response","212","638603","0.0-11.0-0.43","5fdf808af53c7a7e9199b430","64e77d7b61f440b60e28659d","64eca31f4623ccd21e98cecc","null","null","<p style=""font-size: 60px; font-family: BACS"">OYuvbYZUZ</p>","","","","","","","","",""
"html-keyboard-response","213","639604","0.0-11.0-0.44","5fdf808af53c7a7e9199b430","64e77d7b61f440b60e28659d","64eca31f4623ccd21e98cecc","null","null","<p style=""font-size: 60px; font-family: BACS"">bROChRKm</p>","","","","","","","","",""
"html-keyboard-response","214","640605","0.0-11.0-0.45","5fdf808af53c7a7e9199b430","64e77d7b61f440b60e28659d","64eca31f4623ccd21e98cecc","null","null","<p style=""font-size: 60px; font-family: BACS"">bvuZlvk</p>","","","","","","","","",""
"html-keyboard-response","215","641616","0.0-11.0-0.46","5fdf808af53c7a7e9199b430","64e77d7b61f440b60e28659d","64eca31f4623ccd21e98cecc","null","null","<p style=""font-size: 60px; font-family: BACS"">damYbvJQ</p>","","","","","","","","",""
"html-keyboard-response","216","642623","0.0-11.0-0.47","5fdf808af53c7a7e9199b430","64e77d7b61f440b60e28659d","64eca31f4623ccd21e98cecc","null","null","<p style=""font-size: 60px; font-family: BACS"">BKDRYhRKm</p>","","","","","","","","",""
"html-keyboard-response","217","643631","0.0-11.0-0.48","5fdf808af53c7a7e9199b430","64e77d7b61f440b60e28659d","64eca31f4623ccd21e98cecc","null","null","<p style=""font-size: 60px; font-family: BACS"">OdlNmcYUv</p>","","","","","","","","",""
"html-keyboard-response","218","644638","0.0-11.0-0.49","5fdf808af53c7a7e9199b430","64e77d7b61f440b60e28659d","64eca31f4623ccd21e98cecc","null","null","<p style=""font-size: 60px; font-family: BACS"">hYDmthRKm</p>","","","","","","","","",""
"html-keyboard-response","219","645639","0.0-11.0-0.50","5fdf808af53c7a7e9199b430","64e77d7b61f440b60e28659d","64eca31f4623ccd21e98cecc","null","null","<p style=""font-size: 60px; font-family: BACS"">YJLcAYZUZ</p>","","","","","","","","",""
"html-keyboard-response","220","646641","0.0-11.0-0.51","5fdf808af53c7a7e9199b430","64e77d7b61f440b60e28659d","64eca31f4623ccd21e98cecc","null","null","<p style=""font-size: 60px; font-family: BACS"">BKDRYmAM</p>","","","","","","","","",""
"html-keyboard-response","221","647642","0.0-11.0-0.52","5fdf808af53c7a7e9199b430","64e77d7b61f440b60e28659d","64eca31f4623ccd21e98cecc","null","null","<p style=""font-size: 60px; font-family: BACS"">PEtEBbM</p>","","","","","","","","",""
"html-keyboard-response","222","648643","0.0-11.0-0.53","5fdf808af53c7a7e9199b430","64e77d7b61f440b60e28659d","64eca31f4623ccd21e98cecc","null","null","<p style=""font-size: 60px; font-family: BACS"">cROMtdRA</p>","","","","","","","","",""
"html-keyboard-response","223","649656","0.0-11.0-0.54","5fdf808af53c7a7e9199b430","64e77d7b61f440b60e28659d","64eca31f4623ccd21e98cecc","null","null","<p style=""font-size: 60px; font-family: BACS"">BECkBbM</p>","","","","","","","","",""
"html-keyboard-response","224","650668","0.0-11.0-0.55","5fdf808af53c7a7e9199b430","64e77d7b61f440b60e28659d","64eca31f4623ccd21e98cecc","null","null","<p style=""font-size: 60px; font-family: BACS"">bvuZYLU</p>","","","","","","","","",""
"html-keyboard-response","225","651670","0.0-11.0-0.56","5fdf808af53c7a7e9199b430","64e77d7b61f440b60e28659d","64eca31f4623ccd21e98cecc","null","null","<p style=""font-size: 60px; font-family: BACS"">cAZuvJQ</p>","","","","","","","","",""
"html-keyboard-response","226","652685","0.0-11.0-0.57","5fdf808af53c7a7e9199b430","64e77d7b61f440b60e28659d","64eca31f4623ccd21e98cecc","null","null","<p style=""font-size: 60px; font-family: BACS"">cROMtmAM</p>","","","","","","","","",""
"html-keyboard-response","227","653687","0.0-11.0-0.58","5fdf808af53c7a7e9199b430","64e77d7b61f440b60e28659d","64eca31f4623ccd21e98cecc","null","null","<p style=""font-size: 60px; font-family: BACS"">cAZuYZUZ</p>","","","","","","","","",""
"html-keyboard-response","228","654688","0.0-11.0-0.59","5fdf808af53c7a7e9199b430","64e77d7b61f440b60e28659d","64eca31f4623ccd21e98cecc","null","null","<p style=""font-size: 60px; font-family: BACS"">tRdMhRKm</p>","","","","","","","","",""
"html-keyboard-response","229","655699","0.0-11.0-0.60","5fdf808af53c7a7e9199b430","64e77d7b61f440b60e28659d","64eca31f4623ccd21e98cecc","null","null","<p style=""font-size: 60px; font-family: BACS"">bROCBbM</p>","","","","","","","","",""
"html-keyboard-response","230","656701","0.0-11.0-0.61","5fdf808af53c7a7e9199b430","64e77d7b61f440b60e28659d","64eca31f4623ccd21e98cecc","null","null","<p style=""font-size: 60px; font-family: BACS"">bvuZcYUv</p>","","","","","","","","",""
"html-keyboard-response","231","657703","0.0-11.0-0.62","5fdf808af53c7a7e9199b430","64e77d7b61f440b60e28659d","64eca31f4623ccd21e98cecc","null","null","<p style=""font-size: 60px; font-family: BACS"">OdlNmvJQ</p>","","","","","","","","",""
"html-keyboard-response","232","658705","0.0-11.0-0.63","5fdf808af53c7a7e9199b430","64e77d7b61f440b60e28659d","64eca31f4623ccd21e98cecc","null","null","<p style=""font-size: 60px; font-family: BACS"">tRdMBbM</p>","","","","","","","","",""
"html-keyboard-response","233","659720","0.0-11.0-0.64","5fdf808af53c7a7e9199b430","64e77d7b61f440b60e28659d","64eca31f4623ccd21e98cecc","null","null","<p style=""font-size: 60px; font-family: BACS"">cROMthRKm</p>","","","","","","","","",""
"html-keyboard-response","234","660724","0.0-11.0-0.65","5fdf808af53c7a7e9199b430","64e77d7b61f440b60e28659d","64eca31f4623ccd21e98cecc","null","null","<p style=""font-size: 60px; font-family: BACS"">bROCdTAh</p>","","","","","","","","",""
"html-keyboard-response","235","661735","0.0-11.0-0.66","5fdf808af53c7a7e9199b430","64e77d7b61f440b60e28659d","64eca31f4623ccd21e98cecc","null","null","<p style=""font-size: 60px; font-family: BACS"">TEBKhRKm</p>","","","","","","","","",""
"html-keyboard-response","236","662736","0.0-11.0-0.67","5fdf808af53c7a7e9199b430","64e77d7b61f440b60e28659d","64eca31f4623ccd21e98cecc","null","null","<p style=""font-size: 60px; font-family: BACS"">JAaGYLU</p>","","","","","","","","",""
"html-keyboard-response","237","663749","0.0-11.0-0.68","5fdf808af53c7a7e9199b430","64e77d7b61f440b60e28659d","64eca31f4623ccd21e98cecc","null","null","<p style=""font-size: 60px; font-family: BACS"">damYbcYUv</p>","","","","","","","","",""
"html-keyboard-response","238","664750","0.0-11.0-0.69","5fdf808af53c7a7e9199b430","64e77d7b61f440b60e28659d","64eca31f4623ccd21e98cecc","null","null","<p style=""font-size: 60px; font-family: BACS"">rLkmlvk</p>","","","","","","","","",""
"html-keyboard-response","239","665751","0.0-11.0-0.70","5fdf808af53c7a7e9199b430","64e77d7b61f440b60e28659d","64eca31f4623ccd21e98cecc","null","null","<p style=""font-size: 60px; font-family: BACS"">BECkdTAh</p>","","","","","","","","",""
"html-keyboard-response","240","666752","0.0-11.0-0.71","5fdf808af53c7a7e9199b430","64e77d7b61f440b60e28659d","64eca31f4623ccd21e98cecc","null","null","<p style=""font-size: 60px; font-family: BACS"">QcladYZUZ</p>","","","","","","","","",""
"html-keyboard-response","241","667754","0.0-11.0-0.72","5fdf808af53c7a7e9199b430","64e77d7b61f440b60e28659d","64eca31f4623ccd21e98cecc","null","null","<p style=""font-size: 60px; font-family: BACS"">GJGcZvJQ</p>","","","","","","","","",""
"html-keyboard-response","242","668755","0.0-11.0-0.73","5fdf808af53c7a7e9199b430","64e77d7b61f440b60e28659d","64eca31f4623ccd21e98cecc","null","null","<p style=""font-size: 60px; font-family: BACS"">cAZucYUv</p>","","","","","","","","",""
"html-keyboard-response","243","669756","0.0-11.0-0.74","5fdf808af53c7a7e9199b430","64e77d7b61f440b60e28659d","64eca31f4623ccd21e98cecc","null","null","<p style=""font-size: 60px; font-family: BACS"">QcladYLU</p>","","","","","","","","",""
"html-keyboard-response","244","670757","0.0-11.0-0.75","5fdf808af53c7a7e9199b430","64e77d7b61f440b60e28659d","64eca31f4623ccd21e98cecc","null","null","<p style=""font-size: 60px; font-family: BACS"">dCtMAmAM</p>","","","","","","","","",""
"html-keyboard-response","245","671759","0.0-11.0-0.76","5fdf808af53c7a7e9199b430","64e77d7b61f440b60e28659d","64eca31f4623ccd21e98cecc","null","null","<p style=""font-size: 60px; font-family: BACS"">GJGcZYLU</p>","","","","","","","","",""
"html-keyboard-response","246","672760","0.0-11.0-0.77","5fdf808af53c7a7e9199b430","64e77d7b61f440b60e28659d","64eca31f4623ccd21e98cecc","null","null","<p style=""font-size: 60px; font-family: BACS"">OYuvbcYUv</p>","","","","","","","","",""
"html-keyboard-response","247","673761","0.0-11.0-0.78","5fdf808af53c7a7e9199b430","64e77d7b61f440b60e28659d","64eca31f4623ccd21e98cecc","null","null","<p style=""font-size: 60px; font-family: BACS"">bvuZYZUZ</p>","","","","","","","","",""
"html-keyboard-response","248","674762","0.0-11.0-0.79","5fdf808af53c7a7e9199b430","64e77d7b61f440b60e28659d","64eca31f4623ccd21e98cecc","null","null","<p style=""font-size: 60px; font-family: BACS"">rLkmYLU</p>","","","","","","","","",""
"html-keyboard-response","249","774595","0.0-12.0","5fdf808af53c7a7e9199b430","64e77d7b61f440b60e28659d","64eca31f4623ccd21e98cecc","99832"," ","<p>Great, you've seen the third block of words. You may now take a short break.</p>
      <p>Press the spacebar when you're ready to continue.</p>","","","","","","","","",""
"html-keyboard-response","250","775601","0.0-13.0-0.0","5fdf808af53c7a7e9199b430","64e77d7b61f440b60e28659d","64eca31f4623ccd21e98cecc","null","null","<p style=""font-size: 60px; font-family: BACS"">tRdMhRKm</p>","","","","","","","","",""
"html-keyboard-response","251","776611","0.0-13.0-0.1","5fdf808af53c7a7e9199b430","64e77d7b61f440b60e28659d","64eca31f4623ccd21e98cecc","null","null","<p style=""font-size: 60px; font-family: BACS"">YlYcBbM</p>","","","","","","","","",""
"html-keyboard-response","252","777612","0.0-13.0-0.2","5fdf808af53c7a7e9199b430","64e77d7b61f440b60e28659d","64eca31f4623ccd21e98cecc","null","null","<p style=""font-size: 60px; font-family: BACS"">TEBKdRA</p>","","","","","","","","",""
"html-keyboard-response","253","778619","0.0-13.0-0.3","5fdf808af53c7a7e9199b430","64e77d7b61f440b60e28659d","64eca31f4623ccd21e98cecc","null","null","<p style=""font-size: 60px; font-family: BACS"">PEtEBbM</p>","","","","","","","","",""
"html-keyboard-response","254","779633","0.0-13.0-0.4","5fdf808af53c7a7e9199b430","64e77d7b61f440b60e28659d","64eca31f4623ccd21e98cecc","null","null","<p style=""font-size: 60px; font-family: BACS"">cAZuYZUZ</p>","","","","","","","","",""
"html-keyboard-response","255","780634","0.0-13.0-0.5","5fdf808af53c7a7e9199b430","64e77d7b61f440b60e28659d","64eca31f4623ccd21e98cecc","null","null","<p style=""font-size: 60px; font-family: BACS"">damYbcYUv</p>","","","","","","","","",""
"html-keyboard-response","256","781635","0.0-13.0-0.6","5fdf808af53c7a7e9199b430","64e77d7b61f440b60e28659d","64eca31f4623ccd21e98cecc","null","null","<p style=""font-size: 60px; font-family: BACS"">cROMthRKm</p>","","","","","","","","",""
"html-keyboard-response","257","782649","0.0-13.0-0.7","5fdf808af53c7a7e9199b430","64e77d7b61f440b60e28659d","64eca31f4623ccd21e98cecc","null","null","<p style=""font-size: 60px; font-family: BACS"">bROCdTAh</p>","","","","","","","","",""
"html-keyboard-response","258","783657","0.0-13.0-0.8","5fdf808af53c7a7e9199b430","64e77d7b61f440b60e28659d","64eca31f4623ccd21e98cecc","null","null","<p style=""font-size: 60px; font-family: BACS"">OdlNmvJQ</p>","","","","","","","","",""
"html-keyboard-response","259","784670","0.0-13.0-0.9","5fdf808af53c7a7e9199b430","64e77d7b61f440b60e28659d","64eca31f4623ccd21e98cecc","null","null","<p style=""font-size: 60px; font-family: BACS"">BECkdTAh</p>","","","","","","","","",""
"html-keyboard-response","260","785679","0.0-13.0-0.10","5fdf808af53c7a7e9199b430","64e77d7b61f440b60e28659d","64eca31f4623ccd21e98cecc","null","null","<p style=""font-size: 60px; font-family: BACS"">cROMtdRA</p>","","","","","","","","",""
"html-keyboard-response","261","786680","0.0-13.0-0.11","5fdf808af53c7a7e9199b430","64e77d7b61f440b60e28659d","64eca31f4623ccd21e98cecc","null","null","<p style=""font-size: 60px; font-family: BACS"">YlYcmAM</p>","","","","","","","","",""
"html-keyboard-response","262","787688","0.0-13.0-0.12","5fdf808af53c7a7e9199b430","64e77d7b61f440b60e28659d","64eca31f4623ccd21e98cecc","null","null","<p style=""font-size: 60px; font-family: BACS"">QcladYLU</p>","","","","","","","","",""
"html-keyboard-response","263","788697","0.0-13.0-0.13","5fdf808af53c7a7e9199b430","64e77d7b61f440b60e28659d","64eca31f4623ccd21e98cecc","null","null","<p style=""font-size: 60px; font-family: BACS"">bvuZlvk</p>","","","","","","","","",""
"html-keyboard-response","264","789703","0.0-13.0-0.14","5fdf808af53c7a7e9199b430","64e77d7b61f440b60e28659d","64eca31f4623ccd21e98cecc","null","null","<p style=""font-size: 60px; font-family: BACS"">OYuvbYLU</p>","","","","","","","","",""
"html-keyboard-response","265","790717","0.0-13.0-0.15","5fdf808af53c7a7e9199b430","64e77d7b61f440b60e28659d","64eca31f4623ccd21e98cecc","null","null","<p style=""font-size: 60px; font-family: BACS"">GJGcZlvk</p>","","","","","","","","",""
"html-keyboard-response","266","791724","0.0-13.0-0.16","5fdf808af53c7a7e9199b430","64e77d7b61f440b60e28659d","64eca31f4623ccd21e98cecc","null","null","<p style=""font-size: 60px; font-family: BACS"">dCtMAdTAh</p>","","","","","","","","",""
"html-keyboard-response","267","792733","0.0-13.0-0.17","5fdf808af53c7a7e9199b430","64e77d7b61f440b60e28659d","64eca31f4623ccd21e98cecc","null","null","<p style=""font-size: 60px; font-family: BACS"">YJLcAYZUZ</p>","","","","","","","","",""
"html-keyboard-response","268","793741","0.0-13.0-0.18","5fdf808af53c7a7e9199b430","64e77d7b61f440b60e28659d","64eca31f4623ccd21e98cecc","null","null","<p style=""font-size: 60px; font-family: BACS"">rLkmYLU</p>","","","","","","","","",""
"html-keyboard-response","269","794754","0.0-13.0-0.19","5fdf808af53c7a7e9199b430","64e77d7b61f440b60e28659d","64eca31f4623ccd21e98cecc","null","null","<p style=""font-size: 60px; font-family: BACS"">BKDRYdTAh</p>","","","","","","","","",""
"html-keyboard-response","270","795755","0.0-13.0-0.20","5fdf808af53c7a7e9199b430","64e77d7b61f440b60e28659d","64eca31f4623ccd21e98cecc","null","null","<p style=""font-size: 60px; font-family: BACS"">dCtMAdRA</p>","","","","","","","","",""
"html-keyboard-response","271","796756","0.0-13.0-0.21","5fdf808af53c7a7e9199b430","64e77d7b61f440b60e28659d","64eca31f4623ccd21e98cecc","null","null","<p style=""font-size: 60px; font-family: BACS"">PEtEmAM</p>","","","","","","","","",""
"html-keyboard-response","272","797766","0.0-13.0-0.22","5fdf808af53c7a7e9199b430","64e77d7b61f440b60e28659d","64eca31f4623ccd21e98cecc","null","null","<p style=""font-size: 60px; font-family: BACS"">bROChRKm</p>","","","","","","","","",""
"html-keyboard-response","273","798767","0.0-13.0-0.23","5fdf808af53c7a7e9199b430","64e77d7b61f440b60e28659d","64eca31f4623ccd21e98cecc","null","null","<p style=""font-size: 60px; font-family: BACS"">rLkmcYUv</p>","","","","","","","","",""
"html-keyboard-response","274","799770","0.0-13.0-0.24","5fdf808af53c7a7e9199b430","64e77d7b61f440b60e28659d","64eca31f4623ccd21e98cecc","null","null","<p style=""font-size: 60px; font-family: BACS"">cAZulvk</p>","","","","","","","","",""
"html-keyboard-response","275","800771","0.0-13.0-0.25","5fdf808af53c7a7e9199b430","64e77d7b61f440b60e28659d","64eca31f4623ccd21e98cecc","null","null","<p style=""font-size: 60px; font-family: BACS"">bvuZcYUv</p>","","","","","","","","",""
"html-keyboard-response","276","801772","0.0-13.0-0.26","5fdf808af53c7a7e9199b430","64e77d7b61f440b60e28659d","64eca31f4623ccd21e98cecc","null","null","<p style=""font-size: 60px; font-family: BACS"">hYDmtdRA</p>","","","","","","","","",""
"html-keyboard-response","277","802773","0.0-13.0-0.27","5fdf808af53c7a7e9199b430","64e77d7b61f440b60e28659d","64eca31f4623ccd21e98cecc","null","null","<p style=""font-size: 60px; font-family: BACS"">damYbvJQ</p>","","","","","","","","",""
"html-keyboard-response","278","803788","0.0-13.0-0.28","5fdf808af53c7a7e9199b430","64e77d7b61f440b60e28659d","64eca31f4623ccd21e98cecc","null","null","<p style=""font-size: 60px; font-family: BACS"">BECkmAM</p>","","","","","","","","",""
"html-keyboard-response","279","804789","0.0-13.0-0.29","5fdf808af53c7a7e9199b430","64e77d7b61f440b60e28659d","64eca31f4623ccd21e98cecc","null","null","<p style=""font-size: 60px; font-family: BACS"">JAaGYZUZ</p>","","","","","","","","",""
"html-keyboard-response","280","805803","0.0-13.0-0.30","5fdf808af53c7a7e9199b430","64e77d7b61f440b60e28659d","64eca31f4623ccd21e98cecc","null","null","<p style=""font-size: 60px; font-family: BACS"">tRdMdRA</p>","","","","","","","","",""
"html-keyboard-response","281","806804","0.0-13.0-0.31","5fdf808af53c7a7e9199b430","64e77d7b61f440b60e28659d","64eca31f4623ccd21e98cecc","null","null","<p style=""font-size: 60px; font-family: BACS"">OYuvbYZUZ</p>","","","","","","","","",""
"html-keyboard-response","282","807806","0.0-13.0-0.32","5fdf808af53c7a7e9199b430","64e77d7b61f440b60e28659d","64eca31f4623ccd21e98cecc","null","null","<p style=""font-size: 60px; font-family: BACS"">QcladvJQ</p>","","","","","","","","",""
"html-keyboard-response","283","808815","0.0-13.0-0.33","5fdf808af53c7a7e9199b430","64e77d7b61f440b60e28659d","64eca31f4623ccd21e98cecc","null","null","<p style=""font-size: 60px; font-family: BACS"">OdlNmcYUv</p>","","","","","","","","",""
"html-keyboard-response","284","809815","0.0-13.0-0.34","5fdf808af53c7a7e9199b430","64e77d7b61f440b60e28659d","64eca31f4623ccd21e98cecc","null","null","<p style=""font-size: 60px; font-family: BACS"">QcladYZUZ</p>","","","","","","","","",""
"html-keyboard-response","285","810816","0.0-13.0-0.35","5fdf808af53c7a7e9199b430","64e77d7b61f440b60e28659d","64eca31f4623ccd21e98cecc","null","null","<p style=""font-size: 60px; font-family: BACS"">PEtEhRKm</p>","","","","","","","","",""
"html-keyboard-response","286","811831","0.0-13.0-0.36","5fdf808af53c7a7e9199b430","64e77d7b61f440b60e28659d","64eca31f4623ccd21e98cecc","null","null","<p style=""font-size: 60px; font-family: BACS"">GJGcZYZUZ</p>","","","","","","","","",""
"html-keyboard-response","287","812832","0.0-13.0-0.37","5fdf808af53c7a7e9199b430","64e77d7b61f440b60e28659d","64eca31f4623ccd21e98cecc","null","null","<p style=""font-size: 60px; font-family: BACS"">YJLcAlvk</p>","","","","","","","","",""
"html-keyboard-response","288","813833","0.0-13.0-0.38","5fdf808af53c7a7e9199b430","64e77d7b61f440b60e28659d","64eca31f4623ccd21e98cecc","null","null","<p style=""font-size: 60px; font-family: BACS"">dCtMABbM</p>","","","","","","","","",""
"html-keyboard-response","289","814840","0.0-13.0-0.39","5fdf808af53c7a7e9199b430","64e77d7b61f440b60e28659d","64eca31f4623ccd21e98cecc","null","null","<p style=""font-size: 60px; font-family: BACS"">OdlNmYZUZ</p>","","","","","","","","",""
"html-keyboard-response","290","815850","0.0-13.0-0.40","5fdf808af53c7a7e9199b430","64e77d7b61f440b60e28659d","64eca31f4623ccd21e98cecc","null","null","<p style=""font-size: 60px; font-family: BACS"">YJLcAvJQ</p>","","","","","","","","",""
"html-keyboard-response","291","816858","0.0-13.0-0.41","5fdf808af53c7a7e9199b430","64e77d7b61f440b60e28659d","64eca31f4623ccd21e98cecc","null","null","<p style=""font-size: 60px; font-family: BACS"">JAaGcYUv</p>","","","","","","","","",""
"html-keyboard-response","292","817864","0.0-13.0-0.42","5fdf808af53c7a7e9199b430","64e77d7b61f440b60e28659d","64eca31f4623ccd21e98cecc","null","null","<p style=""font-size: 60px; font-family: BACS"">cAZuvJQ</p>","","","","","","","","",""
"html-keyboard-response","293","818866","0.0-13.0-0.43","5fdf808af53c7a7e9199b430","64e77d7b61f440b60e28659d","64eca31f4623ccd21e98cecc","null","null","<p style=""font-size: 60px; font-family: BACS"">hYDmtdTAh</p>","","","","","","","","",""
"html-keyboard-response","294","819867","0.0-13.0-0.44","5fdf808af53c7a7e9199b430","64e77d7b61f440b60e28659d","64eca31f4623ccd21e98cecc","null","null","<p style=""font-size: 60px; font-family: BACS"">YlYchRKm</p>","","","","","","","","",""
"html-keyboard-response","295","820868","0.0-13.0-0.45","5fdf808af53c7a7e9199b430","64e77d7b61f440b60e28659d","64eca31f4623ccd21e98cecc","null","null","<p style=""font-size: 60px; font-family: BACS"">YJLcAcYUv</p>","","","","","","","","",""
"html-keyboard-response","296","821869","0.0-13.0-0.46","5fdf808af53c7a7e9199b430","64e77d7b61f440b60e28659d","64eca31f4623ccd21e98cecc","null","null","<p style=""font-size: 60px; font-family: BACS"">bvuZYLU</p>","","","","","","","","",""
"html-keyboard-response","297","822871","0.0-13.0-0.47","5fdf808af53c7a7e9199b430","64e77d7b61f440b60e28659d","64eca31f4623ccd21e98cecc","null","null","<p style=""font-size: 60px; font-family: BACS"">PEtEdTAh</p>","","","","","","","","",""
"html-keyboard-response","298","823872","0.0-13.0-0.48","5fdf808af53c7a7e9199b430","64e77d7b61f440b60e28659d","64eca31f4623ccd21e98cecc","null","null","<p style=""font-size: 60px; font-family: BACS"">OYuvbcYUv</p>","","","","","","","","",""
"html-keyboard-response","299","824876","0.0-13.0-0.49","5fdf808af53c7a7e9199b430","64e77d7b61f440b60e28659d","64eca31f4623ccd21e98cecc","null","null","<p style=""font-size: 60px; font-family: BACS"">BECkBbM</p>","","","","","","","","",""
"html-keyboard-response","300","825878","0.0-13.0-0.50","5fdf808af53c7a7e9199b430","64e77d7b61f440b60e28659d","64eca31f4623ccd21e98cecc","null","null","<p style=""font-size: 60px; font-family: BACS"">hYDmtmAM</p>","","","","","","","","",""
"html-keyboard-response","301","826879","0.0-13.0-0.51","5fdf808af53c7a7e9199b430","64e77d7b61f440b60e28659d","64eca31f4623ccd21e98cecc","null","null","<p style=""font-size: 60px; font-family: BACS"">JAaGYLU</p>","","","","","","","","",""
"html-keyboard-response","302","827885","0.0-13.0-0.52","5fdf808af53c7a7e9199b430","64e77d7b61f440b60e28659d","64eca31f4623ccd21e98cecc","null","null","<p style=""font-size: 60px; font-family: BACS"">BECkdRA</p>","","","","","","","","",""
"html-keyboard-response","303","828893","0.0-13.0-0.53","5fdf808af53c7a7e9199b430","64e77d7b61f440b60e28659d","64eca31f4623ccd21e98cecc","null","null","<p style=""font-size: 60px; font-family: BACS"">cROMtmAM</p>","","","","","","","","",""
"html-keyboard-response","304","829895","0.0-13.0-0.54","5fdf808af53c7a7e9199b430","64e77d7b61f440b60e28659d","64eca31f4623ccd21e98cecc","null","null","<p style=""font-size: 60px; font-family: BACS"">OYuvblvk</p>","","","","","","","","",""
"html-keyboard-response","305","830907","0.0-13.0-0.55","5fdf808af53c7a7e9199b430","64e77d7b61f440b60e28659d","64eca31f4623ccd21e98cecc","null","null","<p style=""font-size: 60px; font-family: BACS"">GJGcZvJQ</p>","","","","","","","","",""
"html-keyboard-response","306","831908","0.0-13.0-0.56","5fdf808af53c7a7e9199b430","64e77d7b61f440b60e28659d","64eca31f4623ccd21e98cecc","null","null","<p style=""font-size: 60px; font-family: BACS"">cAZucYUv</p>","","","","","","","","",""
"html-keyboard-response","307","832909","0.0-13.0-0.57","5fdf808af53c7a7e9199b430","64e77d7b61f440b60e28659d","64eca31f4623ccd21e98cecc","null","null","<p style=""font-size: 60px; font-family: BACS"">tRdMdTAh</p>","","","","","","","","",""
"html-keyboard-response","308","833915","0.0-13.0-0.58","5fdf808af53c7a7e9199b430","64e77d7b61f440b60e28659d","64eca31f4623ccd21e98cecc","null","null","<p style=""font-size: 60px; font-family: BACS"">Qcladlvk</p>","","","","","","","","",""
"html-keyboard-response","309","834917","0.0-13.0-0.59","5fdf808af53c7a7e9199b430","64e77d7b61f440b60e28659d","64eca31f4623ccd21e98cecc","null","null","<p style=""font-size: 60px; font-family: BACS"">BKDRYmAM</p>","","","","","","","","",""
"html-keyboard-response","310","835932","0.0-13.0-0.60","5fdf808af53c7a7e9199b430","64e77d7b61f440b60e28659d","64eca31f4623ccd21e98cecc","null","null","<p style=""font-size: 60px; font-family: BACS"">rLkmvJQ</p>","","","","","","","","",""
"html-keyboard-response","311","836940","0.0-13.0-0.61","5fdf808af53c7a7e9199b430","64e77d7b61f440b60e28659d","64eca31f4623ccd21e98cecc","null","null","<p style=""font-size: 60px; font-family: BACS"">dCtMAmAM</p>","","","","","","","","",""
"html-keyboard-response","312","837941","0.0-13.0-0.62","5fdf808af53c7a7e9199b430","64e77d7b61f440b60e28659d","64eca31f4623ccd21e98cecc","null","null","<p style=""font-size: 60px; font-family: BACS"">bROCBbM</p>","","","","","","","","",""
"html-keyboard-response","313","838958","0.0-13.0-0.63","5fdf808af53c7a7e9199b430","64e77d7b61f440b60e28659d","64eca31f4623ccd21e98cecc","null","null","<p style=""font-size: 60px; font-family: BACS"">rLkmlvk</p>","","","","","","","","",""
"html-keyboard-response","314","839965","0.0-13.0-0.64","5fdf808af53c7a7e9199b430","64e77d7b61f440b60e28659d","64eca31f4623ccd21e98cecc","null","null","<p style=""font-size: 60px; font-family: BACS"">OdlNmYLU</p>","","","","","","","","",""
"html-keyboard-response","315","840971","0.0-13.0-0.65","5fdf808af53c7a7e9199b430","64e77d7b61f440b60e28659d","64eca31f4623ccd21e98cecc","null","null","<p style=""font-size: 60px; font-family: BACS"">hYDmthRKm</p>","","","","","","","","",""
"html-keyboard-response","316","841972","0.0-13.0-0.66","5fdf808af53c7a7e9199b430","64e77d7b61f440b60e28659d","64eca31f4623ccd21e98cecc","null","null","<p style=""font-size: 60px; font-family: BACS"">damYblvk</p>","","","","","","","","",""
"html-keyboard-response","317","842977","0.0-13.0-0.67","5fdf808af53c7a7e9199b430","64e77d7b61f440b60e28659d","64eca31f4623ccd21e98cecc","null","null","<p style=""font-size: 60px; font-family: BACS"">TEBKmAM</p>","","","","","","","","",""
"html-keyboard-response","318","843978","0.0-13.0-0.68","5fdf808af53c7a7e9199b430","64e77d7b61f440b60e28659d","64eca31f4623ccd21e98cecc","null","null","<p style=""font-size: 60px; font-family: BACS"">YlYcdRA</p>","","","","","","","","",""
"html-keyboard-response","319","844979","0.0-13.0-0.69","5fdf808af53c7a7e9199b430","64e77d7b61f440b60e28659d","64eca31f4623ccd21e98cecc","null","null","<p style=""font-size: 60px; font-family: BACS"">tRdMBbM</p>","","","","","","","","",""
"html-keyboard-response","320","845980","0.0-13.0-0.70","5fdf808af53c7a7e9199b430","64e77d7b61f440b60e28659d","64eca31f4623ccd21e98cecc","null","null","<p style=""font-size: 60px; font-family: BACS"">TEBKhRKm</p>","","","","","","","","",""
"html-keyboard-response","321","846981","0.0-13.0-0.71","5fdf808af53c7a7e9199b430","64e77d7b61f440b60e28659d","64eca31f4623ccd21e98cecc","null","null","<p style=""font-size: 60px; font-family: BACS"">bROCdRA</p>","","","","","","","","",""
"html-keyboard-response","322","847982","0.0-13.0-0.72","5fdf808af53c7a7e9199b430","64e77d7b61f440b60e28659d","64eca31f4623ccd21e98cecc","null","null","<p style=""font-size: 60px; font-family: BACS"">cROMtBbM</p>","","","","","","","","",""
"html-keyboard-response","323","848983","0.0-13.0-0.73","5fdf808af53c7a7e9199b430","64e77d7b61f440b60e28659d","64eca31f4623ccd21e98cecc","null","null","<p style=""font-size: 60px; font-family: BACS"">damYbYLU</p>","","","","","","","","",""
"html-keyboard-response","324","849992","0.0-13.0-0.74","5fdf808af53c7a7e9199b430","64e77d7b61f440b60e28659d","64eca31f4623ccd21e98cecc","null","null","<p style=""font-size: 60px; font-family: BACS"">bvuZYZUZ</p>","","","","","","","","",""
"html-keyboard-response","325","850993","0.0-13.0-0.75","5fdf808af53c7a7e9199b430","64e77d7b61f440b60e28659d","64eca31f4623ccd21e98cecc","null","null","<p style=""font-size: 60px; font-family: BACS"">BKDRYBbM</p>","","","","","","","","",""
"html-keyboard-response","326","851997","0.0-13.0-0.76","5fdf808af53c7a7e9199b430","64e77d7b61f440b60e28659d","64eca31f4623ccd21e98cecc","null","null","<p style=""font-size: 60px; font-family: BACS"">JAaGvJQ</p>","","","","","","","","",""
"html-keyboard-response","327","853004","0.0-13.0-0.77","5fdf808af53c7a7e9199b430","64e77d7b61f440b60e28659d","64eca31f4623ccd21e98cecc","null","null","<p style=""font-size: 60px; font-family: BACS"">BKDRYhRKm</p>","","","","","","","","",""
"html-keyboard-response","328","854013","0.0-13.0-0.78","5fdf808af53c7a7e9199b430","64e77d7b61f440b60e28659d","64eca31f4623ccd21e98cecc","null","null","<p style=""font-size: 60px; font-family: BACS"">GJGcZYLU</p>","","","","","","","","",""
"html-keyboard-response","329","855014","0.0-13.0-0.79","5fdf808af53c7a7e9199b430","64e77d7b61f440b60e28659d","64eca31f4623ccd21e98cecc","null","null","<p style=""font-size: 60px; font-family: BACS"">TEBKdTAh</p>","","","","","","","","",""
"html-keyboard-response","330","873236","0.0-14.0","5fdf808af53c7a7e9199b430","64e77d7b61f440b60e28659d","64eca31f4623ccd21e98cecc","18221"," ","<p>Great, you've seen the fourth block of words. You may now take a short break.</p>
      <p>Press the spacebar when you're ready to continue.</p>","","","","","","","","",""
"html-keyboard-response","331","874236","0.0-15.0-0.0","5fdf808af53c7a7e9199b430","64e77d7b61f440b60e28659d","64eca31f4623ccd21e98cecc","null","null","<p style=""font-size: 60px; font-family: BACS"">QcladvJQ</p>","","","","","","","","",""
"html-keyboard-response","332","875243","0.0-15.0-0.1","5fdf808af53c7a7e9199b430","64e77d7b61f440b60e28659d","64eca31f4623ccd21e98cecc","null","null","<p style=""font-size: 60px; font-family: BACS"">QcladvJQ</p>","","","","","","","","",""
"html-keyboard-response","333","876253","0.0-15.0-0.2","5fdf808af53c7a7e9199b430","64e77d7b61f440b60e28659d","64eca31f4623ccd21e98cecc","null","null","<p style=""font-size: 60px; font-family: BACS"">QcladvJQ</p>","","","","","","","","",""
"html-keyboard-response","334","877254","0.0-15.0-0.3","5fdf808af53c7a7e9199b430","64e77d7b61f440b60e28659d","64eca31f4623ccd21e98cecc","null","null","<p style=""font-size: 60px; font-family: BACS"">QcladvJQ</p>","","","","","","","","",""
"html-keyboard-response","335","878255","0.0-15.0-0.4","5fdf808af53c7a7e9199b430","64e77d7b61f440b60e28659d","64eca31f4623ccd21e98cecc","null","null","<p style=""font-size: 60px; font-family: BACS"">QcladvJQ</p>","","","","","","","","",""
"html-keyboard-response","336","879261","0.0-15.0-0.5","5fdf808af53c7a7e9199b430","64e77d7b61f440b60e28659d","64eca31f4623ccd21e98cecc","null","null","<p style=""font-size: 60px; font-family: BACS"">QcladvJQ</p>","","","","","","","","",""
"html-keyboard-response","337","880272","0.0-15.0-0.6","5fdf808af53c7a7e9199b430","64e77d7b61f440b60e28659d","64eca31f4623ccd21e98cecc","null","null","<p style=""font-size: 60px; font-family: BACS"">QcladvJQ</p>","","","","","","","","",""
"html-keyboard-response","338","881283","0.0-15.0-0.7","5fdf808af53c7a7e9199b430","64e77d7b61f440b60e28659d","64eca31f4623ccd21e98cecc","null","null","<p style=""font-size: 60px; font-family: BACS"">QcladvJQ</p>","","","","","","","","",""
"html-keyboard-response","339","882285","0.0-15.0-0.8","5fdf808af53c7a7e9199b430","64e77d7b61f440b60e28659d","64eca31f4623ccd21e98cecc","null","null","<p style=""font-size: 60px; font-family: BACS"">QcladvJQ</p>","","","","","","","","",""
"html-keyboard-response","340","883286","0.0-15.0-0.9","5fdf808af53c7a7e9199b430","64e77d7b61f440b60e28659d","64eca31f4623ccd21e98cecc","null","null","<p style=""font-size: 60px; font-family: BACS"">QcladvJQ</p>","","","","","","","","",""
"html-keyboard-response","341","884288","0.0-15.0-0.10","5fdf808af53c7a7e9199b430","64e77d7b61f440b60e28659d","64eca31f4623ccd21e98cecc","null","null","<p style=""font-size: 60px; font-family: BACS"">QcladvJQ</p>","","","","","","","","",""
"html-keyboard-response","342","885289","0.0-15.0-0.11","5fdf808af53c7a7e9199b430","64e77d7b61f440b60e28659d","64eca31f4623ccd21e98cecc","null","null","<p style=""font-size: 60px; font-family: BACS"">QcladvJQ</p>","","","","","","","","",""
"html-keyboard-response","343","886304","0.0-15.0-0.12","5fdf808af53c7a7e9199b430","64e77d7b61f440b60e28659d","64eca31f4623ccd21e98cecc","null","null","<p style=""font-size: 60px; font-family: BACS"">QcladvJQ</p>","","","","","","","","",""
"html-keyboard-response","344","887309","0.0-15.0-0.13","5fdf808af53c7a7e9199b430","64e77d7b61f440b60e28659d","64eca31f4623ccd21e98cecc","null","null","<p style=""font-size: 60px; font-family: BACS"">QcladvJQ</p>","","","","","","","","",""
"html-keyboard-response","345","888318","0.0-15.0-0.14","5fdf808af53c7a7e9199b430","64e77d7b61f440b60e28659d","64eca31f4623ccd21e98cecc","null","null","<p style=""font-size: 60px; font-family: BACS"">QcladvJQ</p>","","","","","","","","",""
"html-keyboard-response","346","889319","0.0-15.0-0.15","5fdf808af53c7a7e9199b430","64e77d7b61f440b60e28659d","64eca31f4623ccd21e98cecc","null","null","<p style=""font-size: 60px; font-family: BACS"">QcladvJQ</p>","","","","","","","","",""
"html-keyboard-response","347","890323","0.0-15.0-0.16","5fdf808af53c7a7e9199b430","64e77d7b61f440b60e28659d","64eca31f4623ccd21e98cecc","null","null","<p style=""font-size: 60px; font-family: BACS"">QcladvJQ</p>","","","","","","","","",""
"html-keyboard-response","348","891333","0.0-15.0-0.17","5fdf808af53c7a7e9199b430","64e77d7b61f440b60e28659d","64eca31f4623ccd21e98cecc","null","null","<p style=""font-size: 60px; font-family: BACS"">QcladvJQ</p>","","","","","","","","",""
"html-keyboard-response","349","892335","0.0-15.0-0.18","5fdf808af53c7a7e9199b430","64e77d7b61f440b60e28659d","64eca31f4623ccd21e98cecc","null","null","<p style=""font-size: 60px; font-family: BACS"">QcladvJQ</p>","","","","","","","","",""
"html-keyboard-response","350","893340","0.0-15.0-0.19","5fdf808af53c7a7e9199b430","64e77d7b61f440b60e28659d","64eca31f4623ccd21e98cecc","null","null","<p style=""font-size: 60px; font-family: BACS"">QcladvJQ</p>","","","","","","","","",""
"html-keyboard-response","351","894346","0.0-15.0-0.20","5fdf808af53c7a7e9199b430","64e77d7b61f440b60e28659d","64eca31f4623ccd21e98cecc","null","null","<p style=""font-size: 60px; font-family: BACS"">QcladvJQ</p>","","","","","","","","",""
"html-keyboard-response","352","895347","0.0-15.0-0.21","5fdf808af53c7a7e9199b430","64e77d7b61f440b60e28659d","64eca31f4623ccd21e98cecc","null","null","<p style=""font-size: 60px; font-family: BACS"">QcladvJQ</p>","","","","","","","","",""
"html-keyboard-response","353","896362","0.0-15.0-0.22","5fdf808af53c7a7e9199b430","64e77d7b61f440b60e28659d","64eca31f4623ccd21e98cecc","null","null","<p style=""font-size: 60px; font-family: BACS"">QcladvJQ</p>","","","","","","","","",""
"html-keyboard-response","354","897370","0.0-15.0-0.23","5fdf808af53c7a7e9199b430","64e77d7b61f440b60e28659d","64eca31f4623ccd21e98cecc","null","null","<p style=""font-size: 60px; font-family: BACS"">QcladvJQ</p>","","","","","","","","",""
"html-keyboard-response","355","898384","0.0-15.0-0.24","5fdf808af53c7a7e9199b430","64e77d7b61f440b60e28659d","64eca31f4623ccd21e98cecc","null","null","<p style=""font-size: 60px; font-family: BACS"">QcladvJQ</p>","","","","","","","","",""
"html-keyboard-response","356","899385","0.0-15.0-0.25","5fdf808af53c7a7e9199b430","64e77d7b61f440b60e28659d","64eca31f4623ccd21e98cecc","null","null","<p style=""font-size: 60px; font-family: BACS"">QcladvJQ</p>","","","","","","","","",""
"html-keyboard-response","357","900389","0.0-15.0-0.26","5fdf808af53c7a7e9199b430","64e77d7b61f440b60e28659d","64eca31f4623ccd21e98cecc","null","null","<p style=""font-size: 60px; font-family: BACS"">QcladvJQ</p>","","","","","","","","",""
"html-keyboard-response","358","901389","0.0-15.0-0.27","5fdf808af53c7a7e9199b430","64e77d7b61f440b60e28659d","64eca31f4623ccd21e98cecc","null","null","<p style=""font-size: 60px; font-family: BACS"">QcladvJQ</p>","","","","","","","","",""
"html-keyboard-response","359","902390","0.0-15.0-0.28","5fdf808af53c7a7e9199b430","64e77d7b61f440b60e28659d","64eca31f4623ccd21e98cecc","null","null","<p style=""font-size: 60px; font-family: BACS"">QcladvJQ</p>","","","","","","","","",""
"html-keyboard-response","360","903391","0.0-15.0-0.29","5fdf808af53c7a7e9199b430","64e77d7b61f440b60e28659d","64eca31f4623ccd21e98cecc","null","null","<p style=""font-size: 60px; font-family: BACS"">QcladvJQ</p>","","","","","","","","",""
"html-keyboard-response","361","904392","0.0-15.0-0.30","5fdf808af53c7a7e9199b430","64e77d7b61f440b60e28659d","64eca31f4623ccd21e98cecc","null","null","<p style=""font-size: 60px; font-family: BACS"">QcladvJQ</p>","","","","","","","","",""
"html-keyboard-response","362","905394","0.0-15.0-0.31","5fdf808af53c7a7e9199b430","64e77d7b61f440b60e28659d","64eca31f4623ccd21e98cecc","null","null","<p style=""font-size: 60px; font-family: BACS"">QcladvJQ</p>","","","","","","","","",""
"html-keyboard-response","363","906399","0.0-15.0-0.32","5fdf808af53c7a7e9199b430","64e77d7b61f440b60e28659d","64eca31f4623ccd21e98cecc","null","null","<p style=""font-size: 60px; font-family: BACS"">QcladvJQ</p>","","","","","","","","",""
"html-keyboard-response","364","907411","0.0-15.0-0.33","5fdf808af53c7a7e9199b430","64e77d7b61f440b60e28659d","64eca31f4623ccd21e98cecc","null","null","<p style=""font-size: 60px; font-family: BACS"">QcladvJQ</p>","","","","","","","","",""
"html-keyboard-response","365","908412","0.0-15.0-0.34","5fdf808af53c7a7e9199b430","64e77d7b61f440b60e28659d","64eca31f4623ccd21e98cecc","null","null","<p style=""font-size: 60px; font-family: BACS"">QcladvJQ</p>","","","","","","","","",""
"html-keyboard-response","366","909413","0.0-15.0-0.35","5fdf808af53c7a7e9199b430","64e77d7b61f440b60e28659d","64eca31f4623ccd21e98cecc","null","null","<p style=""font-size: 60px; font-family: BACS"">QcladvJQ</p>","","","","","","","","",""
"html-keyboard-response","367","910414","0.0-15.0-0.36","5fdf808af53c7a7e9199b430","64e77d7b61f440b60e28659d","64eca31f4623ccd21e98cecc","null","null","<p style=""font-size: 60px; font-family: BACS"">QcladvJQ</p>","","","","","","","","",""
"html-keyboard-response","368","911429","0.0-15.0-0.37","5fdf808af53c7a7e9199b430","64e77d7b61f440b60e28659d","64eca31f4623ccd21e98cecc","null","null","<p style=""font-size: 60px; font-family: BACS"">QcladvJQ</p>","","","","","","","","",""
"html-keyboard-response","369","912432","0.0-15.0-0.38","5fdf808af53c7a7e9199b430","64e77d7b61f440b60e28659d","64eca31f4623ccd21e98cecc","null","null","<p style=""font-size: 60px; font-family: BACS"">QcladvJQ</p>","","","","","","","","",""
"html-keyboard-response","370","913435","0.0-15.0-0.39","5fdf808af53c7a7e9199b430","64e77d7b61f440b60e28659d","64eca31f4623ccd21e98cecc","null","null","<p style=""font-size: 60px; font-family: BACS"">QcladvJQ</p>","","","","","","","","",""
"html-keyboard-response","371","914436","0.0-15.0-0.40","5fdf808af53c7a7e9199b430","64e77d7b61f440b60e28659d","64eca31f4623ccd21e98cecc","null","null","<p style=""font-size: 60px; font-family: BACS"">QcladvJQ</p>","","","","","","","","",""
"html-keyboard-response","372","915438","0.0-15.0-0.41","5fdf808af53c7a7e9199b430","64e77d7b61f440b60e28659d","64eca31f4623ccd21e98cecc","null","null","<p style=""font-size: 60px; font-family: BACS"">QcladvJQ</p>","","","","","","","","",""
"html-keyboard-response","373","916439","0.0-15.0-0.42","5fdf808af53c7a7e9199b430","64e77d7b61f440b60e28659d","64eca31f4623ccd21e98cecc","null","null","<p style=""font-size: 60px; font-family: BACS"">QcladvJQ</p>","","","","","","","","",""
"html-keyboard-response","374","917440","0.0-15.0-0.43","5fdf808af53c7a7e9199b430","64e77d7b61f440b60e28659d","64eca31f4623ccd21e98cecc","null","null","<p style=""font-size: 60px; font-family: BACS"">QcladvJQ</p>","","","","","","","","",""
"html-keyboard-response","375","918444","0.0-15.0-0.44","5fdf808af53c7a7e9199b430","64e77d7b61f440b60e28659d","64eca31f4623ccd21e98cecc","null","null","<p style=""font-size: 60px; font-family: BACS"">QcladvJQ</p>","","","","","","","","",""
"html-keyboard-response","376","919456","0.0-15.0-0.45","5fdf808af53c7a7e9199b430","64e77d7b61f440b60e28659d","64eca31f4623ccd21e98cecc","null","null","<p style=""font-size: 60px; font-family: BACS"">QcladvJQ</p>","","","","","","","","",""
"html-keyboard-response","377","920457","0.0-15.0-0.46","5fdf808af53c7a7e9199b430","64e77d7b61f440b60e28659d","64eca31f4623ccd21e98cecc","null","null","<p style=""font-size: 60px; font-family: BACS"">QcladvJQ</p>","","","","","","","","",""
"html-keyboard-response","378","921459","0.0-15.0-0.47","5fdf808af53c7a7e9199b430","64e77d7b61f440b60e28659d","64eca31f4623ccd21e98cecc","null","null","<p style=""font-size: 60px; font-family: BACS"">QcladvJQ</p>","","","","","","","","",""
"html-keyboard-response","379","922466","0.0-15.0-0.48","5fdf808af53c7a7e9199b430","64e77d7b61f440b60e28659d","64eca31f4623ccd21e98cecc","null","null","<p style=""font-size: 60px; font-family: BACS"">QcladvJQ</p>","","","","","","","","",""
"html-keyboard-response","380","923467","0.0-15.0-0.49","5fdf808af53c7a7e9199b430","64e77d7b61f440b60e28659d","64eca31f4623ccd21e98cecc","null","null","<p style=""font-size: 60px; font-family: BACS"">QcladvJQ</p>","","","","","","","","",""
"html-keyboard-response","381","924468","0.0-15.0-0.50","5fdf808af53c7a7e9199b430","64e77d7b61f440b60e28659d","64eca31f4623ccd21e98cecc","null","null","<p style=""font-size: 60px; font-family: BACS"">QcladvJQ</p>","","","","","","","","",""
"html-keyboard-response","382","925469","0.0-15.0-0.51","5fdf808af53c7a7e9199b430","64e77d7b61f440b60e28659d","64eca31f4623ccd21e98cecc","null","null","<p style=""font-size: 60px; font-family: BACS"">QcladvJQ</p>","","","","","","","","",""
"html-keyboard-response","383","926482","0.0-15.0-0.52","5fdf808af53c7a7e9199b430","64e77d7b61f440b60e28659d","64eca31f4623ccd21e98cecc","null","null","<p style=""font-size: 60px; font-family: BACS"">QcladvJQ</p>","","","","","","","","",""
"html-keyboard-response","384","927491","0.0-15.0-0.53","5fdf808af53c7a7e9199b430","64e77d7b61f440b60e28659d","64eca31f4623ccd21e98cecc","null","null","<p style=""font-size: 60px; font-family: BACS"">QcladvJQ</p>","","","","","","","","",""
"html-keyboard-response","385","928492","0.0-15.0-0.54","5fdf808af53c7a7e9199b430","64e77d7b61f440b60e28659d","64eca31f4623ccd21e98cecc","null","null","<p style=""font-size: 60px; font-family: BACS"">QcladvJQ</p>","","","","","","","","",""
"html-keyboard-response","386","929500","0.0-15.0-0.55","5fdf808af53c7a7e9199b430","64e77d7b61f440b60e28659d","64eca31f4623ccd21e98cecc","null","null","<p style=""font-size: 60px; font-family: BACS"">QcladvJQ</p>","","","","","","","","",""
"html-keyboard-response","387","930501","0.0-15.0-0.56","5fdf808af53c7a7e9199b430","64e77d7b61f440b60e28659d","64eca31f4623ccd21e98cecc","null","null","<p style=""font-size: 60px; font-family: BACS"">QcladvJQ</p>","","","","","","","","",""
"html-keyboard-response","388","931502","0.0-15.0-0.57","5fdf808af53c7a7e9199b430","64e77d7b61f440b60e28659d","64eca31f4623ccd21e98cecc","null","null","<p style=""font-size: 60px; font-family: BACS"">QcladvJQ</p>","","","","","","","","",""
"html-keyboard-response","389","932504","0.0-15.0-0.58","5fdf808af53c7a7e9199b430","64e77d7b61f440b60e28659d","64eca31f4623ccd21e98cecc","null","null","<p style=""font-size: 60px; font-family: BACS"">QcladvJQ</p>","","","","","","","","",""
"html-keyboard-response","390","933505","0.0-15.0-0.59","5fdf808af53c7a7e9199b430","64e77d7b61f440b60e28659d","64eca31f4623ccd21e98cecc","null","null","<p style=""font-size: 60px; font-family: BACS"">QcladvJQ</p>","","","","","","","","",""
"html-keyboard-response","391","934506","0.0-15.0-0.60","5fdf808af53c7a7e9199b430","64e77d7b61f440b60e28659d","64eca31f4623ccd21e98cecc","null","null","<p style=""font-size: 60px; font-family: BACS"">QcladvJQ</p>","","","","","","","","",""
"html-keyboard-response","392","935507","0.0-15.0-0.61","5fdf808af53c7a7e9199b430","64e77d7b61f440b60e28659d","64eca31f4623ccd21e98cecc","null","null","<p style=""font-size: 60px; font-family: BACS"">QcladvJQ</p>","","","","","","","","",""
"html-keyboard-response","393","936509","0.0-15.0-0.62","5fdf808af53c7a7e9199b430","64e77d7b61f440b60e28659d","64eca31f4623ccd21e98cecc","null","null","<p style=""font-size: 60px; font-family: BACS"">QcladvJQ</p>","","","","","","","","",""
"html-keyboard-response","394","937510","0.0-15.0-0.63","5fdf808af53c7a7e9199b430","64e77d7b61f440b60e28659d","64eca31f4623ccd21e98cecc","null","null","<p style=""font-size: 60px; font-family: BACS"">QcladvJQ</p>","","","","","","","","",""
"html-keyboard-response","395","938510","0.0-15.0-0.64","5fdf808af53c7a7e9199b430","64e77d7b61f440b60e28659d","64eca31f4623ccd21e98cecc","null","null","<p style=""font-size: 60px; font-family: BACS"">QcladvJQ</p>","","","","","","","","",""
"html-keyboard-response","396","939511","0.0-15.0-0.65","5fdf808af53c7a7e9199b430","64e77d7b61f440b60e28659d","64eca31f4623ccd21e98cecc","null","null","<p style=""font-size: 60px; font-family: BACS"">QcladvJQ</p>","","","","","","","","",""
"html-keyboard-response","397","940514","0.0-15.0-0.66","5fdf808af53c7a7e9199b430","64e77d7b61f440b60e28659d","64eca31f4623ccd21e98cecc","null","null","<p style=""font-size: 60px; font-family: BACS"">QcladvJQ</p>","","","","","","","","",""
"html-keyboard-response","398","941522","0.0-15.0-0.67","5fdf808af53c7a7e9199b430","64e77d7b61f440b60e28659d","64eca31f4623ccd21e98cecc","null","null","<p style=""font-size: 60px; font-family: BACS"">QcladvJQ</p>","","","","","","","","",""
