"trial_type","trial_index","time_elapsed","internal_node_id","subject_id","study_id","session_id","rt","response","stimulus","success","item","task","correct_response","testing_condition","correct","target","confound","name","view_history"
"pavlovia","0","1588","0.0-0.0","610834993bac40f050062896","650c16f0f2faf8d7a0d14c09","651c1d99d26d51aa04e3b5e9","","","","","","","","","","","","",""
"survey-html-form","1","6368","0.0-1.0","610834993bac40f050062896","650c16f0f2faf8d7a0d14c09","651c1d99d26d51aa04e3b5e9","4780","{""ID"":""610834993bac40f050062896""}","","","","","","","","","","",""
"html-keyboard-response","2","18976","0.0-2.0","610834993bac40f050062896","650c16f0f2faf8d7a0d14c09","651c1d99d26d51aa04e3b5e9","12606"," ","<p style=""font-size: 15px;"">Before beginning, we ask that you read the consent information and confirm your agreement to participate in the experiment.</p>
      <p style=""font-size: 15px;""> We ask that you remember that this is a research project and that your participation is entirely voluntary. You can stop your participation at any time, without needing to provide any explanation. The study we're asking you to participate in aims at examining how readers process written words. You will be engaged in a session of apprximately 20 minutes, followed by a brief questionnaire. You will have the opportunity to take a few breaks during the experiment. You will be paid £4 for your participation, corresponding to a rate of £8/hour. While this experiment looks at cognitive faculties, this experiment doesn't constitute clinical proof of eventual pathologies.</p>
      <p style=""font-size: 15px;"">All of the information collected thanks to yours and others' participation will be held in a secure password-protected server, and will not be shared with anyone not authorised to view it. Your personal information will be kept with an arbitrary participant ID. Thanks to this data anonymity process, any researcher analysing the data won't be able to track the information back to a specific participant. Therefore, this process will make identifying you impossibile, even when results from the study will be published in scientific reviews, presented at congresses, or at any other public forum. More generally, the collected data will be treated in accordance with the laws on privacy and conformity to the Legislative Degree n. 196 ""Code regarding the protection of personal data"" of the 30th of June 2003 and to the European Regulation 2016/670 (General Data Protection Regulation - GDPR). The Data Protection Officer is Avv. Valentina Carollo, who can be contacted at the following email addresses: <a href=""mailto:dpo@sissa.it"">dpo@sissa.it</a> or <a href=""mailto:rpd@sissa.it"">rpd@sissa.it</a> - PEC: <a href=""mailto:protocollo@pec.sissa.it"">protocollo@pec.sissa.it</a>.</p>
      <p style=""font-size: 15px;""> Before expressing your consent to participate, we would like to remind you again that in case you need explanations on any aspect of the experimental procedure, the researcher is at your disposition (<a href=""mailto:aliebelt@sissa.it"">aliebelt@sissa.it</a>, <a href=""mailto:davide.crepaldi@sissa.it"">davide.crepaldi@sissa.it</a>).</p>
      <p style=""font-size: 15px;"">If you would like to download the informed consent form, you can do so here: <a href=""BASL-Informed_Consent.pdf"" download>informed consent form</a>.</p>
      <p style=""font-size: 15px;"">We ask that you press the spacebar to proceed to the consent section.</p>","","","","","","","","","",""
"survey-html-form","3","31821","0.0-3.0","610834993bac40f050062896","650c16f0f2faf8d7a0d14c09","651c1d99d26d51aa04e3b5e9","12842","{""consent1"":""YES"",""consent2"":""YES"",""consent3"":""YES"",""consent4"":""YES"",""consent5"":""YES"",""consent6"":""YES""}","","","","","","","","","","",""
"fullscreen","4","34721","0.0-4.0","610834993bac40f050062896","650c16f0f2faf8d7a0d14c09","651c1d99d26d51aa04e3b5e9","","","","true","","","","","","","","",""
"html-keyboard-response","5","40427","0.0-5.0","610834993bac40f050062896","650c16f0f2faf8d7a0d14c09","651c1d99d26d51aa04e3b5e9","5705"," ","<p>Welcome, and thank you very much for your time!</p>
      <p>In this experiment, you'll be a language expert who's been asked to take a look at words that Earth has received in its first communication with aliens. Your task, in this first part of the experiment, is to pay close attention to the words you'll be shown; later, world leaders will ask you questions on what you saw. The words will be shown to you quite quickly; it seems that the aliens were in a hurry :-)</p>
      <p>Press the spacebar to continue.<p>","","","","","","","","","",""
"html-keyboard-response","6","40484","0.0-6.0","610834993bac40f050062896","650c16f0f2faf8d7a0d14c09","651c1d99d26d51aa04e3b5e9","null","null","<p style=""font-size: 120px; font-family: BACS""> </p>","","","","","","","","","",""
"html-keyboard-response","7","42930","0.0-7.0","610834993bac40f050062896","650c16f0f2faf8d7a0d14c09","651c1d99d26d51aa04e3b5e9","2444"," ","<p>Here is an example of the words you'll see:</p>
      <img src='esempio.png' height='400px'>
      <p>When you're ready to begin, press the spacebar.</p></div>","","","","","","","","","",""
"html-keyboard-response","8","43937","0.0-8.0-0.0","610834993bac40f050062896","650c16f0f2faf8d7a0d14c09","651c1d99d26d51aa04e3b5e9","null","null","<p style=""font-size: 60px; font-family: BACS"">OmtlDBYhT</p>","","","","","","","","","",""
"html-keyboard-response","9","44944","0.0-8.0-0.1","610834993bac40f050062896","650c16f0f2faf8d7a0d14c09","651c1d99d26d51aa04e3b5e9","null","null","<p style=""font-size: 60px; font-family: BACS"">YuaNdNYZu</p>","","","","","","","","","",""
"html-keyboard-response","10","45949","0.0-8.0-0.2","610834993bac40f050062896","650c16f0f2faf8d7a0d14c09","651c1d99d26d51aa04e3b5e9","null","null","<p style=""font-size: 60px; font-family: BACS"">ZYcQULaA</p>","","","","","","","","","",""
"html-keyboard-response","11","46956","0.0-8.0-0.3","610834993bac40f050062896","650c16f0f2faf8d7a0d14c09","651c1d99d26d51aa04e3b5e9","null","null","<p style=""font-size: 60px; font-family: BACS"">DMRPtRb</p>","","","","","","","","","",""
"html-keyboard-response","12","47960","0.0-8.0-0.4","610834993bac40f050062896","650c16f0f2faf8d7a0d14c09","651c1d99d26d51aa04e3b5e9","null","null","<p style=""font-size: 60px; font-family: BACS"">kNuaYbN</p>","","","","","","","","","",""
"html-keyboard-response","13","48963","0.0-8.0-0.5","610834993bac40f050062896","650c16f0f2faf8d7a0d14c09","651c1d99d26d51aa04e3b5e9","null","null","<p style=""font-size: 60px; font-family: BACS"">PMPtkBbM</p>","","","","","","","","","",""
"html-keyboard-response","14","49970","0.0-8.0-0.6","610834993bac40f050062896","650c16f0f2faf8d7a0d14c09","651c1d99d26d51aa04e3b5e9","null","null","<p style=""font-size: 60px; font-family: BACS"">NvuGrNYZu</p>","","","","","","","","","",""
"html-keyboard-response","15","50974","0.0-8.0-0.7","610834993bac40f050062896","650c16f0f2faf8d7a0d14c09","651c1d99d26d51aa04e3b5e9","null","null","<p style=""font-size: 60px; font-family: BACS"">PMPtkmhc</p>","","","","","","","","","",""
"html-keyboard-response","16","51980","0.0-8.0-0.8","610834993bac40f050062896","650c16f0f2faf8d7a0d14c09","651c1d99d26d51aa04e3b5e9","null","null","<p style=""font-size: 60px; font-family: BACS"">vkYGlYbN</p>","","","","","","","","","",""
"html-keyboard-response","17","52985","0.0-8.0-0.9","610834993bac40f050062896","650c16f0f2faf8d7a0d14c09","651c1d99d26d51aa04e3b5e9","null","null","<p style=""font-size: 60px; font-family: BACS"">ZYcQUNYZu</p>","","","","","","","","","",""
"html-keyboard-response","18","53991","0.0-8.0-0.10","610834993bac40f050062896","650c16f0f2faf8d7a0d14c09","651c1d99d26d51aa04e3b5e9","null","null","<p style=""font-size: 60px; font-family: BACS"">OEPkBYhT</p>","","","","","","","","","",""
"html-keyboard-response","19","54997","0.0-8.0-0.11","610834993bac40f050062896","650c16f0f2faf8d7a0d14c09","651c1d99d26d51aa04e3b5e9","null","null","<p style=""font-size: 60px; font-family: BACS"">kNuaLaA</p>","","","","","","","","","",""
"html-keyboard-response","20","56003","0.0-8.0-0.12","610834993bac40f050062896","650c16f0f2faf8d7a0d14c09","651c1d99d26d51aa04e3b5e9","null","null","<p style=""font-size: 60px; font-family: BACS"">PMPtkBYhT</p>","","","","","","","","","",""
"html-keyboard-response","21","57008","0.0-8.0-0.13","610834993bac40f050062896","650c16f0f2faf8d7a0d14c09","651c1d99d26d51aa04e3b5e9","null","null","<p style=""font-size: 60px; font-family: BACS"">lhCTCmhc</p>","","","","","","","","","",""
"html-keyboard-response","22","58014","0.0-8.0-0.14","610834993bac40f050062896","650c16f0f2faf8d7a0d14c09","651c1d99d26d51aa04e3b5e9","null","null","<p style=""font-size: 60px; font-family: BACS"">YQbcuZc</p>","","","","","","","","","",""
"html-keyboard-response","23","59020","0.0-8.0-0.15","610834993bac40f050062896","650c16f0f2faf8d7a0d14c09","651c1d99d26d51aa04e3b5e9","null","null","<p style=""font-size: 60px; font-family: BACS"">OmtlDRCdc</p>","","","","","","","","","",""
"html-keyboard-response","24","60025","0.0-8.0-0.16","610834993bac40f050062896","650c16f0f2faf8d7a0d14c09","651c1d99d26d51aa04e3b5e9","null","null","<p style=""font-size: 60px; font-family: BACS"">OEPktRb</p>","","","","","","","","","",""
"html-keyboard-response","25","61032","0.0-8.0-0.17","610834993bac40f050062896","650c16f0f2faf8d7a0d14c09","651c1d99d26d51aa04e3b5e9","null","null","<p style=""font-size: 60px; font-family: BACS"">ZYcQUuZc</p>","","","","","","","","","",""
"html-keyboard-response","26","62038","0.0-8.0-0.18","610834993bac40f050062896","650c16f0f2faf8d7a0d14c09","651c1d99d26d51aa04e3b5e9","null","null","<p style=""font-size: 60px; font-family: BACS"">YQbcLaA</p>","","","","","","","","","",""
"html-keyboard-response","27","63044","0.0-8.0-0.19","610834993bac40f050062896","650c16f0f2faf8d7a0d14c09","651c1d99d26d51aa04e3b5e9","null","null","<p style=""font-size: 60px; font-family: BACS"">vkYGlQGb</p>","","","","","","","","","",""
"html-keyboard-response","28","64049","0.0-8.0-0.20","610834993bac40f050062896","650c16f0f2faf8d7a0d14c09","651c1d99d26d51aa04e3b5e9","null","null","<p style=""font-size: 60px; font-family: BACS"">DMRPmhc</p>","","","","","","","","","",""
"html-keyboard-response","29","65054","0.0-8.0-0.21","610834993bac40f050062896","650c16f0f2faf8d7a0d14c09","651c1d99d26d51aa04e3b5e9","null","null","<p style=""font-size: 60px; font-family: BACS"">dmZvmYbN</p>","","","","","","","","","",""
"html-keyboard-response","30","66060","0.0-8.0-0.22","610834993bac40f050062896","650c16f0f2faf8d7a0d14c09","651c1d99d26d51aa04e3b5e9","null","null","<p style=""font-size: 60px; font-family: BACS"">TklDRCdc</p>","","","","","","","","","",""
"html-keyboard-response","31","67066","0.0-8.0-0.23","610834993bac40f050062896","650c16f0f2faf8d7a0d14c09","651c1d99d26d51aa04e3b5e9","null","null","<p style=""font-size: 60px; font-family: BACS"">lhCTCBYhT</p>","","","","","","","","","",""
"html-keyboard-response","32","68071","0.0-8.0-0.24","610834993bac40f050062896","650c16f0f2faf8d7a0d14c09","651c1d99d26d51aa04e3b5e9","null","null","<p style=""font-size: 60px; font-family: BACS"">OmtlDtRb</p>","","","","","","","","","",""
"html-keyboard-response","33","69073","0.0-8.0-0.25","610834993bac40f050062896","650c16f0f2faf8d7a0d14c09","651c1d99d26d51aa04e3b5e9","null","null","<p style=""font-size: 60px; font-family: BACS"">RKYkBYhT</p>","","","","","","","","","",""
"html-keyboard-response","34","70078","0.0-8.0-0.26","610834993bac40f050062896","650c16f0f2faf8d7a0d14c09","651c1d99d26d51aa04e3b5e9","null","null","<p style=""font-size: 60px; font-family: BACS"">ZYcQUQGb</p>","","","","","","","","","",""
"html-keyboard-response","35","71080","0.0-8.0-0.27","610834993bac40f050062896","650c16f0f2faf8d7a0d14c09","651c1d99d26d51aa04e3b5e9","null","null","<p style=""font-size: 60px; font-family: BACS"">OEPkRCdc</p>","","","","","","","","","",""
"html-keyboard-response","36","72095","0.0-8.0-0.28","610834993bac40f050062896","650c16f0f2faf8d7a0d14c09","651c1d99d26d51aa04e3b5e9","null","null","<p style=""font-size: 60px; font-family: BACS"">dmZvmLaA</p>","","","","","","","","","",""
"html-keyboard-response","37","73100","0.0-8.0-0.29","610834993bac40f050062896","650c16f0f2faf8d7a0d14c09","651c1d99d26d51aa04e3b5e9","null","null","<p style=""font-size: 60px; font-family: BACS"">vkYGlNYZu</p>","","","","","","","","","",""
"html-keyboard-response","38","74106","0.0-8.0-0.30","610834993bac40f050062896","650c16f0f2faf8d7a0d14c09","651c1d99d26d51aa04e3b5e9","null","null","<p style=""font-size: 60px; font-family: BACS"">YuaNdLaA</p>","","","","","","","","","",""
"html-keyboard-response","39","75112","0.0-8.0-0.31","610834993bac40f050062896","650c16f0f2faf8d7a0d14c09","651c1d99d26d51aa04e3b5e9","null","null","<p style=""font-size: 60px; font-family: BACS"">RKYkRCdc</p>","","","","","","","","","",""
"html-keyboard-response","40","76117","0.0-8.0-0.32","610834993bac40f050062896","650c16f0f2faf8d7a0d14c09","651c1d99d26d51aa04e3b5e9","null","null","<p style=""font-size: 60px; font-family: BACS"">aONdYbN</p>","","","","","","","","","",""
"html-keyboard-response","41","77123","0.0-8.0-0.33","610834993bac40f050062896","650c16f0f2faf8d7a0d14c09","651c1d99d26d51aa04e3b5e9","null","null","<p style=""font-size: 60px; font-family: BACS"">YlYctRb</p>","","","","","","","","","",""
"html-keyboard-response","42","78129","0.0-8.0-0.34","610834993bac40f050062896","650c16f0f2faf8d7a0d14c09","651c1d99d26d51aa04e3b5e9","null","null","<p style=""font-size: 60px; font-family: BACS"">mrOdLaA</p>","","","","","","","","","",""
"html-keyboard-response","43","79135","0.0-8.0-0.35","610834993bac40f050062896","650c16f0f2faf8d7a0d14c09","651c1d99d26d51aa04e3b5e9","null","null","<p style=""font-size: 60px; font-family: BACS"">NvuGrYbN</p>","","","","","","","","","",""
"html-keyboard-response","44","80141","0.0-8.0-0.36","610834993bac40f050062896","650c16f0f2faf8d7a0d14c09","651c1d99d26d51aa04e3b5e9","null","null","<p style=""font-size: 60px; font-family: BACS"">OEPkBbM</p>","","","","","","","","","",""
"html-keyboard-response","45","81146","0.0-8.0-0.37","610834993bac40f050062896","650c16f0f2faf8d7a0d14c09","651c1d99d26d51aa04e3b5e9","null","null","<p style=""font-size: 60px; font-family: BACS"">NvuGrQGb</p>","","","","","","","","","",""
"html-keyboard-response","46","82153","0.0-8.0-0.38","610834993bac40f050062896","650c16f0f2faf8d7a0d14c09","651c1d99d26d51aa04e3b5e9","null","null","<p style=""font-size: 60px; font-family: BACS"">TklDBbM</p>","","","","","","","","","",""
"html-keyboard-response","47","83157","0.0-8.0-0.39","610834993bac40f050062896","650c16f0f2faf8d7a0d14c09","651c1d99d26d51aa04e3b5e9","null","null","<p style=""font-size: 60px; font-family: BACS"">YQbcYbN</p>","","","","","","","","","",""
"html-keyboard-response","48","84163","0.0-8.0-0.40","610834993bac40f050062896","650c16f0f2faf8d7a0d14c09","651c1d99d26d51aa04e3b5e9","null","null","<p style=""font-size: 60px; font-family: BACS"">TCbDCtRb</p>","","","","","","","","","",""
"html-keyboard-response","49","85177","0.0-8.0-0.41","610834993bac40f050062896","650c16f0f2faf8d7a0d14c09","651c1d99d26d51aa04e3b5e9","null","null","<p style=""font-size: 60px; font-family: BACS"">rckOLaA</p>","","","","","","","","","",""
"html-keyboard-response","50","86183","0.0-8.0-0.42","610834993bac40f050062896","650c16f0f2faf8d7a0d14c09","651c1d99d26d51aa04e3b5e9","null","null","<p style=""font-size: 60px; font-family: BACS"">YlYcBbM</p>","","","","","","","","","",""
"html-keyboard-response","51","87184","0.0-8.0-0.43","610834993bac40f050062896","650c16f0f2faf8d7a0d14c09","651c1d99d26d51aa04e3b5e9","null","null","<p style=""font-size: 60px; font-family: BACS"">TklDtRb</p>","","","","","","","","","",""
"html-keyboard-response","52","88189","0.0-8.0-0.44","610834993bac40f050062896","650c16f0f2faf8d7a0d14c09","651c1d99d26d51aa04e3b5e9","null","null","<p style=""font-size: 60px; font-family: BACS"">hlbtbBYhT</p>","","","","","","","","","",""
"html-keyboard-response","53","89195","0.0-8.0-0.45","610834993bac40f050062896","650c16f0f2faf8d7a0d14c09","651c1d99d26d51aa04e3b5e9","null","null","<p style=""font-size: 60px; font-family: BACS"">TCbDCRCdc</p>","","","","","","","","","",""
"html-keyboard-response","54","90197","0.0-8.0-0.46","610834993bac40f050062896","650c16f0f2faf8d7a0d14c09","651c1d99d26d51aa04e3b5e9","null","null","<p style=""font-size: 60px; font-family: BACS"">NvuGruZc</p>","","","","","","","","","",""
"html-keyboard-response","55","91209","0.0-8.0-0.47","610834993bac40f050062896","650c16f0f2faf8d7a0d14c09","651c1d99d26d51aa04e3b5e9","null","null","<p style=""font-size: 60px; font-family: BACS"">rckOQGb</p>","","","","","","","","","",""
"html-keyboard-response","56","92214","0.0-8.0-0.48","610834993bac40f050062896","650c16f0f2faf8d7a0d14c09","651c1d99d26d51aa04e3b5e9","null","null","<p style=""font-size: 60px; font-family: BACS"">TklDmhc</p>","","","","","","","","","",""
"html-keyboard-response","57","93225","0.0-8.0-0.49","610834993bac40f050062896","650c16f0f2faf8d7a0d14c09","651c1d99d26d51aa04e3b5e9","null","null","<p style=""font-size: 60px; font-family: BACS"">YuaNdQGb</p>","","","","","","","","","",""
"html-keyboard-response","58","94230","0.0-8.0-0.50","610834993bac40f050062896","650c16f0f2faf8d7a0d14c09","651c1d99d26d51aa04e3b5e9","null","null","<p style=""font-size: 60px; font-family: BACS"">hlbtbmhc</p>","","","","","","","","","",""
"html-keyboard-response","59","95242","0.0-8.0-0.51","610834993bac40f050062896","650c16f0f2faf8d7a0d14c09","651c1d99d26d51aa04e3b5e9","null","null","<p style=""font-size: 60px; font-family: BACS"">DMRPRCdc</p>","","","","","","","","","",""
"html-keyboard-response","60","96248","0.0-8.0-0.52","610834993bac40f050062896","650c16f0f2faf8d7a0d14c09","651c1d99d26d51aa04e3b5e9","null","null","<p style=""font-size: 60px; font-family: BACS"">aONdLaA</p>","","","","","","","","","",""
"html-keyboard-response","61","97259","0.0-8.0-0.53","610834993bac40f050062896","650c16f0f2faf8d7a0d14c09","651c1d99d26d51aa04e3b5e9","null","null","<p style=""font-size: 60px; font-family: BACS"">kNuauZc</p>","","","","","","","","","",""
"html-keyboard-response","62","98269","0.0-8.0-0.54","610834993bac40f050062896","650c16f0f2faf8d7a0d14c09","651c1d99d26d51aa04e3b5e9","null","null","<p style=""font-size: 60px; font-family: BACS"">mrOdNYZu</p>","","","","","","","","","",""
"html-keyboard-response","63","99274","0.0-8.0-0.55","610834993bac40f050062896","650c16f0f2faf8d7a0d14c09","651c1d99d26d51aa04e3b5e9","null","null","<p style=""font-size: 60px; font-family: BACS"">kNuaQGb</p>","","","","","","","","","",""
"html-keyboard-response","64","100288","0.0-8.0-0.56","610834993bac40f050062896","650c16f0f2faf8d7a0d14c09","651c1d99d26d51aa04e3b5e9","null","null","<p style=""font-size: 60px; font-family: BACS"">YuaNdYbN</p>","","","","","","","","","",""
"html-keyboard-response","65","101302","0.0-8.0-0.57","610834993bac40f050062896","650c16f0f2faf8d7a0d14c09","651c1d99d26d51aa04e3b5e9","null","null","<p style=""font-size: 60px; font-family: BACS"">aONdNYZu</p>","","","","","","","","","",""
"html-keyboard-response","66","102307","0.0-8.0-0.58","610834993bac40f050062896","650c16f0f2faf8d7a0d14c09","651c1d99d26d51aa04e3b5e9","null","null","<p style=""font-size: 60px; font-family: BACS"">YlYcBYhT</p>","","","","","","","","","",""
"html-keyboard-response","67","103323","0.0-8.0-0.59","610834993bac40f050062896","650c16f0f2faf8d7a0d14c09","651c1d99d26d51aa04e3b5e9","null","null","<p style=""font-size: 60px; font-family: BACS"">dmZvmNYZu</p>","","","","","","","","","",""
"html-keyboard-response","68","104328","0.0-8.0-0.60","610834993bac40f050062896","650c16f0f2faf8d7a0d14c09","651c1d99d26d51aa04e3b5e9","null","null","<p style=""font-size: 60px; font-family: BACS"">RKYkBbM</p>","","","","","","","","","",""
"html-keyboard-response","69","105330","0.0-8.0-0.61","610834993bac40f050062896","650c16f0f2faf8d7a0d14c09","651c1d99d26d51aa04e3b5e9","null","null","<p style=""font-size: 60px; font-family: BACS"">OmtlDmhc</p>","","","","","","","","","",""
"html-keyboard-response","70","106337","0.0-8.0-0.62","610834993bac40f050062896","650c16f0f2faf8d7a0d14c09","651c1d99d26d51aa04e3b5e9","null","null","<p style=""font-size: 60px; font-family: BACS"">mrOduZc</p>","","","","","","","","","",""
"html-keyboard-response","71","107349","0.0-8.0-0.63","610834993bac40f050062896","650c16f0f2faf8d7a0d14c09","651c1d99d26d51aa04e3b5e9","null","null","<p style=""font-size: 60px; font-family: BACS"">TCbDCmhc</p>","","","","","","","","","",""
"html-keyboard-response","72","108354","0.0-8.0-0.64","610834993bac40f050062896","650c16f0f2faf8d7a0d14c09","651c1d99d26d51aa04e3b5e9","null","null","<p style=""font-size: 60px; font-family: BACS"">lhCTCRCdc</p>","","","","","","","","","",""
"html-keyboard-response","73","109368","0.0-8.0-0.65","610834993bac40f050062896","650c16f0f2faf8d7a0d14c09","651c1d99d26d51aa04e3b5e9","null","null","<p style=""font-size: 60px; font-family: BACS"">mrOdYbN</p>","","","","","","","","","",""
"html-keyboard-response","74","110375","0.0-8.0-0.66","610834993bac40f050062896","650c16f0f2faf8d7a0d14c09","651c1d99d26d51aa04e3b5e9","null","null","<p style=""font-size: 60px; font-family: BACS"">RKYktRb</p>","","","","","","","","","",""
"html-keyboard-response","75","111385","0.0-8.0-0.67","610834993bac40f050062896","650c16f0f2faf8d7a0d14c09","651c1d99d26d51aa04e3b5e9","null","null","<p style=""font-size: 60px; font-family: BACS"">rckOuZc</p>","","","","","","","","","",""
"html-keyboard-response","76","112400","0.0-8.0-0.68","610834993bac40f050062896","650c16f0f2faf8d7a0d14c09","651c1d99d26d51aa04e3b5e9","null","null","<p style=""font-size: 60px; font-family: BACS"">TCbDCBYhT</p>","","","","","","","","","",""
"html-keyboard-response","77","113405","0.0-8.0-0.69","610834993bac40f050062896","650c16f0f2faf8d7a0d14c09","651c1d99d26d51aa04e3b5e9","null","null","<p style=""font-size: 60px; font-family: BACS"">DMRPBbM</p>","","","","","","","","","",""
"html-keyboard-response","78","114411","0.0-8.0-0.70","610834993bac40f050062896","650c16f0f2faf8d7a0d14c09","651c1d99d26d51aa04e3b5e9","null","null","<p style=""font-size: 60px; font-family: BACS"">hlbtbtRb</p>","","","","","","","","","",""
"html-keyboard-response","79","115416","0.0-8.0-0.71","610834993bac40f050062896","650c16f0f2faf8d7a0d14c09","651c1d99d26d51aa04e3b5e9","null","null","<p style=""font-size: 60px; font-family: BACS"">YlYcmhc</p>","","","","","","","","","",""
"html-keyboard-response","80","116430","0.0-8.0-0.72","610834993bac40f050062896","650c16f0f2faf8d7a0d14c09","651c1d99d26d51aa04e3b5e9","null","null","<p style=""font-size: 60px; font-family: BACS"">aONdQGb</p>","","","","","","","","","",""
"html-keyboard-response","81","117435","0.0-8.0-0.73","610834993bac40f050062896","650c16f0f2faf8d7a0d14c09","651c1d99d26d51aa04e3b5e9","null","null","<p style=""font-size: 60px; font-family: BACS"">vkYGluZc</p>","","","","","","","","","",""
"html-keyboard-response","82","118442","0.0-8.0-0.74","610834993bac40f050062896","650c16f0f2faf8d7a0d14c09","651c1d99d26d51aa04e3b5e9","null","null","<p style=""font-size: 60px; font-family: BACS"">rckONYZu</p>","","","","","","","","","",""
"html-keyboard-response","83","119455","0.0-8.0-0.75","610834993bac40f050062896","650c16f0f2faf8d7a0d14c09","651c1d99d26d51aa04e3b5e9","null","null","<p style=""font-size: 60px; font-family: BACS"">PMPtkRCdc</p>","","","","","","","","","",""
"html-keyboard-response","84","120468","0.0-8.0-0.76","610834993bac40f050062896","650c16f0f2faf8d7a0d14c09","651c1d99d26d51aa04e3b5e9","null","null","<p style=""font-size: 60px; font-family: BACS"">hlbtbBbM</p>","","","","","","","","","",""
"html-keyboard-response","85","121474","0.0-8.0-0.77","610834993bac40f050062896","650c16f0f2faf8d7a0d14c09","651c1d99d26d51aa04e3b5e9","null","null","<p style=""font-size: 60px; font-family: BACS"">dmZvmuZc</p>","","","","","","","","","",""
"html-keyboard-response","86","122477","0.0-8.0-0.78","610834993bac40f050062896","650c16f0f2faf8d7a0d14c09","651c1d99d26d51aa04e3b5e9","null","null","<p style=""font-size: 60px; font-family: BACS"">YQbcQGb</p>","","","","","","","","","",""
"html-keyboard-response","87","123488","0.0-8.0-0.79","610834993bac40f050062896","650c16f0f2faf8d7a0d14c09","651c1d99d26d51aa04e3b5e9","null","null","<p style=""font-size: 60px; font-family: BACS"">lhCTCBbM</p>","","","","","","","","","",""
"html-keyboard-response","88","126201","0.0-9.0","610834993bac40f050062896","650c16f0f2faf8d7a0d14c09","651c1d99d26d51aa04e3b5e9","2712"," ","<p>Great, you've seen the first block of words. You may now take a short break.</p>
      <p>Press the spacebar when you're ready to continue.</p>","","","","","","","","","",""
"html-keyboard-response","89","127207","0.0-10.0-0.0","610834993bac40f050062896","650c16f0f2faf8d7a0d14c09","651c1d99d26d51aa04e3b5e9","null","null","<p style=""font-size: 60px; font-family: BACS"">OEPkRCdc</p>","","","","","","","","","",""
"html-keyboard-response","90","128218","0.0-10.0-0.1","610834993bac40f050062896","650c16f0f2faf8d7a0d14c09","651c1d99d26d51aa04e3b5e9","null","null","<p style=""font-size: 60px; font-family: BACS"">YlYctRb</p>","","","","","","","","","",""
"html-keyboard-response","91","129224","0.0-10.0-0.2","610834993bac40f050062896","650c16f0f2faf8d7a0d14c09","651c1d99d26d51aa04e3b5e9","null","null","<p style=""font-size: 60px; font-family: BACS"">YQbcuZc</p>","","","","","","","","","",""
"html-keyboard-response","92","130230","0.0-10.0-0.3","610834993bac40f050062896","650c16f0f2faf8d7a0d14c09","651c1d99d26d51aa04e3b5e9","null","null","<p style=""font-size: 60px; font-family: BACS"">hlbtbBbM</p>","","","","","","","","","",""
"html-keyboard-response","93","131236","0.0-10.0-0.4","610834993bac40f050062896","650c16f0f2faf8d7a0d14c09","651c1d99d26d51aa04e3b5e9","null","null","<p style=""font-size: 60px; font-family: BACS"">mrOduZc</p>","","","","","","","","","",""
"html-keyboard-response","94","132242","0.0-10.0-0.5","610834993bac40f050062896","650c16f0f2faf8d7a0d14c09","651c1d99d26d51aa04e3b5e9","null","null","<p style=""font-size: 60px; font-family: BACS"">YuaNdNYZu</p>","","","","","","","","","",""
"html-keyboard-response","95","133247","0.0-10.0-0.6","610834993bac40f050062896","650c16f0f2faf8d7a0d14c09","651c1d99d26d51aa04e3b5e9","null","null","<p style=""font-size: 60px; font-family: BACS"">OEPkBYhT</p>","","","","","","","","","",""
"html-keyboard-response","96","134250","0.0-10.0-0.7","610834993bac40f050062896","650c16f0f2faf8d7a0d14c09","651c1d99d26d51aa04e3b5e9","null","null","<p style=""font-size: 60px; font-family: BACS"">TCbDCRCdc</p>","","","","","","","","","",""
"html-keyboard-response","97","135256","0.0-10.0-0.8","610834993bac40f050062896","650c16f0f2faf8d7a0d14c09","651c1d99d26d51aa04e3b5e9","null","null","<p style=""font-size: 60px; font-family: BACS"">aONdYbN</p>","","","","","","","","","",""
"html-keyboard-response","98","136260","0.0-10.0-0.9","610834993bac40f050062896","650c16f0f2faf8d7a0d14c09","651c1d99d26d51aa04e3b5e9","null","null","<p style=""font-size: 60px; font-family: BACS"">kNuaLaA</p>","","","","","","","","","",""
"html-keyboard-response","99","137267","0.0-10.0-0.10","610834993bac40f050062896","650c16f0f2faf8d7a0d14c09","651c1d99d26d51aa04e3b5e9","null","null","<p style=""font-size: 60px; font-family: BACS"">TklDtRb</p>","","","","","","","","","",""
"html-keyboard-response","100","138272","0.0-10.0-0.11","610834993bac40f050062896","650c16f0f2faf8d7a0d14c09","651c1d99d26d51aa04e3b5e9","null","null","<p style=""font-size: 60px; font-family: BACS"">PMPtkmhc</p>","","","","","","","","","",""
"html-keyboard-response","101","139277","0.0-10.0-0.12","610834993bac40f050062896","650c16f0f2faf8d7a0d14c09","651c1d99d26d51aa04e3b5e9","null","null","<p style=""font-size: 60px; font-family: BACS"">YuaNdQGb</p>","","","","","","","","","",""
"html-keyboard-response","102","140279","0.0-10.0-0.13","610834993bac40f050062896","650c16f0f2faf8d7a0d14c09","651c1d99d26d51aa04e3b5e9","null","null","<p style=""font-size: 60px; font-family: BACS"">DMRPBbM</p>","","","","","","","","","",""
"html-keyboard-response","103","141284","0.0-10.0-0.14","610834993bac40f050062896","650c16f0f2faf8d7a0d14c09","651c1d99d26d51aa04e3b5e9","null","null","<p style=""font-size: 60px; font-family: BACS"">dmZvmLaA</p>","","","","","","","","","",""
"html-keyboard-response","104","142291","0.0-10.0-0.15","610834993bac40f050062896","650c16f0f2faf8d7a0d14c09","651c1d99d26d51aa04e3b5e9","null","null","<p style=""font-size: 60px; font-family: BACS"">lhCTCRCdc</p>","","","","","","","","","",""
"html-keyboard-response","105","143294","0.0-10.0-0.16","610834993bac40f050062896","650c16f0f2faf8d7a0d14c09","651c1d99d26d51aa04e3b5e9","null","null","<p style=""font-size: 60px; font-family: BACS"">aONdNYZu</p>","","","","","","","","","",""
"html-keyboard-response","106","144300","0.0-10.0-0.17","610834993bac40f050062896","650c16f0f2faf8d7a0d14c09","651c1d99d26d51aa04e3b5e9","null","null","<p style=""font-size: 60px; font-family: BACS"">RKYkRCdc</p>","","","","","","","","","",""
"html-keyboard-response","107","145305","0.0-10.0-0.18","610834993bac40f050062896","650c16f0f2faf8d7a0d14c09","651c1d99d26d51aa04e3b5e9","null","null","<p style=""font-size: 60px; font-family: BACS"">YuaNdLaA</p>","","","","","","","","","",""
"html-keyboard-response","108","146311","0.0-10.0-0.19","610834993bac40f050062896","650c16f0f2faf8d7a0d14c09","651c1d99d26d51aa04e3b5e9","null","null","<p style=""font-size: 60px; font-family: BACS"">YlYcBYhT</p>","","","","","","","","","",""
"html-keyboard-response","109","147317","0.0-10.0-0.20","610834993bac40f050062896","650c16f0f2faf8d7a0d14c09","651c1d99d26d51aa04e3b5e9","null","null","<p style=""font-size: 60px; font-family: BACS"">mrOdNYZu</p>","","","","","","","","","",""
"html-keyboard-response","110","148322","0.0-10.0-0.21","610834993bac40f050062896","650c16f0f2faf8d7a0d14c09","651c1d99d26d51aa04e3b5e9","null","null","<p style=""font-size: 60px; font-family: BACS"">dmZvmYbN</p>","","","","","","","","","",""
"html-keyboard-response","111","149328","0.0-10.0-0.22","610834993bac40f050062896","650c16f0f2faf8d7a0d14c09","651c1d99d26d51aa04e3b5e9","null","null","<p style=""font-size: 60px; font-family: BACS"">rckOuZc</p>","","","","","","","","","",""
"html-keyboard-response","112","150332","0.0-10.0-0.23","610834993bac40f050062896","650c16f0f2faf8d7a0d14c09","651c1d99d26d51aa04e3b5e9","null","null","<p style=""font-size: 60px; font-family: BACS"">lhCTCBbM</p>","","","","","","","","","",""
"html-keyboard-response","113","151338","0.0-10.0-0.24","610834993bac40f050062896","650c16f0f2faf8d7a0d14c09","651c1d99d26d51aa04e3b5e9","null","null","<p style=""font-size: 60px; font-family: BACS"">RKYkBYhT</p>","","","","","","","","","",""
"html-keyboard-response","114","152344","0.0-10.0-0.25","610834993bac40f050062896","650c16f0f2faf8d7a0d14c09","651c1d99d26d51aa04e3b5e9","null","null","<p style=""font-size: 60px; font-family: BACS"">OEPktRb</p>","","","","","","","","","",""
"html-keyboard-response","115","153346","0.0-10.0-0.26","610834993bac40f050062896","650c16f0f2faf8d7a0d14c09","651c1d99d26d51aa04e3b5e9","null","null","<p style=""font-size: 60px; font-family: BACS"">PMPtkBbM</p>","","","","","","","","","",""
"html-keyboard-response","116","154353","0.0-10.0-0.27","610834993bac40f050062896","650c16f0f2faf8d7a0d14c09","651c1d99d26d51aa04e3b5e9","null","null","<p style=""font-size: 60px; font-family: BACS"">dmZvmuZc</p>","","","","","","","","","",""
"html-keyboard-response","117","155354","0.0-10.0-0.28","610834993bac40f050062896","650c16f0f2faf8d7a0d14c09","651c1d99d26d51aa04e3b5e9","null","null","<p style=""font-size: 60px; font-family: BACS"">DMRPmhc</p>","","","","","","","","","",""
"html-keyboard-response","118","156360","0.0-10.0-0.29","610834993bac40f050062896","650c16f0f2faf8d7a0d14c09","651c1d99d26d51aa04e3b5e9","null","null","<p style=""font-size: 60px; font-family: BACS"">hlbtbtRb</p>","","","","","","","","","",""
"html-keyboard-response","119","157366","0.0-10.0-0.30","610834993bac40f050062896","650c16f0f2faf8d7a0d14c09","651c1d99d26d51aa04e3b5e9","null","null","<p style=""font-size: 60px; font-family: BACS"">lhCTCBYhT</p>","","","","","","","","","",""
"html-keyboard-response","120","158371","0.0-10.0-0.31","610834993bac40f050062896","650c16f0f2faf8d7a0d14c09","651c1d99d26d51aa04e3b5e9","null","null","<p style=""font-size: 60px; font-family: BACS"">ZYcQUQGb</p>","","","","","","","","","",""
"html-keyboard-response","121","159378","0.0-10.0-0.32","610834993bac40f050062896","650c16f0f2faf8d7a0d14c09","651c1d99d26d51aa04e3b5e9","null","null","<p style=""font-size: 60px; font-family: BACS"">TklDBbM</p>","","","","","","","","","",""
"html-keyboard-response","122","160384","0.0-10.0-0.33","610834993bac40f050062896","650c16f0f2faf8d7a0d14c09","651c1d99d26d51aa04e3b5e9","null","null","<p style=""font-size: 60px; font-family: BACS"">rckOLaA</p>","","","","","","","","","",""
"html-keyboard-response","123","161390","0.0-10.0-0.34","610834993bac40f050062896","650c16f0f2faf8d7a0d14c09","651c1d99d26d51aa04e3b5e9","null","null","<p style=""font-size: 60px; font-family: BACS"">OmtlDtRb</p>","","","","","","","","","",""
"html-keyboard-response","124","162395","0.0-10.0-0.35","610834993bac40f050062896","650c16f0f2faf8d7a0d14c09","651c1d99d26d51aa04e3b5e9","null","null","<p style=""font-size: 60px; font-family: BACS"">NvuGruZc</p>","","","","","","","","","",""
"html-keyboard-response","125","163399","0.0-10.0-0.36","610834993bac40f050062896","650c16f0f2faf8d7a0d14c09","651c1d99d26d51aa04e3b5e9","null","null","<p style=""font-size: 60px; font-family: BACS"">RKYktRb</p>","","","","","","","","","",""
"html-keyboard-response","126","164405","0.0-10.0-0.37","610834993bac40f050062896","650c16f0f2faf8d7a0d14c09","651c1d99d26d51aa04e3b5e9","null","null","<p style=""font-size: 60px; font-family: BACS"">YlYcBbM</p>","","","","","","","","","",""
"html-keyboard-response","127","165408","0.0-10.0-0.38","610834993bac40f050062896","650c16f0f2faf8d7a0d14c09","651c1d99d26d51aa04e3b5e9","null","null","<p style=""font-size: 60px; font-family: BACS"">kNuaQGb</p>","","","","","","","","","",""
"html-keyboard-response","128","166410","0.0-10.0-0.39","610834993bac40f050062896","650c16f0f2faf8d7a0d14c09","651c1d99d26d51aa04e3b5e9","null","null","<p style=""font-size: 60px; font-family: BACS"">YlYcmhc</p>","","","","","","","","","",""
"html-keyboard-response","129","167416","0.0-10.0-0.40","610834993bac40f050062896","650c16f0f2faf8d7a0d14c09","651c1d99d26d51aa04e3b5e9","null","null","<p style=""font-size: 60px; font-family: BACS"">kNuaYbN</p>","","","","","","","","","",""
"html-keyboard-response","130","168422","0.0-10.0-0.41","610834993bac40f050062896","650c16f0f2faf8d7a0d14c09","651c1d99d26d51aa04e3b5e9","null","null","<p style=""font-size: 60px; font-family: BACS"">OmtlDBYhT</p>","","","","","","","","","",""
"html-keyboard-response","131","169428","0.0-10.0-0.42","610834993bac40f050062896","650c16f0f2faf8d7a0d14c09","651c1d99d26d51aa04e3b5e9","null","null","<p style=""font-size: 60px; font-family: BACS"">YQbcYbN</p>","","","","","","","","","",""
"html-keyboard-response","132","170434","0.0-10.0-0.43","610834993bac40f050062896","650c16f0f2faf8d7a0d14c09","651c1d99d26d51aa04e3b5e9","null","null","<p style=""font-size: 60px; font-family: BACS"">NvuGrNYZu</p>","","","","","","","","","",""
"html-keyboard-response","133","171440","0.0-10.0-0.44","610834993bac40f050062896","650c16f0f2faf8d7a0d14c09","651c1d99d26d51aa04e3b5e9","null","null","<p style=""font-size: 60px; font-family: BACS"">TCbDCmhc</p>","","","","","","","","","",""
"html-keyboard-response","134","172445","0.0-10.0-0.45","610834993bac40f050062896","650c16f0f2faf8d7a0d14c09","651c1d99d26d51aa04e3b5e9","null","null","<p style=""font-size: 60px; font-family: BACS"">vkYGluZc</p>","","","","","","","","","",""
"html-keyboard-response","135","173452","0.0-10.0-0.46","610834993bac40f050062896","650c16f0f2faf8d7a0d14c09","651c1d99d26d51aa04e3b5e9","null","null","<p style=""font-size: 60px; font-family: BACS"">OmtlDmhc</p>","","","","","","","","","",""
"html-keyboard-response","136","174455","0.0-10.0-0.47","610834993bac40f050062896","650c16f0f2faf8d7a0d14c09","651c1d99d26d51aa04e3b5e9","null","null","<p style=""font-size: 60px; font-family: BACS"">ZYcQULaA</p>","","","","","","","","","",""
"html-keyboard-response","137","175459","0.0-10.0-0.48","610834993bac40f050062896","650c16f0f2faf8d7a0d14c09","651c1d99d26d51aa04e3b5e9","null","null","<p style=""font-size: 60px; font-family: BACS"">OEPkBbM</p>","","","","","","","","","",""
"html-keyboard-response","138","176463","0.0-10.0-0.49","610834993bac40f050062896","650c16f0f2faf8d7a0d14c09","651c1d99d26d51aa04e3b5e9","null","null","<p style=""font-size: 60px; font-family: BACS"">TklDmhc</p>","","","","","","","","","",""
"html-keyboard-response","139","177469","0.0-10.0-0.50","610834993bac40f050062896","650c16f0f2faf8d7a0d14c09","651c1d99d26d51aa04e3b5e9","null","null","<p style=""font-size: 60px; font-family: BACS"">NvuGrQGb</p>","","","","","","","","","",""
"html-keyboard-response","140","178474","0.0-10.0-0.51","610834993bac40f050062896","650c16f0f2faf8d7a0d14c09","651c1d99d26d51aa04e3b5e9","null","null","<p style=""font-size: 60px; font-family: BACS"">YuaNdYbN</p>","","","","","","","","","",""
"html-keyboard-response","141","179476","0.0-10.0-0.52","610834993bac40f050062896","650c16f0f2faf8d7a0d14c09","651c1d99d26d51aa04e3b5e9","null","null","<p style=""font-size: 60px; font-family: BACS"">vkYGlQGb</p>","","","","","","","","","",""
"html-keyboard-response","142","180482","0.0-10.0-0.53","610834993bac40f050062896","650c16f0f2faf8d7a0d14c09","651c1d99d26d51aa04e3b5e9","null","null","<p style=""font-size: 60px; font-family: BACS"">ZYcQUuZc</p>","","","","","","","","","",""
"html-keyboard-response","143","181488","0.0-10.0-0.54","610834993bac40f050062896","650c16f0f2faf8d7a0d14c09","651c1d99d26d51aa04e3b5e9","null","null","<p style=""font-size: 60px; font-family: BACS"">DMRPRCdc</p>","","","","","","","","","",""
"html-keyboard-response","144","182494","0.0-10.0-0.55","610834993bac40f050062896","650c16f0f2faf8d7a0d14c09","651c1d99d26d51aa04e3b5e9","null","null","<p style=""font-size: 60px; font-family: BACS"">TCbDCBYhT</p>","","","","","","","","","",""
"html-keyboard-response","145","183497","0.0-10.0-0.56","610834993bac40f050062896","650c16f0f2faf8d7a0d14c09","651c1d99d26d51aa04e3b5e9","null","null","<p style=""font-size: 60px; font-family: BACS"">rckONYZu</p>","","","","","","","","","",""
"html-keyboard-response","146","184503","0.0-10.0-0.57","610834993bac40f050062896","650c16f0f2faf8d7a0d14c09","651c1d99d26d51aa04e3b5e9","null","null","<p style=""font-size: 60px; font-family: BACS"">DMRPtRb</p>","","","","","","","","","",""
"html-keyboard-response","147","185506","0.0-10.0-0.58","610834993bac40f050062896","650c16f0f2faf8d7a0d14c09","651c1d99d26d51aa04e3b5e9","null","null","<p style=""font-size: 60px; font-family: BACS"">PMPtkBYhT</p>","","","","","","","","","",""
"html-keyboard-response","148","186512","0.0-10.0-0.59","610834993bac40f050062896","650c16f0f2faf8d7a0d14c09","651c1d99d26d51aa04e3b5e9","null","null","<p style=""font-size: 60px; font-family: BACS"">mrOdYbN</p>","","","","","","","","","",""
"html-keyboard-response","149","187513","0.0-10.0-0.60","610834993bac40f050062896","650c16f0f2faf8d7a0d14c09","651c1d99d26d51aa04e3b5e9","null","null","<p style=""font-size: 60px; font-family: BACS"">ZYcQUNYZu</p>","","","","","","","","","",""
"html-keyboard-response","150","188520","0.0-10.0-0.61","610834993bac40f050062896","650c16f0f2faf8d7a0d14c09","651c1d99d26d51aa04e3b5e9","null","null","<p style=""font-size: 60px; font-family: BACS"">rckOQGb</p>","","","","","","","","","",""
"html-keyboard-response","151","189525","0.0-10.0-0.62","610834993bac40f050062896","650c16f0f2faf8d7a0d14c09","651c1d99d26d51aa04e3b5e9","null","null","<p style=""font-size: 60px; font-family: BACS"">TklDRCdc</p>","","","","","","","","","",""
"html-keyboard-response","152","190532","0.0-10.0-0.63","610834993bac40f050062896","650c16f0f2faf8d7a0d14c09","651c1d99d26d51aa04e3b5e9","null","null","<p style=""font-size: 60px; font-family: BACS"">RKYkBbM</p>","","","","","","","","","",""
"html-keyboard-response","153","191533","0.0-10.0-0.64","610834993bac40f050062896","650c16f0f2faf8d7a0d14c09","651c1d99d26d51aa04e3b5e9","null","null","<p style=""font-size: 60px; font-family: BACS"">YQbcQGb</p>","","","","","","","","","",""
"html-keyboard-response","154","192539","0.0-10.0-0.65","610834993bac40f050062896","650c16f0f2faf8d7a0d14c09","651c1d99d26d51aa04e3b5e9","null","null","<p style=""font-size: 60px; font-family: BACS"">NvuGrYbN</p>","","","","","","","","","",""
"html-keyboard-response","155","193545","0.0-10.0-0.66","610834993bac40f050062896","650c16f0f2faf8d7a0d14c09","651c1d99d26d51aa04e3b5e9","null","null","<p style=""font-size: 60px; font-family: BACS"">TCbDCtRb</p>","","","","","","","","","",""
"html-keyboard-response","156","194546","0.0-10.0-0.67","610834993bac40f050062896","650c16f0f2faf8d7a0d14c09","651c1d99d26d51aa04e3b5e9","null","null","<p style=""font-size: 60px; font-family: BACS"">YQbcLaA</p>","","","","","","","","","",""
"html-keyboard-response","157","195548","0.0-10.0-0.68","610834993bac40f050062896","650c16f0f2faf8d7a0d14c09","651c1d99d26d51aa04e3b5e9","null","null","<p style=""font-size: 60px; font-family: BACS"">vkYGlYbN</p>","","","","","","","","","",""
"html-keyboard-response","158","196555","0.0-10.0-0.69","610834993bac40f050062896","650c16f0f2faf8d7a0d14c09","651c1d99d26d51aa04e3b5e9","null","null","<p style=""font-size: 60px; font-family: BACS"">OmtlDRCdc</p>","","","","","","","","","",""
"html-keyboard-response","159","197561","0.0-10.0-0.70","610834993bac40f050062896","650c16f0f2faf8d7a0d14c09","651c1d99d26d51aa04e3b5e9","null","null","<p style=""font-size: 60px; font-family: BACS"">aONdLaA</p>","","","","","","","","","",""
"html-keyboard-response","160","198563","0.0-10.0-0.71","610834993bac40f050062896","650c16f0f2faf8d7a0d14c09","651c1d99d26d51aa04e3b5e9","null","null","<p style=""font-size: 60px; font-family: BACS"">dmZvmNYZu</p>","","","","","","","","","",""
"html-keyboard-response","161","199569","0.0-10.0-0.72","610834993bac40f050062896","650c16f0f2faf8d7a0d14c09","651c1d99d26d51aa04e3b5e9","null","null","<p style=""font-size: 60px; font-family: BACS"">PMPtkRCdc</p>","","","","","","","","","",""
"html-keyboard-response","162","200572","0.0-10.0-0.73","610834993bac40f050062896","650c16f0f2faf8d7a0d14c09","651c1d99d26d51aa04e3b5e9","null","null","<p style=""font-size: 60px; font-family: BACS"">lhCTCmhc</p>","","","","","","","","","",""
"html-keyboard-response","163","201575","0.0-10.0-0.74","610834993bac40f050062896","650c16f0f2faf8d7a0d14c09","651c1d99d26d51aa04e3b5e9","null","null","<p style=""font-size: 60px; font-family: BACS"">mrOdLaA</p>","","","","","","","","","",""
"html-keyboard-response","164","202580","0.0-10.0-0.75","610834993bac40f050062896","650c16f0f2faf8d7a0d14c09","651c1d99d26d51aa04e3b5e9","null","null","<p style=""font-size: 60px; font-family: BACS"">hlbtbmhc</p>","","","","","","","","","",""
"html-keyboard-response","165","203586","0.0-10.0-0.76","610834993bac40f050062896","650c16f0f2faf8d7a0d14c09","651c1d99d26d51aa04e3b5e9","null","null","<p style=""font-size: 60px; font-family: BACS"">kNuauZc</p>","","","","","","","","","",""
"html-keyboard-response","166","204592","0.0-10.0-0.77","610834993bac40f050062896","650c16f0f2faf8d7a0d14c09","651c1d99d26d51aa04e3b5e9","null","null","<p style=""font-size: 60px; font-family: BACS"">aONdQGb</p>","","","","","","","","","",""
"html-keyboard-response","167","205597","0.0-10.0-0.78","610834993bac40f050062896","650c16f0f2faf8d7a0d14c09","651c1d99d26d51aa04e3b5e9","null","null","<p style=""font-size: 60px; font-family: BACS"">hlbtbBYhT</p>","","","","","","","","","",""
"html-keyboard-response","168","206602","0.0-10.0-0.79","610834993bac40f050062896","650c16f0f2faf8d7a0d14c09","651c1d99d26d51aa04e3b5e9","null","null","<p style=""font-size: 60px; font-family: BACS"">vkYGlNYZu</p>","","","","","","","","","",""
"html-keyboard-response","169","209447","0.0-11.0","610834993bac40f050062896","650c16f0f2faf8d7a0d14c09","651c1d99d26d51aa04e3b5e9","2843"," ","<p>Great, you've seen the second block of words. You may now take a short break.</p>
      <p>Press the spacebar when you're ready to continue.</p>","","","","","","","","","",""
"html-keyboard-response","170","210453","0.0-12.0-0.0","610834993bac40f050062896","650c16f0f2faf8d7a0d14c09","651c1d99d26d51aa04e3b5e9","null","null","<p style=""font-size: 60px; font-family: BACS"">YQbcQGb</p>","","","","","","","","","",""
"html-keyboard-response","171","211458","0.0-12.0-0.1","610834993bac40f050062896","650c16f0f2faf8d7a0d14c09","651c1d99d26d51aa04e3b5e9","null","null","<p style=""font-size: 60px; font-family: BACS"">OmtlDmhc</p>","","","","","","","","","",""
"html-keyboard-response","172","212465","0.0-12.0-0.2","610834993bac40f050062896","650c16f0f2faf8d7a0d14c09","651c1d99d26d51aa04e3b5e9","null","null","<p style=""font-size: 60px; font-family: BACS"">DMRPtRb</p>","","","","","","","","","",""
"html-keyboard-response","173","213470","0.0-12.0-0.3","610834993bac40f050062896","650c16f0f2faf8d7a0d14c09","651c1d99d26d51aa04e3b5e9","null","null","<p style=""font-size: 60px; font-family: BACS"">ZYcQULaA</p>","","","","","","","","","",""
"html-keyboard-response","174","214477","0.0-12.0-0.4","610834993bac40f050062896","650c16f0f2faf8d7a0d14c09","651c1d99d26d51aa04e3b5e9","null","null","<p style=""font-size: 60px; font-family: BACS"">YlYctRb</p>","","","","","","","","","",""
"html-keyboard-response","175","215480","0.0-12.0-0.5","610834993bac40f050062896","650c16f0f2faf8d7a0d14c09","651c1d99d26d51aa04e3b5e9","null","null","<p style=""font-size: 60px; font-family: BACS"">rckONYZu</p>","","","","","","","","","",""
"html-keyboard-response","176","216486","0.0-12.0-0.6","610834993bac40f050062896","650c16f0f2faf8d7a0d14c09","651c1d99d26d51aa04e3b5e9","null","null","<p style=""font-size: 60px; font-family: BACS"">RKYktRb</p>","","","","","","","","","",""
"html-keyboard-response","177","217490","0.0-12.0-0.7","610834993bac40f050062896","650c16f0f2faf8d7a0d14c09","651c1d99d26d51aa04e3b5e9","null","null","<p style=""font-size: 60px; font-family: BACS"">aONdNYZu</p>","","","","","","","","","",""
"html-keyboard-response","178","218496","0.0-12.0-0.8","610834993bac40f050062896","650c16f0f2faf8d7a0d14c09","651c1d99d26d51aa04e3b5e9","null","null","<p style=""font-size: 60px; font-family: BACS"">kNuauZc</p>","","","","","","","","","",""
"html-keyboard-response","179","219498","0.0-12.0-0.9","610834993bac40f050062896","650c16f0f2faf8d7a0d14c09","651c1d99d26d51aa04e3b5e9","null","null","<p style=""font-size: 60px; font-family: BACS"">mrOdYbN</p>","","","","","","","","","",""
"html-keyboard-response","180","220504","0.0-12.0-0.10","610834993bac40f050062896","650c16f0f2faf8d7a0d14c09","651c1d99d26d51aa04e3b5e9","null","null","<p style=""font-size: 60px; font-family: BACS"">TklDBbM</p>","","","","","","","","","",""
"html-keyboard-response","181","221511","0.0-12.0-0.11","610834993bac40f050062896","650c16f0f2faf8d7a0d14c09","651c1d99d26d51aa04e3b5e9","null","null","<p style=""font-size: 60px; font-family: BACS"">YuaNdQGb</p>","","","","","","","","","",""
"html-keyboard-response","182","222513","0.0-12.0-0.12","610834993bac40f050062896","650c16f0f2faf8d7a0d14c09","651c1d99d26d51aa04e3b5e9","null","null","<p style=""font-size: 60px; font-family: BACS"">NvuGruZc</p>","","","","","","","","","",""
"html-keyboard-response","183","223515","0.0-12.0-0.13","610834993bac40f050062896","650c16f0f2faf8d7a0d14c09","651c1d99d26d51aa04e3b5e9","null","null","<p style=""font-size: 60px; font-family: BACS"">YlYcBYhT</p>","","","","","","","","","",""
"html-keyboard-response","184","224521","0.0-12.0-0.14","610834993bac40f050062896","650c16f0f2faf8d7a0d14c09","651c1d99d26d51aa04e3b5e9","null","null","<p style=""font-size: 60px; font-family: BACS"">rckOQGb</p>","","","","","","","","","",""
"html-keyboard-response","185","225522","0.0-12.0-0.15","610834993bac40f050062896","650c16f0f2faf8d7a0d14c09","651c1d99d26d51aa04e3b5e9","null","null","<p style=""font-size: 60px; font-family: BACS"">YuaNdNYZu</p>","","","","","","","","","",""
"html-keyboard-response","186","226528","0.0-12.0-0.16","610834993bac40f050062896","650c16f0f2faf8d7a0d14c09","651c1d99d26d51aa04e3b5e9","null","null","<p style=""font-size: 60px; font-family: BACS"">dmZvmLaA</p>","","","","","","","","","",""
"html-keyboard-response","187","227533","0.0-12.0-0.17","610834993bac40f050062896","650c16f0f2faf8d7a0d14c09","651c1d99d26d51aa04e3b5e9","null","null","<p style=""font-size: 60px; font-family: BACS"">YQbcuZc</p>","","","","","","","","","",""
"html-keyboard-response","188","228539","0.0-12.0-0.18","610834993bac40f050062896","650c16f0f2faf8d7a0d14c09","651c1d99d26d51aa04e3b5e9","null","null","<p style=""font-size: 60px; font-family: BACS"">TCbDCmhc</p>","","","","","","","","","",""
"html-keyboard-response","189","229545","0.0-12.0-0.19","610834993bac40f050062896","650c16f0f2faf8d7a0d14c09","651c1d99d26d51aa04e3b5e9","null","null","<p style=""font-size: 60px; font-family: BACS"">YlYcBbM</p>","","","","","","","","","",""
"html-keyboard-response","190","230546","0.0-12.0-0.20","610834993bac40f050062896","650c16f0f2faf8d7a0d14c09","651c1d99d26d51aa04e3b5e9","null","null","<p style=""font-size: 60px; font-family: BACS"">hlbtbtRb</p>","","","","","","","","","",""
"html-keyboard-response","191","231552","0.0-12.0-0.21","610834993bac40f050062896","650c16f0f2faf8d7a0d14c09","651c1d99d26d51aa04e3b5e9","null","null","<p style=""font-size: 60px; font-family: BACS"">vkYGlQGb</p>","","","","","","","","","",""
"html-keyboard-response","192","232558","0.0-12.0-0.22","610834993bac40f050062896","650c16f0f2faf8d7a0d14c09","651c1d99d26d51aa04e3b5e9","null","null","<p style=""font-size: 60px; font-family: BACS"">TCbDCRCdc</p>","","","","","","","","","",""
"html-keyboard-response","193","233563","0.0-12.0-0.23","610834993bac40f050062896","650c16f0f2faf8d7a0d14c09","651c1d99d26d51aa04e3b5e9","null","null","<p style=""font-size: 60px; font-family: BACS"">DMRPmhc</p>","","","","","","","","","",""
"html-keyboard-response","194","234569","0.0-12.0-0.24","610834993bac40f050062896","650c16f0f2faf8d7a0d14c09","651c1d99d26d51aa04e3b5e9","null","null","<p style=""font-size: 60px; font-family: BACS"">TCbDCtRb</p>","","","","","","","","","",""
"html-keyboard-response","195","235575","0.0-12.0-0.25","610834993bac40f050062896","650c16f0f2faf8d7a0d14c09","651c1d99d26d51aa04e3b5e9","null","null","<p style=""font-size: 60px; font-family: BACS"">TklDmhc</p>","","","","","","","","","",""
"html-keyboard-response","196","236581","0.0-12.0-0.26","610834993bac40f050062896","650c16f0f2faf8d7a0d14c09","651c1d99d26d51aa04e3b5e9","null","null","<p style=""font-size: 60px; font-family: BACS"">mrOdLaA</p>","","","","","","","","","",""
"html-keyboard-response","197","237587","0.0-12.0-0.27","610834993bac40f050062896","650c16f0f2faf8d7a0d14c09","651c1d99d26d51aa04e3b5e9","null","null","<p style=""font-size: 60px; font-family: BACS"">OEPkRCdc</p>","","","","","","","","","",""
"html-keyboard-response","198","238592","0.0-12.0-0.28","610834993bac40f050062896","650c16f0f2faf8d7a0d14c09","651c1d99d26d51aa04e3b5e9","null","null","<p style=""font-size: 60px; font-family: BACS"">YuaNdYbN</p>","","","","","","","","","",""
"html-keyboard-response","199","239598","0.0-12.0-0.29","610834993bac40f050062896","650c16f0f2faf8d7a0d14c09","651c1d99d26d51aa04e3b5e9","null","null","<p style=""font-size: 60px; font-family: BACS"">lhCTCBbM</p>","","","","","","","","","",""
"html-keyboard-response","200","240604","0.0-12.0-0.30","610834993bac40f050062896","650c16f0f2faf8d7a0d14c09","651c1d99d26d51aa04e3b5e9","null","null","<p style=""font-size: 60px; font-family: BACS"">kNuaYbN</p>","","","","","","","","","",""
"html-keyboard-response","201","241610","0.0-12.0-0.31","610834993bac40f050062896","650c16f0f2faf8d7a0d14c09","651c1d99d26d51aa04e3b5e9","null","null","<p style=""font-size: 60px; font-family: BACS"">lhCTCmhc</p>","","","","","","","","","",""
"html-keyboard-response","202","242613","0.0-12.0-0.32","610834993bac40f050062896","650c16f0f2faf8d7a0d14c09","651c1d99d26d51aa04e3b5e9","null","null","<p style=""font-size: 60px; font-family: BACS"">ZYcQUuZc</p>","","","","","","","","","",""
"html-keyboard-response","203","243618","0.0-12.0-0.33","610834993bac40f050062896","650c16f0f2faf8d7a0d14c09","651c1d99d26d51aa04e3b5e9","null","null","<p style=""font-size: 60px; font-family: BACS"">DMRPBbM</p>","","","","","","","","","",""
"html-keyboard-response","204","244623","0.0-12.0-0.34","610834993bac40f050062896","650c16f0f2faf8d7a0d14c09","651c1d99d26d51aa04e3b5e9","null","null","<p style=""font-size: 60px; font-family: BACS"">dmZvmNYZu</p>","","","","","","","","","",""
"html-keyboard-response","205","245630","0.0-12.0-0.35","610834993bac40f050062896","650c16f0f2faf8d7a0d14c09","651c1d99d26d51aa04e3b5e9","null","null","<p style=""font-size: 60px; font-family: BACS"">hlbtbmhc</p>","","","","","","","","","",""
"html-keyboard-response","206","246636","0.0-12.0-0.36","610834993bac40f050062896","650c16f0f2faf8d7a0d14c09","651c1d99d26d51aa04e3b5e9","null","null","<p style=""font-size: 60px; font-family: BACS"">lhCTCBYhT</p>","","","","","","","","","",""
"html-keyboard-response","207","247642","0.0-12.0-0.37","610834993bac40f050062896","650c16f0f2faf8d7a0d14c09","651c1d99d26d51aa04e3b5e9","null","null","<p style=""font-size: 60px; font-family: BACS"">PMPtkRCdc</p>","","","","","","","","","",""
"html-keyboard-response","208","248646","0.0-12.0-0.38","610834993bac40f050062896","650c16f0f2faf8d7a0d14c09","651c1d99d26d51aa04e3b5e9","null","null","<p style=""font-size: 60px; font-family: BACS"">mrOdNYZu</p>","","","","","","","","","",""
"html-keyboard-response","209","249653","0.0-12.0-0.39","610834993bac40f050062896","650c16f0f2faf8d7a0d14c09","651c1d99d26d51aa04e3b5e9","null","null","<p style=""font-size: 60px; font-family: BACS"">RKYkBbM</p>","","","","","","","","","",""
"html-keyboard-response","210","250659","0.0-12.0-0.40","610834993bac40f050062896","650c16f0f2faf8d7a0d14c09","651c1d99d26d51aa04e3b5e9","null","null","<p style=""font-size: 60px; font-family: BACS"">OmtlDBYhT</p>","","","","","","","","","",""
"html-keyboard-response","211","251665","0.0-12.0-0.41","610834993bac40f050062896","650c16f0f2faf8d7a0d14c09","651c1d99d26d51aa04e3b5e9","null","null","<p style=""font-size: 60px; font-family: BACS"">dmZvmuZc</p>","","","","","","","","","",""
"html-keyboard-response","212","252671","0.0-12.0-0.42","610834993bac40f050062896","650c16f0f2faf8d7a0d14c09","651c1d99d26d51aa04e3b5e9","null","null","<p style=""font-size: 60px; font-family: BACS"">lhCTCRCdc</p>","","","","","","","","","",""
"html-keyboard-response","213","253677","0.0-12.0-0.43","610834993bac40f050062896","650c16f0f2faf8d7a0d14c09","651c1d99d26d51aa04e3b5e9","null","null","<p style=""font-size: 60px; font-family: BACS"">aONdYbN</p>","","","","","","","","","",""
"html-keyboard-response","214","254683","0.0-12.0-0.44","610834993bac40f050062896","650c16f0f2faf8d7a0d14c09","651c1d99d26d51aa04e3b5e9","null","null","<p style=""font-size: 60px; font-family: BACS"">OEPkBbM</p>","","","","","","","","","",""
"html-keyboard-response","215","255689","0.0-12.0-0.45","610834993bac40f050062896","650c16f0f2faf8d7a0d14c09","651c1d99d26d51aa04e3b5e9","null","null","<p style=""font-size: 60px; font-family: BACS"">vkYGlNYZu</p>","","","","","","","","","",""
"html-keyboard-response","216","256695","0.0-12.0-0.46","610834993bac40f050062896","650c16f0f2faf8d7a0d14c09","651c1d99d26d51aa04e3b5e9","null","null","<p style=""font-size: 60px; font-family: BACS"">YlYcmhc</p>","","","","","","","","","",""
"html-keyboard-response","217","257701","0.0-12.0-0.47","610834993bac40f050062896","650c16f0f2faf8d7a0d14c09","651c1d99d26d51aa04e3b5e9","null","null","<p style=""font-size: 60px; font-family: BACS"">OmtlDRCdc</p>","","","","","","","","","",""
"html-keyboard-response","218","258707","0.0-12.0-0.48","610834993bac40f050062896","650c16f0f2faf8d7a0d14c09","651c1d99d26d51aa04e3b5e9","null","null","<p style=""font-size: 60px; font-family: BACS"">ZYcQUNYZu</p>","","","","","","","","","",""
"html-keyboard-response","219","259713","0.0-12.0-0.49","610834993bac40f050062896","650c16f0f2faf8d7a0d14c09","651c1d99d26d51aa04e3b5e9","null","null","<p style=""font-size: 60px; font-family: BACS"">kNuaLaA</p>","","","","","","","","","",""
"html-keyboard-response","220","260719","0.0-12.0-0.50","610834993bac40f050062896","650c16f0f2faf8d7a0d14c09","651c1d99d26d51aa04e3b5e9","null","null","<p style=""font-size: 60px; font-family: BACS"">NvuGrNYZu</p>","","","","","","","","","",""
"html-keyboard-response","221","261725","0.0-12.0-0.51","610834993bac40f050062896","650c16f0f2faf8d7a0d14c09","651c1d99d26d51aa04e3b5e9","null","null","<p style=""font-size: 60px; font-family: BACS"">PMPtkBYhT</p>","","","","","","","","","",""
"html-keyboard-response","222","262730","0.0-12.0-0.52","610834993bac40f050062896","650c16f0f2faf8d7a0d14c09","651c1d99d26d51aa04e3b5e9","null","null","<p style=""font-size: 60px; font-family: BACS"">OmtlDtRb</p>","","","","","","","","","",""
"html-keyboard-response","223","263736","0.0-12.0-0.53","610834993bac40f050062896","650c16f0f2faf8d7a0d14c09","651c1d99d26d51aa04e3b5e9","null","null","<p style=""font-size: 60px; font-family: BACS"">TCbDCBYhT</p>","","","","","","","","","",""
"html-keyboard-response","224","264738","0.0-12.0-0.54","610834993bac40f050062896","650c16f0f2faf8d7a0d14c09","651c1d99d26d51aa04e3b5e9","null","null","<p style=""font-size: 60px; font-family: BACS"">PMPtkmhc</p>","","","","","","","","","",""
"html-keyboard-response","225","265744","0.0-12.0-0.55","610834993bac40f050062896","650c16f0f2faf8d7a0d14c09","651c1d99d26d51aa04e3b5e9","null","null","<p style=""font-size: 60px; font-family: BACS"">NvuGrYbN</p>","","","","","","","","","",""
"html-keyboard-response","226","266750","0.0-12.0-0.56","610834993bac40f050062896","650c16f0f2faf8d7a0d14c09","651c1d99d26d51aa04e3b5e9","null","null","<p style=""font-size: 60px; font-family: BACS"">hlbtbBYhT</p>","","","","","","","","","",""
"html-keyboard-response","227","267755","0.0-12.0-0.57","610834993bac40f050062896","650c16f0f2faf8d7a0d14c09","651c1d99d26d51aa04e3b5e9","null","null","<p style=""font-size: 60px; font-family: BACS"">TklDtRb</p>","","","","","","","","","",""
"html-keyboard-response","228","268761","0.0-12.0-0.58","610834993bac40f050062896","650c16f0f2faf8d7a0d14c09","651c1d99d26d51aa04e3b5e9","null","null","<p style=""font-size: 60px; font-family: BACS"">vkYGlYbN</p>","","","","","","","","","",""
"html-keyboard-response","229","269767","0.0-12.0-0.59","610834993bac40f050062896","650c16f0f2faf8d7a0d14c09","651c1d99d26d51aa04e3b5e9","null","null","<p style=""font-size: 60px; font-family: BACS"">NvuGrQGb</p>","","","","","","","","","",""
"html-keyboard-response","230","270773","0.0-12.0-0.60","610834993bac40f050062896","650c16f0f2faf8d7a0d14c09","651c1d99d26d51aa04e3b5e9","null","null","<p style=""font-size: 60px; font-family: BACS"">vkYGluZc</p>","","","","","","","","","",""
"html-keyboard-response","231","271778","0.0-12.0-0.61","610834993bac40f050062896","650c16f0f2faf8d7a0d14c09","651c1d99d26d51aa04e3b5e9","null","null","<p style=""font-size: 60px; font-family: BACS"">dmZvmYbN</p>","","","","","","","","","",""
"html-keyboard-response","232","272785","0.0-12.0-0.62","610834993bac40f050062896","650c16f0f2faf8d7a0d14c09","651c1d99d26d51aa04e3b5e9","null","null","<p style=""font-size: 60px; font-family: BACS"">kNuaQGb</p>","","","","","","","","","",""
"html-keyboard-response","233","273791","0.0-12.0-0.63","610834993bac40f050062896","650c16f0f2faf8d7a0d14c09","651c1d99d26d51aa04e3b5e9","null","null","<p style=""font-size: 60px; font-family: BACS"">YQbcYbN</p>","","","","","","","","","",""
"html-keyboard-response","234","274796","0.0-12.0-0.64","610834993bac40f050062896","650c16f0f2faf8d7a0d14c09","651c1d99d26d51aa04e3b5e9","null","null","<p style=""font-size: 60px; font-family: BACS"">OEPktRb</p>","","","","","","","","","",""
"html-keyboard-response","235","275802","0.0-12.0-0.65","610834993bac40f050062896","650c16f0f2faf8d7a0d14c09","651c1d99d26d51aa04e3b5e9","null","null","<p style=""font-size: 60px; font-family: BACS"">YQbcLaA</p>","","","","","","","","","",""
"html-keyboard-response","236","276808","0.0-12.0-0.66","610834993bac40f050062896","650c16f0f2faf8d7a0d14c09","651c1d99d26d51aa04e3b5e9","null","null","<p style=""font-size: 60px; font-family: BACS"">mrOduZc</p>","","","","","","","","","",""
"html-keyboard-response","237","277813","0.0-12.0-0.67","610834993bac40f050062896","650c16f0f2faf8d7a0d14c09","651c1d99d26d51aa04e3b5e9","null","null","<p style=""font-size: 60px; font-family: BACS"">aONdQGb</p>","","","","","","","","","",""
"html-keyboard-response","238","278819","0.0-12.0-0.68","610834993bac40f050062896","650c16f0f2faf8d7a0d14c09","651c1d99d26d51aa04e3b5e9","null","null","<p style=""font-size: 60px; font-family: BACS"">OEPkBYhT</p>","","","","","","","","","",""
"html-keyboard-response","239","279820","0.0-12.0-0.69","610834993bac40f050062896","650c16f0f2faf8d7a0d14c09","651c1d99d26d51aa04e3b5e9","null","null","<p style=""font-size: 60px; font-family: BACS"">TklDRCdc</p>","","","","","","","","","",""
"html-keyboard-response","240","280825","0.0-12.0-0.70","610834993bac40f050062896","650c16f0f2faf8d7a0d14c09","651c1d99d26d51aa04e3b5e9","null","null","<p style=""font-size: 60px; font-family: BACS"">hlbtbBbM</p>","","","","","","","","","",""
"html-keyboard-response","241","281826","0.0-12.0-0.71","610834993bac40f050062896","650c16f0f2faf8d7a0d14c09","651c1d99d26d51aa04e3b5e9","null","null","<p style=""font-size: 60px; font-family: BACS"">aONdLaA</p>","","","","","","","","","",""
"html-keyboard-response","242","282832","0.0-12.0-0.72","610834993bac40f050062896","650c16f0f2faf8d7a0d14c09","651c1d99d26d51aa04e3b5e9","null","null","<p style=""font-size: 60px; font-family: BACS"">rckOuZc</p>","","","","","","","","","",""
"html-keyboard-response","243","283838","0.0-12.0-0.73","610834993bac40f050062896","650c16f0f2faf8d7a0d14c09","651c1d99d26d51aa04e3b5e9","null","null","<p style=""font-size: 60px; font-family: BACS"">RKYkBYhT</p>","","","","","","","","","",""
"html-keyboard-response","244","284844","0.0-12.0-0.74","610834993bac40f050062896","650c16f0f2faf8d7a0d14c09","651c1d99d26d51aa04e3b5e9","null","null","<p style=""font-size: 60px; font-family: BACS"">ZYcQUQGb</p>","","","","","","","","","",""
"html-keyboard-response","245","285849","0.0-12.0-0.75","610834993bac40f050062896","650c16f0f2faf8d7a0d14c09","651c1d99d26d51aa04e3b5e9","null","null","<p style=""font-size: 60px; font-family: BACS"">rckOLaA</p>","","","","","","","","","",""
"html-keyboard-response","246","286853","0.0-12.0-0.76","610834993bac40f050062896","650c16f0f2faf8d7a0d14c09","651c1d99d26d51aa04e3b5e9","null","null","<p style=""font-size: 60px; font-family: BACS"">RKYkRCdc</p>","","","","","","","","","",""
"html-keyboard-response","247","287859","0.0-12.0-0.77","610834993bac40f050062896","650c16f0f2faf8d7a0d14c09","651c1d99d26d51aa04e3b5e9","null","null","<p style=""font-size: 60px; font-family: BACS"">PMPtkBbM</p>","","","","","","","","","",""
"html-keyboard-response","248","288865","0.0-12.0-0.78","610834993bac40f050062896","650c16f0f2faf8d7a0d14c09","651c1d99d26d51aa04e3b5e9","null","null","<p style=""font-size: 60px; font-family: BACS"">DMRPRCdc</p>","","","","","","","","","",""
"html-keyboard-response","249","289870","0.0-12.0-0.79","610834993bac40f050062896","650c16f0f2faf8d7a0d14c09","651c1d99d26d51aa04e3b5e9","null","null","<p style=""font-size: 60px; font-family: BACS"">YuaNdLaA</p>","","","","","","","","","",""
"html-keyboard-response","250","293435","0.0-13.0","610834993bac40f050062896","650c16f0f2faf8d7a0d14c09","651c1d99d26d51aa04e3b5e9","3565"," ","<p>Great, you've seen the third block of words. You may now take a short break.</p>
      <p>Press the spacebar when you're ready to continue.</p>","","","","","","","","","",""
"html-keyboard-response","251","294441","0.0-14.0-0.0","610834993bac40f050062896","650c16f0f2faf8d7a0d14c09","651c1d99d26d51aa04e3b5e9","null","null","<p style=""font-size: 60px; font-family: BACS"">DMRPmhc</p>","","","","","","","","","",""
"html-keyboard-response","252","295446","0.0-14.0-0.1","610834993bac40f050062896","650c16f0f2faf8d7a0d14c09","651c1d99d26d51aa04e3b5e9","null","null","<p style=""font-size: 60px; font-family: BACS"">vkYGlNYZu</p>","","","","","","","","","",""
"html-keyboard-response","253","296452","0.0-14.0-0.2","610834993bac40f050062896","650c16f0f2faf8d7a0d14c09","651c1d99d26d51aa04e3b5e9","null","null","<p style=""font-size: 60px; font-family: BACS"">OmtlDRCdc</p>","","","","","","","","","",""
"html-keyboard-response","254","297458","0.0-14.0-0.3","610834993bac40f050062896","650c16f0f2faf8d7a0d14c09","651c1d99d26d51aa04e3b5e9","null","null","<p style=""font-size: 60px; font-family: BACS"">YuaNdNYZu</p>","","","","","","","","","",""
"html-keyboard-response","255","298464","0.0-14.0-0.4","610834993bac40f050062896","650c16f0f2faf8d7a0d14c09","651c1d99d26d51aa04e3b5e9","null","null","<p style=""font-size: 60px; font-family: BACS"">rckOQGb</p>","","","","","","","","","",""
"html-keyboard-response","256","299471","0.0-14.0-0.5","610834993bac40f050062896","650c16f0f2faf8d7a0d14c09","651c1d99d26d51aa04e3b5e9","null","null","<p style=""font-size: 60px; font-family: BACS"">OEPkBYhT</p>","","","","","","","","","",""
"html-keyboard-response","257","300476","0.0-14.0-0.6","610834993bac40f050062896","650c16f0f2faf8d7a0d14c09","651c1d99d26d51aa04e3b5e9","null","null","<p style=""font-size: 60px; font-family: BACS"">DMRPBbM</p>","","","","","","","","","",""
"html-keyboard-response","258","301483","0.0-14.0-0.7","610834993bac40f050062896","650c16f0f2faf8d7a0d14c09","651c1d99d26d51aa04e3b5e9","null","null","<p style=""font-size: 60px; font-family: BACS"">kNuaLaA</p>","","","","","","","","","",""
"html-keyboard-response","259","302490","0.0-14.0-0.8","610834993bac40f050062896","650c16f0f2faf8d7a0d14c09","651c1d99d26d51aa04e3b5e9","null","null","<p style=""font-size: 60px; font-family: BACS"">RKYkRCdc</p>","","","","","","","","","",""
"html-keyboard-response","260","303491","0.0-14.0-0.9","610834993bac40f050062896","650c16f0f2faf8d7a0d14c09","651c1d99d26d51aa04e3b5e9","null","null","<p style=""font-size: 60px; font-family: BACS"">NvuGrYbN</p>","","","","","","","","","",""
"html-keyboard-response","261","304497","0.0-14.0-0.10","610834993bac40f050062896","650c16f0f2faf8d7a0d14c09","651c1d99d26d51aa04e3b5e9","null","null","<p style=""font-size: 60px; font-family: BACS"">lhCTCBbM</p>","","","","","","","","","",""
"html-keyboard-response","262","305503","0.0-14.0-0.11","610834993bac40f050062896","650c16f0f2faf8d7a0d14c09","651c1d99d26d51aa04e3b5e9","null","null","<p style=""font-size: 60px; font-family: BACS"">NvuGrQGb</p>","","","","","","","","","",""
"html-keyboard-response","263","306510","0.0-14.0-0.12","610834993bac40f050062896","650c16f0f2faf8d7a0d14c09","651c1d99d26d51aa04e3b5e9","null","null","<p style=""font-size: 60px; font-family: BACS"">TklDRCdc</p>","","","","","","","","","",""
"html-keyboard-response","264","307526","0.0-14.0-0.13","610834993bac40f050062896","650c16f0f2faf8d7a0d14c09","651c1d99d26d51aa04e3b5e9","null","null","<p style=""font-size: 60px; font-family: BACS"">OEPktRb</p>","","","","","","","","","",""
"html-keyboard-response","265","308529","0.0-14.0-0.14","610834993bac40f050062896","650c16f0f2faf8d7a0d14c09","651c1d99d26d51aa04e3b5e9","null","null","<p style=""font-size: 60px; font-family: BACS"">mrOdNYZu</p>","","","","","","","","","",""
"html-keyboard-response","266","309534","0.0-14.0-0.15","610834993bac40f050062896","650c16f0f2faf8d7a0d14c09","651c1d99d26d51aa04e3b5e9","null","null","<p style=""font-size: 60px; font-family: BACS"">PMPtkBYhT</p>","","","","","","","","","",""
"html-keyboard-response","267","310540","0.0-14.0-0.16","610834993bac40f050062896","650c16f0f2faf8d7a0d14c09","651c1d99d26d51aa04e3b5e9","null","null","<p style=""font-size: 60px; font-family: BACS"">OEPkRCdc</p>","","","","","","","","","",""
"html-keyboard-response","268","311547","0.0-14.0-0.17","610834993bac40f050062896","650c16f0f2faf8d7a0d14c09","651c1d99d26d51aa04e3b5e9","null","null","<p style=""font-size: 60px; font-family: BACS"">NvuGruZc</p>","","","","","","","","","",""
"html-keyboard-response","269","312553","0.0-14.0-0.18","610834993bac40f050062896","650c16f0f2faf8d7a0d14c09","651c1d99d26d51aa04e3b5e9","null","null","<p style=""font-size: 60px; font-family: BACS"">ZYcQULaA</p>","","","","","","","","","",""
"html-keyboard-response","270","313559","0.0-14.0-0.19","610834993bac40f050062896","650c16f0f2faf8d7a0d14c09","651c1d99d26d51aa04e3b5e9","null","null","<p style=""font-size: 60px; font-family: BACS"">OmtlDBYhT</p>","","","","","","","","","",""
"html-keyboard-response","271","314563","0.0-14.0-0.20","610834993bac40f050062896","650c16f0f2faf8d7a0d14c09","651c1d99d26d51aa04e3b5e9","null","null","<p style=""font-size: 60px; font-family: BACS"">aONdLaA</p>","","","","","","","","","",""
"html-keyboard-response","272","315569","0.0-14.0-0.21","610834993bac40f050062896","650c16f0f2faf8d7a0d14c09","651c1d99d26d51aa04e3b5e9","null","null","<p style=""font-size: 60px; font-family: BACS"">hlbtbtRb</p>","","","","","","","","","",""
"html-keyboard-response","273","316575","0.0-14.0-0.22","610834993bac40f050062896","650c16f0f2faf8d7a0d14c09","651c1d99d26d51aa04e3b5e9","null","null","<p style=""font-size: 60px; font-family: BACS"">dmZvmNYZu</p>","","","","","","","","","",""
"html-keyboard-response","274","317580","0.0-14.0-0.23","610834993bac40f050062896","650c16f0f2faf8d7a0d14c09","651c1d99d26d51aa04e3b5e9","null","null","<p style=""font-size: 60px; font-family: BACS"">TCbDCRCdc</p>","","","","","","","","","",""
"html-keyboard-response","275","318586","0.0-14.0-0.24","610834993bac40f050062896","650c16f0f2faf8d7a0d14c09","651c1d99d26d51aa04e3b5e9","null","null","<p style=""font-size: 60px; font-family: BACS"">TklDtRb</p>","","","","","","","","","",""
"html-keyboard-response","276","319591","0.0-14.0-0.25","610834993bac40f050062896","650c16f0f2faf8d7a0d14c09","651c1d99d26d51aa04e3b5e9","null","null","<p style=""font-size: 60px; font-family: BACS"">dmZvmYbN</p>","","","","","","","","","",""
"html-keyboard-response","277","320596","0.0-14.0-0.26","610834993bac40f050062896","650c16f0f2faf8d7a0d14c09","651c1d99d26d51aa04e3b5e9","null","null","<p style=""font-size: 60px; font-family: BACS"">OmtlDtRb</p>","","","","","","","","","",""
"html-keyboard-response","278","321601","0.0-14.0-0.27","610834993bac40f050062896","650c16f0f2faf8d7a0d14c09","651c1d99d26d51aa04e3b5e9","null","null","<p style=""font-size: 60px; font-family: BACS"">lhCTCBYhT</p>","","","","","","","","","",""
"html-keyboard-response","279","322607","0.0-14.0-0.28","610834993bac40f050062896","650c16f0f2faf8d7a0d14c09","651c1d99d26d51aa04e3b5e9","null","null","<p style=""font-size: 60px; font-family: BACS"">kNuauZc</p>","","","","","","","","","",""
"html-keyboard-response","280","323613","0.0-14.0-0.29","610834993bac40f050062896","650c16f0f2faf8d7a0d14c09","651c1d99d26d51aa04e3b5e9","null","null","<p style=""font-size: 60px; font-family: BACS"">DMRPRCdc</p>","","","","","","","","","",""
"html-keyboard-response","281","324620","0.0-14.0-0.30","610834993bac40f050062896","650c16f0f2faf8d7a0d14c09","651c1d99d26d51aa04e3b5e9","null","null","<p style=""font-size: 60px; font-family: BACS"">aONdNYZu</p>","","","","","","","","","",""
"html-keyboard-response","282","325626","0.0-14.0-0.31","610834993bac40f050062896","650c16f0f2faf8d7a0d14c09","651c1d99d26d51aa04e3b5e9","null","null","<p style=""font-size: 60px; font-family: BACS"">lhCTCmhc</p>","","","","","","","","","",""
"html-keyboard-response","283","326631","0.0-14.0-0.32","610834993bac40f050062896","650c16f0f2faf8d7a0d14c09","651c1d99d26d51aa04e3b5e9","null","null","<p style=""font-size: 60px; font-family: BACS"">dmZvmuZc</p>","","","","","","","","","",""
"html-keyboard-response","284","327637","0.0-14.0-0.33","610834993bac40f050062896","650c16f0f2faf8d7a0d14c09","651c1d99d26d51aa04e3b5e9","null","null","<p style=""font-size: 60px; font-family: BACS"">OEPkBbM</p>","","","","","","","","","",""
"html-keyboard-response","285","328644","0.0-14.0-0.34","610834993bac40f050062896","650c16f0f2faf8d7a0d14c09","651c1d99d26d51aa04e3b5e9","null","null","<p style=""font-size: 60px; font-family: BACS"">TklDmhc</p>","","","","","","","","","",""
"html-keyboard-response","286","329650","0.0-14.0-0.35","610834993bac40f050062896","650c16f0f2faf8d7a0d14c09","651c1d99d26d51aa04e3b5e9","null","null","<p style=""font-size: 60px; font-family: BACS"">rckOLaA</p>","","","","","","","","","",""
"html-keyboard-response","287","330655","0.0-14.0-0.36","610834993bac40f050062896","650c16f0f2faf8d7a0d14c09","651c1d99d26d51aa04e3b5e9","null","null","<p style=""font-size: 60px; font-family: BACS"">mrOduZc</p>","","","","","","","","","",""
"html-keyboard-response","288","331661","0.0-14.0-0.37","610834993bac40f050062896","650c16f0f2faf8d7a0d14c09","651c1d99d26d51aa04e3b5e9","null","null","<p style=""font-size: 60px; font-family: BACS"">PMPtkRCdc</p>","","","","","","","","","",""
"html-keyboard-response","289","332667","0.0-14.0-0.38","610834993bac40f050062896","650c16f0f2faf8d7a0d14c09","651c1d99d26d51aa04e3b5e9","null","null","<p style=""font-size: 60px; font-family: BACS"">rckOuZc</p>","","","","","","","","","",""
"html-keyboard-response","290","333673","0.0-14.0-0.39","610834993bac40f050062896","650c16f0f2faf8d7a0d14c09","651c1d99d26d51aa04e3b5e9","null","null","<p style=""font-size: 60px; font-family: BACS"">YlYcBbM</p>","","","","","","","","","",""
"html-keyboard-response","291","334675","0.0-14.0-0.40","610834993bac40f050062896","650c16f0f2faf8d7a0d14c09","651c1d99d26d51aa04e3b5e9","null","null","<p style=""font-size: 60px; font-family: BACS"">ZYcQUQGb</p>","","","","","","","","","",""
"html-keyboard-response","292","335681","0.0-14.0-0.41","610834993bac40f050062896","650c16f0f2faf8d7a0d14c09","651c1d99d26d51aa04e3b5e9","null","null","<p style=""font-size: 60px; font-family: BACS"">RKYktRb</p>","","","","","","","","","",""
"html-keyboard-response","293","336682","0.0-14.0-0.42","610834993bac40f050062896","650c16f0f2faf8d7a0d14c09","651c1d99d26d51aa04e3b5e9","null","null","<p style=""font-size: 60px; font-family: BACS"">hlbtbBbM</p>","","","","","","","","","",""
"html-keyboard-response","294","337686","0.0-14.0-0.43","610834993bac40f050062896","650c16f0f2faf8d7a0d14c09","651c1d99d26d51aa04e3b5e9","null","null","<p style=""font-size: 60px; font-family: BACS"">YlYcBYhT</p>","","","","","","","","","",""
"html-keyboard-response","295","338693","0.0-14.0-0.44","610834993bac40f050062896","650c16f0f2faf8d7a0d14c09","651c1d99d26d51aa04e3b5e9","null","null","<p style=""font-size: 60px; font-family: BACS"">NvuGrNYZu</p>","","","","","","","","","",""
"html-keyboard-response","296","339699","0.0-14.0-0.45","610834993bac40f050062896","650c16f0f2faf8d7a0d14c09","651c1d99d26d51aa04e3b5e9","null","null","<p style=""font-size: 60px; font-family: BACS"">DMRPtRb</p>","","","","","","","","","",""
"html-keyboard-response","297","340704","0.0-14.0-0.46","610834993bac40f050062896","650c16f0f2faf8d7a0d14c09","651c1d99d26d51aa04e3b5e9","null","null","<p style=""font-size: 60px; font-family: BACS"">YQbcYbN</p>","","","","","","","","","",""
"html-keyboard-response","298","341710","0.0-14.0-0.47","610834993bac40f050062896","650c16f0f2faf8d7a0d14c09","651c1d99d26d51aa04e3b5e9","null","null","<p style=""font-size: 60px; font-family: BACS"">RKYkBYhT</p>","","","","","","","","","",""
"html-keyboard-response","299","342716","0.0-14.0-0.48","610834993bac40f050062896","650c16f0f2faf8d7a0d14c09","651c1d99d26d51aa04e3b5e9","null","null","<p style=""font-size: 60px; font-family: BACS"">mrOdYbN</p>","","","","","","","","","",""
"html-keyboard-response","300","343722","0.0-14.0-0.49","610834993bac40f050062896","650c16f0f2faf8d7a0d14c09","651c1d99d26d51aa04e3b5e9","null","null","<p style=""font-size: 60px; font-family: BACS"">YuaNdLaA</p>","","","","","","","","","",""
"html-keyboard-response","301","344730","0.0-14.0-0.50","610834993bac40f050062896","650c16f0f2faf8d7a0d14c09","651c1d99d26d51aa04e3b5e9","null","null","<p style=""font-size: 60px; font-family: BACS"">YlYctRb</p>","","","","","","","","","",""
"html-keyboard-response","302","345736","0.0-14.0-0.51","610834993bac40f050062896","650c16f0f2faf8d7a0d14c09","651c1d99d26d51aa04e3b5e9","null","null","<p style=""font-size: 60px; font-family: BACS"">hlbtbmhc</p>","","","","","","","","","",""
"html-keyboard-response","303","346741","0.0-14.0-0.52","610834993bac40f050062896","650c16f0f2faf8d7a0d14c09","651c1d99d26d51aa04e3b5e9","null","null","<p style=""font-size: 60px; font-family: BACS"">TklDBbM</p>","","","","","","","","","",""
"html-keyboard-response","304","347745","0.0-14.0-0.53","610834993bac40f050062896","650c16f0f2faf8d7a0d14c09","651c1d99d26d51aa04e3b5e9","null","null","<p style=""font-size: 60px; font-family: BACS"">YuaNdQGb</p>","","","","","","","","","",""
"html-keyboard-response","305","348751","0.0-14.0-0.54","610834993bac40f050062896","650c16f0f2faf8d7a0d14c09","651c1d99d26d51aa04e3b5e9","null","null","<p style=""font-size: 60px; font-family: BACS"">YlYcmhc</p>","","","","","","","","","",""
"html-keyboard-response","306","349754","0.0-14.0-0.55","610834993bac40f050062896","650c16f0f2faf8d7a0d14c09","651c1d99d26d51aa04e3b5e9","null","null","<p style=""font-size: 60px; font-family: BACS"">TCbDCtRb</p>","","","","","","","","","",""
"html-keyboard-response","307","350759","0.0-14.0-0.56","610834993bac40f050062896","650c16f0f2faf8d7a0d14c09","651c1d99d26d51aa04e3b5e9","null","null","<p style=""font-size: 60px; font-family: BACS"">vkYGlQGb</p>","","","","","","","","","",""
"html-keyboard-response","308","351763","0.0-14.0-0.57","610834993bac40f050062896","650c16f0f2faf8d7a0d14c09","651c1d99d26d51aa04e3b5e9","null","null","<p style=""font-size: 60px; font-family: BACS"">lhCTCRCdc</p>","","","","","","","","","",""
"html-keyboard-response","309","352769","0.0-14.0-0.58","610834993bac40f050062896","650c16f0f2faf8d7a0d14c09","651c1d99d26d51aa04e3b5e9","null","null","<p style=""font-size: 60px; font-family: BACS"">YQbcLaA</p>","","","","","","","","","",""
"html-keyboard-response","310","353775","0.0-14.0-0.59","610834993bac40f050062896","650c16f0f2faf8d7a0d14c09","651c1d99d26d51aa04e3b5e9","null","null","<p style=""font-size: 60px; font-family: BACS"">kNuaQGb</p>","","","","","","","","","",""
"html-keyboard-response","311","354780","0.0-14.0-0.60","610834993bac40f050062896","650c16f0f2faf8d7a0d14c09","651c1d99d26d51aa04e3b5e9","null","null","<p style=""font-size: 60px; font-family: BACS"">PMPtkBbM</p>","","","","","","","","","",""
"html-keyboard-response","312","355787","0.0-14.0-0.61","610834993bac40f050062896","650c16f0f2faf8d7a0d14c09","651c1d99d26d51aa04e3b5e9","null","null","<p style=""font-size: 60px; font-family: BACS"">kNuaYbN</p>","","","","","","","","","",""
"html-keyboard-response","313","356790","0.0-14.0-0.62","610834993bac40f050062896","650c16f0f2faf8d7a0d14c09","651c1d99d26d51aa04e3b5e9","null","null","<p style=""font-size: 60px; font-family: BACS"">aONdQGb</p>","","","","","","","","","",""
"html-keyboard-response","314","357796","0.0-14.0-0.63","610834993bac40f050062896","650c16f0f2faf8d7a0d14c09","651c1d99d26d51aa04e3b5e9","null","null","<p style=""font-size: 60px; font-family: BACS"">rckONYZu</p>","","","","","","","","","",""
"html-keyboard-response","315","358802","0.0-14.0-0.64","610834993bac40f050062896","650c16f0f2faf8d7a0d14c09","651c1d99d26d51aa04e3b5e9","null","null","<p style=""font-size: 60px; font-family: BACS"">YuaNdYbN</p>","","","","","","","","","",""
"html-keyboard-response","316","359808","0.0-14.0-0.65","610834993bac40f050062896","650c16f0f2faf8d7a0d14c09","651c1d99d26d51aa04e3b5e9","null","null","<p style=""font-size: 60px; font-family: BACS"">YQbcQGb</p>","","","","","","","","","",""
"html-keyboard-response","317","360813","0.0-14.0-0.66","610834993bac40f050062896","650c16f0f2faf8d7a0d14c09","651c1d99d26d51aa04e3b5e9","null","null","<p style=""font-size: 60px; font-family: BACS"">ZYcQUNYZu</p>","","","","","","","","","",""
"html-keyboard-response","318","361819","0.0-14.0-0.67","610834993bac40f050062896","650c16f0f2faf8d7a0d14c09","651c1d99d26d51aa04e3b5e9","null","null","<p style=""font-size: 60px; font-family: BACS"">mrOdLaA</p>","","","","","","","","","",""
"html-keyboard-response","319","362823","0.0-14.0-0.68","610834993bac40f050062896","650c16f0f2faf8d7a0d14c09","651c1d99d26d51aa04e3b5e9","null","null","<p style=""font-size: 60px; font-family: BACS"">PMPtkmhc</p>","","","","","","","","","",""
"html-keyboard-response","320","363829","0.0-14.0-0.69","610834993bac40f050062896","650c16f0f2faf8d7a0d14c09","651c1d99d26d51aa04e3b5e9","null","null","<p style=""font-size: 60px; font-family: BACS"">aONdYbN</p>","","","","","","","","","",""
"html-keyboard-response","321","364836","0.0-14.0-0.70","610834993bac40f050062896","650c16f0f2faf8d7a0d14c09","651c1d99d26d51aa04e3b5e9","null","null","<p style=""font-size: 60px; font-family: BACS"">YQbcuZc</p>","","","","","","","","","",""
"html-keyboard-response","322","365842","0.0-14.0-0.71","610834993bac40f050062896","650c16f0f2faf8d7a0d14c09","651c1d99d26d51aa04e3b5e9","null","null","<p style=""font-size: 60px; font-family: BACS"">dmZvmLaA</p>","","","","","","","","","",""
"html-keyboard-response","323","366847","0.0-14.0-0.72","610834993bac40f050062896","650c16f0f2faf8d7a0d14c09","651c1d99d26d51aa04e3b5e9","null","null","<p style=""font-size: 60px; font-family: BACS"">TCbDCBYhT</p>","","","","","","","","","",""
"html-keyboard-response","324","367853","0.0-14.0-0.73","610834993bac40f050062896","650c16f0f2faf8d7a0d14c09","651c1d99d26d51aa04e3b5e9","null","null","<p style=""font-size: 60px; font-family: BACS"">OmtlDmhc</p>","","","","","","","","","",""
"html-keyboard-response","325","368860","0.0-14.0-0.74","610834993bac40f050062896","650c16f0f2faf8d7a0d14c09","651c1d99d26d51aa04e3b5e9","null","null","<p style=""font-size: 60px; font-family: BACS"">vkYGluZc</p>","","","","","","","","","",""
"html-keyboard-response","326","369861","0.0-14.0-0.75","610834993bac40f050062896","650c16f0f2faf8d7a0d14c09","651c1d99d26d51aa04e3b5e9","null","null","<p style=""font-size: 60px; font-family: BACS"">RKYkBbM</p>","","","","","","","","","",""
"html-keyboard-response","327","370866","0.0-14.0-0.76","610834993bac40f050062896","650c16f0f2faf8d7a0d14c09","651c1d99d26d51aa04e3b5e9","null","null","<p style=""font-size: 60px; font-family: BACS"">vkYGlYbN</p>","","","","","","","","","",""
"html-keyboard-response","328","371872","0.0-14.0-0.77","610834993bac40f050062896","650c16f0f2faf8d7a0d14c09","651c1d99d26d51aa04e3b5e9","null","null","<p style=""font-size: 60px; font-family: BACS"">ZYcQUuZc</p>","","","","","","","","","",""
"html-keyboard-response","329","372878","0.0-14.0-0.78","610834993bac40f050062896","650c16f0f2faf8d7a0d14c09","651c1d99d26d51aa04e3b5e9","null","null","<p style=""font-size: 60px; font-family: BACS"">TCbDCmhc</p>","","","","","","","","","",""
"html-keyboard-response","330","373884","0.0-14.0-0.79","610834993bac40f050062896","650c16f0f2faf8d7a0d14c09","651c1d99d26d51aa04e3b5e9","null","null","<p style=""font-size: 60px; font-family: BACS"">hlbtbBYhT</p>","","","","","","","","","",""
"html-keyboard-response","331","375657","0.0-15.0","610834993bac40f050062896","650c16f0f2faf8d7a0d14c09","651c1d99d26d51aa04e3b5e9","1771"," ","<p>Great, you've seen the fourth block of words. You may now take a short break.</p>
      <p>Press the spacebar when you're ready to continue.</p>","","","","","","","","","",""
"html-keyboard-response","332","376658","0.0-16.0-0.0","610834993bac40f050062896","650c16f0f2faf8d7a0d14c09","651c1d99d26d51aa04e3b5e9","null","null","<p style=""font-size: 60px; font-family: BACS"">lhCTCBbM</p>","","","","","","","","","",""
"html-keyboard-response","333","377660","0.0-16.0-0.1","610834993bac40f050062896","650c16f0f2faf8d7a0d14c09","651c1d99d26d51aa04e3b5e9","null","null","<p style=""font-size: 60px; font-family: BACS"">lhCTCBbM</p>","","","","","","","","","",""
"html-keyboard-response","334","378663","0.0-16.0-0.2","610834993bac40f050062896","650c16f0f2faf8d7a0d14c09","651c1d99d26d51aa04e3b5e9","null","null","<p style=""font-size: 60px; font-family: BACS"">lhCTCBbM</p>","","","","","","","","","",""
"html-keyboard-response","335","379665","0.0-16.0-0.3","610834993bac40f050062896","650c16f0f2faf8d7a0d14c09","651c1d99d26d51aa04e3b5e9","null","null","<p style=""font-size: 60px; font-family: BACS"">lhCTCBbM</p>","","","","","","","","","",""
"html-keyboard-response","336","380672","0.0-16.0-0.4","610834993bac40f050062896","650c16f0f2faf8d7a0d14c09","651c1d99d26d51aa04e3b5e9","null","null","<p style=""font-size: 60px; font-family: BACS"">lhCTCBbM</p>","","","","","","","","","",""
"html-keyboard-response","337","381675","0.0-16.0-0.5","610834993bac40f050062896","650c16f0f2faf8d7a0d14c09","651c1d99d26d51aa04e3b5e9","null","null","<p style=""font-size: 60px; font-family: BACS"">lhCTCBbM</p>","","","","","","","","","",""
"html-keyboard-response","338","382681","0.0-16.0-0.6","610834993bac40f050062896","650c16f0f2faf8d7a0d14c09","651c1d99d26d51aa04e3b5e9","null","null","<p style=""font-size: 60px; font-family: BACS"">lhCTCBbM</p>","","","","","","","","","",""
"html-keyboard-response","339","383685","0.0-16.0-0.7","610834993bac40f050062896","650c16f0f2faf8d7a0d14c09","651c1d99d26d51aa04e3b5e9","null","null","<p style=""font-size: 60px; font-family: BACS"">lhCTCBbM</p>","","","","","","","","","",""
"html-keyboard-response","340","384691","0.0-16.0-0.8","610834993bac40f050062896","650c16f0f2faf8d7a0d14c09","651c1d99d26d51aa04e3b5e9","null","null","<p style=""font-size: 60px; font-family: BACS"">lhCTCBbM</p>","","","","","","","","","",""
"html-keyboard-response","341","385696","0.0-16.0-0.9","610834993bac40f050062896","650c16f0f2faf8d7a0d14c09","651c1d99d26d51aa04e3b5e9","null","null","<p style=""font-size: 60px; font-family: BACS"">lhCTCBbM</p>","","","","","","","","","",""
"html-keyboard-response","342","386699","0.0-16.0-0.10","610834993bac40f050062896","650c16f0f2faf8d7a0d14c09","651c1d99d26d51aa04e3b5e9","null","null","<p style=""font-size: 60px; font-family: BACS"">lhCTCBbM</p>","","","","","","","","","",""
"html-keyboard-response","343","387703","0.0-16.0-0.11","610834993bac40f050062896","650c16f0f2faf8d7a0d14c09","651c1d99d26d51aa04e3b5e9","null","null","<p style=""font-size: 60px; font-family: BACS"">lhCTCBbM</p>","","","","","","","","","",""
"html-keyboard-response","344","388708","0.0-16.0-0.12","610834993bac40f050062896","650c16f0f2faf8d7a0d14c09","651c1d99d26d51aa04e3b5e9","null","null","<p style=""font-size: 60px; font-family: BACS"">lhCTCBbM</p>","","","","","","","","","",""
"html-keyboard-response","345","389713","0.0-16.0-0.13","610834993bac40f050062896","650c16f0f2faf8d7a0d14c09","651c1d99d26d51aa04e3b5e9","null","null","<p style=""font-size: 60px; font-family: BACS"">lhCTCBbM</p>","","","","","","","","","",""
"html-keyboard-response","346","390718","0.0-16.0-0.14","610834993bac40f050062896","650c16f0f2faf8d7a0d14c09","651c1d99d26d51aa04e3b5e9","null","null","<p style=""font-size: 60px; font-family: BACS"">lhCTCBbM</p>","","","","","","","","","",""
"html-keyboard-response","347","391723","0.0-16.0-0.15","610834993bac40f050062896","650c16f0f2faf8d7a0d14c09","651c1d99d26d51aa04e3b5e9","null","null","<p style=""font-size: 60px; font-family: BACS"">lhCTCBbM</p>","","","","","","","","","",""
"html-keyboard-response","348","392728","0.0-16.0-0.16","610834993bac40f050062896","650c16f0f2faf8d7a0d14c09","651c1d99d26d51aa04e3b5e9","null","null","<p style=""font-size: 60px; font-family: BACS"">lhCTCBbM</p>","","","","","","","","","",""
"html-keyboard-response","349","393734","0.0-16.0-0.17","610834993bac40f050062896","650c16f0f2faf8d7a0d14c09","651c1d99d26d51aa04e3b5e9","null","null","<p style=""font-size: 60px; font-family: BACS"">lhCTCBbM</p>","","","","","","","","","",""
"html-keyboard-response","350","394740","0.0-16.0-0.18","610834993bac40f050062896","650c16f0f2faf8d7a0d14c09","651c1d99d26d51aa04e3b5e9","null","null","<p style=""font-size: 60px; font-family: BACS"">lhCTCBbM</p>","","","","","","","","","",""
"html-keyboard-response","351","395748","0.0-16.0-0.19","610834993bac40f050062896","650c16f0f2faf8d7a0d14c09","651c1d99d26d51aa04e3b5e9","null","null","<p style=""font-size: 60px; font-family: BACS"">lhCTCBbM</p>","","","","","","","","","",""
"html-keyboard-response","352","396751","0.0-16.0-0.20","610834993bac40f050062896","650c16f0f2faf8d7a0d14c09","651c1d99d26d51aa04e3b5e9","null","null","<p style=""font-size: 60px; font-family: BACS"">lhCTCBbM</p>","","","","","","","","","",""
"html-keyboard-response","353","397756","0.0-16.0-0.21","610834993bac40f050062896","650c16f0f2faf8d7a0d14c09","651c1d99d26d51aa04e3b5e9","null","null","<p style=""font-size: 60px; font-family: BACS"">lhCTCBbM</p>","","","","","","","","","",""
"html-keyboard-response","354","398768","0.0-16.0-0.22","610834993bac40f050062896","650c16f0f2faf8d7a0d14c09","651c1d99d26d51aa04e3b5e9","null","null","<p style=""font-size: 60px; font-family: BACS"">lhCTCBbM</p>","","","","","","","","","",""
"html-keyboard-response","355","399773","0.0-16.0-0.23","610834993bac40f050062896","650c16f0f2faf8d7a0d14c09","651c1d99d26d51aa04e3b5e9","null","null","<p style=""font-size: 60px; font-family: BACS"">lhCTCBbM</p>","","","","","","","","","",""
"html-keyboard-response","356","400780","0.0-16.0-0.24","610834993bac40f050062896","650c16f0f2faf8d7a0d14c09","651c1d99d26d51aa04e3b5e9","null","null","<p style=""font-size: 60px; font-family: BACS"">lhCTCBbM</p>","","","","","","","","","",""
"html-keyboard-response","357","401783","0.0-16.0-0.25","610834993bac40f050062896","650c16f0f2faf8d7a0d14c09","651c1d99d26d51aa04e3b5e9","null","null","<p style=""font-size: 60px; font-family: BACS"">lhCTCBbM</p>","","","","","","","","","",""
"html-keyboard-response","358","402801","0.0-16.0-0.26","610834993bac40f050062896","650c16f0f2faf8d7a0d14c09","651c1d99d26d51aa04e3b5e9","null","null","<p style=""font-size: 60px; font-family: BACS"">lhCTCBbM</p>","","","","","","","","","",""
"html-keyboard-response","359","403808","0.0-16.0-0.27","610834993bac40f050062896","650c16f0f2faf8d7a0d14c09","651c1d99d26d51aa04e3b5e9","null","null","<p style=""font-size: 60px; font-family: BACS"">lhCTCBbM</p>","","","","","","","","","",""
"html-keyboard-response","360","404818","0.0-16.0-0.28","610834993bac40f050062896","650c16f0f2faf8d7a0d14c09","651c1d99d26d51aa04e3b5e9","null","null","<p style=""font-size: 60px; font-family: BACS"">lhCTCBbM</p>","","","","","","","","","",""
"html-keyboard-response","361","405823","0.0-16.0-0.29","610834993bac40f050062896","650c16f0f2faf8d7a0d14c09","651c1d99d26d51aa04e3b5e9","null","null","<p style=""font-size: 60px; font-family: BACS"">lhCTCBbM</p>","","","","","","","","","",""
"html-keyboard-response","362","406835","0.0-16.0-0.30","610834993bac40f050062896","650c16f0f2faf8d7a0d14c09","651c1d99d26d51aa04e3b5e9","null","null","<p style=""font-size: 60px; font-family: BACS"">lhCTCBbM</p>","","","","","","","","","",""
"html-keyboard-response","363","407840","0.0-16.0-0.31","610834993bac40f050062896","650c16f0f2faf8d7a0d14c09","651c1d99d26d51aa04e3b5e9","null","null","<p style=""font-size: 60px; font-family: BACS"">lhCTCBbM</p>","","","","","","","","","",""
"html-keyboard-response","364","408850","0.0-16.0-0.32","610834993bac40f050062896","650c16f0f2faf8d7a0d14c09","651c1d99d26d51aa04e3b5e9","null","null","<p style=""font-size: 60px; font-family: BACS"">lhCTCBbM</p>","","","","","","","","","",""
"html-keyboard-response","365","409855","0.0-16.0-0.33","610834993bac40f050062896","650c16f0f2faf8d7a0d14c09","651c1d99d26d51aa04e3b5e9","null","null","<p style=""font-size: 60px; font-family: BACS"">lhCTCBbM</p>","","","","","","","","","",""
"html-keyboard-response","366","410868","0.0-16.0-0.34","610834993bac40f050062896","650c16f0f2faf8d7a0d14c09","651c1d99d26d51aa04e3b5e9","null","null","<p style=""font-size: 60px; font-family: BACS"">lhCTCBbM</p>","","","","","","","","","",""
"html-keyboard-response","367","411870","0.0-16.0-0.35","610834993bac40f050062896","650c16f0f2faf8d7a0d14c09","651c1d99d26d51aa04e3b5e9","null","null","<p style=""font-size: 60px; font-family: BACS"">lhCTCBbM</p>","","","","","","","","","",""
"html-keyboard-response","368","412885","0.0-16.0-0.36","610834993bac40f050062896","650c16f0f2faf8d7a0d14c09","651c1d99d26d51aa04e3b5e9","null","null","<p style=""font-size: 60px; font-family: BACS"">lhCTCBbM</p>","","","","","","","","","",""
"html-keyboard-response","369","413889","0.0-16.0-0.37","610834993bac40f050062896","650c16f0f2faf8d7a0d14c09","651c1d99d26d51aa04e3b5e9","null","null","<p style=""font-size: 60px; font-family: BACS"">lhCTCBbM</p>","","","","","","","","","",""
"html-keyboard-response","370","414901","0.0-16.0-0.38","610834993bac40f050062896","650c16f0f2faf8d7a0d14c09","651c1d99d26d51aa04e3b5e9","null","null","<p style=""font-size: 60px; font-family: BACS"">lhCTCBbM</p>","","","","","","","","","",""
"html-keyboard-response","371","415906","0.0-16.0-0.39","610834993bac40f050062896","650c16f0f2faf8d7a0d14c09","651c1d99d26d51aa04e3b5e9","null","null","<p style=""font-size: 60px; font-family: BACS"">lhCTCBbM</p>","","","","","","","","","",""
"html-keyboard-response","372","416918","0.0-16.0-0.40","610834993bac40f050062896","650c16f0f2faf8d7a0d14c09","651c1d99d26d51aa04e3b5e9","null","null","<p style=""font-size: 60px; font-family: BACS"">lhCTCBbM</p>","","","","","","","","","",""
"html-keyboard-response","373","417923","0.0-16.0-0.41","610834993bac40f050062896","650c16f0f2faf8d7a0d14c09","651c1d99d26d51aa04e3b5e9","null","null","<p style=""font-size: 60px; font-family: BACS"">lhCTCBbM</p>","","","","","","","","","",""
"html-keyboard-response","374","418935","0.0-16.0-0.42","610834993bac40f050062896","650c16f0f2faf8d7a0d14c09","651c1d99d26d51aa04e3b5e9","null","null","<p style=""font-size: 60px; font-family: BACS"">lhCTCBbM</p>","","","","","","","","","",""
"html-keyboard-response","375","419940","0.0-16.0-0.43","610834993bac40f050062896","650c16f0f2faf8d7a0d14c09","651c1d99d26d51aa04e3b5e9","null","null","<p style=""font-size: 60px; font-family: BACS"">lhCTCBbM</p>","","","","","","","","","",""
"html-keyboard-response","376","420951","0.0-16.0-0.44","610834993bac40f050062896","650c16f0f2faf8d7a0d14c09","651c1d99d26d51aa04e3b5e9","null","null","<p style=""font-size: 60px; font-family: BACS"">lhCTCBbM</p>","","","","","","","","","",""
"html-keyboard-response","377","421955","0.0-16.0-0.45","610834993bac40f050062896","650c16f0f2faf8d7a0d14c09","651c1d99d26d51aa04e3b5e9","null","null","<p style=""font-size: 60px; font-family: BACS"">lhCTCBbM</p>","","","","","","","","","",""
"html-keyboard-response","378","422967","0.0-16.0-0.46","610834993bac40f050062896","650c16f0f2faf8d7a0d14c09","651c1d99d26d51aa04e3b5e9","null","null","<p style=""font-size: 60px; font-family: BACS"">lhCTCBbM</p>","","","","","","","","","",""
"html-keyboard-response","379","423971","0.0-16.0-0.47","610834993bac40f050062896","650c16f0f2faf8d7a0d14c09","651c1d99d26d51aa04e3b5e9","null","null","<p style=""font-size: 60px; font-family: BACS"">lhCTCBbM</p>","","","","","","","","","",""
"html-keyboard-response","380","424975","0.0-16.0-0.48","610834993bac40f050062896","650c16f0f2faf8d7a0d14c09","651c1d99d26d51aa04e3b5e9","null","null","<p style=""font-size: 60px; font-family: BACS"">lhCTCBbM</p>","","","","","","","","","",""
"html-keyboard-response","381","425980","0.0-16.0-0.49","610834993bac40f050062896","650c16f0f2faf8d7a0d14c09","651c1d99d26d51aa04e3b5e9","null","null","<p style=""font-size: 60px; font-family: BACS"">lhCTCBbM</p>","","","","","","","","","",""
"html-keyboard-response","382","426985","0.0-16.0-0.50","610834993bac40f050062896","650c16f0f2faf8d7a0d14c09","651c1d99d26d51aa04e3b5e9","null","null","<p style=""font-size: 60px; font-family: BACS"">lhCTCBbM</p>","","","","","","","","","",""
"html-keyboard-response","383","427991","0.0-16.0-0.51","610834993bac40f050062896","650c16f0f2faf8d7a0d14c09","651c1d99d26d51aa04e3b5e9","null","null","<p style=""font-size: 60px; font-family: BACS"">lhCTCBbM</p>","","","","","","","","","",""
"html-keyboard-response","384","428996","0.0-16.0-0.52","610834993bac40f050062896","650c16f0f2faf8d7a0d14c09","651c1d99d26d51aa04e3b5e9","null","null","<p style=""font-size: 60px; font-family: BACS"">lhCTCBbM</p>","","","","","","","","","",""
"html-keyboard-response","385","430001","0.0-16.0-0.53","610834993bac40f050062896","650c16f0f2faf8d7a0d14c09","651c1d99d26d51aa04e3b5e9","null","null","<p style=""font-size: 60px; font-family: BACS"">lhCTCBbM</p>","","","","","","","","","",""
"html-keyboard-response","386","431002","0.0-16.0-0.54","610834993bac40f050062896","650c16f0f2faf8d7a0d14c09","651c1d99d26d51aa04e3b5e9","null","null","<p style=""font-size: 60px; font-family: BACS"">lhCTCBbM</p>","","","","","","","","","",""
"html-keyboard-response","387","432007","0.0-16.0-0.55","610834993bac40f050062896","650c16f0f2faf8d7a0d14c09","651c1d99d26d51aa04e3b5e9","null","null","<p style=""font-size: 60px; font-family: BACS"">lhCTCBbM</p>","","","","","","","","","",""
"html-keyboard-response","388","433012","0.0-16.0-0.56","610834993bac40f050062896","650c16f0f2faf8d7a0d14c09","651c1d99d26d51aa04e3b5e9","null","null","<p style=""font-size: 60px; font-family: BACS"">lhCTCBbM</p>","","","","","","","","","",""
"html-keyboard-response","389","434014","0.0-16.0-0.57","610834993bac40f050062896","650c16f0f2faf8d7a0d14c09","651c1d99d26d51aa04e3b5e9","null","null","<p style=""font-size: 60px; font-family: BACS"">lhCTCBbM</p>","","","","","","","","","",""
"html-keyboard-response","390","435019","0.0-16.0-0.58","610834993bac40f050062896","650c16f0f2faf8d7a0d14c09","651c1d99d26d51aa04e3b5e9","null","null","<p style=""font-size: 60px; font-family: BACS"">lhCTCBbM</p>","","","","","","","","","",""
"html-keyboard-response","391","436023","0.0-16.0-0.59","610834993bac40f050062896","650c16f0f2faf8d7a0d14c09","651c1d99d26d51aa04e3b5e9","null","null","<p style=""font-size: 60px; font-family: BACS"">lhCTCBbM</p>","","","","","","","","","",""
"html-keyboard-response","392","437034","0.0-16.0-0.60","610834993bac40f050062896","650c16f0f2faf8d7a0d14c09","651c1d99d26d51aa04e3b5e9","null","null","<p style=""font-size: 60px; font-family: BACS"">lhCTCBbM</p>","","","","","","","","","",""
"html-keyboard-response","393","438039","0.0-16.0-0.61","610834993bac40f050062896","650c16f0f2faf8d7a0d14c09","651c1d99d26d51aa04e3b5e9","null","null","<p style=""font-size: 60px; font-family: BACS"">lhCTCBbM</p>","","","","","","","","","",""
