"trial_type","trial_index","time_elapsed","internal_node_id","subject_id","study_id","session_id","rt","response","stimulus","success","item","task","correct_response","testing_condition","correct","target","confound","name","view_history"
"pavlovia","0","664","0.0-0.0","5be84b9a40b06b0001370c9f","64e77d7b61f440b60e28659d","64eca315ba80afe58c11b69c","","","","","","","","","","","","",""
"survey-html-form","1","16524","0.0-1.0","5be84b9a40b06b0001370c9f","64e77d7b61f440b60e28659d","64eca315ba80afe58c11b69c","15859","{""ID"":""5be84b9a40b06b0001370c9f""}","","","","","","","","","","",""
"html-keyboard-response","2","19966","0.0-2.0","5be84b9a40b06b0001370c9f","64e77d7b61f440b60e28659d","64eca315ba80afe58c11b69c","3441"," ","<p style=""font-size: 15px;"">Before beginning, we ask that you read the consent information and confirm your agreement to participate in the experiment.</p>
      <p style=""font-size: 15px;""> We ask that you remember that this is a research project and that your participation is entirely voluntary. You can stop your participation at any time, without needing to provide any explanation. The study we're asking you to participate in aims at examining how readers process written words. You will be engaged in a session of apprximately 20 minutes, followed by a brief questionnaire. You will have the opportunity to take a few breaks during the experiment. You will be paid £4 for your participation, corresponding to a rate of £8/hour. While this experiment looks at cognitive faculties, this experiment doesn't constitute clinical proof of eventual pathologies.</p>
      <p style=""font-size: 15px;"">All of the information collected thanks to yours and others' participation will be held in a secure password-protected server, and will not be shared with anyone not authorised to view it. Your personal information will be kept with an arbitrary participant ID. Thanks to this data anonymity process, any researcher analysing the data won't be able to track the information back to a specific participant. Therefore, this process will make identifying you impossibile, even when results from the study will be published in scientific reviews, presented at congresses, or at any other public forum. More generally, the collected data will be treated in accordance with the laws on privacy and conformity to the Legislative Degree n. 196 ""Code regarding the protection of personal data"" of the 30th of June 2003 and to the European Regulation 2016/670 (General Data Protection Regulation - GDPR). The Data Protection Officer is Avv. Valentina Carollo, who can be contacted at the following email addresses: <a href=""mailto:dpo@sissa.it"">dpo@sissa.it</a> or <a href=""mailto:rpd@sissa.it"">rpd@sissa.it</a> - PEC: <a href=""mailto:protocollo@pec.sissa.it"">protocollo@pec.sissa.it</a>.</p>
      <p style=""font-size: 15px;""> Before expressing your consent to participate, we would like to remind you again that in case you need explanations on any aspect of the experimental procedure, the researcher is at your disposition (<a href=""mailto:aliebelt@sissa.it"">aliebelt@sissa.it</a>, <a href=""mailto:davide.crepaldi@sissa.it"">davide.crepaldi@sissa.it</a>).</p>
      <p style=""font-size: 15px;"">If you would like to download the informed consent form, you can do so here: <a href=""BASL-Informed_Consent.pdf"" download>informed consent form</a>.</p>
      <p style=""font-size: 15px;"">We ask that you press the spacebar to proceed to the consent section.</p>","","","","","","","","","",""
"survey-html-form","3","26788","0.0-3.0","5be84b9a40b06b0001370c9f","64e77d7b61f440b60e28659d","64eca315ba80afe58c11b69c","6820","{""consent1"":""YES"",""consent2"":""YES"",""consent3"":""YES"",""consent4"":""YES"",""consent5"":""YES"",""consent6"":""YES""}","","","","","","","","","","",""
"fullscreen","4","30526","0.0-4.0","5be84b9a40b06b0001370c9f","64e77d7b61f440b60e28659d","64eca315ba80afe58c11b69c","","","","true","","","","","","","","",""
"html-keyboard-response","5","68108","0.0-5.0","5be84b9a40b06b0001370c9f","64e77d7b61f440b60e28659d","64eca315ba80afe58c11b69c","37581"," ","<p>Welcome, and thank you very much for your time!</p>
      <p>In this experiment, you'll be a language expert who's been asked to take a look at words that Earth has received in its first communication with aliens. Your task, in this first part of the experiment, is to pay close attention to the words you'll be shown; later, world leaders will ask you questions on what you saw. The words will be shown to you quite quickly; it seems that the aliens were in a hurry :-)</p>
      <p>Press the spacebar to continue.<p>","","","","","","","","","",""
"html-keyboard-response","6","72786","0.0-6.0","5be84b9a40b06b0001370c9f","64e77d7b61f440b60e28659d","64eca315ba80afe58c11b69c","4677"," ","<p>Here is an example of the words you'll see:</p>
      <img src='esempio.png' height='400px'>
      <p>When you're ready to begin, press the spacebar.</p></div>","","","","","","","","","",""
"html-keyboard-response","7","73794","0.0-7.0-0.0","5be84b9a40b06b0001370c9f","64e77d7b61f440b60e28659d","64eca315ba80afe58c11b69c","null","null","<p style=""font-size: 60px; font-family: BACS"">TklDtcB</p>","","","","","","","","","",""
"html-keyboard-response","8","74809","0.0-7.0-0.1","5be84b9a40b06b0001370c9f","64e77d7b61f440b60e28659d","64eca315ba80afe58c11b69c","null","null","<p style=""font-size: 60px; font-family: BACS"">cAZuYArG</p>","","","","","","","","","",""
"html-keyboard-response","9","75817","0.0-7.0-0.2","5be84b9a40b06b0001370c9f","64e77d7b61f440b60e28659d","64eca315ba80afe58c11b69c","null","null","<p style=""font-size: 60px; font-family: BACS"">ArQuOJlN</p>","","","","","","","","","",""
"html-keyboard-response","10","76827","0.0-7.0-0.3","5be84b9a40b06b0001370c9f","64e77d7b61f440b60e28659d","64eca315ba80afe58c11b69c","null","null","<p style=""font-size: 60px; font-family: BACS"">EtMDMABb</p>","","","","","","","","","",""
"html-keyboard-response","11","77837","0.0-7.0-0.4","5be84b9a40b06b0001370c9f","64e77d7b61f440b60e28659d","64eca315ba80afe58c11b69c","null","null","<p style=""font-size: 60px; font-family: BACS"">bdUNuOJlN</p>","","","","","","","","","",""
"html-keyboard-response","12","78850","0.0-7.0-0.5","5be84b9a40b06b0001370c9f","64e77d7b61f440b60e28659d","64eca315ba80afe58c11b69c","null","null","<p style=""font-size: 60px; font-family: BACS"">bvuZYZUZ</p>","","","","","","","","","",""
"html-keyboard-response","13","79860","0.0-7.0-0.6","5be84b9a40b06b0001370c9f","64e77d7b61f440b60e28659d","64eca315ba80afe58c11b69c","null","null","<p style=""font-size: 60px; font-family: BACS"">PctRCAdYl</p>","","","","","","","","","",""
"html-keyboard-response","14","80868","0.0-7.0-0.7","5be84b9a40b06b0001370c9f","64e77d7b61f440b60e28659d","64eca315ba80afe58c11b69c","null","null","<p style=""font-size: 60px; font-family: BACS"">LvuOGUbG</p>","","","","","","","","","",""
"html-keyboard-response","15","81878","0.0-7.0-0.8","5be84b9a40b06b0001370c9f","64e77d7b61f440b60e28659d","64eca315ba80afe58c11b69c","null","null","<p style=""font-size: 60px; font-family: BACS"">RdPtDTRkY</p>","","","","","","","","","",""
"html-keyboard-response","16","82892","0.0-7.0-0.9","5be84b9a40b06b0001370c9f","64e77d7b61f440b60e28659d","64eca315ba80afe58c11b69c","null","null","<p style=""font-size: 60px; font-family: BACS"">PctRCtcB</p>","","","","","","","","","",""
"html-keyboard-response","17","83905","0.0-7.0-0.10","5be84b9a40b06b0001370c9f","64e77d7b61f440b60e28659d","64eca315ba80afe58c11b69c","null","null","<p style=""font-size: 60px; font-family: BACS"">PCMPKABb</p>","","","","","","","","","",""
"html-keyboard-response","18","84906","0.0-7.0-0.11","5be84b9a40b06b0001370c9f","64e77d7b61f440b60e28659d","64eca315ba80afe58c11b69c","null","null","<p style=""font-size: 60px; font-family: BACS"">dRbDbAdYl</p>","","","","","","","","","",""
"html-keyboard-response","19","85919","0.0-7.0-0.12","5be84b9a40b06b0001370c9f","64e77d7b61f440b60e28659d","64eca315ba80afe58c11b69c","null","null","<p style=""font-size: 60px; font-family: BACS"">LvuOGOJNk</p>","","","","","","","","","",""
"html-keyboard-response","20","86931","0.0-7.0-0.13","5be84b9a40b06b0001370c9f","64e77d7b61f440b60e28659d","64eca315ba80afe58c11b69c","null","null","<p style=""font-size: 60px; font-family: BACS"">bdUNuYZUZ</p>","","","","","","","","","",""
"html-keyboard-response","21","87941","0.0-7.0-0.14","5be84b9a40b06b0001370c9f","64e77d7b61f440b60e28659d","64eca315ba80afe58c11b69c","null","null","<p style=""font-size: 60px; font-family: BACS"">tDPRkBRDh</p>","","","","","","","","","",""
"html-keyboard-response","22","88947","0.0-7.0-0.15","5be84b9a40b06b0001370c9f","64e77d7b61f440b60e28659d","64eca315ba80afe58c11b69c","null","null","<p style=""font-size: 60px; font-family: BACS"">bvuZOJNk</p>","","","","","","","","","",""
"html-keyboard-response","23","89961","0.0-7.0-0.16","5be84b9a40b06b0001370c9f","64e77d7b61f440b60e28659d","64eca315ba80afe58c11b69c","null","null","<p style=""font-size: 60px; font-family: BACS"">dRbDbtcB</p>","","","","","","","","","",""
"html-keyboard-response","24","90974","0.0-7.0-0.17","5be84b9a40b06b0001370c9f","64e77d7b61f440b60e28659d","64eca315ba80afe58c11b69c","null","null","<p style=""font-size: 60px; font-family: BACS"">aLNlkUbG</p>","","","","","","","","","",""
"html-keyboard-response","25","91982","0.0-7.0-0.18","5be84b9a40b06b0001370c9f","64e77d7b61f440b60e28659d","64eca315ba80afe58c11b69c","null","null","<p style=""font-size: 60px; font-family: BACS"">mbZlYZUZ</p>","","","","","","","","","",""
"html-keyboard-response","26","92990","0.0-7.0-0.19","5be84b9a40b06b0001370c9f","64e77d7b61f440b60e28659d","64eca315ba80afe58c11b69c","null","null","<p style=""font-size: 60px; font-family: BACS"">YUNkZOJNk</p>","","","","","","","","","",""
"html-keyboard-response","27","94002","0.0-7.0-0.20","5be84b9a40b06b0001370c9f","64e77d7b61f440b60e28659d","64eca315ba80afe58c11b69c","null","null","<p style=""font-size: 60px; font-family: BACS"">cAZuUbG</p>","","","","","","","","","",""
"html-keyboard-response","28","95004","0.0-7.0-0.21","5be84b9a40b06b0001370c9f","64e77d7b61f440b60e28659d","64eca315ba80afe58c11b69c","null","null","<p style=""font-size: 60px; font-family: BACS"">MkmEdTRkY</p>","","","","","","","","","",""
"html-keyboard-response","29","96005","0.0-7.0-0.22","5be84b9a40b06b0001370c9f","64e77d7b61f440b60e28659d","64eca315ba80afe58c11b69c","null","null","<p style=""font-size: 60px; font-family: BACS"">mbZlUbG</p>","","","","","","","","","",""
"html-keyboard-response","30","97011","0.0-7.0-0.23","5be84b9a40b06b0001370c9f","64e77d7b61f440b60e28659d","64eca315ba80afe58c11b69c","null","null","<p style=""font-size: 60px; font-family: BACS"">auYAkYArG</p>","","","","","","","","","",""
"html-keyboard-response","31","98025","0.0-7.0-0.24","5be84b9a40b06b0001370c9f","64e77d7b61f440b60e28659d","64eca315ba80afe58c11b69c","null","null","<p style=""font-size: 60px; font-family: BACS"">MkmEdAdYl</p>","","","","","","","","","",""
"html-keyboard-response","32","99040","0.0-7.0-0.25","5be84b9a40b06b0001370c9f","64e77d7b61f440b60e28659d","64eca315ba80afe58c11b69c","null","null","<p style=""font-size: 60px; font-family: BACS"">dRbDbABb</p>","","","","","","","","","",""
"html-keyboard-response","33","100048","0.0-7.0-0.26","5be84b9a40b06b0001370c9f","64e77d7b61f440b60e28659d","64eca315ba80afe58c11b69c","null","null","<p style=""font-size: 60px; font-family: BACS"">YUNkZYZUZ</p>","","","","","","","","","",""
"html-keyboard-response","34","101049","0.0-7.0-0.27","5be84b9a40b06b0001370c9f","64e77d7b61f440b60e28659d","64eca315ba80afe58c11b69c","null","null","<p style=""font-size: 60px; font-family: BACS"">OmtlDtcB</p>","","","","","","","","","",""
"html-keyboard-response","35","102050","0.0-7.0-0.28","5be84b9a40b06b0001370c9f","64e77d7b61f440b60e28659d","64eca315ba80afe58c11b69c","null","null","<p style=""font-size: 60px; font-family: BACS"">bvuZUbG</p>","","","","","","","","","",""
"html-keyboard-response","36","103064","0.0-7.0-0.29","5be84b9a40b06b0001370c9f","64e77d7b61f440b60e28659d","64eca315ba80afe58c11b69c","null","null","<p style=""font-size: 60px; font-family: BACS"">cAZuOJNk</p>","","","","","","","","","",""
"html-keyboard-response","37","104073","0.0-7.0-0.30","5be84b9a40b06b0001370c9f","64e77d7b61f440b60e28659d","64eca315ba80afe58c11b69c","null","null","<p style=""font-size: 60px; font-family: BACS"">hbkdABb</p>","","","","","","","","","",""
"html-keyboard-response","38","105082","0.0-7.0-0.31","5be84b9a40b06b0001370c9f","64e77d7b61f440b60e28659d","64eca315ba80afe58c11b69c","null","null","<p style=""font-size: 60px; font-family: BACS"">PctRCTRkY</p>","","","","","","","","","",""
"html-keyboard-response","39","106096","0.0-7.0-0.32","5be84b9a40b06b0001370c9f","64e77d7b61f440b60e28659d","64eca315ba80afe58c11b69c","null","null","<p style=""font-size: 60px; font-family: BACS"">MkmEdABb</p>","","","","","","","","","",""
"html-keyboard-response","40","107097","0.0-7.0-0.33","5be84b9a40b06b0001370c9f","64e77d7b61f440b60e28659d","64eca315ba80afe58c11b69c","null","null","<p style=""font-size: 60px; font-family: BACS"">bdUNuOJNk</p>","","","","","","","","","",""
"html-keyboard-response","41","108100","0.0-7.0-0.34","5be84b9a40b06b0001370c9f","64e77d7b61f440b60e28659d","64eca315ba80afe58c11b69c","null","null","<p style=""font-size: 60px; font-family: BACS"">hbkdtcB</p>","","","","","","","","","",""
"html-keyboard-response","42","109105","0.0-7.0-0.35","5be84b9a40b06b0001370c9f","64e77d7b61f440b60e28659d","64eca315ba80afe58c11b69c","null","null","<p style=""font-size: 60px; font-family: BACS"">mbZlOJNk</p>","","","","","","","","","",""
"html-keyboard-response","43","110116","0.0-7.0-0.36","5be84b9a40b06b0001370c9f","64e77d7b61f440b60e28659d","64eca315ba80afe58c11b69c","null","null","<p style=""font-size: 60px; font-family: BACS"">ArQuUbG</p>","","","","","","","","","",""
"html-keyboard-response","44","111127","0.0-7.0-0.37","5be84b9a40b06b0001370c9f","64e77d7b61f440b60e28659d","64eca315ba80afe58c11b69c","null","null","<p style=""font-size: 60px; font-family: BACS"">UJmrOJNk</p>","","","","","","","","","",""
"html-keyboard-response","45","112138","0.0-7.0-0.38","5be84b9a40b06b0001370c9f","64e77d7b61f440b60e28659d","64eca315ba80afe58c11b69c","null","null","<p style=""font-size: 60px; font-family: BACS"">RdPtDAdYl</p>","","","","","","","","","",""
"html-keyboard-response","46","113148","0.0-7.0-0.39","5be84b9a40b06b0001370c9f","64e77d7b61f440b60e28659d","64eca315ba80afe58c11b69c","null","null","<p style=""font-size: 60px; font-family: BACS"">auYAkOJNk</p>","","","","","","","","","",""
"html-keyboard-response","47","114149","0.0-7.0-0.40","5be84b9a40b06b0001370c9f","64e77d7b61f440b60e28659d","64eca315ba80afe58c11b69c","null","null","<p style=""font-size: 60px; font-family: BACS"">hbkdAdYl</p>","","","","","","","","","",""
"html-keyboard-response","48","115163","0.0-7.0-0.41","5be84b9a40b06b0001370c9f","64e77d7b61f440b60e28659d","64eca315ba80afe58c11b69c","null","null","<p style=""font-size: 60px; font-family: BACS"">RdPtDtcB</p>","","","","","","","","","",""
"html-keyboard-response","49","116174","0.0-7.0-0.42","5be84b9a40b06b0001370c9f","64e77d7b61f440b60e28659d","64eca315ba80afe58c11b69c","null","null","<p style=""font-size: 60px; font-family: BACS"">OmtlDAdYl</p>","","","","","","","","","",""
"html-keyboard-response","50","117185","0.0-7.0-0.43","5be84b9a40b06b0001370c9f","64e77d7b61f440b60e28659d","64eca315ba80afe58c11b69c","null","null","<p style=""font-size: 60px; font-family: BACS"">tDPRktcB</p>","","","","","","","","","",""
"html-keyboard-response","51","118187","0.0-7.0-0.44","5be84b9a40b06b0001370c9f","64e77d7b61f440b60e28659d","64eca315ba80afe58c11b69c","null","null","<p style=""font-size: 60px; font-family: BACS"">bdUNuYArG</p>","","","","","","","","","",""
"html-keyboard-response","52","119192","0.0-7.0-0.45","5be84b9a40b06b0001370c9f","64e77d7b61f440b60e28659d","64eca315ba80afe58c11b69c","null","null","<p style=""font-size: 60px; font-family: BACS"">aLNlkYZUZ</p>","","","","","","","","","",""
"html-keyboard-response","53","120199","0.0-7.0-0.46","5be84b9a40b06b0001370c9f","64e77d7b61f440b60e28659d","64eca315ba80afe58c11b69c","null","null","<p style=""font-size: 60px; font-family: BACS"">PCMPKtcB</p>","","","","","","","","","",""
"html-keyboard-response","54","121201","0.0-7.0-0.47","5be84b9a40b06b0001370c9f","64e77d7b61f440b60e28659d","64eca315ba80afe58c11b69c","null","null","<p style=""font-size: 60px; font-family: BACS"">YUNkZUbG</p>","","","","","","","","","",""
"html-keyboard-response","55","122214","0.0-7.0-0.48","5be84b9a40b06b0001370c9f","64e77d7b61f440b60e28659d","64eca315ba80afe58c11b69c","null","null","<p style=""font-size: 60px; font-family: BACS"">hbkdTRkY</p>","","","","","","","","","",""
"html-keyboard-response","56","123225","0.0-7.0-0.49","5be84b9a40b06b0001370c9f","64e77d7b61f440b60e28659d","64eca315ba80afe58c11b69c","null","null","<p style=""font-size: 60px; font-family: BACS"">EtMDMAdYl</p>","","","","","","","","","",""
"html-keyboard-response","57","124237","0.0-7.0-0.50","5be84b9a40b06b0001370c9f","64e77d7b61f440b60e28659d","64eca315ba80afe58c11b69c","null","null","<p style=""font-size: 60px; font-family: BACS"">PCMPKBRDh</p>","","","","","","","","","",""
"html-keyboard-response","58","125249","0.0-7.0-0.51","5be84b9a40b06b0001370c9f","64e77d7b61f440b60e28659d","64eca315ba80afe58c11b69c","null","null","<p style=""font-size: 60px; font-family: BACS"">ArQuYArG</p>","","","","","","","","","",""
"html-keyboard-response","59","126260","0.0-7.0-0.52","5be84b9a40b06b0001370c9f","64e77d7b61f440b60e28659d","64eca315ba80afe58c11b69c","null","null","<p style=""font-size: 60px; font-family: BACS"">OmtlDABb</p>","","","","","","","","","",""
"html-keyboard-response","60","127261","0.0-7.0-0.53","5be84b9a40b06b0001370c9f","64e77d7b61f440b60e28659d","64eca315ba80afe58c11b69c","null","null","<p style=""font-size: 60px; font-family: BACS"">PctRCBRDh</p>","","","","","","","","","",""
"html-keyboard-response","61","128266","0.0-7.0-0.54","5be84b9a40b06b0001370c9f","64e77d7b61f440b60e28659d","64eca315ba80afe58c11b69c","null","null","<p style=""font-size: 60px; font-family: BACS"">TklDABb</p>","","","","","","","","","",""
"html-keyboard-response","62","129266","0.0-7.0-0.55","5be84b9a40b06b0001370c9f","64e77d7b61f440b60e28659d","64eca315ba80afe58c11b69c","null","null","<p style=""font-size: 60px; font-family: BACS"">UJmrYZUZ</p>","","","","","","","","","",""
"html-keyboard-response","63","130278","0.0-7.0-0.56","5be84b9a40b06b0001370c9f","64e77d7b61f440b60e28659d","64eca315ba80afe58c11b69c","null","null","<p style=""font-size: 60px; font-family: BACS"">PCMPKTRkY</p>","","","","","","","","","",""
"html-keyboard-response","64","131289","0.0-7.0-0.57","5be84b9a40b06b0001370c9f","64e77d7b61f440b60e28659d","64eca315ba80afe58c11b69c","null","null","<p style=""font-size: 60px; font-family: BACS"">YUNkZOJlN</p>","","","","","","","","","",""
"html-keyboard-response","65","132291","0.0-7.0-0.58","5be84b9a40b06b0001370c9f","64e77d7b61f440b60e28659d","64eca315ba80afe58c11b69c","null","null","<p style=""font-size: 60px; font-family: BACS"">aLNlkYArG</p>","","","","","","","","","",""
"html-keyboard-response","66","133305","0.0-7.0-0.59","5be84b9a40b06b0001370c9f","64e77d7b61f440b60e28659d","64eca315ba80afe58c11b69c","null","null","<p style=""font-size: 60px; font-family: BACS"">auYAkUbG</p>","","","","","","","","","",""
"html-keyboard-response","67","134306","0.0-7.0-0.60","5be84b9a40b06b0001370c9f","64e77d7b61f440b60e28659d","64eca315ba80afe58c11b69c","null","null","<p style=""font-size: 60px; font-family: BACS"">TklDBRDh</p>","","","","","","","","","",""
"html-keyboard-response","68","135313","0.0-7.0-0.61","5be84b9a40b06b0001370c9f","64e77d7b61f440b60e28659d","64eca315ba80afe58c11b69c","null","null","<p style=""font-size: 60px; font-family: BACS"">bvuZYArG</p>","","","","","","","","","",""
"html-keyboard-response","69","136325","0.0-7.0-0.62","5be84b9a40b06b0001370c9f","64e77d7b61f440b60e28659d","64eca315ba80afe58c11b69c","null","null","<p style=""font-size: 60px; font-family: BACS"">LvuOGOJlN</p>","","","","","","","","","",""
"html-keyboard-response","70","137339","0.0-7.0-0.63","5be84b9a40b06b0001370c9f","64e77d7b61f440b60e28659d","64eca315ba80afe58c11b69c","null","null","<p style=""font-size: 60px; font-family: BACS"">ArQuYZUZ</p>","","","","","","","","","",""
"html-keyboard-response","71","138347","0.0-7.0-0.64","5be84b9a40b06b0001370c9f","64e77d7b61f440b60e28659d","64eca315ba80afe58c11b69c","null","null","<p style=""font-size: 60px; font-family: BACS"">LvuOGYArG</p>","","","","","","","","","",""
"html-keyboard-response","72","139356","0.0-7.0-0.65","5be84b9a40b06b0001370c9f","64e77d7b61f440b60e28659d","64eca315ba80afe58c11b69c","null","null","<p style=""font-size: 60px; font-family: BACS"">dRbDbBRDh</p>","","","","","","","","","",""
"html-keyboard-response","73","140358","0.0-7.0-0.66","5be84b9a40b06b0001370c9f","64e77d7b61f440b60e28659d","64eca315ba80afe58c11b69c","null","null","<p style=""font-size: 60px; font-family: BACS"">tDPRkTRkY</p>","","","","","","","","","",""
"html-keyboard-response","74","141359","0.0-7.0-0.67","5be84b9a40b06b0001370c9f","64e77d7b61f440b60e28659d","64eca315ba80afe58c11b69c","null","null","<p style=""font-size: 60px; font-family: BACS"">auYAkOJlN</p>","","","","","","","","","",""
"html-keyboard-response","75","142375","0.0-7.0-0.68","5be84b9a40b06b0001370c9f","64e77d7b61f440b60e28659d","64eca315ba80afe58c11b69c","null","null","<p style=""font-size: 60px; font-family: BACS"">RdPtDABb</p>","","","","","","","","","",""
"html-keyboard-response","76","143380","0.0-7.0-0.69","5be84b9a40b06b0001370c9f","64e77d7b61f440b60e28659d","64eca315ba80afe58c11b69c","null","null","<p style=""font-size: 60px; font-family: BACS"">OmtlDBRDh</p>","","","","","","","","","",""
"html-keyboard-response","77","144395","0.0-7.0-0.70","5be84b9a40b06b0001370c9f","64e77d7b61f440b60e28659d","64eca315ba80afe58c11b69c","null","null","<p style=""font-size: 60px; font-family: BACS"">mbZlOJlN</p>","","","","","","","","","",""
"html-keyboard-response","78","145397","0.0-7.0-0.71","5be84b9a40b06b0001370c9f","64e77d7b61f440b60e28659d","64eca315ba80afe58c11b69c","null","null","<p style=""font-size: 60px; font-family: BACS"">TklDTRkY</p>","","","","","","","","","",""
"html-keyboard-response","79","146412","0.0-7.0-0.72","5be84b9a40b06b0001370c9f","64e77d7b61f440b60e28659d","64eca315ba80afe58c11b69c","null","null","<p style=""font-size: 60px; font-family: BACS"">EtMDMBRDh</p>","","","","","","","","","",""
"html-keyboard-response","80","147413","0.0-7.0-0.73","5be84b9a40b06b0001370c9f","64e77d7b61f440b60e28659d","64eca315ba80afe58c11b69c","null","null","<p style=""font-size: 60px; font-family: BACS"">tDPRkAdYl</p>","","","","","","","","","",""
"html-keyboard-response","81","148423","0.0-7.0-0.74","5be84b9a40b06b0001370c9f","64e77d7b61f440b60e28659d","64eca315ba80afe58c11b69c","null","null","<p style=""font-size: 60px; font-family: BACS"">aLNlkOJlN</p>","","","","","","","","","",""
"html-keyboard-response","82","149424","0.0-7.0-0.75","5be84b9a40b06b0001370c9f","64e77d7b61f440b60e28659d","64eca315ba80afe58c11b69c","null","null","<p style=""font-size: 60px; font-family: BACS"">EtMDMTRkY</p>","","","","","","","","","",""
"html-keyboard-response","83","150434","0.0-7.0-0.76","5be84b9a40b06b0001370c9f","64e77d7b61f440b60e28659d","64eca315ba80afe58c11b69c","null","null","<p style=""font-size: 60px; font-family: BACS"">UJmrOJlN</p>","","","","","","","","","",""
"html-keyboard-response","84","151435","0.0-7.0-0.77","5be84b9a40b06b0001370c9f","64e77d7b61f440b60e28659d","64eca315ba80afe58c11b69c","null","null","<p style=""font-size: 60px; font-family: BACS"">MkmEdBRDh</p>","","","","","","","","","",""
"html-keyboard-response","85","152443","0.0-7.0-0.78","5be84b9a40b06b0001370c9f","64e77d7b61f440b60e28659d","64eca315ba80afe58c11b69c","null","null","<p style=""font-size: 60px; font-family: BACS"">cAZuYZUZ</p>","","","","","","","","","",""
"html-keyboard-response","86","153459","0.0-7.0-0.79","5be84b9a40b06b0001370c9f","64e77d7b61f440b60e28659d","64eca315ba80afe58c11b69c","null","null","<p style=""font-size: 60px; font-family: BACS"">UJmrYArG</p>","","","","","","","","","",""
"html-keyboard-response","87","156879","0.0-8.0","5be84b9a40b06b0001370c9f","64e77d7b61f440b60e28659d","64eca315ba80afe58c11b69c","3419"," ","<p>Great, you've seen the first block of words. You may now take a short break.</p>
      <p>Press the spacebar when you're ready to continue.</p>","","","","","","","","","",""
"html-keyboard-response","88","157891","0.0-9.0-0.0","5be84b9a40b06b0001370c9f","64e77d7b61f440b60e28659d","64eca315ba80afe58c11b69c","null","null","<p style=""font-size: 60px; font-family: BACS"">aLNlkUbG</p>","","","","","","","","","",""
"html-keyboard-response","89","158892","0.0-9.0-0.1","5be84b9a40b06b0001370c9f","64e77d7b61f440b60e28659d","64eca315ba80afe58c11b69c","null","null","<p style=""font-size: 60px; font-family: BACS"">TklDtcB</p>","","","","","","","","","",""
"html-keyboard-response","90","159904","0.0-9.0-0.2","5be84b9a40b06b0001370c9f","64e77d7b61f440b60e28659d","64eca315ba80afe58c11b69c","null","null","<p style=""font-size: 60px; font-family: BACS"">bvuZUbG</p>","","","","","","","","","",""
"html-keyboard-response","91","160917","0.0-9.0-0.3","5be84b9a40b06b0001370c9f","64e77d7b61f440b60e28659d","64eca315ba80afe58c11b69c","null","null","<p style=""font-size: 60px; font-family: BACS"">RdPtDABb</p>","","","","","","","","","",""
"html-keyboard-response","92","161919","0.0-9.0-0.4","5be84b9a40b06b0001370c9f","64e77d7b61f440b60e28659d","64eca315ba80afe58c11b69c","null","null","<p style=""font-size: 60px; font-family: BACS"">OmtlDtcB</p>","","","","","","","","","",""
"html-keyboard-response","93","162921","0.0-9.0-0.5","5be84b9a40b06b0001370c9f","64e77d7b61f440b60e28659d","64eca315ba80afe58c11b69c","null","null","<p style=""font-size: 60px; font-family: BACS"">tDPRkAdYl</p>","","","","","","","","","",""
"html-keyboard-response","94","163930","0.0-9.0-0.6","5be84b9a40b06b0001370c9f","64e77d7b61f440b60e28659d","64eca315ba80afe58c11b69c","null","null","<p style=""font-size: 60px; font-family: BACS"">cAZuOJNk</p>","","","","","","","","","",""
"html-keyboard-response","95","164938","0.0-9.0-0.7","5be84b9a40b06b0001370c9f","64e77d7b61f440b60e28659d","64eca315ba80afe58c11b69c","null","null","<p style=""font-size: 60px; font-family: BACS"">RdPtDAdYl</p>","","","","","","","","","",""
"html-keyboard-response","96","165940","0.0-9.0-0.8","5be84b9a40b06b0001370c9f","64e77d7b61f440b60e28659d","64eca315ba80afe58c11b69c","null","null","<p style=""font-size: 60px; font-family: BACS"">YUNkZOJlN</p>","","","","","","","","","",""
"html-keyboard-response","97","166953","0.0-9.0-0.9","5be84b9a40b06b0001370c9f","64e77d7b61f440b60e28659d","64eca315ba80afe58c11b69c","null","null","<p style=""font-size: 60px; font-family: BACS"">dRbDbABb</p>","","","","","","","","","",""
"html-keyboard-response","98","167967","0.0-9.0-0.10","5be84b9a40b06b0001370c9f","64e77d7b61f440b60e28659d","64eca315ba80afe58c11b69c","null","null","<p style=""font-size: 60px; font-family: BACS"">tDPRkTRkY</p>","","","","","","","","","",""
"html-keyboard-response","99","168979","0.0-9.0-0.11","5be84b9a40b06b0001370c9f","64e77d7b61f440b60e28659d","64eca315ba80afe58c11b69c","null","null","<p style=""font-size: 60px; font-family: BACS"">dRbDbtcB</p>","","","","","","","","","",""
"html-keyboard-response","100","169981","0.0-9.0-0.12","5be84b9a40b06b0001370c9f","64e77d7b61f440b60e28659d","64eca315ba80afe58c11b69c","null","null","<p style=""font-size: 60px; font-family: BACS"">MkmEdBRDh</p>","","","","","","","","","",""
"html-keyboard-response","101","170997","0.0-9.0-0.13","5be84b9a40b06b0001370c9f","64e77d7b61f440b60e28659d","64eca315ba80afe58c11b69c","null","null","<p style=""font-size: 60px; font-family: BACS"">LvuOGOJlN</p>","","","","","","","","","",""
"html-keyboard-response","102","172008","0.0-9.0-0.14","5be84b9a40b06b0001370c9f","64e77d7b61f440b60e28659d","64eca315ba80afe58c11b69c","null","null","<p style=""font-size: 60px; font-family: BACS"">EtMDMTRkY</p>","","","","","","","","","",""
"html-keyboard-response","103","173009","0.0-9.0-0.15","5be84b9a40b06b0001370c9f","64e77d7b61f440b60e28659d","64eca315ba80afe58c11b69c","null","null","<p style=""font-size: 60px; font-family: BACS"">cAZuYArG</p>","","","","","","","","","",""
"html-keyboard-response","104","174015","0.0-9.0-0.16","5be84b9a40b06b0001370c9f","64e77d7b61f440b60e28659d","64eca315ba80afe58c11b69c","null","null","<p style=""font-size: 60px; font-family: BACS"">ArQuYZUZ</p>","","","","","","","","","",""
"html-keyboard-response","105","175026","0.0-9.0-0.17","5be84b9a40b06b0001370c9f","64e77d7b61f440b60e28659d","64eca315ba80afe58c11b69c","null","null","<p style=""font-size: 60px; font-family: BACS"">auYAkOJNk</p>","","","","","","","","","",""
"html-keyboard-response","106","176027","0.0-9.0-0.18","5be84b9a40b06b0001370c9f","64e77d7b61f440b60e28659d","64eca315ba80afe58c11b69c","null","null","<p style=""font-size: 60px; font-family: BACS"">LvuOGUbG</p>","","","","","","","","","",""
"html-keyboard-response","107","177029","0.0-9.0-0.19","5be84b9a40b06b0001370c9f","64e77d7b61f440b60e28659d","64eca315ba80afe58c11b69c","null","null","<p style=""font-size: 60px; font-family: BACS"">ArQuOJlN</p>","","","","","","","","","",""
"html-keyboard-response","108","178041","0.0-9.0-0.20","5be84b9a40b06b0001370c9f","64e77d7b61f440b60e28659d","64eca315ba80afe58c11b69c","null","null","<p style=""font-size: 60px; font-family: BACS"">hbkdABb</p>","","","","","","","","","",""
"html-keyboard-response","109","179057","0.0-9.0-0.21","5be84b9a40b06b0001370c9f","64e77d7b61f440b60e28659d","64eca315ba80afe58c11b69c","null","null","<p style=""font-size: 60px; font-family: BACS"">aLNlkYZUZ</p>","","","","","","","","","",""
"html-keyboard-response","110","180065","0.0-9.0-0.22","5be84b9a40b06b0001370c9f","64e77d7b61f440b60e28659d","64eca315ba80afe58c11b69c","null","null","<p style=""font-size: 60px; font-family: BACS"">bdUNuYArG</p>","","","","","","","","","",""
"html-keyboard-response","111","181075","0.0-9.0-0.23","5be84b9a40b06b0001370c9f","64e77d7b61f440b60e28659d","64eca315ba80afe58c11b69c","null","null","<p style=""font-size: 60px; font-family: BACS"">MkmEdAdYl</p>","","","","","","","","","",""
"html-keyboard-response","112","182076","0.0-9.0-0.24","5be84b9a40b06b0001370c9f","64e77d7b61f440b60e28659d","64eca315ba80afe58c11b69c","null","null","<p style=""font-size: 60px; font-family: BACS"">hbkdtcB</p>","","","","","","","","","",""
"html-keyboard-response","113","183079","0.0-9.0-0.25","5be84b9a40b06b0001370c9f","64e77d7b61f440b60e28659d","64eca315ba80afe58c11b69c","null","null","<p style=""font-size: 60px; font-family: BACS"">bdUNuYZUZ</p>","","","","","","","","","",""
"html-keyboard-response","114","184081","0.0-9.0-0.26","5be84b9a40b06b0001370c9f","64e77d7b61f440b60e28659d","64eca315ba80afe58c11b69c","null","null","<p style=""font-size: 60px; font-family: BACS"">OmtlDAdYl</p>","","","","","","","","","",""
"html-keyboard-response","115","185083","0.0-9.0-0.27","5be84b9a40b06b0001370c9f","64e77d7b61f440b60e28659d","64eca315ba80afe58c11b69c","null","null","<p style=""font-size: 60px; font-family: BACS"">PctRCtcB</p>","","","","","","","","","",""
"html-keyboard-response","116","186099","0.0-9.0-0.28","5be84b9a40b06b0001370c9f","64e77d7b61f440b60e28659d","64eca315ba80afe58c11b69c","null","null","<p style=""font-size: 60px; font-family: BACS"">PCMPKABb</p>","","","","","","","","","",""
"html-keyboard-response","117","187110","0.0-9.0-0.29","5be84b9a40b06b0001370c9f","64e77d7b61f440b60e28659d","64eca315ba80afe58c11b69c","null","null","<p style=""font-size: 60px; font-family: BACS"">cAZuUbG</p>","","","","","","","","","",""
"html-keyboard-response","118","188112","0.0-9.0-0.30","5be84b9a40b06b0001370c9f","64e77d7b61f440b60e28659d","64eca315ba80afe58c11b69c","null","null","<p style=""font-size: 60px; font-family: BACS"">bdUNuOJNk</p>","","","","","","","","","",""
"html-keyboard-response","119","189129","0.0-9.0-0.31","5be84b9a40b06b0001370c9f","64e77d7b61f440b60e28659d","64eca315ba80afe58c11b69c","null","null","<p style=""font-size: 60px; font-family: BACS"">UJmrYArG</p>","","","","","","","","","",""
"html-keyboard-response","120","190130","0.0-9.0-0.32","5be84b9a40b06b0001370c9f","64e77d7b61f440b60e28659d","64eca315ba80afe58c11b69c","null","null","<p style=""font-size: 60px; font-family: BACS"">hbkdAdYl</p>","","","","","","","","","",""
"html-keyboard-response","121","191132","0.0-9.0-0.33","5be84b9a40b06b0001370c9f","64e77d7b61f440b60e28659d","64eca315ba80afe58c11b69c","null","null","<p style=""font-size: 60px; font-family: BACS"">dRbDbBRDh</p>","","","","","","","","","",""
"html-keyboard-response","122","192148","0.0-9.0-0.34","5be84b9a40b06b0001370c9f","64e77d7b61f440b60e28659d","64eca315ba80afe58c11b69c","null","null","<p style=""font-size: 60px; font-family: BACS"">MkmEdTRkY</p>","","","","","","","","","",""
"html-keyboard-response","123","193161","0.0-9.0-0.35","5be84b9a40b06b0001370c9f","64e77d7b61f440b60e28659d","64eca315ba80afe58c11b69c","null","null","<p style=""font-size: 60px; font-family: BACS"">mbZlOJNk</p>","","","","","","","","","",""
"html-keyboard-response","124","194172","0.0-9.0-0.36","5be84b9a40b06b0001370c9f","64e77d7b61f440b60e28659d","64eca315ba80afe58c11b69c","null","null","<p style=""font-size: 60px; font-family: BACS"">PCMPKtcB</p>","","","","","","","","","",""
"html-keyboard-response","125","195189","0.0-9.0-0.37","5be84b9a40b06b0001370c9f","64e77d7b61f440b60e28659d","64eca315ba80afe58c11b69c","null","null","<p style=""font-size: 60px; font-family: BACS"">UJmrOJNk</p>","","","","","","","","","",""
"html-keyboard-response","126","196200","0.0-9.0-0.38","5be84b9a40b06b0001370c9f","64e77d7b61f440b60e28659d","64eca315ba80afe58c11b69c","null","null","<p style=""font-size: 60px; font-family: BACS"">YUNkZYZUZ</p>","","","","","","","","","",""
"html-keyboard-response","127","197210","0.0-9.0-0.39","5be84b9a40b06b0001370c9f","64e77d7b61f440b60e28659d","64eca315ba80afe58c11b69c","null","null","<p style=""font-size: 60px; font-family: BACS"">aLNlkYArG</p>","","","","","","","","","",""
"html-keyboard-response","128","198220","0.0-9.0-0.40","5be84b9a40b06b0001370c9f","64e77d7b61f440b60e28659d","64eca315ba80afe58c11b69c","null","null","<p style=""font-size: 60px; font-family: BACS"">tDPRkBRDh</p>","","","","","","","","","",""
"html-keyboard-response","129","199231","0.0-9.0-0.41","5be84b9a40b06b0001370c9f","64e77d7b61f440b60e28659d","64eca315ba80afe58c11b69c","null","null","<p style=""font-size: 60px; font-family: BACS"">bvuZYZUZ</p>","","","","","","","","","",""
"html-keyboard-response","130","200232","0.0-9.0-0.42","5be84b9a40b06b0001370c9f","64e77d7b61f440b60e28659d","64eca315ba80afe58c11b69c","null","null","<p style=""font-size: 60px; font-family: BACS"">LvuOGOJNk</p>","","","","","","","","","",""
"html-keyboard-response","131","201236","0.0-9.0-0.43","5be84b9a40b06b0001370c9f","64e77d7b61f440b60e28659d","64eca315ba80afe58c11b69c","null","null","<p style=""font-size: 60px; font-family: BACS"">ArQuYArG</p>","","","","","","","","","",""
"html-keyboard-response","132","202251","0.0-9.0-0.44","5be84b9a40b06b0001370c9f","64e77d7b61f440b60e28659d","64eca315ba80afe58c11b69c","null","null","<p style=""font-size: 60px; font-family: BACS"">tDPRktcB</p>","","","","","","","","","",""
"html-keyboard-response","133","203267","0.0-9.0-0.45","5be84b9a40b06b0001370c9f","64e77d7b61f440b60e28659d","64eca315ba80afe58c11b69c","null","null","<p style=""font-size: 60px; font-family: BACS"">YUNkZOJNk</p>","","","","","","","","","",""
"html-keyboard-response","134","204281","0.0-9.0-0.46","5be84b9a40b06b0001370c9f","64e77d7b61f440b60e28659d","64eca315ba80afe58c11b69c","null","null","<p style=""font-size: 60px; font-family: BACS"">mbZlYZUZ</p>","","","","","","","","","",""
"html-keyboard-response","135","205289","0.0-9.0-0.47","5be84b9a40b06b0001370c9f","64e77d7b61f440b60e28659d","64eca315ba80afe58c11b69c","null","null","<p style=""font-size: 60px; font-family: BACS"">PctRCTRkY</p>","","","","","","","","","",""
"html-keyboard-response","136","206299","0.0-9.0-0.48","5be84b9a40b06b0001370c9f","64e77d7b61f440b60e28659d","64eca315ba80afe58c11b69c","null","null","<p style=""font-size: 60px; font-family: BACS"">EtMDMBRDh</p>","","","","","","","","","",""
"html-keyboard-response","137","207300","0.0-9.0-0.49","5be84b9a40b06b0001370c9f","64e77d7b61f440b60e28659d","64eca315ba80afe58c11b69c","null","null","<p style=""font-size: 60px; font-family: BACS"">auYAkYArG</p>","","","","","","","","","",""
"html-keyboard-response","138","208310","0.0-9.0-0.50","5be84b9a40b06b0001370c9f","64e77d7b61f440b60e28659d","64eca315ba80afe58c11b69c","null","null","<p style=""font-size: 60px; font-family: BACS"">OmtlDABb</p>","","","","","","","","","",""
"html-keyboard-response","139","209325","0.0-9.0-0.51","5be84b9a40b06b0001370c9f","64e77d7b61f440b60e28659d","64eca315ba80afe58c11b69c","null","null","<p style=""font-size: 60px; font-family: BACS"">cAZuYZUZ</p>","","","","","","","","","",""
"html-keyboard-response","140","210338","0.0-9.0-0.52","5be84b9a40b06b0001370c9f","64e77d7b61f440b60e28659d","64eca315ba80afe58c11b69c","null","null","<p style=""font-size: 60px; font-family: BACS"">OmtlDBRDh</p>","","","","","","","","","",""
"html-keyboard-response","141","211345","0.0-9.0-0.53","5be84b9a40b06b0001370c9f","64e77d7b61f440b60e28659d","64eca315ba80afe58c11b69c","null","null","<p style=""font-size: 60px; font-family: BACS"">TklDTRkY</p>","","","","","","","","","",""
"html-keyboard-response","142","212346","0.0-9.0-0.54","5be84b9a40b06b0001370c9f","64e77d7b61f440b60e28659d","64eca315ba80afe58c11b69c","null","null","<p style=""font-size: 60px; font-family: BACS"">EtMDMABb</p>","","","","","","","","","",""
"html-keyboard-response","143","213357","0.0-9.0-0.55","5be84b9a40b06b0001370c9f","64e77d7b61f440b60e28659d","64eca315ba80afe58c11b69c","null","null","<p style=""font-size: 60px; font-family: BACS"">mbZlOJlN</p>","","","","","","","","","",""
"html-keyboard-response","144","214373","0.0-9.0-0.56","5be84b9a40b06b0001370c9f","64e77d7b61f440b60e28659d","64eca315ba80afe58c11b69c","null","null","<p style=""font-size: 60px; font-family: BACS"">TklDABb</p>","","","","","","","","","",""
"html-keyboard-response","145","215380","0.0-9.0-0.57","5be84b9a40b06b0001370c9f","64e77d7b61f440b60e28659d","64eca315ba80afe58c11b69c","null","null","<p style=""font-size: 60px; font-family: BACS"">ArQuUbG</p>","","","","","","","","","",""
"html-keyboard-response","146","216381","0.0-9.0-0.58","5be84b9a40b06b0001370c9f","64e77d7b61f440b60e28659d","64eca315ba80afe58c11b69c","null","null","<p style=""font-size: 60px; font-family: BACS"">RdPtDtcB</p>","","","","","","","","","",""
"html-keyboard-response","147","217393","0.0-9.0-0.59","5be84b9a40b06b0001370c9f","64e77d7b61f440b60e28659d","64eca315ba80afe58c11b69c","null","null","<p style=""font-size: 60px; font-family: BACS"">PCMPKBRDh</p>","","","","","","","","","",""
"html-keyboard-response","148","218405","0.0-9.0-0.60","5be84b9a40b06b0001370c9f","64e77d7b61f440b60e28659d","64eca315ba80afe58c11b69c","null","null","<p style=""font-size: 60px; font-family: BACS"">RdPtDTRkY</p>","","","","","","","","","",""
"html-keyboard-response","149","219406","0.0-9.0-0.61","5be84b9a40b06b0001370c9f","64e77d7b61f440b60e28659d","64eca315ba80afe58c11b69c","null","null","<p style=""font-size: 60px; font-family: BACS"">LvuOGYArG</p>","","","","","","","","","",""
"html-keyboard-response","150","220407","0.0-9.0-0.62","5be84b9a40b06b0001370c9f","64e77d7b61f440b60e28659d","64eca315ba80afe58c11b69c","null","null","<p style=""font-size: 60px; font-family: BACS"">dRbDbAdYl</p>","","","","","","","","","",""
"html-keyboard-response","151","221408","0.0-9.0-0.63","5be84b9a40b06b0001370c9f","64e77d7b61f440b60e28659d","64eca315ba80afe58c11b69c","null","null","<p style=""font-size: 60px; font-family: BACS"">hbkdTRkY</p>","","","","","","","","","",""
"html-keyboard-response","152","222409","0.0-9.0-0.64","5be84b9a40b06b0001370c9f","64e77d7b61f440b60e28659d","64eca315ba80afe58c11b69c","null","null","<p style=""font-size: 60px; font-family: BACS"">auYAkOJlN</p>","","","","","","","","","",""
"html-keyboard-response","153","223418","0.0-9.0-0.65","5be84b9a40b06b0001370c9f","64e77d7b61f440b60e28659d","64eca315ba80afe58c11b69c","null","null","<p style=""font-size: 60px; font-family: BACS"">TklDBRDh</p>","","","","","","","","","",""
"html-keyboard-response","154","224428","0.0-9.0-0.66","5be84b9a40b06b0001370c9f","64e77d7b61f440b60e28659d","64eca315ba80afe58c11b69c","null","null","<p style=""font-size: 60px; font-family: BACS"">PCMPKTRkY</p>","","","","","","","","","",""
"html-keyboard-response","155","225442","0.0-9.0-0.67","5be84b9a40b06b0001370c9f","64e77d7b61f440b60e28659d","64eca315ba80afe58c11b69c","null","null","<p style=""font-size: 60px; font-family: BACS"">auYAkUbG</p>","","","","","","","","","",""
"html-keyboard-response","156","226450","0.0-9.0-0.68","5be84b9a40b06b0001370c9f","64e77d7b61f440b60e28659d","64eca315ba80afe58c11b69c","null","null","<p style=""font-size: 60px; font-family: BACS"">aLNlkOJlN</p>","","","","","","","","","",""
"html-keyboard-response","157","227462","0.0-9.0-0.69","5be84b9a40b06b0001370c9f","64e77d7b61f440b60e28659d","64eca315ba80afe58c11b69c","null","null","<p style=""font-size: 60px; font-family: BACS"">EtMDMAdYl</p>","","","","","","","","","",""
"html-keyboard-response","158","228470","0.0-9.0-0.70","5be84b9a40b06b0001370c9f","64e77d7b61f440b60e28659d","64eca315ba80afe58c11b69c","null","null","<p style=""font-size: 60px; font-family: BACS"">YUNkZUbG</p>","","","","","","","","","",""
"html-keyboard-response","159","229476","0.0-9.0-0.71","5be84b9a40b06b0001370c9f","64e77d7b61f440b60e28659d","64eca315ba80afe58c11b69c","null","null","<p style=""font-size: 60px; font-family: BACS"">bvuZOJNk</p>","","","","","","","","","",""
"html-keyboard-response","160","230490","0.0-9.0-0.72","5be84b9a40b06b0001370c9f","64e77d7b61f440b60e28659d","64eca315ba80afe58c11b69c","null","null","<p style=""font-size: 60px; font-family: BACS"">UJmrOJlN</p>","","","","","","","","","",""
"html-keyboard-response","161","231501","0.0-9.0-0.73","5be84b9a40b06b0001370c9f","64e77d7b61f440b60e28659d","64eca315ba80afe58c11b69c","null","null","<p style=""font-size: 60px; font-family: BACS"">bvuZYArG</p>","","","","","","","","","",""
"html-keyboard-response","162","232503","0.0-9.0-0.74","5be84b9a40b06b0001370c9f","64e77d7b61f440b60e28659d","64eca315ba80afe58c11b69c","null","null","<p style=""font-size: 60px; font-family: BACS"">bdUNuOJlN</p>","","","","","","","","","",""
"html-keyboard-response","163","233516","0.0-9.0-0.75","5be84b9a40b06b0001370c9f","64e77d7b61f440b60e28659d","64eca315ba80afe58c11b69c","null","null","<p style=""font-size: 60px; font-family: BACS"">UJmrYZUZ</p>","","","","","","","","","",""
"html-keyboard-response","164","234519","0.0-9.0-0.76","5be84b9a40b06b0001370c9f","64e77d7b61f440b60e28659d","64eca315ba80afe58c11b69c","null","null","<p style=""font-size: 60px; font-family: BACS"">MkmEdABb</p>","","","","","","","","","",""
"html-keyboard-response","165","235529","0.0-9.0-0.77","5be84b9a40b06b0001370c9f","64e77d7b61f440b60e28659d","64eca315ba80afe58c11b69c","null","null","<p style=""font-size: 60px; font-family: BACS"">PctRCBRDh</p>","","","","","","","","","",""
"html-keyboard-response","166","236541","0.0-9.0-0.78","5be84b9a40b06b0001370c9f","64e77d7b61f440b60e28659d","64eca315ba80afe58c11b69c","null","null","<p style=""font-size: 60px; font-family: BACS"">mbZlUbG</p>","","","","","","","","","",""
"html-keyboard-response","167","237542","0.0-9.0-0.79","5be84b9a40b06b0001370c9f","64e77d7b61f440b60e28659d","64eca315ba80afe58c11b69c","null","null","<p style=""font-size: 60px; font-family: BACS"">PctRCAdYl</p>","","","","","","","","","",""
"html-keyboard-response","168","239227","0.0-10.0","5be84b9a40b06b0001370c9f","64e77d7b61f440b60e28659d","64eca315ba80afe58c11b69c","1685"," ","<p>Great, you've seen the second block of words. You may now take a short break.</p>
      <p>Press the spacebar when you're ready to continue.</p>","","","","","","","","","",""
"html-keyboard-response","169","240235","0.0-11.0-0.0","5be84b9a40b06b0001370c9f","64e77d7b61f440b60e28659d","64eca315ba80afe58c11b69c","null","null","<p style=""font-size: 60px; font-family: BACS"">bvuZYZUZ</p>","","","","","","","","","",""
"html-keyboard-response","170","241236","0.0-11.0-0.1","5be84b9a40b06b0001370c9f","64e77d7b61f440b60e28659d","64eca315ba80afe58c11b69c","null","null","<p style=""font-size: 60px; font-family: BACS"">OmtlDAdYl</p>","","","","","","","","","",""
"html-keyboard-response","171","242242","0.0-11.0-0.2","5be84b9a40b06b0001370c9f","64e77d7b61f440b60e28659d","64eca315ba80afe58c11b69c","null","null","<p style=""font-size: 60px; font-family: BACS"">RdPtDtcB</p>","","","","","","","","","",""
"html-keyboard-response","172","243254","0.0-11.0-0.3","5be84b9a40b06b0001370c9f","64e77d7b61f440b60e28659d","64eca315ba80afe58c11b69c","null","null","<p style=""font-size: 60px; font-family: BACS"">auYAkYArG</p>","","","","","","","","","",""
"html-keyboard-response","173","244260","0.0-11.0-0.4","5be84b9a40b06b0001370c9f","64e77d7b61f440b60e28659d","64eca315ba80afe58c11b69c","null","null","<p style=""font-size: 60px; font-family: BACS"">UJmrOJNk</p>","","","","","","","","","",""
"html-keyboard-response","174","245271","0.0-11.0-0.5","5be84b9a40b06b0001370c9f","64e77d7b61f440b60e28659d","64eca315ba80afe58c11b69c","null","null","<p style=""font-size: 60px; font-family: BACS"">RdPtDAdYl</p>","","","","","","","","","",""
"html-keyboard-response","175","246282","0.0-11.0-0.6","5be84b9a40b06b0001370c9f","64e77d7b61f440b60e28659d","64eca315ba80afe58c11b69c","null","null","<p style=""font-size: 60px; font-family: BACS"">LvuOGYArG</p>","","","","","","","","","",""
"html-keyboard-response","176","247292","0.0-11.0-0.7","5be84b9a40b06b0001370c9f","64e77d7b61f440b60e28659d","64eca315ba80afe58c11b69c","null","null","<p style=""font-size: 60px; font-family: BACS"">EtMDMAdYl</p>","","","","","","","","","",""
"html-keyboard-response","177","248304","0.0-11.0-0.8","5be84b9a40b06b0001370c9f","64e77d7b61f440b60e28659d","64eca315ba80afe58c11b69c","null","null","<p style=""font-size: 60px; font-family: BACS"">RdPtDABb</p>","","","","","","","","","",""
"html-keyboard-response","178","249316","0.0-11.0-0.9","5be84b9a40b06b0001370c9f","64e77d7b61f440b60e28659d","64eca315ba80afe58c11b69c","null","null","<p style=""font-size: 60px; font-family: BACS"">MkmEdBRDh</p>","","","","","","","","","",""
"html-keyboard-response","179","250323","0.0-11.0-0.10","5be84b9a40b06b0001370c9f","64e77d7b61f440b60e28659d","64eca315ba80afe58c11b69c","null","null","<p style=""font-size: 60px; font-family: BACS"">ArQuOJlN</p>","","","","","","","","","",""
"html-keyboard-response","180","251336","0.0-11.0-0.11","5be84b9a40b06b0001370c9f","64e77d7b61f440b60e28659d","64eca315ba80afe58c11b69c","null","null","<p style=""font-size: 60px; font-family: BACS"">tDPRktcB</p>","","","","","","","","","",""
"html-keyboard-response","181","252337","0.0-11.0-0.12","5be84b9a40b06b0001370c9f","64e77d7b61f440b60e28659d","64eca315ba80afe58c11b69c","null","null","<p style=""font-size: 60px; font-family: BACS"">YUNkZYZUZ</p>","","","","","","","","","",""
"html-keyboard-response","182","253347","0.0-11.0-0.13","5be84b9a40b06b0001370c9f","64e77d7b61f440b60e28659d","64eca315ba80afe58c11b69c","null","null","<p style=""font-size: 60px; font-family: BACS"">aLNlkUbG</p>","","","","","","","","","",""
"html-keyboard-response","183","254348","0.0-11.0-0.14","5be84b9a40b06b0001370c9f","64e77d7b61f440b60e28659d","64eca315ba80afe58c11b69c","null","null","<p style=""font-size: 60px; font-family: BACS"">bdUNuYZUZ</p>","","","","","","","","","",""
"html-keyboard-response","184","255355","0.0-11.0-0.15","5be84b9a40b06b0001370c9f","64e77d7b61f440b60e28659d","64eca315ba80afe58c11b69c","null","null","<p style=""font-size: 60px; font-family: BACS"">dRbDbtcB</p>","","","","","","","","","",""
"html-keyboard-response","185","256363","0.0-11.0-0.16","5be84b9a40b06b0001370c9f","64e77d7b61f440b60e28659d","64eca315ba80afe58c11b69c","null","null","<p style=""font-size: 60px; font-family: BACS"">YUNkZOJlN</p>","","","","","","","","","",""
"html-keyboard-response","186","257373","0.0-11.0-0.17","5be84b9a40b06b0001370c9f","64e77d7b61f440b60e28659d","64eca315ba80afe58c11b69c","null","null","<p style=""font-size: 60px; font-family: BACS"">EtMDMBRDh</p>","","","","","","","","","",""
"html-keyboard-response","187","258375","0.0-11.0-0.18","5be84b9a40b06b0001370c9f","64e77d7b61f440b60e28659d","64eca315ba80afe58c11b69c","null","null","<p style=""font-size: 60px; font-family: BACS"">PCMPKtcB</p>","","","","","","","","","",""
"html-keyboard-response","188","259387","0.0-11.0-0.19","5be84b9a40b06b0001370c9f","64e77d7b61f440b60e28659d","64eca315ba80afe58c11b69c","null","null","<p style=""font-size: 60px; font-family: BACS"">cAZuUbG</p>","","","","","","","","","",""
"html-keyboard-response","189","260396","0.0-11.0-0.20","5be84b9a40b06b0001370c9f","64e77d7b61f440b60e28659d","64eca315ba80afe58c11b69c","null","null","<p style=""font-size: 60px; font-family: BACS"">aLNlkYArG</p>","","","","","","","","","",""
"html-keyboard-response","190","261405","0.0-11.0-0.21","5be84b9a40b06b0001370c9f","64e77d7b61f440b60e28659d","64eca315ba80afe58c11b69c","null","null","<p style=""font-size: 60px; font-family: BACS"">tDPRkTRkY</p>","","","","","","","","","",""
"html-keyboard-response","191","262421","0.0-11.0-0.22","5be84b9a40b06b0001370c9f","64e77d7b61f440b60e28659d","64eca315ba80afe58c11b69c","null","null","<p style=""font-size: 60px; font-family: BACS"">mbZlOJNk</p>","","","","","","","","","",""
"html-keyboard-response","192","263437","0.0-11.0-0.23","5be84b9a40b06b0001370c9f","64e77d7b61f440b60e28659d","64eca315ba80afe58c11b69c","null","null","<p style=""font-size: 60px; font-family: BACS"">OmtlDABb</p>","","","","","","","","","",""
"html-keyboard-response","193","264438","0.0-11.0-0.24","5be84b9a40b06b0001370c9f","64e77d7b61f440b60e28659d","64eca315ba80afe58c11b69c","null","null","<p style=""font-size: 60px; font-family: BACS"">bdUNuOJlN</p>","","","","","","","","","",""
"html-keyboard-response","194","265443","0.0-11.0-0.25","5be84b9a40b06b0001370c9f","64e77d7b61f440b60e28659d","64eca315ba80afe58c11b69c","null","null","<p style=""font-size: 60px; font-family: BACS"">TklDBRDh</p>","","","","","","","","","",""
"html-keyboard-response","195","266457","0.0-11.0-0.26","5be84b9a40b06b0001370c9f","64e77d7b61f440b60e28659d","64eca315ba80afe58c11b69c","null","null","<p style=""font-size: 60px; font-family: BACS"">dRbDbAdYl</p>","","","","","","","","","",""
"html-keyboard-response","196","267465","0.0-11.0-0.27","5be84b9a40b06b0001370c9f","64e77d7b61f440b60e28659d","64eca315ba80afe58c11b69c","null","null","<p style=""font-size: 60px; font-family: BACS"">PctRCTRkY</p>","","","","","","","","","",""
"html-keyboard-response","197","268474","0.0-11.0-0.28","5be84b9a40b06b0001370c9f","64e77d7b61f440b60e28659d","64eca315ba80afe58c11b69c","null","null","<p style=""font-size: 60px; font-family: BACS"">dRbDbBRDh</p>","","","","","","","","","",""
"html-keyboard-response","198","269483","0.0-11.0-0.29","5be84b9a40b06b0001370c9f","64e77d7b61f440b60e28659d","64eca315ba80afe58c11b69c","null","null","<p style=""font-size: 60px; font-family: BACS"">auYAkOJlN</p>","","","","","","","","","",""
"html-keyboard-response","199","270494","0.0-11.0-0.30","5be84b9a40b06b0001370c9f","64e77d7b61f440b60e28659d","64eca315ba80afe58c11b69c","null","null","<p style=""font-size: 60px; font-family: BACS"">MkmEdAdYl</p>","","","","","","","","","",""
"html-keyboard-response","200","271509","0.0-11.0-0.31","5be84b9a40b06b0001370c9f","64e77d7b61f440b60e28659d","64eca315ba80afe58c11b69c","null","null","<p style=""font-size: 60px; font-family: BACS"">LvuOGUbG</p>","","","","","","","","","",""
"html-keyboard-response","201","272523","0.0-11.0-0.32","5be84b9a40b06b0001370c9f","64e77d7b61f440b60e28659d","64eca315ba80afe58c11b69c","null","null","<p style=""font-size: 60px; font-family: BACS"">ArQuYZUZ</p>","","","","","","","","","",""
"html-keyboard-response","202","273533","0.0-11.0-0.33","5be84b9a40b06b0001370c9f","64e77d7b61f440b60e28659d","64eca315ba80afe58c11b69c","null","null","<p style=""font-size: 60px; font-family: BACS"">LvuOGOJNk</p>","","","","","","","","","",""
"html-keyboard-response","203","274541","0.0-11.0-0.34","5be84b9a40b06b0001370c9f","64e77d7b61f440b60e28659d","64eca315ba80afe58c11b69c","null","null","<p style=""font-size: 60px; font-family: BACS"">hbkdAdYl</p>","","","","","","","","","",""
"html-keyboard-response","204","275543","0.0-11.0-0.35","5be84b9a40b06b0001370c9f","64e77d7b61f440b60e28659d","64eca315ba80afe58c11b69c","null","null","<p style=""font-size: 60px; font-family: BACS"">YUNkZUbG</p>","","","","","","","","","",""
"html-keyboard-response","205","276555","0.0-11.0-0.36","5be84b9a40b06b0001370c9f","64e77d7b61f440b60e28659d","64eca315ba80afe58c11b69c","null","null","<p style=""font-size: 60px; font-family: BACS"">PCMPKABb</p>","","","","","","","","","",""
"html-keyboard-response","206","277557","0.0-11.0-0.37","5be84b9a40b06b0001370c9f","64e77d7b61f440b60e28659d","64eca315ba80afe58c11b69c","null","null","<p style=""font-size: 60px; font-family: BACS"">cAZuOJNk</p>","","","","","","","","","",""
"html-keyboard-response","207","278558","0.0-11.0-0.38","5be84b9a40b06b0001370c9f","64e77d7b61f440b60e28659d","64eca315ba80afe58c11b69c","null","null","<p style=""font-size: 60px; font-family: BACS"">UJmrYArG</p>","","","","","","","","","",""
"html-keyboard-response","208","279565","0.0-11.0-0.39","5be84b9a40b06b0001370c9f","64e77d7b61f440b60e28659d","64eca315ba80afe58c11b69c","null","null","<p style=""font-size: 60px; font-family: BACS"">PCMPKTRkY</p>","","","","","","","","","",""
"html-keyboard-response","209","280574","0.0-11.0-0.40","5be84b9a40b06b0001370c9f","64e77d7b61f440b60e28659d","64eca315ba80afe58c11b69c","null","null","<p style=""font-size: 60px; font-family: BACS"">hbkdABb</p>","","","","","","","","","",""
"html-keyboard-response","210","281576","0.0-11.0-0.41","5be84b9a40b06b0001370c9f","64e77d7b61f440b60e28659d","64eca315ba80afe58c11b69c","null","null","<p style=""font-size: 60px; font-family: BACS"">mbZlYZUZ</p>","","","","","","","","","",""
"html-keyboard-response","211","282578","0.0-11.0-0.42","5be84b9a40b06b0001370c9f","64e77d7b61f440b60e28659d","64eca315ba80afe58c11b69c","null","null","<p style=""font-size: 60px; font-family: BACS"">cAZuYArG</p>","","","","","","","","","",""
"html-keyboard-response","212","283579","0.0-11.0-0.43","5be84b9a40b06b0001370c9f","64e77d7b61f440b60e28659d","64eca315ba80afe58c11b69c","null","null","<p style=""font-size: 60px; font-family: BACS"">PCMPKBRDh</p>","","","","","","","","","",""
"html-keyboard-response","213","284585","0.0-11.0-0.44","5be84b9a40b06b0001370c9f","64e77d7b61f440b60e28659d","64eca315ba80afe58c11b69c","null","null","<p style=""font-size: 60px; font-family: BACS"">aLNlkYZUZ</p>","","","","","","","","","",""
"html-keyboard-response","214","285600","0.0-11.0-0.45","5be84b9a40b06b0001370c9f","64e77d7b61f440b60e28659d","64eca315ba80afe58c11b69c","null","null","<p style=""font-size: 60px; font-family: BACS"">mbZlOJlN</p>","","","","","","","","","",""
"html-keyboard-response","215","286611","0.0-11.0-0.46","5be84b9a40b06b0001370c9f","64e77d7b61f440b60e28659d","64eca315ba80afe58c11b69c","null","null","<p style=""font-size: 60px; font-family: BACS"">hbkdTRkY</p>","","","","","","","","","",""
"html-keyboard-response","216","287611","0.0-11.0-0.47","5be84b9a40b06b0001370c9f","64e77d7b61f440b60e28659d","64eca315ba80afe58c11b69c","null","null","<p style=""font-size: 60px; font-family: BACS"">TklDtcB</p>","","","","","","","","","",""
"html-keyboard-response","217","288627","0.0-11.0-0.48","5be84b9a40b06b0001370c9f","64e77d7b61f440b60e28659d","64eca315ba80afe58c11b69c","null","null","<p style=""font-size: 60px; font-family: BACS"">PctRCAdYl</p>","","","","","","","","","",""
"html-keyboard-response","218","289639","0.0-11.0-0.49","5be84b9a40b06b0001370c9f","64e77d7b61f440b60e28659d","64eca315ba80afe58c11b69c","null","null","<p style=""font-size: 60px; font-family: BACS"">EtMDMTRkY</p>","","","","","","","","","",""
"html-keyboard-response","219","290650","0.0-11.0-0.50","5be84b9a40b06b0001370c9f","64e77d7b61f440b60e28659d","64eca315ba80afe58c11b69c","null","null","<p style=""font-size: 60px; font-family: BACS"">PctRCtcB</p>","","","","","","","","","",""
"html-keyboard-response","220","291651","0.0-11.0-0.51","5be84b9a40b06b0001370c9f","64e77d7b61f440b60e28659d","64eca315ba80afe58c11b69c","null","null","<p style=""font-size: 60px; font-family: BACS"">ArQuUbG</p>","","","","","","","","","",""
"html-keyboard-response","221","292657","0.0-11.0-0.52","5be84b9a40b06b0001370c9f","64e77d7b61f440b60e28659d","64eca315ba80afe58c11b69c","null","null","<p style=""font-size: 60px; font-family: BACS"">YUNkZOJNk</p>","","","","","","","","","",""
"html-keyboard-response","222","293671","0.0-11.0-0.53","5be84b9a40b06b0001370c9f","64e77d7b61f440b60e28659d","64eca315ba80afe58c11b69c","null","null","<p style=""font-size: 60px; font-family: BACS"">hbkdtcB</p>","","","","","","","","","",""
"html-keyboard-response","223","294683","0.0-11.0-0.54","5be84b9a40b06b0001370c9f","64e77d7b61f440b60e28659d","64eca315ba80afe58c11b69c","null","null","<p style=""font-size: 60px; font-family: BACS"">RdPtDTRkY</p>","","","","","","","","","",""
"html-keyboard-response","224","295696","0.0-11.0-0.55","5be84b9a40b06b0001370c9f","64e77d7b61f440b60e28659d","64eca315ba80afe58c11b69c","null","null","<p style=""font-size: 60px; font-family: BACS"">auYAkOJNk</p>","","","","","","","","","",""
"html-keyboard-response","225","296707","0.0-11.0-0.56","5be84b9a40b06b0001370c9f","64e77d7b61f440b60e28659d","64eca315ba80afe58c11b69c","null","null","<p style=""font-size: 60px; font-family: BACS"">PctRCBRDh</p>","","","","","","","","","",""
"html-keyboard-response","226","297715","0.0-11.0-0.57","5be84b9a40b06b0001370c9f","64e77d7b61f440b60e28659d","64eca315ba80afe58c11b69c","null","null","<p style=""font-size: 60px; font-family: BACS"">bdUNuOJNk</p>","","","","","","","","","",""
"html-keyboard-response","227","298721","0.0-11.0-0.58","5be84b9a40b06b0001370c9f","64e77d7b61f440b60e28659d","64eca315ba80afe58c11b69c","null","null","<p style=""font-size: 60px; font-family: BACS"">mbZlUbG</p>","","","","","","","","","",""
"html-keyboard-response","228","299721","0.0-11.0-0.59","5be84b9a40b06b0001370c9f","64e77d7b61f440b60e28659d","64eca315ba80afe58c11b69c","null","null","<p style=""font-size: 60px; font-family: BACS"">tDPRkAdYl</p>","","","","","","","","","",""
"html-keyboard-response","229","300728","0.0-11.0-0.60","5be84b9a40b06b0001370c9f","64e77d7b61f440b60e28659d","64eca315ba80afe58c11b69c","null","null","<p style=""font-size: 60px; font-family: BACS"">TklDTRkY</p>","","","","","","","","","",""
"html-keyboard-response","230","301739","0.0-11.0-0.61","5be84b9a40b06b0001370c9f","64e77d7b61f440b60e28659d","64eca315ba80afe58c11b69c","null","null","<p style=""font-size: 60px; font-family: BACS"">OmtlDtcB</p>","","","","","","","","","",""
"html-keyboard-response","231","302740","0.0-11.0-0.62","5be84b9a40b06b0001370c9f","64e77d7b61f440b60e28659d","64eca315ba80afe58c11b69c","null","null","<p style=""font-size: 60px; font-family: BACS"">bvuZUbG</p>","","","","","","","","","",""
"html-keyboard-response","232","303750","0.0-11.0-0.63","5be84b9a40b06b0001370c9f","64e77d7b61f440b60e28659d","64eca315ba80afe58c11b69c","null","null","<p style=""font-size: 60px; font-family: BACS"">MkmEdABb</p>","","","","","","","","","",""
"html-keyboard-response","233","304757","0.0-11.0-0.64","5be84b9a40b06b0001370c9f","64e77d7b61f440b60e28659d","64eca315ba80afe58c11b69c","null","null","<p style=""font-size: 60px; font-family: BACS"">tDPRkBRDh</p>","","","","","","","","","",""
"html-keyboard-response","234","305758","0.0-11.0-0.65","5be84b9a40b06b0001370c9f","64e77d7b61f440b60e28659d","64eca315ba80afe58c11b69c","null","null","<p style=""font-size: 60px; font-family: BACS"">MkmEdTRkY</p>","","","","","","","","","",""
"html-keyboard-response","235","306758","0.0-11.0-0.66","5be84b9a40b06b0001370c9f","64e77d7b61f440b60e28659d","64eca315ba80afe58c11b69c","null","null","<p style=""font-size: 60px; font-family: BACS"">TklDABb</p>","","","","","","","","","",""
"html-keyboard-response","236","307772","0.0-11.0-0.67","5be84b9a40b06b0001370c9f","64e77d7b61f440b60e28659d","64eca315ba80afe58c11b69c","null","null","<p style=""font-size: 60px; font-family: BACS"">bvuZYArG</p>","","","","","","","","","",""
"html-keyboard-response","237","308774","0.0-11.0-0.68","5be84b9a40b06b0001370c9f","64e77d7b61f440b60e28659d","64eca315ba80afe58c11b69c","null","null","<p style=""font-size: 60px; font-family: BACS"">aLNlkOJlN</p>","","","","","","","","","",""
"html-keyboard-response","238","309778","0.0-11.0-0.69","5be84b9a40b06b0001370c9f","64e77d7b61f440b60e28659d","64eca315ba80afe58c11b69c","null","null","<p style=""font-size: 60px; font-family: BACS"">bdUNuYArG</p>","","","","","","","","","",""
"html-keyboard-response","239","310787","0.0-11.0-0.70","5be84b9a40b06b0001370c9f","64e77d7b61f440b60e28659d","64eca315ba80afe58c11b69c","null","null","<p style=""font-size: 60px; font-family: BACS"">EtMDMABb</p>","","","","","","","","","",""
"html-keyboard-response","240","311803","0.0-11.0-0.71","5be84b9a40b06b0001370c9f","64e77d7b61f440b60e28659d","64eca315ba80afe58c11b69c","null","null","<p style=""font-size: 60px; font-family: BACS"">OmtlDBRDh</p>","","","","","","","","","",""
"html-keyboard-response","241","312804","0.0-11.0-0.72","5be84b9a40b06b0001370c9f","64e77d7b61f440b60e28659d","64eca315ba80afe58c11b69c","null","null","<p style=""font-size: 60px; font-family: BACS"">bvuZOJNk</p>","","","","","","","","","",""
"html-keyboard-response","242","313805","0.0-11.0-0.73","5be84b9a40b06b0001370c9f","64e77d7b61f440b60e28659d","64eca315ba80afe58c11b69c","null","null","<p style=""font-size: 60px; font-family: BACS"">cAZuYZUZ</p>","","","","","","","","","",""
"html-keyboard-response","243","314806","0.0-11.0-0.74","5be84b9a40b06b0001370c9f","64e77d7b61f440b60e28659d","64eca315ba80afe58c11b69c","null","null","<p style=""font-size: 60px; font-family: BACS"">LvuOGOJlN</p>","","","","","","","","","",""
"html-keyboard-response","244","315822","0.0-11.0-0.75","5be84b9a40b06b0001370c9f","64e77d7b61f440b60e28659d","64eca315ba80afe58c11b69c","null","null","<p style=""font-size: 60px; font-family: BACS"">dRbDbABb</p>","","","","","","","","","",""
"html-keyboard-response","245","316836","0.0-11.0-0.76","5be84b9a40b06b0001370c9f","64e77d7b61f440b60e28659d","64eca315ba80afe58c11b69c","null","null","<p style=""font-size: 60px; font-family: BACS"">UJmrYZUZ</p>","","","","","","","","","",""
"html-keyboard-response","246","317845","0.0-11.0-0.77","5be84b9a40b06b0001370c9f","64e77d7b61f440b60e28659d","64eca315ba80afe58c11b69c","null","null","<p style=""font-size: 60px; font-family: BACS"">auYAkUbG</p>","","","","","","","","","",""
"html-keyboard-response","247","318856","0.0-11.0-0.78","5be84b9a40b06b0001370c9f","64e77d7b61f440b60e28659d","64eca315ba80afe58c11b69c","null","null","<p style=""font-size: 60px; font-family: BACS"">ArQuYArG</p>","","","","","","","","","",""
"html-keyboard-response","248","319872","0.0-11.0-0.79","5be84b9a40b06b0001370c9f","64e77d7b61f440b60e28659d","64eca315ba80afe58c11b69c","null","null","<p style=""font-size: 60px; font-family: BACS"">UJmrOJlN</p>","","","","","","","","","",""
"html-keyboard-response","249","325274","0.0-12.0","5be84b9a40b06b0001370c9f","64e77d7b61f440b60e28659d","64eca315ba80afe58c11b69c","5401"," ","<p>Great, you've seen the third block of words. You may now take a short break.</p>
      <p>Press the spacebar when you're ready to continue.</p>","","","","","","","","","",""
"html-keyboard-response","250","326279","0.0-13.0-0.0","5be84b9a40b06b0001370c9f","64e77d7b61f440b60e28659d","64eca315ba80afe58c11b69c","null","null","<p style=""font-size: 60px; font-family: BACS"">hbkdTRkY</p>","","","","","","","","","",""
"html-keyboard-response","251","327289","0.0-13.0-0.1","5be84b9a40b06b0001370c9f","64e77d7b61f440b60e28659d","64eca315ba80afe58c11b69c","null","null","<p style=""font-size: 60px; font-family: BACS"">TklDBRDh</p>","","","","","","","","","",""
"html-keyboard-response","252","328300","0.0-13.0-0.2","5be84b9a40b06b0001370c9f","64e77d7b61f440b60e28659d","64eca315ba80afe58c11b69c","null","null","<p style=""font-size: 60px; font-family: BACS"">mbZlUbG</p>","","","","","","","","","",""
"html-keyboard-response","253","329301","0.0-13.0-0.3","5be84b9a40b06b0001370c9f","64e77d7b61f440b60e28659d","64eca315ba80afe58c11b69c","null","null","<p style=""font-size: 60px; font-family: BACS"">PCMPKABb</p>","","","","","","","","","",""
"html-keyboard-response","254","330307","0.0-13.0-0.4","5be84b9a40b06b0001370c9f","64e77d7b61f440b60e28659d","64eca315ba80afe58c11b69c","null","null","<p style=""font-size: 60px; font-family: BACS"">OmtlDtcB</p>","","","","","","","","","",""
"html-keyboard-response","255","331309","0.0-13.0-0.5","5be84b9a40b06b0001370c9f","64e77d7b61f440b60e28659d","64eca315ba80afe58c11b69c","null","null","<p style=""font-size: 60px; font-family: BACS"">hbkdABb</p>","","","","","","","","","",""
"html-keyboard-response","256","332315","0.0-13.0-0.6","5be84b9a40b06b0001370c9f","64e77d7b61f440b60e28659d","64eca315ba80afe58c11b69c","null","null","<p style=""font-size: 60px; font-family: BACS"">mbZlYZUZ</p>","","","","","","","","","",""
"html-keyboard-response","257","333327","0.0-13.0-0.7","5be84b9a40b06b0001370c9f","64e77d7b61f440b60e28659d","64eca315ba80afe58c11b69c","null","null","<p style=""font-size: 60px; font-family: BACS"">auYAkUbG</p>","","","","","","","","","",""
"html-keyboard-response","258","334339","0.0-13.0-0.8","5be84b9a40b06b0001370c9f","64e77d7b61f440b60e28659d","64eca315ba80afe58c11b69c","null","null","<p style=""font-size: 60px; font-family: BACS"">bdUNuYArG</p>","","","","","","","","","",""
"html-keyboard-response","259","335351","0.0-13.0-0.9","5be84b9a40b06b0001370c9f","64e77d7b61f440b60e28659d","64eca315ba80afe58c11b69c","null","null","<p style=""font-size: 60px; font-family: BACS"">OmtlDBRDh</p>","","","","","","","","","",""
"html-keyboard-response","260","336362","0.0-13.0-0.10","5be84b9a40b06b0001370c9f","64e77d7b61f440b60e28659d","64eca315ba80afe58c11b69c","null","null","<p style=""font-size: 60px; font-family: BACS"">hbkdtcB</p>","","","","","","","","","",""
"html-keyboard-response","261","337370","0.0-13.0-0.11","5be84b9a40b06b0001370c9f","64e77d7b61f440b60e28659d","64eca315ba80afe58c11b69c","null","null","<p style=""font-size: 60px; font-family: BACS"">MkmEdAdYl</p>","","","","","","","","","",""
"html-keyboard-response","262","338377","0.0-13.0-0.12","5be84b9a40b06b0001370c9f","64e77d7b61f440b60e28659d","64eca315ba80afe58c11b69c","null","null","<p style=""font-size: 60px; font-family: BACS"">PCMPKtcB</p>","","","","","","","","","",""
"html-keyboard-response","263","339390","0.0-13.0-0.13","5be84b9a40b06b0001370c9f","64e77d7b61f440b60e28659d","64eca315ba80afe58c11b69c","null","null","<p style=""font-size: 60px; font-family: BACS"">ArQuOJlN</p>","","","","","","","","","",""
"html-keyboard-response","264","340401","0.0-13.0-0.14","5be84b9a40b06b0001370c9f","64e77d7b61f440b60e28659d","64eca315ba80afe58c11b69c","null","null","<p style=""font-size: 60px; font-family: BACS"">mbZlOJNk</p>","","","","","","","","","",""
"html-keyboard-response","265","341402","0.0-13.0-0.15","5be84b9a40b06b0001370c9f","64e77d7b61f440b60e28659d","64eca315ba80afe58c11b69c","null","null","<p style=""font-size: 60px; font-family: BACS"">aLNlkUbG</p>","","","","","","","","","",""
"html-keyboard-response","266","342418","0.0-13.0-0.16","5be84b9a40b06b0001370c9f","64e77d7b61f440b60e28659d","64eca315ba80afe58c11b69c","null","null","<p style=""font-size: 60px; font-family: BACS"">bvuZYZUZ</p>","","","","","","","","","",""
"html-keyboard-response","267","343430","0.0-13.0-0.17","5be84b9a40b06b0001370c9f","64e77d7b61f440b60e28659d","64eca315ba80afe58c11b69c","null","null","<p style=""font-size: 60px; font-family: BACS"">LvuOGYArG</p>","","","","","","","","","",""
"html-keyboard-response","268","344441","0.0-13.0-0.18","5be84b9a40b06b0001370c9f","64e77d7b61f440b60e28659d","64eca315ba80afe58c11b69c","null","null","<p style=""font-size: 60px; font-family: BACS"">tDPRkAdYl</p>","","","","","","","","","",""
"html-keyboard-response","269","345443","0.0-13.0-0.19","5be84b9a40b06b0001370c9f","64e77d7b61f440b60e28659d","64eca315ba80afe58c11b69c","null","null","<p style=""font-size: 60px; font-family: BACS"">UJmrYZUZ</p>","","","","","","","","","",""
"html-keyboard-response","270","346453","0.0-13.0-0.20","5be84b9a40b06b0001370c9f","64e77d7b61f440b60e28659d","64eca315ba80afe58c11b69c","null","null","<p style=""font-size: 60px; font-family: BACS"">YUNkZOJNk</p>","","","","","","","","","",""
"html-keyboard-response","271","347466","0.0-13.0-0.21","5be84b9a40b06b0001370c9f","64e77d7b61f440b60e28659d","64eca315ba80afe58c11b69c","null","null","<p style=""font-size: 60px; font-family: BACS"">dRbDbAdYl</p>","","","","","","","","","",""
"html-keyboard-response","272","348480","0.0-13.0-0.22","5be84b9a40b06b0001370c9f","64e77d7b61f440b60e28659d","64eca315ba80afe58c11b69c","null","null","<p style=""font-size: 60px; font-family: BACS"">tDPRktcB</p>","","","","","","","","","",""
"html-keyboard-response","273","349490","0.0-13.0-0.23","5be84b9a40b06b0001370c9f","64e77d7b61f440b60e28659d","64eca315ba80afe58c11b69c","null","null","<p style=""font-size: 60px; font-family: BACS"">EtMDMABb</p>","","","","","","","","","",""
"html-keyboard-response","274","350503","0.0-13.0-0.24","5be84b9a40b06b0001370c9f","64e77d7b61f440b60e28659d","64eca315ba80afe58c11b69c","null","null","<p style=""font-size: 60px; font-family: BACS"">PctRCtcB</p>","","","","","","","","","",""
"html-keyboard-response","275","351505","0.0-13.0-0.25","5be84b9a40b06b0001370c9f","64e77d7b61f440b60e28659d","64eca315ba80afe58c11b69c","null","null","<p style=""font-size: 60px; font-family: BACS"">tDPRkTRkY</p>","","","","","","","","","",""
"html-keyboard-response","276","352506","0.0-13.0-0.26","5be84b9a40b06b0001370c9f","64e77d7b61f440b60e28659d","64eca315ba80afe58c11b69c","null","null","<p style=""font-size: 60px; font-family: BACS"">UJmrOJlN</p>","","","","","","","","","",""
"html-keyboard-response","277","353515","0.0-13.0-0.27","5be84b9a40b06b0001370c9f","64e77d7b61f440b60e28659d","64eca315ba80afe58c11b69c","null","null","<p style=""font-size: 60px; font-family: BACS"">TklDTRkY</p>","","","","","","","","","",""
"html-keyboard-response","278","354516","0.0-13.0-0.28","5be84b9a40b06b0001370c9f","64e77d7b61f440b60e28659d","64eca315ba80afe58c11b69c","null","null","<p style=""font-size: 60px; font-family: BACS"">LvuOGOJNk</p>","","","","","","","","","",""
"html-keyboard-response","279","355530","0.0-13.0-0.29","5be84b9a40b06b0001370c9f","64e77d7b61f440b60e28659d","64eca315ba80afe58c11b69c","null","null","<p style=""font-size: 60px; font-family: BACS"">ArQuUbG</p>","","","","","","","","","",""
"html-keyboard-response","280","356532","0.0-13.0-0.30","5be84b9a40b06b0001370c9f","64e77d7b61f440b60e28659d","64eca315ba80afe58c11b69c","null","null","<p style=""font-size: 60px; font-family: BACS"">PCMPKBRDh</p>","","","","","","","","","",""
"html-keyboard-response","281","357537","0.0-13.0-0.31","5be84b9a40b06b0001370c9f","64e77d7b61f440b60e28659d","64eca315ba80afe58c11b69c","null","null","<p style=""font-size: 60px; font-family: BACS"">cAZuYArG</p>","","","","","","","","","",""
"html-keyboard-response","282","358538","0.0-13.0-0.32","5be84b9a40b06b0001370c9f","64e77d7b61f440b60e28659d","64eca315ba80afe58c11b69c","null","null","<p style=""font-size: 60px; font-family: BACS"">YUNkZYZUZ</p>","","","","","","","","","",""
"html-keyboard-response","283","359550","0.0-13.0-0.33","5be84b9a40b06b0001370c9f","64e77d7b61f440b60e28659d","64eca315ba80afe58c11b69c","null","null","<p style=""font-size: 60px; font-family: BACS"">EtMDMTRkY</p>","","","","","","","","","",""
"html-keyboard-response","284","360566","0.0-13.0-0.34","5be84b9a40b06b0001370c9f","64e77d7b61f440b60e28659d","64eca315ba80afe58c11b69c","null","null","<p style=""font-size: 60px; font-family: BACS"">dRbDbABb</p>","","","","","","","","","",""
"html-keyboard-response","285","361579","0.0-13.0-0.35","5be84b9a40b06b0001370c9f","64e77d7b61f440b60e28659d","64eca315ba80afe58c11b69c","null","null","<p style=""font-size: 60px; font-family: BACS"">aLNlkYZUZ</p>","","","","","","","","","",""
"html-keyboard-response","286","362580","0.0-13.0-0.36","5be84b9a40b06b0001370c9f","64e77d7b61f440b60e28659d","64eca315ba80afe58c11b69c","null","null","<p style=""font-size: 60px; font-family: BACS"">bvuZOJNk</p>","","","","","","","","","",""
"html-keyboard-response","287","363584","0.0-13.0-0.37","5be84b9a40b06b0001370c9f","64e77d7b61f440b60e28659d","64eca315ba80afe58c11b69c","null","null","<p style=""font-size: 60px; font-family: BACS"">MkmEdBRDh</p>","","","","","","","","","",""
"html-keyboard-response","288","364585","0.0-13.0-0.38","5be84b9a40b06b0001370c9f","64e77d7b61f440b60e28659d","64eca315ba80afe58c11b69c","null","null","<p style=""font-size: 60px; font-family: BACS"">aLNlkYArG</p>","","","","","","","","","",""
"html-keyboard-response","289","365586","0.0-13.0-0.39","5be84b9a40b06b0001370c9f","64e77d7b61f440b60e28659d","64eca315ba80afe58c11b69c","null","null","<p style=""font-size: 60px; font-family: BACS"">bdUNuOJlN</p>","","","","","","","","","",""
"html-keyboard-response","290","366589","0.0-13.0-0.40","5be84b9a40b06b0001370c9f","64e77d7b61f440b60e28659d","64eca315ba80afe58c11b69c","null","null","<p style=""font-size: 60px; font-family: BACS"">hbkdAdYl</p>","","","","","","","","","",""
"html-keyboard-response","291","367596","0.0-13.0-0.41","5be84b9a40b06b0001370c9f","64e77d7b61f440b60e28659d","64eca315ba80afe58c11b69c","null","null","<p style=""font-size: 60px; font-family: BACS"">RdPtDTRkY</p>","","","","","","","","","",""
"html-keyboard-response","292","368609","0.0-13.0-0.42","5be84b9a40b06b0001370c9f","64e77d7b61f440b60e28659d","64eca315ba80afe58c11b69c","null","null","<p style=""font-size: 60px; font-family: BACS"">OmtlDABb</p>","","","","","","","","","",""
"html-keyboard-response","293","369618","0.0-13.0-0.43","5be84b9a40b06b0001370c9f","64e77d7b61f440b60e28659d","64eca315ba80afe58c11b69c","null","null","<p style=""font-size: 60px; font-family: BACS"">bvuZYArG</p>","","","","","","","","","",""
"html-keyboard-response","294","370627","0.0-13.0-0.44","5be84b9a40b06b0001370c9f","64e77d7b61f440b60e28659d","64eca315ba80afe58c11b69c","null","null","<p style=""font-size: 60px; font-family: BACS"">PctRCAdYl</p>","","","","","","","","","",""
"html-keyboard-response","295","371633","0.0-13.0-0.45","5be84b9a40b06b0001370c9f","64e77d7b61f440b60e28659d","64eca315ba80afe58c11b69c","null","null","<p style=""font-size: 60px; font-family: BACS"">UJmrYArG</p>","","","","","","","","","",""
"html-keyboard-response","296","372634","0.0-13.0-0.46","5be84b9a40b06b0001370c9f","64e77d7b61f440b60e28659d","64eca315ba80afe58c11b69c","null","null","<p style=""font-size: 60px; font-family: BACS"">PctRCTRkY</p>","","","","","","","","","",""
"html-keyboard-response","297","373650","0.0-13.0-0.47","5be84b9a40b06b0001370c9f","64e77d7b61f440b60e28659d","64eca315ba80afe58c11b69c","null","null","<p style=""font-size: 60px; font-family: BACS"">YUNkZOJlN</p>","","","","","","","","","",""
"html-keyboard-response","298","374661","0.0-13.0-0.48","5be84b9a40b06b0001370c9f","64e77d7b61f440b60e28659d","64eca315ba80afe58c11b69c","null","null","<p style=""font-size: 60px; font-family: BACS"">dRbDbBRDh</p>","","","","","","","","","",""
"html-keyboard-response","299","375671","0.0-13.0-0.49","5be84b9a40b06b0001370c9f","64e77d7b61f440b60e28659d","64eca315ba80afe58c11b69c","null","null","<p style=""font-size: 60px; font-family: BACS"">PCMPKTRkY</p>","","","","","","","","","",""
"html-keyboard-response","300","376672","0.0-13.0-0.50","5be84b9a40b06b0001370c9f","64e77d7b61f440b60e28659d","64eca315ba80afe58c11b69c","null","null","<p style=""font-size: 60px; font-family: BACS"">RdPtDtcB</p>","","","","","","","","","",""
"html-keyboard-response","301","377674","0.0-13.0-0.51","5be84b9a40b06b0001370c9f","64e77d7b61f440b60e28659d","64eca315ba80afe58c11b69c","null","null","<p style=""font-size: 60px; font-family: BACS"">bvuZUbG</p>","","","","","","","","","",""
"html-keyboard-response","302","378678","0.0-13.0-0.52","5be84b9a40b06b0001370c9f","64e77d7b61f440b60e28659d","64eca315ba80afe58c11b69c","null","null","<p style=""font-size: 60px; font-family: BACS"">MkmEdABb</p>","","","","","","","","","",""
"html-keyboard-response","303","379686","0.0-13.0-0.53","5be84b9a40b06b0001370c9f","64e77d7b61f440b60e28659d","64eca315ba80afe58c11b69c","null","null","<p style=""font-size: 60px; font-family: BACS"">cAZuOJNk</p>","","","","","","","","","",""
"html-keyboard-response","304","380694","0.0-13.0-0.54","5be84b9a40b06b0001370c9f","64e77d7b61f440b60e28659d","64eca315ba80afe58c11b69c","null","null","<p style=""font-size: 60px; font-family: BACS"">ArQuYZUZ</p>","","","","","","","","","",""
"html-keyboard-response","305","381704","0.0-13.0-0.55","5be84b9a40b06b0001370c9f","64e77d7b61f440b60e28659d","64eca315ba80afe58c11b69c","null","null","<p style=""font-size: 60px; font-family: BACS"">auYAkYArG</p>","","","","","","","","","",""
"html-keyboard-response","306","382716","0.0-13.0-0.56","5be84b9a40b06b0001370c9f","64e77d7b61f440b60e28659d","64eca315ba80afe58c11b69c","null","null","<p style=""font-size: 60px; font-family: BACS"">PctRCBRDh</p>","","","","","","","","","",""
"html-keyboard-response","307","383726","0.0-13.0-0.57","5be84b9a40b06b0001370c9f","64e77d7b61f440b60e28659d","64eca315ba80afe58c11b69c","null","null","<p style=""font-size: 60px; font-family: BACS"">aLNlkOJlN</p>","","","","","","","","","",""
"html-keyboard-response","308","384727","0.0-13.0-0.58","5be84b9a40b06b0001370c9f","64e77d7b61f440b60e28659d","64eca315ba80afe58c11b69c","null","null","<p style=""font-size: 60px; font-family: BACS"">bdUNuOJNk</p>","","","","","","","","","",""
"html-keyboard-response","309","385740","0.0-13.0-0.59","5be84b9a40b06b0001370c9f","64e77d7b61f440b60e28659d","64eca315ba80afe58c11b69c","null","null","<p style=""font-size: 60px; font-family: BACS"">cAZuUbG</p>","","","","","","","","","",""
"html-keyboard-response","310","386741","0.0-13.0-0.60","5be84b9a40b06b0001370c9f","64e77d7b61f440b60e28659d","64eca315ba80afe58c11b69c","null","null","<p style=""font-size: 60px; font-family: BACS"">auYAkOJlN</p>","","","","","","","","","",""
"html-keyboard-response","311","387751","0.0-13.0-0.61","5be84b9a40b06b0001370c9f","64e77d7b61f440b60e28659d","64eca315ba80afe58c11b69c","null","null","<p style=""font-size: 60px; font-family: BACS"">cAZuYZUZ</p>","","","","","","","","","",""
"html-keyboard-response","312","388753","0.0-13.0-0.62","5be84b9a40b06b0001370c9f","64e77d7b61f440b60e28659d","64eca315ba80afe58c11b69c","null","null","<p style=""font-size: 60px; font-family: BACS"">YUNkZUbG</p>","","","","","","","","","",""
"html-keyboard-response","313","389754","0.0-13.0-0.63","5be84b9a40b06b0001370c9f","64e77d7b61f440b60e28659d","64eca315ba80afe58c11b69c","null","null","<p style=""font-size: 60px; font-family: BACS"">tDPRkBRDh</p>","","","","","","","","","",""
"html-keyboard-response","314","390762","0.0-13.0-0.64","5be84b9a40b06b0001370c9f","64e77d7b61f440b60e28659d","64eca315ba80afe58c11b69c","null","null","<p style=""font-size: 60px; font-family: BACS"">OmtlDAdYl</p>","","","","","","","","","",""
"html-keyboard-response","315","391779","0.0-13.0-0.65","5be84b9a40b06b0001370c9f","64e77d7b61f440b60e28659d","64eca315ba80afe58c11b69c","null","null","<p style=""font-size: 60px; font-family: BACS"">LvuOGUbG</p>","","","","","","","","","",""
"html-keyboard-response","316","392795","0.0-13.0-0.66","5be84b9a40b06b0001370c9f","64e77d7b61f440b60e28659d","64eca315ba80afe58c11b69c","null","null","<p style=""font-size: 60px; font-family: BACS"">EtMDMBRDh</p>","","","","","","","","","",""
"html-keyboard-response","317","393809","0.0-13.0-0.67","5be84b9a40b06b0001370c9f","64e77d7b61f440b60e28659d","64eca315ba80afe58c11b69c","null","null","<p style=""font-size: 60px; font-family: BACS"">mbZlOJlN</p>","","","","","","","","","",""
"html-keyboard-response","318","394820","0.0-13.0-0.68","5be84b9a40b06b0001370c9f","64e77d7b61f440b60e28659d","64eca315ba80afe58c11b69c","null","null","<p style=""font-size: 60px; font-family: BACS"">UJmrOJNk</p>","","","","","","","","","",""
"html-keyboard-response","319","395831","0.0-13.0-0.69","5be84b9a40b06b0001370c9f","64e77d7b61f440b60e28659d","64eca315ba80afe58c11b69c","null","null","<p style=""font-size: 60px; font-family: BACS"">TklDtcB</p>","","","","","","","","","",""
"html-keyboard-response","320","396843","0.0-13.0-0.70","5be84b9a40b06b0001370c9f","64e77d7b61f440b60e28659d","64eca315ba80afe58c11b69c","null","null","<p style=""font-size: 60px; font-family: BACS"">RdPtDABb</p>","","","","","","","","","",""
"html-keyboard-response","321","397854","0.0-13.0-0.71","5be84b9a40b06b0001370c9f","64e77d7b61f440b60e28659d","64eca315ba80afe58c11b69c","null","null","<p style=""font-size: 60px; font-family: BACS"">ArQuYArG</p>","","","","","","","","","",""
"html-keyboard-response","322","398865","0.0-13.0-0.72","5be84b9a40b06b0001370c9f","64e77d7b61f440b60e28659d","64eca315ba80afe58c11b69c","null","null","<p style=""font-size: 60px; font-family: BACS"">LvuOGOJlN</p>","","","","","","","","","",""
"html-keyboard-response","323","399875","0.0-13.0-0.73","5be84b9a40b06b0001370c9f","64e77d7b61f440b60e28659d","64eca315ba80afe58c11b69c","null","null","<p style=""font-size: 60px; font-family: BACS"">dRbDbtcB</p>","","","","","","","","","",""
"html-keyboard-response","324","400876","0.0-13.0-0.74","5be84b9a40b06b0001370c9f","64e77d7b61f440b60e28659d","64eca315ba80afe58c11b69c","null","null","<p style=""font-size: 60px; font-family: BACS"">EtMDMAdYl</p>","","","","","","","","","",""
"html-keyboard-response","325","401884","0.0-13.0-0.75","5be84b9a40b06b0001370c9f","64e77d7b61f440b60e28659d","64eca315ba80afe58c11b69c","null","null","<p style=""font-size: 60px; font-family: BACS"">auYAkOJNk</p>","","","","","","","","","",""
"html-keyboard-response","326","402886","0.0-13.0-0.76","5be84b9a40b06b0001370c9f","64e77d7b61f440b60e28659d","64eca315ba80afe58c11b69c","null","null","<p style=""font-size: 60px; font-family: BACS"">bdUNuYZUZ</p>","","","","","","","","","",""
"html-keyboard-response","327","403897","0.0-13.0-0.77","5be84b9a40b06b0001370c9f","64e77d7b61f440b60e28659d","64eca315ba80afe58c11b69c","null","null","<p style=""font-size: 60px; font-family: BACS"">RdPtDAdYl</p>","","","","","","","","","",""
"html-keyboard-response","328","404911","0.0-13.0-0.78","5be84b9a40b06b0001370c9f","64e77d7b61f440b60e28659d","64eca315ba80afe58c11b69c","null","null","<p style=""font-size: 60px; font-family: BACS"">TklDABb</p>","","","","","","","","","",""
"html-keyboard-response","329","405920","0.0-13.0-0.79","5be84b9a40b06b0001370c9f","64e77d7b61f440b60e28659d","64eca315ba80afe58c11b69c","null","null","<p style=""font-size: 60px; font-family: BACS"">MkmEdTRkY</p>","","","","","","","","","",""
"html-keyboard-response","330","409425","0.0-14.0","5be84b9a40b06b0001370c9f","64e77d7b61f440b60e28659d","64eca315ba80afe58c11b69c","3504"," ","<p>Great, you've seen the fourth block of words. You may now take a short break.</p>
      <p>Press the spacebar when you're ready to continue.</p>","","","","","","","","","",""
"html-keyboard-response","331","410432","0.0-15.0-0.0","5be84b9a40b06b0001370c9f","64e77d7b61f440b60e28659d","64eca315ba80afe58c11b69c","null","null","<p style=""font-size: 60px; font-family: BACS"">UJmrYArG</p>","","","","","","","","","",""
"html-keyboard-response","332","411441","0.0-15.0-0.1","5be84b9a40b06b0001370c9f","64e77d7b61f440b60e28659d","64eca315ba80afe58c11b69c","null","null","<p style=""font-size: 60px; font-family: BACS"">UJmrYArG</p>","","","","","","","","","",""
"html-keyboard-response","333","412457","0.0-15.0-0.2","5be84b9a40b06b0001370c9f","64e77d7b61f440b60e28659d","64eca315ba80afe58c11b69c","null","null","<p style=""font-size: 60px; font-family: BACS"">UJmrYArG</p>","","","","","","","","","",""
"html-keyboard-response","334","413468","0.0-15.0-0.3","5be84b9a40b06b0001370c9f","64e77d7b61f440b60e28659d","64eca315ba80afe58c11b69c","null","null","<p style=""font-size: 60px; font-family: BACS"">UJmrYArG</p>","","","","","","","","","",""
"html-keyboard-response","335","414478","0.0-15.0-0.4","5be84b9a40b06b0001370c9f","64e77d7b61f440b60e28659d","64eca315ba80afe58c11b69c","null","null","<p style=""font-size: 60px; font-family: BACS"">UJmrYArG</p>","","","","","","","","","",""
"html-keyboard-response","336","415489","0.0-15.0-0.5","5be84b9a40b06b0001370c9f","64e77d7b61f440b60e28659d","64eca315ba80afe58c11b69c","null","null","<p style=""font-size: 60px; font-family: BACS"">UJmrYArG</p>","","","","","","","","","",""
"html-keyboard-response","337","416491","0.0-15.0-0.6","5be84b9a40b06b0001370c9f","64e77d7b61f440b60e28659d","64eca315ba80afe58c11b69c","null","null","<p style=""font-size: 60px; font-family: BACS"">UJmrYArG</p>","","","","","","","","","",""
"html-keyboard-response","338","417504","0.0-15.0-0.7","5be84b9a40b06b0001370c9f","64e77d7b61f440b60e28659d","64eca315ba80afe58c11b69c","null","null","<p style=""font-size: 60px; font-family: BACS"">UJmrYArG</p>","","","","","","","","","",""
"html-keyboard-response","339","418513","0.0-15.0-0.8","5be84b9a40b06b0001370c9f","64e77d7b61f440b60e28659d","64eca315ba80afe58c11b69c","null","null","<p style=""font-size: 60px; font-family: BACS"">UJmrYArG</p>","","","","","","","","","",""
"html-keyboard-response","340","419523","0.0-15.0-0.9","5be84b9a40b06b0001370c9f","64e77d7b61f440b60e28659d","64eca315ba80afe58c11b69c","null","null","<p style=""font-size: 60px; font-family: BACS"">UJmrYArG</p>","","","","","","","","","",""
"html-keyboard-response","341","420523","0.0-15.0-0.10","5be84b9a40b06b0001370c9f","64e77d7b61f440b60e28659d","64eca315ba80afe58c11b69c","null","null","<p style=""font-size: 60px; font-family: BACS"">UJmrYArG</p>","","","","","","","","","",""
"html-keyboard-response","342","421540","0.0-15.0-0.11","5be84b9a40b06b0001370c9f","64e77d7b61f440b60e28659d","64eca315ba80afe58c11b69c","null","null","<p style=""font-size: 60px; font-family: BACS"">UJmrYArG</p>","","","","","","","","","",""
"html-keyboard-response","343","422548","0.0-15.0-0.12","5be84b9a40b06b0001370c9f","64e77d7b61f440b60e28659d","64eca315ba80afe58c11b69c","null","null","<p style=""font-size: 60px; font-family: BACS"">UJmrYArG</p>","","","","","","","","","",""
"html-keyboard-response","344","423561","0.0-15.0-0.13","5be84b9a40b06b0001370c9f","64e77d7b61f440b60e28659d","64eca315ba80afe58c11b69c","null","null","<p style=""font-size: 60px; font-family: BACS"">UJmrYArG</p>","","","","","","","","","",""
"html-keyboard-response","345","424561","0.0-15.0-0.14","5be84b9a40b06b0001370c9f","64e77d7b61f440b60e28659d","64eca315ba80afe58c11b69c","null","null","<p style=""font-size: 60px; font-family: BACS"">UJmrYArG</p>","","","","","","","","","",""
"html-keyboard-response","346","425566","0.0-15.0-0.15","5be84b9a40b06b0001370c9f","64e77d7b61f440b60e28659d","64eca315ba80afe58c11b69c","null","null","<p style=""font-size: 60px; font-family: BACS"">UJmrYArG</p>","","","","","","","","","",""
"html-keyboard-response","347","426568","0.0-15.0-0.16","5be84b9a40b06b0001370c9f","64e77d7b61f440b60e28659d","64eca315ba80afe58c11b69c","null","null","<p style=""font-size: 60px; font-family: BACS"">UJmrYArG</p>","","","","","","","","","",""
"html-keyboard-response","348","427580","0.0-15.0-0.17","5be84b9a40b06b0001370c9f","64e77d7b61f440b60e28659d","64eca315ba80afe58c11b69c","null","null","<p style=""font-size: 60px; font-family: BACS"">UJmrYArG</p>","","","","","","","","","",""
"html-keyboard-response","349","428582","0.0-15.0-0.18","5be84b9a40b06b0001370c9f","64e77d7b61f440b60e28659d","64eca315ba80afe58c11b69c","null","null","<p style=""font-size: 60px; font-family: BACS"">UJmrYArG</p>","","","","","","","","","",""
"html-keyboard-response","350","429583","0.0-15.0-0.19","5be84b9a40b06b0001370c9f","64e77d7b61f440b60e28659d","64eca315ba80afe58c11b69c","null","null","<p style=""font-size: 60px; font-family: BACS"">UJmrYArG</p>","","","","","","","","","",""
"html-keyboard-response","351","430594","0.0-15.0-0.20","5be84b9a40b06b0001370c9f","64e77d7b61f440b60e28659d","64eca315ba80afe58c11b69c","null","null","<p style=""font-size: 60px; font-family: BACS"">UJmrYArG</p>","","","","","","","","","",""
"html-keyboard-response","352","431607","0.0-15.0-0.21","5be84b9a40b06b0001370c9f","64e77d7b61f440b60e28659d","64eca315ba80afe58c11b69c","null","null","<p style=""font-size: 60px; font-family: BACS"">UJmrYArG</p>","","","","","","","","","",""
"html-keyboard-response","353","432619","0.0-15.0-0.22","5be84b9a40b06b0001370c9f","64e77d7b61f440b60e28659d","64eca315ba80afe58c11b69c","null","null","<p style=""font-size: 60px; font-family: BACS"">UJmrYArG</p>","","","","","","","","","",""
"html-keyboard-response","354","433634","0.0-15.0-0.23","5be84b9a40b06b0001370c9f","64e77d7b61f440b60e28659d","64eca315ba80afe58c11b69c","null","null","<p style=""font-size: 60px; font-family: BACS"">UJmrYArG</p>","","","","","","","","","",""
"html-keyboard-response","355","434648","0.0-15.0-0.24","5be84b9a40b06b0001370c9f","64e77d7b61f440b60e28659d","64eca315ba80afe58c11b69c","null","null","<p style=""font-size: 60px; font-family: BACS"">UJmrYArG</p>","","","","","","","","","",""
"html-keyboard-response","356","435658","0.0-15.0-0.25","5be84b9a40b06b0001370c9f","64e77d7b61f440b60e28659d","64eca315ba80afe58c11b69c","null","null","<p style=""font-size: 60px; font-family: BACS"">UJmrYArG</p>","","","","","","","","","",""
"html-keyboard-response","357","436670","0.0-15.0-0.26","5be84b9a40b06b0001370c9f","64e77d7b61f440b60e28659d","64eca315ba80afe58c11b69c","null","null","<p style=""font-size: 60px; font-family: BACS"">UJmrYArG</p>","","","","","","","","","",""
"html-keyboard-response","358","437671","0.0-15.0-0.27","5be84b9a40b06b0001370c9f","64e77d7b61f440b60e28659d","64eca315ba80afe58c11b69c","null","null","<p style=""font-size: 60px; font-family: BACS"">UJmrYArG</p>","","","","","","","","","",""
"html-keyboard-response","359","438678","0.0-15.0-0.28","5be84b9a40b06b0001370c9f","64e77d7b61f440b60e28659d","64eca315ba80afe58c11b69c","null","null","<p style=""font-size: 60px; font-family: BACS"">UJmrYArG</p>","","","","","","","","","",""
"html-keyboard-response","360","439694","0.0-15.0-0.29","5be84b9a40b06b0001370c9f","64e77d7b61f440b60e28659d","64eca315ba80afe58c11b69c","null","null","<p style=""font-size: 60px; font-family: BACS"">UJmrYArG</p>","","","","","","","","","",""
"html-keyboard-response","361","440696","0.0-15.0-0.30","5be84b9a40b06b0001370c9f","64e77d7b61f440b60e28659d","64eca315ba80afe58c11b69c","null","null","<p style=""font-size: 60px; font-family: BACS"">UJmrYArG</p>","","","","","","","","","",""
"html-keyboard-response","362","441702","0.0-15.0-0.31","5be84b9a40b06b0001370c9f","64e77d7b61f440b60e28659d","64eca315ba80afe58c11b69c","null","null","<p style=""font-size: 60px; font-family: BACS"">UJmrYArG</p>","","","","","","","","","",""
"html-keyboard-response","363","442715","0.0-15.0-0.32","5be84b9a40b06b0001370c9f","64e77d7b61f440b60e28659d","64eca315ba80afe58c11b69c","null","null","<p style=""font-size: 60px; font-family: BACS"">UJmrYArG</p>","","","","","","","","","",""
"html-keyboard-response","364","443728","0.0-15.0-0.33","5be84b9a40b06b0001370c9f","64e77d7b61f440b60e28659d","64eca315ba80afe58c11b69c","null","null","<p style=""font-size: 60px; font-family: BACS"">UJmrYArG</p>","","","","","","","","","",""
"html-keyboard-response","365","444729","0.0-15.0-0.34","5be84b9a40b06b0001370c9f","64e77d7b61f440b60e28659d","64eca315ba80afe58c11b69c","null","null","<p style=""font-size: 60px; font-family: BACS"">UJmrYArG</p>","","","","","","","","","",""
"html-keyboard-response","366","445737","0.0-15.0-0.35","5be84b9a40b06b0001370c9f","64e77d7b61f440b60e28659d","64eca315ba80afe58c11b69c","null","null","<p style=""font-size: 60px; font-family: BACS"">UJmrYArG</p>","","","","","","","","","",""
"html-keyboard-response","367","446747","0.0-15.0-0.36","5be84b9a40b06b0001370c9f","64e77d7b61f440b60e28659d","64eca315ba80afe58c11b69c","null","null","<p style=""font-size: 60px; font-family: BACS"">UJmrYArG</p>","","","","","","","","","",""
"html-keyboard-response","368","447748","0.0-15.0-0.37","5be84b9a40b06b0001370c9f","64e77d7b61f440b60e28659d","64eca315ba80afe58c11b69c","null","null","<p style=""font-size: 60px; font-family: BACS"">UJmrYArG</p>","","","","","","","","","",""
"html-keyboard-response","369","448762","0.0-15.0-0.38","5be84b9a40b06b0001370c9f","64e77d7b61f440b60e28659d","64eca315ba80afe58c11b69c","null","null","<p style=""font-size: 60px; font-family: BACS"">UJmrYArG</p>","","","","","","","","","",""
"html-keyboard-response","370","449772","0.0-15.0-0.39","5be84b9a40b06b0001370c9f","64e77d7b61f440b60e28659d","64eca315ba80afe58c11b69c","null","null","<p style=""font-size: 60px; font-family: BACS"">UJmrYArG</p>","","","","","","","","","",""
"html-keyboard-response","371","450786","0.0-15.0-0.40","5be84b9a40b06b0001370c9f","64e77d7b61f440b60e28659d","64eca315ba80afe58c11b69c","null","null","<p style=""font-size: 60px; font-family: BACS"">UJmrYArG</p>","","","","","","","","","",""
"html-keyboard-response","372","451787","0.0-15.0-0.41","5be84b9a40b06b0001370c9f","64e77d7b61f440b60e28659d","64eca315ba80afe58c11b69c","null","null","<p style=""font-size: 60px; font-family: BACS"">UJmrYArG</p>","","","","","","","","","",""
"html-keyboard-response","373","452791","0.0-15.0-0.42","5be84b9a40b06b0001370c9f","64e77d7b61f440b60e28659d","64eca315ba80afe58c11b69c","null","null","<p style=""font-size: 60px; font-family: BACS"">UJmrYArG</p>","","","","","","","","","",""
"html-keyboard-response","374","453804","0.0-15.0-0.43","5be84b9a40b06b0001370c9f","64e77d7b61f440b60e28659d","64eca315ba80afe58c11b69c","null","null","<p style=""font-size: 60px; font-family: BACS"">UJmrYArG</p>","","","","","","","","","",""
"html-keyboard-response","375","454805","0.0-15.0-0.44","5be84b9a40b06b0001370c9f","64e77d7b61f440b60e28659d","64eca315ba80afe58c11b69c","null","null","<p style=""font-size: 60px; font-family: BACS"">UJmrYArG</p>","","","","","","","","","",""
"html-keyboard-response","376","455813","0.0-15.0-0.45","5be84b9a40b06b0001370c9f","64e77d7b61f440b60e28659d","64eca315ba80afe58c11b69c","null","null","<p style=""font-size: 60px; font-family: BACS"">UJmrYArG</p>","","","","","","","","","",""
"html-keyboard-response","377","456825","0.0-15.0-0.46","5be84b9a40b06b0001370c9f","64e77d7b61f440b60e28659d","64eca315ba80afe58c11b69c","null","null","<p style=""font-size: 60px; font-family: BACS"">UJmrYArG</p>","","","","","","","","","",""
"html-keyboard-response","378","457837","0.0-15.0-0.47","5be84b9a40b06b0001370c9f","64e77d7b61f440b60e28659d","64eca315ba80afe58c11b69c","null","null","<p style=""font-size: 60px; font-family: BACS"">UJmrYArG</p>","","","","","","","","","",""
"html-keyboard-response","379","458847","0.0-15.0-0.48","5be84b9a40b06b0001370c9f","64e77d7b61f440b60e28659d","64eca315ba80afe58c11b69c","null","null","<p style=""font-size: 60px; font-family: BACS"">UJmrYArG</p>","","","","","","","","","",""
"html-keyboard-response","380","459858","0.0-15.0-0.49","5be84b9a40b06b0001370c9f","64e77d7b61f440b60e28659d","64eca315ba80afe58c11b69c","null","null","<p style=""font-size: 60px; font-family: BACS"">UJmrYArG</p>","","","","","","","","","",""
"html-keyboard-response","381","460872","0.0-15.0-0.50","5be84b9a40b06b0001370c9f","64e77d7b61f440b60e28659d","64eca315ba80afe58c11b69c","null","null","<p style=""font-size: 60px; font-family: BACS"">UJmrYArG</p>","","","","","","","","","",""
"html-keyboard-response","382","461883","0.0-15.0-0.51","5be84b9a40b06b0001370c9f","64e77d7b61f440b60e28659d","64eca315ba80afe58c11b69c","null","null","<p style=""font-size: 60px; font-family: BACS"">UJmrYArG</p>","","","","","","","","","",""
"html-keyboard-response","383","462898","0.0-15.0-0.52","5be84b9a40b06b0001370c9f","64e77d7b61f440b60e28659d","64eca315ba80afe58c11b69c","null","null","<p style=""font-size: 60px; font-family: BACS"">UJmrYArG</p>","","","","","","","","","",""
"html-keyboard-response","384","463909","0.0-15.0-0.53","5be84b9a40b06b0001370c9f","64e77d7b61f440b60e28659d","64eca315ba80afe58c11b69c","null","null","<p style=""font-size: 60px; font-family: BACS"">UJmrYArG</p>","","","","","","","","","",""
"html-keyboard-response","385","464917","0.0-15.0-0.54","5be84b9a40b06b0001370c9f","64e77d7b61f440b60e28659d","64eca315ba80afe58c11b69c","null","null","<p style=""font-size: 60px; font-family: BACS"">UJmrYArG</p>","","","","","","","","","",""
"html-keyboard-response","386","465930","0.0-15.0-0.55","5be84b9a40b06b0001370c9f","64e77d7b61f440b60e28659d","64eca315ba80afe58c11b69c","null","null","<p style=""font-size: 60px; font-family: BACS"">UJmrYArG</p>","","","","","","","","","",""
"html-keyboard-response","387","466942","0.0-15.0-0.56","5be84b9a40b06b0001370c9f","64e77d7b61f440b60e28659d","64eca315ba80afe58c11b69c","null","null","<p style=""font-size: 60px; font-family: BACS"">UJmrYArG</p>","","","","","","","","","",""
"html-keyboard-response","388","467953","0.0-15.0-0.57","5be84b9a40b06b0001370c9f","64e77d7b61f440b60e28659d","64eca315ba80afe58c11b69c","null","null","<p style=""font-size: 60px; font-family: BACS"">UJmrYArG</p>","","","","","","","","","",""
"html-keyboard-response","389","468962","0.0-15.0-0.58","5be84b9a40b06b0001370c9f","64e77d7b61f440b60e28659d","64eca315ba80afe58c11b69c","null","null","<p style=""font-size: 60px; font-family: BACS"">UJmrYArG</p>","","","","","","","","","",""
"html-keyboard-response","390","469973","0.0-15.0-0.59","5be84b9a40b06b0001370c9f","64e77d7b61f440b60e28659d","64eca315ba80afe58c11b69c","null","null","<p style=""font-size: 60px; font-family: BACS"">UJmrYArG</p>","","","","","","","","","",""
"html-keyboard-response","391","470976","0.0-15.0-0.60","5be84b9a40b06b0001370c9f","64e77d7b61f440b60e28659d","64eca315ba80afe58c11b69c","null","null","<p style=""font-size: 60px; font-family: BACS"">UJmrYArG</p>","","","","","","","","","",""
"html-keyboard-response","392","471977","0.0-15.0-0.61","5be84b9a40b06b0001370c9f","64e77d7b61f440b60e28659d","64eca315ba80afe58c11b69c","null","null","<p style=""font-size: 60px; font-family: BACS"">UJmrYArG</p>","","","","","","","","","",""
"html-keyboard-response","393","472983","0.0-15.0-0.62","5be84b9a40b06b0001370c9f","64e77d7b61f440b60e28659d","64eca315ba80afe58c11b69c","null","null","<p style=""font-size: 60px; font-family: BACS"">UJmrYArG</p>","","","","","","","","","",""
