"trial_type","trial_index","time_elapsed","internal_node_id","subject_id","study_id","session_id","rt","response","stimulus","success","item","task","correct_response","testing_condition","correct","target","confound","name"
"pavlovia","0","705","0.0-0.0","5f60713e595007000a8e1da7","64e77d7b61f440b60e28659d","64ecad827a7d5f570085fd32","","","","","","","","","","","",""
"survey-html-form","1","11554","0.0-1.0","5f60713e595007000a8e1da7","64e77d7b61f440b60e28659d","64ecad827a7d5f570085fd32","10848","{""ID"":""5f60713e595007000a8e1da7""}","","","","","","","","","",""
"html-keyboard-response","2","25298","0.0-2.0","5f60713e595007000a8e1da7","64e77d7b61f440b60e28659d","64ecad827a7d5f570085fd32","13743"," ","<p style=""font-size: 15px;"">Before beginning, we ask that you read the consent information and confirm your agreement to participate in the experiment.</p>
      <p style=""font-size: 15px;""> We ask that you remember that this is a research project and that your participation is entirely voluntary. You can stop your participation at any time, without needing to provide any explanation. The study we're asking you to participate in aims at examining how readers process written words. You will be engaged in a session of apprximately 20 minutes, followed by a brief questionnaire. You will have the opportunity to take a few breaks during the experiment. You will be paid £4 for your participation, corresponding to a rate of £8/hour. While this experiment looks at cognitive faculties, this experiment doesn't constitute clinical proof of eventual pathologies.</p>
      <p style=""font-size: 15px;"">All of the information collected thanks to yours and others' participation will be held in a secure password-protected server, and will not be shared with anyone not authorised to view it. Your personal information will be kept with an arbitrary participant ID. Thanks to this data anonymity process, any researcher analysing the data won't be able to track the information back to a specific participant. Therefore, this process will make identifying you impossibile, even when results from the study will be published in scientific reviews, presented at congresses, or at any other public forum. More generally, the collected data will be treated in accordance with the laws on privacy and conformity to the Legislative Degree n. 196 ""Code regarding the protection of personal data"" of the 30th of June 2003 and to the European Regulation 2016/670 (General Data Protection Regulation - GDPR). The Data Protection Officer is Avv. Valentina Carollo, who can be contacted at the following email addresses: <a href=""mailto:dpo@sissa.it"">dpo@sissa.it</a> or <a href=""mailto:rpd@sissa.it"">rpd@sissa.it</a> - PEC: <a href=""mailto:protocollo@pec.sissa.it"">protocollo@pec.sissa.it</a>.</p>
      <p style=""font-size: 15px;""> Before expressing your consent to participate, we would like to remind you again that in case you need explanations on any aspect of the experimental procedure, the researcher is at your disposition (<a href=""mailto:aliebelt@sissa.it"">aliebelt@sissa.it</a>, <a href=""mailto:davide.crepaldi@sissa.it"">davide.crepaldi@sissa.it</a>).</p>
      <p style=""font-size: 15px;"">If you would like to download the informed consent form, you can do so here: <a href=""BASL-Informed_Consent.pdf"" download>informed consent form</a>.</p>
      <p style=""font-size: 15px;"">We ask that you press the spacebar to proceed to the consent section.</p>","","","","","","","","",""
"survey-html-form","3","42801","0.0-3.0","5f60713e595007000a8e1da7","64e77d7b61f440b60e28659d","64ecad827a7d5f570085fd32","17502","{""consent1"":""YES"",""consent2"":""YES"",""consent3"":""YES"",""consent4"":""YES"",""consent5"":""YES"",""consent6"":""YES""}","","","","","","","","","",""
"fullscreen","4","48851","0.0-4.0","5f60713e595007000a8e1da7","64e77d7b61f440b60e28659d","64ecad827a7d5f570085fd32","","","","true","","","","","","","",""
"html-keyboard-response","5","83567","0.0-5.0","5f60713e595007000a8e1da7","64e77d7b61f440b60e28659d","64ecad827a7d5f570085fd32","34714"," ","<p>Welcome, and thank you very much for your time!</p>
      <p>In this experiment, you'll be a language expert who's been asked to take a look at words that Earth has received in its first communication with aliens. Your task, in this first part of the experiment, is to pay close attention to the words you'll be shown; later, world leaders will ask you questions on what you saw. The words will be shown to you quite quickly; it seems that the aliens were in a hurry :-)</p>
      <p>Press the spacebar to continue.<p>","","","","","","","","",""
"html-keyboard-response","6","96253","0.0-6.0","5f60713e595007000a8e1da7","64e77d7b61f440b60e28659d","64ecad827a7d5f570085fd32","12686"," ","<p>Here is an example of the words you'll see:</p>
      <img src='esempio.png' height='400px'>
      <p>When you're ready to begin, press the spacebar.</p></div>","","","","","","","","",""
"html-keyboard-response","7","97264","0.0-7.0-0.0","5f60713e595007000a8e1da7","64e77d7b61f440b60e28659d","64ecad827a7d5f570085fd32","null","null","<p style=""font-size: 60px; font-family: BACS"">RKYkAdYl</p>","","","","","","","","",""
"html-keyboard-response","8","98274","0.0-7.0-0.1","5f60713e595007000a8e1da7","64e77d7b61f440b60e28659d","64ecad827a7d5f570085fd32","null","null","<p style=""font-size: 60px; font-family: BACS"">NAacQcUN</p>","","","","","","","","",""
"html-keyboard-response","9","99281","0.0-7.0-0.2","5f60713e595007000a8e1da7","64e77d7b61f440b60e28659d","64ecad827a7d5f570085fd32","null","null","<p style=""font-size: 60px; font-family: BACS"">thbOMEKBO</p>","","","","","","","","",""
"html-keyboard-response","10","100288","0.0-7.0-0.3","5f60713e595007000a8e1da7","64e77d7b61f440b60e28659d","64ecad827a7d5f570085fd32","null","null","<p style=""font-size: 60px; font-family: BACS"">NAacQOJlN</p>","","","","","","","","",""
"html-keyboard-response","11","101289","0.0-7.0-0.4","5f60713e595007000a8e1da7","64e77d7b61f440b60e28659d","64ecad827a7d5f570085fd32","null","null","<p style=""font-size: 60px; font-family: BACS"">YJLcArNlZ</p>","","","","","","","","",""
"html-keyboard-response","12","102295","0.0-7.0-0.5","5f60713e595007000a8e1da7","64e77d7b61f440b60e28659d","64ecad827a7d5f570085fd32","null","null","<p style=""font-size: 60px; font-family: BACS"">QcQAJOQAr</p>","","","","","","","","",""
"html-keyboard-response","13","103301","0.0-7.0-0.6","5f60713e595007000a8e1da7","64e77d7b61f440b60e28659d","64ecad827a7d5f570085fd32","null","null","<p style=""font-size: 60px; font-family: BACS"">bRABtAdYl</p>","","","","","","","","",""
"html-keyboard-response","14","104302","0.0-7.0-0.7","5f60713e595007000a8e1da7","64e77d7b61f440b60e28659d","64ecad827a7d5f570085fd32","null","null","<p style=""font-size: 60px; font-family: BACS"">NAacQNUZ</p>","","","","","","","","",""
"html-keyboard-response","15","105315","0.0-7.0-0.8","5f60713e595007000a8e1da7","64e77d7b61f440b60e28659d","64ecad827a7d5f570085fd32","null","null","<p style=""font-size: 60px; font-family: BACS"">hAROKEKBO</p>","","","","","","","","",""
"html-keyboard-response","16","106329","0.0-7.0-0.9","5f60713e595007000a8e1da7","64e77d7b61f440b60e28659d","64ecad827a7d5f570085fd32","null","null","<p style=""font-size: 60px; font-family: BACS"">btlckmhc</p>","","","","","","","","",""
"html-keyboard-response","17","107330","0.0-7.0-0.10","5f60713e595007000a8e1da7","64e77d7b61f440b60e28659d","64ecad827a7d5f570085fd32","null","null","<p style=""font-size: 60px; font-family: BACS"">QcQAJNUZ</p>","","","","","","","","",""
"html-keyboard-response","18","108336","0.0-7.0-0.11","5f60713e595007000a8e1da7","64e77d7b61f440b60e28659d","64ecad827a7d5f570085fd32","null","null","<p style=""font-size: 60px; font-family: BACS"">UrOQOQAr</p>","","","","","","","","",""
"html-keyboard-response","19","109336","0.0-7.0-0.12","5f60713e595007000a8e1da7","64e77d7b61f440b60e28659d","64ecad827a7d5f570085fd32","null","null","<p style=""font-size: 60px; font-family: BACS"">btlckmtKP</p>","","","","","","","","",""
"html-keyboard-response","20","110338","0.0-7.0-0.13","5f60713e595007000a8e1da7","64e77d7b61f440b60e28659d","64ecad827a7d5f570085fd32","null","null","<p style=""font-size: 60px; font-family: BACS"">hTDdmhc</p>","","","","","","","","",""
"html-keyboard-response","21","111343","0.0-7.0-0.14","5f60713e595007000a8e1da7","64e77d7b61f440b60e28659d","64ecad827a7d5f570085fd32","null","null","<p style=""font-size: 60px; font-family: BACS"">uQkrdOJlN</p>","","","","","","","","",""
"html-keyboard-response","22","112345","0.0-7.0-0.15","5f60713e595007000a8e1da7","64e77d7b61f440b60e28659d","64ecad827a7d5f570085fd32","null","null","<p style=""font-size: 60px; font-family: BACS"">kGlUNUZ</p>","","","","","","","","",""
"html-keyboard-response","23","113360","0.0-7.0-0.16","5f60713e595007000a8e1da7","64e77d7b61f440b60e28659d","64ecad827a7d5f570085fd32","null","null","<p style=""font-size: 60px; font-family: BACS"">hlbtbEKBO</p>","","","","","","","","",""
"html-keyboard-response","24","114367","0.0-7.0-0.17","5f60713e595007000a8e1da7","64e77d7b61f440b60e28659d","64ecad827a7d5f570085fd32","null","null","<p style=""font-size: 60px; font-family: BACS"">thbOMAdYl</p>","","","","","","","","",""
"html-keyboard-response","25","115376","0.0-7.0-0.18","5f60713e595007000a8e1da7","64e77d7b61f440b60e28659d","64ecad827a7d5f570085fd32","null","null","<p style=""font-size: 60px; font-family: BACS"">uQkrdrNlZ</p>","","","","","","","","",""
"html-keyboard-response","26","116383","0.0-7.0-0.19","5f60713e595007000a8e1da7","64e77d7b61f440b60e28659d","64ecad827a7d5f570085fd32","null","null","<p style=""font-size: 60px; font-family: BACS"">RKYkmhc</p>","","","","","","","","",""
"html-keyboard-response","27","117391","0.0-7.0-0.20","5f60713e595007000a8e1da7","64e77d7b61f440b60e28659d","64ecad827a7d5f570085fd32","null","null","<p style=""font-size: 60px; font-family: BACS"">mhtcEcR</p>","","","","","","","","",""
"html-keyboard-response","28","118392","0.0-7.0-0.21","5f60713e595007000a8e1da7","64e77d7b61f440b60e28659d","64ecad827a7d5f570085fd32","null","null","<p style=""font-size: 60px; font-family: BACS"">QcQAJOJlN</p>","","","","","","","","",""
"html-keyboard-response","29","119400","0.0-7.0-0.22","5f60713e595007000a8e1da7","64e77d7b61f440b60e28659d","64ecad827a7d5f570085fd32","null","null","<p style=""font-size: 60px; font-family: BACS"">QOLmucUN</p>","","","","","","","","",""
"html-keyboard-response","30","120409","0.0-7.0-0.23","5f60713e595007000a8e1da7","64e77d7b61f440b60e28659d","64ecad827a7d5f570085fd32","null","null","<p style=""font-size: 60px; font-family: BACS"">RKYkEKBO</p>","","","","","","","","",""
"html-keyboard-response","31","121421","0.0-7.0-0.24","5f60713e595007000a8e1da7","64e77d7b61f440b60e28659d","64ecad827a7d5f570085fd32","null","null","<p style=""font-size: 60px; font-family: BACS"">QOLmuOJlN</p>","","","","","","","","",""
"html-keyboard-response","32","122425","0.0-7.0-0.25","5f60713e595007000a8e1da7","64e77d7b61f440b60e28659d","64ecad827a7d5f570085fd32","null","null","<p style=""font-size: 60px; font-family: BACS"">JvaAcUN</p>","","","","","","","","",""
"html-keyboard-response","33","123431","0.0-7.0-0.26","5f60713e595007000a8e1da7","64e77d7b61f440b60e28659d","64ecad827a7d5f570085fd32","null","null","<p style=""font-size: 60px; font-family: BACS"">YJLcAOQAr</p>","","","","","","","","",""
"html-keyboard-response","34","124439","0.0-7.0-0.27","5f60713e595007000a8e1da7","64e77d7b61f440b60e28659d","64ecad827a7d5f570085fd32","null","null","<p style=""font-size: 60px; font-family: BACS"">JvaAOJlN</p>","","","","","","","","",""
"html-keyboard-response","35","125445","0.0-7.0-0.28","5f60713e595007000a8e1da7","64e77d7b61f440b60e28659d","64ecad827a7d5f570085fd32","null","null","<p style=""font-size: 60px; font-family: BACS"">OYuvbNUZ</p>","","","","","","","","",""
"html-keyboard-response","36","126446","0.0-7.0-0.29","5f60713e595007000a8e1da7","64e77d7b61f440b60e28659d","64ecad827a7d5f570085fd32","null","null","<p style=""font-size: 60px; font-family: BACS"">rGUAYcUN</p>","","","","","","","","",""
"html-keyboard-response","37","127458","0.0-7.0-0.30","5f60713e595007000a8e1da7","64e77d7b61f440b60e28659d","64ecad827a7d5f570085fd32","null","null","<p style=""font-size: 60px; font-family: BACS"">bRABtEcR</p>","","","","","","","","",""
"html-keyboard-response","38","128463","0.0-7.0-0.31","5f60713e595007000a8e1da7","64e77d7b61f440b60e28659d","64ecad827a7d5f570085fd32","null","null","<p style=""font-size: 60px; font-family: BACS"">UrOQNUZ</p>","","","","","","","","",""
"html-keyboard-response","39","129473","0.0-7.0-0.32","5f60713e595007000a8e1da7","64e77d7b61f440b60e28659d","64ecad827a7d5f570085fd32","null","null","<p style=""font-size: 60px; font-family: BACS"">rGUAYOJlN</p>","","","","","","","","",""
"html-keyboard-response","40","130478","0.0-7.0-0.33","5f60713e595007000a8e1da7","64e77d7b61f440b60e28659d","64ecad827a7d5f570085fd32","null","null","<p style=""font-size: 60px; font-family: BACS"">kGlUOQAr</p>","","","","","","","","",""
"html-keyboard-response","41","131481","0.0-7.0-0.34","5f60713e595007000a8e1da7","64e77d7b61f440b60e28659d","64ecad827a7d5f570085fd32","null","null","<p style=""font-size: 60px; font-family: BACS"">uQkrdcUN</p>","","","","","","","","",""
"html-keyboard-response","42","132482","0.0-7.0-0.35","5f60713e595007000a8e1da7","64e77d7b61f440b60e28659d","64ecad827a7d5f570085fd32","null","null","<p style=""font-size: 60px; font-family: BACS"">RKYkEcR</p>","","","","","","","","",""
"html-keyboard-response","43","133492","0.0-7.0-0.36","5f60713e595007000a8e1da7","64e77d7b61f440b60e28659d","64ecad827a7d5f570085fd32","null","null","<p style=""font-size: 60px; font-family: BACS"">bAdkmhc</p>","","","","","","","","",""
"html-keyboard-response","44","134500","0.0-7.0-0.37","5f60713e595007000a8e1da7","64e77d7b61f440b60e28659d","64ecad827a7d5f570085fd32","null","null","<p style=""font-size: 60px; font-family: BACS"">rGUAYOQAr</p>","","","","","","","","",""
"html-keyboard-response","45","135506","0.0-7.0-0.38","5f60713e595007000a8e1da7","64e77d7b61f440b60e28659d","64ecad827a7d5f570085fd32","null","null","<p style=""font-size: 60px; font-family: BACS"">YJLcANUZ</p>","","","","","","","","",""
"html-keyboard-response","46","136516","0.0-7.0-0.39","5f60713e595007000a8e1da7","64e77d7b61f440b60e28659d","64ecad827a7d5f570085fd32","null","null","<p style=""font-size: 60px; font-family: BACS"">OYuvbOJlN</p>","","","","","","","","",""
"html-keyboard-response","47","137526","0.0-7.0-0.40","5f60713e595007000a8e1da7","64e77d7b61f440b60e28659d","64ecad827a7d5f570085fd32","null","null","<p style=""font-size: 60px; font-family: BACS"">hAROKEcR</p>","","","","","","","","",""
"html-keyboard-response","48","138535","0.0-7.0-0.41","5f60713e595007000a8e1da7","64e77d7b61f440b60e28659d","64ecad827a7d5f570085fd32","null","null","<p style=""font-size: 60px; font-family: BACS"">hlbtbmhc</p>","","","","","","","","",""
"html-keyboard-response","49","139544","0.0-7.0-0.42","5f60713e595007000a8e1da7","64e77d7b61f440b60e28659d","64ecad827a7d5f570085fd32","null","null","<p style=""font-size: 60px; font-family: BACS"">QcQAJcUN</p>","","","","","","","","",""
"html-keyboard-response","50","140550","0.0-7.0-0.43","5f60713e595007000a8e1da7","64e77d7b61f440b60e28659d","64ecad827a7d5f570085fd32","null","null","<p style=""font-size: 60px; font-family: BACS"">TEBKmhc</p>","","","","","","","","",""
"html-keyboard-response","51","141557","0.0-7.0-0.44","5f60713e595007000a8e1da7","64e77d7b61f440b60e28659d","64ecad827a7d5f570085fd32","null","null","<p style=""font-size: 60px; font-family: BACS"">bAdkAdYl</p>","","","","","","","","",""
"html-keyboard-response","52","142566","0.0-7.0-0.45","5f60713e595007000a8e1da7","64e77d7b61f440b60e28659d","64ecad827a7d5f570085fd32","null","null","<p style=""font-size: 60px; font-family: BACS"">JvaArNlZ</p>","","","","","","","","",""
"html-keyboard-response","53","143579","0.0-7.0-0.46","5f60713e595007000a8e1da7","64e77d7b61f440b60e28659d","64ecad827a7d5f570085fd32","null","null","<p style=""font-size: 60px; font-family: BACS"">QOLmuNUZ</p>","","","","","","","","",""
"html-keyboard-response","54","144588","0.0-7.0-0.47","5f60713e595007000a8e1da7","64e77d7b61f440b60e28659d","64ecad827a7d5f570085fd32","null","null","<p style=""font-size: 60px; font-family: BACS"">bAdkEKBO</p>","","","","","","","","",""
"html-keyboard-response","55","145599","0.0-7.0-0.48","5f60713e595007000a8e1da7","64e77d7b61f440b60e28659d","64ecad827a7d5f570085fd32","null","null","<p style=""font-size: 60px; font-family: BACS"">mhtcmhc</p>","","","","","","","","",""
"html-keyboard-response","56","146611","0.0-7.0-0.49","5f60713e595007000a8e1da7","64e77d7b61f440b60e28659d","64ecad827a7d5f570085fd32","null","null","<p style=""font-size: 60px; font-family: BACS"">btlckEKBO</p>","","","","","","","","",""
"html-keyboard-response","57","147622","0.0-7.0-0.50","5f60713e595007000a8e1da7","64e77d7b61f440b60e28659d","64ecad827a7d5f570085fd32","null","null","<p style=""font-size: 60px; font-family: BACS"">hlbtbEcR</p>","","","","","","","","",""
"html-keyboard-response","58","148625","0.0-7.0-0.51","5f60713e595007000a8e1da7","64e77d7b61f440b60e28659d","64ecad827a7d5f570085fd32","null","null","<p style=""font-size: 60px; font-family: BACS"">uQkrdNUZ</p>","","","","","","","","",""
"html-keyboard-response","59","149634","0.0-7.0-0.52","5f60713e595007000a8e1da7","64e77d7b61f440b60e28659d","64ecad827a7d5f570085fd32","null","null","<p style=""font-size: 60px; font-family: BACS"">UrOQcUN</p>","","","","","","","","",""
"html-keyboard-response","60","150639","0.0-7.0-0.53","5f60713e595007000a8e1da7","64e77d7b61f440b60e28659d","64ecad827a7d5f570085fd32","null","null","<p style=""font-size: 60px; font-family: BACS"">hAROKmtKP</p>","","","","","","","","",""
"html-keyboard-response","61","151649","0.0-7.0-0.54","5f60713e595007000a8e1da7","64e77d7b61f440b60e28659d","64ecad827a7d5f570085fd32","null","null","<p style=""font-size: 60px; font-family: BACS"">JvaAOQAr</p>","","","","","","","","",""
"html-keyboard-response","62","152658","0.0-7.0-0.55","5f60713e595007000a8e1da7","64e77d7b61f440b60e28659d","64ecad827a7d5f570085fd32","null","null","<p style=""font-size: 60px; font-family: BACS"">hAROKAdYl</p>","","","","","","","","",""
"html-keyboard-response","63","153669","0.0-7.0-0.56","5f60713e595007000a8e1da7","64e77d7b61f440b60e28659d","64ecad827a7d5f570085fd32","null","null","<p style=""font-size: 60px; font-family: BACS"">hTDdEKBO</p>","","","","","","","","",""
"html-keyboard-response","64","154677","0.0-7.0-0.57","5f60713e595007000a8e1da7","64e77d7b61f440b60e28659d","64ecad827a7d5f570085fd32","null","null","<p style=""font-size: 60px; font-family: BACS"">hlbtbmtKP</p>","","","","","","","","",""
"html-keyboard-response","65","155682","0.0-7.0-0.58","5f60713e595007000a8e1da7","64e77d7b61f440b60e28659d","64ecad827a7d5f570085fd32","null","null","<p style=""font-size: 60px; font-family: BACS"">kGlUcUN</p>","","","","","","","","",""
"html-keyboard-response","66","156693","0.0-7.0-0.59","5f60713e595007000a8e1da7","64e77d7b61f440b60e28659d","64ecad827a7d5f570085fd32","null","null","<p style=""font-size: 60px; font-family: BACS"">thbOMEcR</p>","","","","","","","","",""
"html-keyboard-response","67","157700","0.0-7.0-0.60","5f60713e595007000a8e1da7","64e77d7b61f440b60e28659d","64ecad827a7d5f570085fd32","null","null","<p style=""font-size: 60px; font-family: BACS"">QOLmuOQAr</p>","","","","","","","","",""
"html-keyboard-response","68","158706","0.0-7.0-0.61","5f60713e595007000a8e1da7","64e77d7b61f440b60e28659d","64ecad827a7d5f570085fd32","null","null","<p style=""font-size: 60px; font-family: BACS"">NAacQrNlZ</p>","","","","","","","","",""
"html-keyboard-response","69","159715","0.0-7.0-0.62","5f60713e595007000a8e1da7","64e77d7b61f440b60e28659d","64ecad827a7d5f570085fd32","null","null","<p style=""font-size: 60px; font-family: BACS"">mhtcmtKP</p>","","","","","","","","",""
"html-keyboard-response","70","160722","0.0-7.0-0.63","5f60713e595007000a8e1da7","64e77d7b61f440b60e28659d","64ecad827a7d5f570085fd32","null","null","<p style=""font-size: 60px; font-family: BACS"">TEBKEKBO</p>","","","","","","","","",""
"html-keyboard-response","71","161733","0.0-7.0-0.64","5f60713e595007000a8e1da7","64e77d7b61f440b60e28659d","64ecad827a7d5f570085fd32","null","null","<p style=""font-size: 60px; font-family: BACS"">YJLcAOJlN</p>","","","","","","","","",""
"html-keyboard-response","72","162739","0.0-7.0-0.65","5f60713e595007000a8e1da7","64e77d7b61f440b60e28659d","64ecad827a7d5f570085fd32","null","null","<p style=""font-size: 60px; font-family: BACS"">UrOQrNlZ</p>","","","","","","","","",""
"html-keyboard-response","73","163740","0.0-7.0-0.66","5f60713e595007000a8e1da7","64e77d7b61f440b60e28659d","64ecad827a7d5f570085fd32","null","null","<p style=""font-size: 60px; font-family: BACS"">OYuvbOQAr</p>","","","","","","","","",""
"html-keyboard-response","74","164755","0.0-7.0-0.67","5f60713e595007000a8e1da7","64e77d7b61f440b60e28659d","64ecad827a7d5f570085fd32","null","null","<p style=""font-size: 60px; font-family: BACS"">btlckAdYl</p>","","","","","","","","",""
"html-keyboard-response","75","165763","0.0-7.0-0.68","5f60713e595007000a8e1da7","64e77d7b61f440b60e28659d","64ecad827a7d5f570085fd32","null","null","<p style=""font-size: 60px; font-family: BACS"">kGlUrNlZ</p>","","","","","","","","",""
"html-keyboard-response","76","166771","0.0-7.0-0.69","5f60713e595007000a8e1da7","64e77d7b61f440b60e28659d","64ecad827a7d5f570085fd32","null","null","<p style=""font-size: 60px; font-family: BACS"">TEBKEcR</p>","","","","","","","","",""
"html-keyboard-response","77","167776","0.0-7.0-0.70","5f60713e595007000a8e1da7","64e77d7b61f440b60e28659d","64ecad827a7d5f570085fd32","null","null","<p style=""font-size: 60px; font-family: BACS"">bRABtmhc</p>","","","","","","","","",""
"html-keyboard-response","78","168782","0.0-7.0-0.71","5f60713e595007000a8e1da7","64e77d7b61f440b60e28659d","64ecad827a7d5f570085fd32","null","null","<p style=""font-size: 60px; font-family: BACS"">mhtcAdYl</p>","","","","","","","","",""
"html-keyboard-response","79","169787","0.0-7.0-0.72","5f60713e595007000a8e1da7","64e77d7b61f440b60e28659d","64ecad827a7d5f570085fd32","null","null","<p style=""font-size: 60px; font-family: BACS"">bRABtmtKP</p>","","","","","","","","",""
"html-keyboard-response","80","170796","0.0-7.0-0.73","5f60713e595007000a8e1da7","64e77d7b61f440b60e28659d","64ecad827a7d5f570085fd32","null","null","<p style=""font-size: 60px; font-family: BACS"">bAdkEcR</p>","","","","","","","","",""
"html-keyboard-response","81","171797","0.0-7.0-0.74","5f60713e595007000a8e1da7","64e77d7b61f440b60e28659d","64ecad827a7d5f570085fd32","null","null","<p style=""font-size: 60px; font-family: BACS"">hTDdmtKP</p>","","","","","","","","",""
"html-keyboard-response","82","172803","0.0-7.0-0.75","5f60713e595007000a8e1da7","64e77d7b61f440b60e28659d","64ecad827a7d5f570085fd32","null","null","<p style=""font-size: 60px; font-family: BACS"">OYuvbrNlZ</p>","","","","","","","","",""
"html-keyboard-response","83","173811","0.0-7.0-0.76","5f60713e595007000a8e1da7","64e77d7b61f440b60e28659d","64ecad827a7d5f570085fd32","null","null","<p style=""font-size: 60px; font-family: BACS"">TEBKmtKP</p>","","","","","","","","",""
"html-keyboard-response","84","174817","0.0-7.0-0.77","5f60713e595007000a8e1da7","64e77d7b61f440b60e28659d","64ecad827a7d5f570085fd32","null","null","<p style=""font-size: 60px; font-family: BACS"">hTDdAdYl</p>","","","","","","","","",""
"html-keyboard-response","85","175828","0.0-7.0-0.78","5f60713e595007000a8e1da7","64e77d7b61f440b60e28659d","64ecad827a7d5f570085fd32","null","null","<p style=""font-size: 60px; font-family: BACS"">rGUAYrNlZ</p>","","","","","","","","",""
"html-keyboard-response","86","176834","0.0-7.0-0.79","5f60713e595007000a8e1da7","64e77d7b61f440b60e28659d","64ecad827a7d5f570085fd32","null","null","<p style=""font-size: 60px; font-family: BACS"">thbOMmtKP</p>","","","","","","","","",""
"html-keyboard-response","87","192127","0.0-8.0","5f60713e595007000a8e1da7","64e77d7b61f440b60e28659d","64ecad827a7d5f570085fd32","15293"," ","<p>Great, you've seen the first block of words. You may now take a short break.</p>
      <p>Press the spacebar when you're ready to continue.</p>","","","","","","","","",""
"html-keyboard-response","88","193140","0.0-9.0-0.0","5f60713e595007000a8e1da7","64e77d7b61f440b60e28659d","64ecad827a7d5f570085fd32","null","null","<p style=""font-size: 60px; font-family: BACS"">YJLcANUZ</p>","","","","","","","","",""
"html-keyboard-response","89","194150","0.0-9.0-0.1","5f60713e595007000a8e1da7","64e77d7b61f440b60e28659d","64ecad827a7d5f570085fd32","null","null","<p style=""font-size: 60px; font-family: BACS"">mhtcAdYl</p>","","","","","","","","",""
"html-keyboard-response","90","195158","0.0-9.0-0.2","5f60713e595007000a8e1da7","64e77d7b61f440b60e28659d","64ecad827a7d5f570085fd32","null","null","<p style=""font-size: 60px; font-family: BACS"">NAacQrNlZ</p>","","","","","","","","",""
"html-keyboard-response","91","196162","0.0-9.0-0.3","5f60713e595007000a8e1da7","64e77d7b61f440b60e28659d","64ecad827a7d5f570085fd32","null","null","<p style=""font-size: 60px; font-family: BACS"">OYuvbOQAr</p>","","","","","","","","",""
"html-keyboard-response","92","197170","0.0-9.0-0.4","5f60713e595007000a8e1da7","64e77d7b61f440b60e28659d","64ecad827a7d5f570085fd32","null","null","<p style=""font-size: 60px; font-family: BACS"">RKYkEcR</p>","","","","","","","","",""
"html-keyboard-response","93","198180","0.0-9.0-0.5","5f60713e595007000a8e1da7","64e77d7b61f440b60e28659d","64ecad827a7d5f570085fd32","null","null","<p style=""font-size: 60px; font-family: BACS"">QcQAJNUZ</p>","","","","","","","","",""
"html-keyboard-response","94","199185","0.0-9.0-0.6","5f60713e595007000a8e1da7","64e77d7b61f440b60e28659d","64ecad827a7d5f570085fd32","null","null","<p style=""font-size: 60px; font-family: BACS"">YJLcAOJlN</p>","","","","","","","","",""
"html-keyboard-response","95","200194","0.0-9.0-0.7","5f60713e595007000a8e1da7","64e77d7b61f440b60e28659d","64ecad827a7d5f570085fd32","null","null","<p style=""font-size: 60px; font-family: BACS"">bRABtEcR</p>","","","","","","","","",""
"html-keyboard-response","96","201196","0.0-9.0-0.8","5f60713e595007000a8e1da7","64e77d7b61f440b60e28659d","64ecad827a7d5f570085fd32","null","null","<p style=""font-size: 60px; font-family: BACS"">mhtcmtKP</p>","","","","","","","","",""
"html-keyboard-response","97","202209","0.0-9.0-0.9","5f60713e595007000a8e1da7","64e77d7b61f440b60e28659d","64ecad827a7d5f570085fd32","null","null","<p style=""font-size: 60px; font-family: BACS"">bAdkAdYl</p>","","","","","","","","",""
"html-keyboard-response","98","203217","0.0-9.0-0.10","5f60713e595007000a8e1da7","64e77d7b61f440b60e28659d","64ecad827a7d5f570085fd32","null","null","<p style=""font-size: 60px; font-family: BACS"">UrOQrNlZ</p>","","","","","","","","",""
"html-keyboard-response","99","204221","0.0-9.0-0.11","5f60713e595007000a8e1da7","64e77d7b61f440b60e28659d","64ecad827a7d5f570085fd32","null","null","<p style=""font-size: 60px; font-family: BACS"">btlckEKBO</p>","","","","","","","","",""
"html-keyboard-response","100","205225","0.0-9.0-0.12","5f60713e595007000a8e1da7","64e77d7b61f440b60e28659d","64ecad827a7d5f570085fd32","null","null","<p style=""font-size: 60px; font-family: BACS"">RKYkmhc</p>","","","","","","","","",""
"html-keyboard-response","101","206232","0.0-9.0-0.13","5f60713e595007000a8e1da7","64e77d7b61f440b60e28659d","64ecad827a7d5f570085fd32","null","null","<p style=""font-size: 60px; font-family: BACS"">hlbtbEcR</p>","","","","","","","","",""
"html-keyboard-response","102","207233","0.0-9.0-0.14","5f60713e595007000a8e1da7","64e77d7b61f440b60e28659d","64ecad827a7d5f570085fd32","null","null","<p style=""font-size: 60px; font-family: BACS"">hTDdEKBO</p>","","","","","","","","",""
"html-keyboard-response","103","208249","0.0-9.0-0.15","5f60713e595007000a8e1da7","64e77d7b61f440b60e28659d","64ecad827a7d5f570085fd32","null","null","<p style=""font-size: 60px; font-family: BACS"">kGlUcUN</p>","","","","","","","","",""
"html-keyboard-response","104","209255","0.0-9.0-0.16","5f60713e595007000a8e1da7","64e77d7b61f440b60e28659d","64ecad827a7d5f570085fd32","null","null","<p style=""font-size: 60px; font-family: BACS"">mhtcmhc</p>","","","","","","","","",""
"html-keyboard-response","105","210262","0.0-9.0-0.17","5f60713e595007000a8e1da7","64e77d7b61f440b60e28659d","64ecad827a7d5f570085fd32","null","null","<p style=""font-size: 60px; font-family: BACS"">RKYkEKBO</p>","","","","","","","","",""
"html-keyboard-response","106","211269","0.0-9.0-0.18","5f60713e595007000a8e1da7","64e77d7b61f440b60e28659d","64ecad827a7d5f570085fd32","null","null","<p style=""font-size: 60px; font-family: BACS"">QOLmuNUZ</p>","","","","","","","","",""
"html-keyboard-response","107","212279","0.0-9.0-0.19","5f60713e595007000a8e1da7","64e77d7b61f440b60e28659d","64ecad827a7d5f570085fd32","null","null","<p style=""font-size: 60px; font-family: BACS"">NAacQcUN</p>","","","","","","","","",""
"html-keyboard-response","108","213286","0.0-9.0-0.20","5f60713e595007000a8e1da7","64e77d7b61f440b60e28659d","64ecad827a7d5f570085fd32","null","null","<p style=""font-size: 60px; font-family: BACS"">rGUAYOJlN</p>","","","","","","","","",""
"html-keyboard-response","109","214298","0.0-9.0-0.21","5f60713e595007000a8e1da7","64e77d7b61f440b60e28659d","64ecad827a7d5f570085fd32","null","null","<p style=""font-size: 60px; font-family: BACS"">bRABtAdYl</p>","","","","","","","","",""
"html-keyboard-response","110","215304","0.0-9.0-0.22","5f60713e595007000a8e1da7","64e77d7b61f440b60e28659d","64ecad827a7d5f570085fd32","null","null","<p style=""font-size: 60px; font-family: BACS"">hAROKmtKP</p>","","","","","","","","",""
"html-keyboard-response","111","216308","0.0-9.0-0.23","5f60713e595007000a8e1da7","64e77d7b61f440b60e28659d","64ecad827a7d5f570085fd32","null","null","<p style=""font-size: 60px; font-family: BACS"">QcQAJOQAr</p>","","","","","","","","",""
"html-keyboard-response","112","217321","0.0-9.0-0.24","5f60713e595007000a8e1da7","64e77d7b61f440b60e28659d","64ecad827a7d5f570085fd32","null","null","<p style=""font-size: 60px; font-family: BACS"">bAdkEKBO</p>","","","","","","","","",""
"html-keyboard-response","113","218330","0.0-9.0-0.25","5f60713e595007000a8e1da7","64e77d7b61f440b60e28659d","64ecad827a7d5f570085fd32","null","null","<p style=""font-size: 60px; font-family: BACS"">NAacQNUZ</p>","","","","","","","","",""
"html-keyboard-response","114","219341","0.0-9.0-0.26","5f60713e595007000a8e1da7","64e77d7b61f440b60e28659d","64ecad827a7d5f570085fd32","null","null","<p style=""font-size: 60px; font-family: BACS"">QcQAJOJlN</p>","","","","","","","","",""
"html-keyboard-response","115","220347","0.0-9.0-0.27","5f60713e595007000a8e1da7","64e77d7b61f440b60e28659d","64ecad827a7d5f570085fd32","null","null","<p style=""font-size: 60px; font-family: BACS"">YJLcArNlZ</p>","","","","","","","","",""
"html-keyboard-response","116","221351","0.0-9.0-0.28","5f60713e595007000a8e1da7","64e77d7b61f440b60e28659d","64ecad827a7d5f570085fd32","null","null","<p style=""font-size: 60px; font-family: BACS"">UrOQNUZ</p>","","","","","","","","",""
"html-keyboard-response","117","222365","0.0-9.0-0.29","5f60713e595007000a8e1da7","64e77d7b61f440b60e28659d","64ecad827a7d5f570085fd32","null","null","<p style=""font-size: 60px; font-family: BACS"">uQkrdcUN</p>","","","","","","","","",""
"html-keyboard-response","118","223375","0.0-9.0-0.30","5f60713e595007000a8e1da7","64e77d7b61f440b60e28659d","64ecad827a7d5f570085fd32","null","null","<p style=""font-size: 60px; font-family: BACS"">bAdkEcR</p>","","","","","","","","",""
"html-keyboard-response","119","224380","0.0-9.0-0.31","5f60713e595007000a8e1da7","64e77d7b61f440b60e28659d","64ecad827a7d5f570085fd32","null","null","<p style=""font-size: 60px; font-family: BACS"">JvaAOJlN</p>","","","","","","","","",""
"html-keyboard-response","120","225382","0.0-9.0-0.32","5f60713e595007000a8e1da7","64e77d7b61f440b60e28659d","64ecad827a7d5f570085fd32","null","null","<p style=""font-size: 60px; font-family: BACS"">kGlUNUZ</p>","","","","","","","","",""
"html-keyboard-response","121","226389","0.0-9.0-0.33","5f60713e595007000a8e1da7","64e77d7b61f440b60e28659d","64ecad827a7d5f570085fd32","null","null","<p style=""font-size: 60px; font-family: BACS"">TEBKEKBO</p>","","","","","","","","",""
"html-keyboard-response","122","227396","0.0-9.0-0.34","5f60713e595007000a8e1da7","64e77d7b61f440b60e28659d","64ecad827a7d5f570085fd32","null","null","<p style=""font-size: 60px; font-family: BACS"">btlckmhc</p>","","","","","","","","",""
"html-keyboard-response","123","228404","0.0-9.0-0.35","5f60713e595007000a8e1da7","64e77d7b61f440b60e28659d","64ecad827a7d5f570085fd32","null","null","<p style=""font-size: 60px; font-family: BACS"">QOLmuOQAr</p>","","","","","","","","",""
"html-keyboard-response","124","229408","0.0-9.0-0.36","5f60713e595007000a8e1da7","64e77d7b61f440b60e28659d","64ecad827a7d5f570085fd32","null","null","<p style=""font-size: 60px; font-family: BACS"">hTDdmtKP</p>","","","","","","","","",""
"html-keyboard-response","125","230415","0.0-9.0-0.37","5f60713e595007000a8e1da7","64e77d7b61f440b60e28659d","64ecad827a7d5f570085fd32","null","null","<p style=""font-size: 60px; font-family: BACS"">OYuvbOJlN</p>","","","","","","","","",""
"html-keyboard-response","126","231422","0.0-9.0-0.38","5f60713e595007000a8e1da7","64e77d7b61f440b60e28659d","64ecad827a7d5f570085fd32","null","null","<p style=""font-size: 60px; font-family: BACS"">TEBKmhc</p>","","","","","","","","",""
"html-keyboard-response","127","232428","0.0-9.0-0.39","5f60713e595007000a8e1da7","64e77d7b61f440b60e28659d","64ecad827a7d5f570085fd32","null","null","<p style=""font-size: 60px; font-family: BACS"">UrOQcUN</p>","","","","","","","","",""
"html-keyboard-response","128","233436","0.0-9.0-0.40","5f60713e595007000a8e1da7","64e77d7b61f440b60e28659d","64ecad827a7d5f570085fd32","null","null","<p style=""font-size: 60px; font-family: BACS"">hAROKEcR</p>","","","","","","","","",""
"html-keyboard-response","129","234445","0.0-9.0-0.41","5f60713e595007000a8e1da7","64e77d7b61f440b60e28659d","64ecad827a7d5f570085fd32","null","null","<p style=""font-size: 60px; font-family: BACS"">RKYkAdYl</p>","","","","","","","","",""
"html-keyboard-response","130","235454","0.0-9.0-0.42","5f60713e595007000a8e1da7","64e77d7b61f440b60e28659d","64ecad827a7d5f570085fd32","null","null","<p style=""font-size: 60px; font-family: BACS"">QOLmuOJlN</p>","","","","","","","","",""
"html-keyboard-response","131","236467","0.0-9.0-0.43","5f60713e595007000a8e1da7","64e77d7b61f440b60e28659d","64ecad827a7d5f570085fd32","null","null","<p style=""font-size: 60px; font-family: BACS"">YJLcAOQAr</p>","","","","","","","","",""
"html-keyboard-response","132","237476","0.0-9.0-0.44","5f60713e595007000a8e1da7","64e77d7b61f440b60e28659d","64ecad827a7d5f570085fd32","null","null","<p style=""font-size: 60px; font-family: BACS"">JvaAcUN</p>","","","","","","","","",""
"html-keyboard-response","133","238482","0.0-9.0-0.45","5f60713e595007000a8e1da7","64e77d7b61f440b60e28659d","64ecad827a7d5f570085fd32","null","null","<p style=""font-size: 60px; font-family: BACS"">TEBKEcR</p>","","","","","","","","",""
"html-keyboard-response","134","239492","0.0-9.0-0.46","5f60713e595007000a8e1da7","64e77d7b61f440b60e28659d","64ecad827a7d5f570085fd32","null","null","<p style=""font-size: 60px; font-family: BACS"">UrOQOQAr</p>","","","","","","","","",""
"html-keyboard-response","135","240493","0.0-9.0-0.47","5f60713e595007000a8e1da7","64e77d7b61f440b60e28659d","64ecad827a7d5f570085fd32","null","null","<p style=""font-size: 60px; font-family: BACS"">uQkrdNUZ</p>","","","","","","","","",""
"html-keyboard-response","136","241502","0.0-9.0-0.48","5f60713e595007000a8e1da7","64e77d7b61f440b60e28659d","64ecad827a7d5f570085fd32","null","null","<p style=""font-size: 60px; font-family: BACS"">hTDdAdYl</p>","","","","","","","","",""
"html-keyboard-response","137","242513","0.0-9.0-0.49","5f60713e595007000a8e1da7","64e77d7b61f440b60e28659d","64ecad827a7d5f570085fd32","null","null","<p style=""font-size: 60px; font-family: BACS"">TEBKmtKP</p>","","","","","","","","",""
"html-keyboard-response","138","243515","0.0-9.0-0.50","5f60713e595007000a8e1da7","64e77d7b61f440b60e28659d","64ecad827a7d5f570085fd32","null","null","<p style=""font-size: 60px; font-family: BACS"">uQkrdrNlZ</p>","","","","","","","","",""
"html-keyboard-response","139","244529","0.0-9.0-0.51","5f60713e595007000a8e1da7","64e77d7b61f440b60e28659d","64ecad827a7d5f570085fd32","null","null","<p style=""font-size: 60px; font-family: BACS"">OYuvbNUZ</p>","","","","","","","","",""
"html-keyboard-response","140","245538","0.0-9.0-0.52","5f60713e595007000a8e1da7","64e77d7b61f440b60e28659d","64ecad827a7d5f570085fd32","null","null","<p style=""font-size: 60px; font-family: BACS"">JvaArNlZ</p>","","","","","","","","",""
"html-keyboard-response","141","246548","0.0-9.0-0.53","5f60713e595007000a8e1da7","64e77d7b61f440b60e28659d","64ecad827a7d5f570085fd32","null","null","<p style=""font-size: 60px; font-family: BACS"">bRABtmhc</p>","","","","","","","","",""
"html-keyboard-response","142","247555","0.0-9.0-0.54","5f60713e595007000a8e1da7","64e77d7b61f440b60e28659d","64ecad827a7d5f570085fd32","null","null","<p style=""font-size: 60px; font-family: BACS"">hAROKAdYl</p>","","","","","","","","",""
"html-keyboard-response","143","248561","0.0-9.0-0.55","5f60713e595007000a8e1da7","64e77d7b61f440b60e28659d","64ecad827a7d5f570085fd32","null","null","<p style=""font-size: 60px; font-family: BACS"">QcQAJcUN</p>","","","","","","","","",""
"html-keyboard-response","144","249566","0.0-9.0-0.56","5f60713e595007000a8e1da7","64e77d7b61f440b60e28659d","64ecad827a7d5f570085fd32","null","null","<p style=""font-size: 60px; font-family: BACS"">hlbtbmhc</p>","","","","","","","","",""
"html-keyboard-response","145","250578","0.0-9.0-0.57","5f60713e595007000a8e1da7","64e77d7b61f440b60e28659d","64ecad827a7d5f570085fd32","null","null","<p style=""font-size: 60px; font-family: BACS"">OYuvbrNlZ</p>","","","","","","","","",""
"html-keyboard-response","146","251581","0.0-9.0-0.58","5f60713e595007000a8e1da7","64e77d7b61f440b60e28659d","64ecad827a7d5f570085fd32","null","null","<p style=""font-size: 60px; font-family: BACS"">hAROKEKBO</p>","","","","","","","","",""
"html-keyboard-response","147","252590","0.0-9.0-0.59","5f60713e595007000a8e1da7","64e77d7b61f440b60e28659d","64ecad827a7d5f570085fd32","null","null","<p style=""font-size: 60px; font-family: BACS"">JvaAOQAr</p>","","","","","","","","",""
"html-keyboard-response","148","253599","0.0-9.0-0.60","5f60713e595007000a8e1da7","64e77d7b61f440b60e28659d","64ecad827a7d5f570085fd32","null","null","<p style=""font-size: 60px; font-family: BACS"">uQkrdOJlN</p>","","","","","","","","",""
"html-keyboard-response","149","254604","0.0-9.0-0.61","5f60713e595007000a8e1da7","64e77d7b61f440b60e28659d","64ecad827a7d5f570085fd32","null","null","<p style=""font-size: 60px; font-family: BACS"">thbOMEcR</p>","","","","","","","","",""
"html-keyboard-response","150","255610","0.0-9.0-0.62","5f60713e595007000a8e1da7","64e77d7b61f440b60e28659d","64ecad827a7d5f570085fd32","null","null","<p style=""font-size: 60px; font-family: BACS"">bRABtmtKP</p>","","","","","","","","",""
"html-keyboard-response","151","256620","0.0-9.0-0.63","5f60713e595007000a8e1da7","64e77d7b61f440b60e28659d","64ecad827a7d5f570085fd32","null","null","<p style=""font-size: 60px; font-family: BACS"">bAdkmhc</p>","","","","","","","","",""
"html-keyboard-response","152","257627","0.0-9.0-0.64","5f60713e595007000a8e1da7","64e77d7b61f440b60e28659d","64ecad827a7d5f570085fd32","null","null","<p style=""font-size: 60px; font-family: BACS"">kGlUOQAr</p>","","","","","","","","",""
"html-keyboard-response","153","258640","0.0-9.0-0.65","5f60713e595007000a8e1da7","64e77d7b61f440b60e28659d","64ecad827a7d5f570085fd32","null","null","<p style=""font-size: 60px; font-family: BACS"">thbOMAdYl</p>","","","","","","","","",""
"html-keyboard-response","154","259648","0.0-9.0-0.66","5f60713e595007000a8e1da7","64e77d7b61f440b60e28659d","64ecad827a7d5f570085fd32","null","null","<p style=""font-size: 60px; font-family: BACS"">rGUAYrNlZ</p>","","","","","","","","",""
"html-keyboard-response","155","260656","0.0-9.0-0.67","5f60713e595007000a8e1da7","64e77d7b61f440b60e28659d","64ecad827a7d5f570085fd32","null","null","<p style=""font-size: 60px; font-family: BACS"">thbOMEKBO</p>","","","","","","","","",""
"html-keyboard-response","156","261669","0.0-9.0-0.68","5f60713e595007000a8e1da7","64e77d7b61f440b60e28659d","64ecad827a7d5f570085fd32","null","null","<p style=""font-size: 60px; font-family: BACS"">btlckmtKP</p>","","","","","","","","",""
"html-keyboard-response","157","262680","0.0-9.0-0.69","5f60713e595007000a8e1da7","64e77d7b61f440b60e28659d","64ecad827a7d5f570085fd32","null","null","<p style=""font-size: 60px; font-family: BACS"">rGUAYcUN</p>","","","","","","","","",""
"html-keyboard-response","158","263686","0.0-9.0-0.70","5f60713e595007000a8e1da7","64e77d7b61f440b60e28659d","64ecad827a7d5f570085fd32","null","null","<p style=""font-size: 60px; font-family: BACS"">hlbtbEKBO</p>","","","","","","","","",""
"html-keyboard-response","159","264695","0.0-9.0-0.71","5f60713e595007000a8e1da7","64e77d7b61f440b60e28659d","64ecad827a7d5f570085fd32","null","null","<p style=""font-size: 60px; font-family: BACS"">kGlUrNlZ</p>","","","","","","","","",""
"html-keyboard-response","160","265711","0.0-9.0-0.72","5f60713e595007000a8e1da7","64e77d7b61f440b60e28659d","64ecad827a7d5f570085fd32","null","null","<p style=""font-size: 60px; font-family: BACS"">hTDdmhc</p>","","","","","","","","",""
"html-keyboard-response","161","266722","0.0-9.0-0.73","5f60713e595007000a8e1da7","64e77d7b61f440b60e28659d","64ecad827a7d5f570085fd32","null","null","<p style=""font-size: 60px; font-family: BACS"">mhtcEcR</p>","","","","","","","","",""
"html-keyboard-response","162","267729","0.0-9.0-0.74","5f60713e595007000a8e1da7","64e77d7b61f440b60e28659d","64ecad827a7d5f570085fd32","null","null","<p style=""font-size: 60px; font-family: BACS"">QOLmucUN</p>","","","","","","","","",""
"html-keyboard-response","163","268734","0.0-9.0-0.75","5f60713e595007000a8e1da7","64e77d7b61f440b60e28659d","64ecad827a7d5f570085fd32","null","null","<p style=""font-size: 60px; font-family: BACS"">thbOMmtKP</p>","","","","","","","","",""
"html-keyboard-response","164","269743","0.0-9.0-0.76","5f60713e595007000a8e1da7","64e77d7b61f440b60e28659d","64ecad827a7d5f570085fd32","null","null","<p style=""font-size: 60px; font-family: BACS"">rGUAYOQAr</p>","","","","","","","","",""
"html-keyboard-response","165","270745","0.0-9.0-0.77","5f60713e595007000a8e1da7","64e77d7b61f440b60e28659d","64ecad827a7d5f570085fd32","null","null","<p style=""font-size: 60px; font-family: BACS"">hlbtbmtKP</p>","","","","","","","","",""
"html-keyboard-response","166","271760","0.0-9.0-0.78","5f60713e595007000a8e1da7","64e77d7b61f440b60e28659d","64ecad827a7d5f570085fd32","null","null","<p style=""font-size: 60px; font-family: BACS"">btlckAdYl</p>","","","","","","","","",""
"html-keyboard-response","167","272768","0.0-9.0-0.79","5f60713e595007000a8e1da7","64e77d7b61f440b60e28659d","64ecad827a7d5f570085fd32","null","null","<p style=""font-size: 60px; font-family: BACS"">NAacQOJlN</p>","","","","","","","","",""
"html-keyboard-response","168","278863","0.0-10.0","5f60713e595007000a8e1da7","64e77d7b61f440b60e28659d","64ecad827a7d5f570085fd32","6094"," ","<p>Great, you've seen the second block of words. You may now take a short break.</p>
      <p>Press the spacebar when you're ready to continue.</p>","","","","","","","","",""
"html-keyboard-response","169","279875","0.0-11.0-0.0","5f60713e595007000a8e1da7","64e77d7b61f440b60e28659d","64ecad827a7d5f570085fd32","null","null","<p style=""font-size: 60px; font-family: BACS"">btlckEKBO</p>","","","","","","","","",""
"html-keyboard-response","170","280883","0.0-11.0-0.1","5f60713e595007000a8e1da7","64e77d7b61f440b60e28659d","64ecad827a7d5f570085fd32","null","null","<p style=""font-size: 60px; font-family: BACS"">QOLmuOQAr</p>","","","","","","","","",""
"html-keyboard-response","171","281892","0.0-11.0-0.2","5f60713e595007000a8e1da7","64e77d7b61f440b60e28659d","64ecad827a7d5f570085fd32","null","null","<p style=""font-size: 60px; font-family: BACS"">OYuvbrNlZ</p>","","","","","","","","",""
"html-keyboard-response","172","282897","0.0-11.0-0.3","5f60713e595007000a8e1da7","64e77d7b61f440b60e28659d","64ecad827a7d5f570085fd32","null","null","<p style=""font-size: 60px; font-family: BACS"">hTDdmtKP</p>","","","","","","","","",""
"html-keyboard-response","173","283902","0.0-11.0-0.4","5f60713e595007000a8e1da7","64e77d7b61f440b60e28659d","64ecad827a7d5f570085fd32","null","null","<p style=""font-size: 60px; font-family: BACS"">hAROKEKBO</p>","","","","","","","","",""
"html-keyboard-response","174","284905","0.0-11.0-0.5","5f60713e595007000a8e1da7","64e77d7b61f440b60e28659d","64ecad827a7d5f570085fd32","null","null","<p style=""font-size: 60px; font-family: BACS"">OYuvbOJlN</p>","","","","","","","","",""
"html-keyboard-response","175","285919","0.0-11.0-0.6","5f60713e595007000a8e1da7","64e77d7b61f440b60e28659d","64ecad827a7d5f570085fd32","null","null","<p style=""font-size: 60px; font-family: BACS"">thbOMmtKP</p>","","","","","","","","",""
"html-keyboard-response","176","286927","0.0-11.0-0.7","5f60713e595007000a8e1da7","64e77d7b61f440b60e28659d","64ecad827a7d5f570085fd32","null","null","<p style=""font-size: 60px; font-family: BACS"">uQkrdNUZ</p>","","","","","","","","",""
"html-keyboard-response","177","287935","0.0-11.0-0.8","5f60713e595007000a8e1da7","64e77d7b61f440b60e28659d","64ecad827a7d5f570085fd32","null","null","<p style=""font-size: 60px; font-family: BACS"">OYuvbOQAr</p>","","","","","","","","",""
"html-keyboard-response","178","288939","0.0-11.0-0.9","5f60713e595007000a8e1da7","64e77d7b61f440b60e28659d","64ecad827a7d5f570085fd32","null","null","<p style=""font-size: 60px; font-family: BACS"">QOLmucUN</p>","","","","","","","","",""
"html-keyboard-response","179","289951","0.0-11.0-0.10","5f60713e595007000a8e1da7","64e77d7b61f440b60e28659d","64ecad827a7d5f570085fd32","null","null","<p style=""font-size: 60px; font-family: BACS"">TEBKEKBO</p>","","","","","","","","",""
"html-keyboard-response","180","290953","0.0-11.0-0.11","5f60713e595007000a8e1da7","64e77d7b61f440b60e28659d","64ecad827a7d5f570085fd32","null","null","<p style=""font-size: 60px; font-family: BACS"">bRABtmtKP</p>","","","","","","","","",""
"html-keyboard-response","181","291960","0.0-11.0-0.12","5f60713e595007000a8e1da7","64e77d7b61f440b60e28659d","64ecad827a7d5f570085fd32","null","null","<p style=""font-size: 60px; font-family: BACS"">kGlUOQAr</p>","","","","","","","","",""
"html-keyboard-response","182","292969","0.0-11.0-0.13","5f60713e595007000a8e1da7","64e77d7b61f440b60e28659d","64ecad827a7d5f570085fd32","null","null","<p style=""font-size: 60px; font-family: BACS"">NAacQOJlN</p>","","","","","","","","",""
"html-keyboard-response","183","293974","0.0-11.0-0.14","5f60713e595007000a8e1da7","64e77d7b61f440b60e28659d","64ecad827a7d5f570085fd32","null","null","<p style=""font-size: 60px; font-family: BACS"">TEBKmhc</p>","","","","","","","","",""
"html-keyboard-response","184","294979","0.0-11.0-0.15","5f60713e595007000a8e1da7","64e77d7b61f440b60e28659d","64ecad827a7d5f570085fd32","null","null","<p style=""font-size: 60px; font-family: BACS"">RKYkEKBO</p>","","","","","","","","",""
"html-keyboard-response","185","295985","0.0-11.0-0.16","5f60713e595007000a8e1da7","64e77d7b61f440b60e28659d","64ecad827a7d5f570085fd32","null","null","<p style=""font-size: 60px; font-family: BACS"">NAacQcUN</p>","","","","","","","","",""
"html-keyboard-response","186","296993","0.0-11.0-0.17","5f60713e595007000a8e1da7","64e77d7b61f440b60e28659d","64ecad827a7d5f570085fd32","null","null","<p style=""font-size: 60px; font-family: BACS"">btlckmhc</p>","","","","","","","","",""
"html-keyboard-response","187","298002","0.0-11.0-0.18","5f60713e595007000a8e1da7","64e77d7b61f440b60e28659d","64ecad827a7d5f570085fd32","null","null","<p style=""font-size: 60px; font-family: BACS"">hlbtbmtKP</p>","","","","","","","","",""
"html-keyboard-response","188","299013","0.0-11.0-0.19","5f60713e595007000a8e1da7","64e77d7b61f440b60e28659d","64ecad827a7d5f570085fd32","null","null","<p style=""font-size: 60px; font-family: BACS"">rGUAYOQAr</p>","","","","","","","","",""
"html-keyboard-response","189","300026","0.0-11.0-0.20","5f60713e595007000a8e1da7","64e77d7b61f440b60e28659d","64ecad827a7d5f570085fd32","null","null","<p style=""font-size: 60px; font-family: BACS"">uQkrdcUN</p>","","","","","","","","",""
"html-keyboard-response","190","301032","0.0-11.0-0.21","5f60713e595007000a8e1da7","64e77d7b61f440b60e28659d","64ecad827a7d5f570085fd32","null","null","<p style=""font-size: 60px; font-family: BACS"">UrOQrNlZ</p>","","","","","","","","",""
"html-keyboard-response","191","302044","0.0-11.0-0.22","5f60713e595007000a8e1da7","64e77d7b61f440b60e28659d","64ecad827a7d5f570085fd32","null","null","<p style=""font-size: 60px; font-family: BACS"">RKYkAdYl</p>","","","","","","","","",""
"html-keyboard-response","192","303051","0.0-11.0-0.23","5f60713e595007000a8e1da7","64e77d7b61f440b60e28659d","64ecad827a7d5f570085fd32","null","null","<p style=""font-size: 60px; font-family: BACS"">bRABtEcR</p>","","","","","","","","",""
"html-keyboard-response","193","304061","0.0-11.0-0.24","5f60713e595007000a8e1da7","64e77d7b61f440b60e28659d","64ecad827a7d5f570085fd32","null","null","<p style=""font-size: 60px; font-family: BACS"">UrOQNUZ</p>","","","","","","","","",""
"html-keyboard-response","194","305067","0.0-11.0-0.25","5f60713e595007000a8e1da7","64e77d7b61f440b60e28659d","64ecad827a7d5f570085fd32","null","null","<p style=""font-size: 60px; font-family: BACS"">hAROKEcR</p>","","","","","","","","",""
"html-keyboard-response","195","306074","0.0-11.0-0.26","5f60713e595007000a8e1da7","64e77d7b61f440b60e28659d","64ecad827a7d5f570085fd32","null","null","<p style=""font-size: 60px; font-family: BACS"">kGlUNUZ</p>","","","","","","","","",""
"html-keyboard-response","196","307081","0.0-11.0-0.27","5f60713e595007000a8e1da7","64e77d7b61f440b60e28659d","64ecad827a7d5f570085fd32","null","null","<p style=""font-size: 60px; font-family: BACS"">UrOQcUN</p>","","","","","","","","",""
"html-keyboard-response","197","308089","0.0-11.0-0.28","5f60713e595007000a8e1da7","64e77d7b61f440b60e28659d","64ecad827a7d5f570085fd32","null","null","<p style=""font-size: 60px; font-family: BACS"">rGUAYOJlN</p>","","","","","","","","",""
"html-keyboard-response","198","309097","0.0-11.0-0.29","5f60713e595007000a8e1da7","64e77d7b61f440b60e28659d","64ecad827a7d5f570085fd32","null","null","<p style=""font-size: 60px; font-family: BACS"">QcQAJNUZ</p>","","","","","","","","",""
"html-keyboard-response","199","310103","0.0-11.0-0.30","5f60713e595007000a8e1da7","64e77d7b61f440b60e28659d","64ecad827a7d5f570085fd32","null","null","<p style=""font-size: 60px; font-family: BACS"">TEBKmtKP</p>","","","","","","","","",""
"html-keyboard-response","200","311111","0.0-11.0-0.31","5f60713e595007000a8e1da7","64e77d7b61f440b60e28659d","64ecad827a7d5f570085fd32","null","null","<p style=""font-size: 60px; font-family: BACS"">thbOMEKBO</p>","","","","","","","","",""
"html-keyboard-response","201","312117","0.0-11.0-0.32","5f60713e595007000a8e1da7","64e77d7b61f440b60e28659d","64ecad827a7d5f570085fd32","null","null","<p style=""font-size: 60px; font-family: BACS"">hAROKmtKP</p>","","","","","","","","",""
"html-keyboard-response","202","313123","0.0-11.0-0.33","5f60713e595007000a8e1da7","64e77d7b61f440b60e28659d","64ecad827a7d5f570085fd32","null","null","<p style=""font-size: 60px; font-family: BACS"">NAacQNUZ</p>","","","","","","","","",""
"html-keyboard-response","203","314127","0.0-11.0-0.34","5f60713e595007000a8e1da7","64e77d7b61f440b60e28659d","64ecad827a7d5f570085fd32","null","null","<p style=""font-size: 60px; font-family: BACS"">mhtcmtKP</p>","","","","","","","","",""
"html-keyboard-response","204","315138","0.0-11.0-0.35","5f60713e595007000a8e1da7","64e77d7b61f440b60e28659d","64ecad827a7d5f570085fd32","null","null","<p style=""font-size: 60px; font-family: BACS"">hlbtbEcR</p>","","","","","","","","",""
"html-keyboard-response","205","316142","0.0-11.0-0.36","5f60713e595007000a8e1da7","64e77d7b61f440b60e28659d","64ecad827a7d5f570085fd32","null","null","<p style=""font-size: 60px; font-family: BACS"">btlckmtKP</p>","","","","","","","","",""
"html-keyboard-response","206","317149","0.0-11.0-0.37","5f60713e595007000a8e1da7","64e77d7b61f440b60e28659d","64ecad827a7d5f570085fd32","null","null","<p style=""font-size: 60px; font-family: BACS"">bAdkAdYl</p>","","","","","","","","",""
"html-keyboard-response","207","318150","0.0-11.0-0.38","5f60713e595007000a8e1da7","64e77d7b61f440b60e28659d","64ecad827a7d5f570085fd32","null","null","<p style=""font-size: 60px; font-family: BACS"">QcQAJcUN</p>","","","","","","","","",""
"html-keyboard-response","208","319154","0.0-11.0-0.39","5f60713e595007000a8e1da7","64e77d7b61f440b60e28659d","64ecad827a7d5f570085fd32","null","null","<p style=""font-size: 60px; font-family: BACS"">YJLcANUZ</p>","","","","","","","","",""
"html-keyboard-response","209","320166","0.0-11.0-0.40","5f60713e595007000a8e1da7","64e77d7b61f440b60e28659d","64ecad827a7d5f570085fd32","null","null","<p style=""font-size: 60px; font-family: BACS"">RKYkEcR</p>","","","","","","","","",""
"html-keyboard-response","210","321168","0.0-11.0-0.41","5f60713e595007000a8e1da7","64e77d7b61f440b60e28659d","64ecad827a7d5f570085fd32","null","null","<p style=""font-size: 60px; font-family: BACS"">JvaArNlZ</p>","","","","","","","","",""
"html-keyboard-response","211","322169","0.0-11.0-0.42","5f60713e595007000a8e1da7","64e77d7b61f440b60e28659d","64ecad827a7d5f570085fd32","null","null","<p style=""font-size: 60px; font-family: BACS"">hlbtbmhc</p>","","","","","","","","",""
"html-keyboard-response","212","323178","0.0-11.0-0.43","5f60713e595007000a8e1da7","64e77d7b61f440b60e28659d","64ecad827a7d5f570085fd32","null","null","<p style=""font-size: 60px; font-family: BACS"">thbOMEcR</p>","","","","","","","","",""
"html-keyboard-response","213","324190","0.0-11.0-0.44","5f60713e595007000a8e1da7","64e77d7b61f440b60e28659d","64ecad827a7d5f570085fd32","null","null","<p style=""font-size: 60px; font-family: BACS"">bAdkmhc</p>","","","","","","","","",""
"html-keyboard-response","214","325196","0.0-11.0-0.45","5f60713e595007000a8e1da7","64e77d7b61f440b60e28659d","64ecad827a7d5f570085fd32","null","null","<p style=""font-size: 60px; font-family: BACS"">hlbtbEKBO</p>","","","","","","","","",""
"html-keyboard-response","215","326202","0.0-11.0-0.46","5f60713e595007000a8e1da7","64e77d7b61f440b60e28659d","64ecad827a7d5f570085fd32","null","null","<p style=""font-size: 60px; font-family: BACS"">kGlUrNlZ</p>","","","","","","","","",""
"html-keyboard-response","216","327209","0.0-11.0-0.47","5f60713e595007000a8e1da7","64e77d7b61f440b60e28659d","64ecad827a7d5f570085fd32","null","null","<p style=""font-size: 60px; font-family: BACS"">QOLmuOJlN</p>","","","","","","","","",""
"html-keyboard-response","217","328210","0.0-11.0-0.48","5f60713e595007000a8e1da7","64e77d7b61f440b60e28659d","64ecad827a7d5f570085fd32","null","null","<p style=""font-size: 60px; font-family: BACS"">hTDdmhc</p>","","","","","","","","",""
"html-keyboard-response","218","329223","0.0-11.0-0.49","5f60713e595007000a8e1da7","64e77d7b61f440b60e28659d","64ecad827a7d5f570085fd32","null","null","<p style=""font-size: 60px; font-family: BACS"">bAdkEcR</p>","","","","","","","","",""
"html-keyboard-response","219","330223","0.0-11.0-0.50","5f60713e595007000a8e1da7","64e77d7b61f440b60e28659d","64ecad827a7d5f570085fd32","null","null","<p style=""font-size: 60px; font-family: BACS"">hTDdEKBO</p>","","","","","","","","",""
"html-keyboard-response","220","331235","0.0-11.0-0.51","5f60713e595007000a8e1da7","64e77d7b61f440b60e28659d","64ecad827a7d5f570085fd32","null","null","<p style=""font-size: 60px; font-family: BACS"">JvaAOJlN</p>","","","","","","","","",""
"html-keyboard-response","221","332245","0.0-11.0-0.52","5f60713e595007000a8e1da7","64e77d7b61f440b60e28659d","64ecad827a7d5f570085fd32","null","null","<p style=""font-size: 60px; font-family: BACS"">bAdkEKBO</p>","","","","","","","","",""
"html-keyboard-response","222","333248","0.0-11.0-0.53","5f60713e595007000a8e1da7","64e77d7b61f440b60e28659d","64ecad827a7d5f570085fd32","null","null","<p style=""font-size: 60px; font-family: BACS"">RKYkmhc</p>","","","","","","","","",""
"html-keyboard-response","223","334258","0.0-11.0-0.54","5f60713e595007000a8e1da7","64e77d7b61f440b60e28659d","64ecad827a7d5f570085fd32","null","null","<p style=""font-size: 60px; font-family: BACS"">hAROKAdYl</p>","","","","","","","","",""
"html-keyboard-response","224","335266","0.0-11.0-0.55","5f60713e595007000a8e1da7","64e77d7b61f440b60e28659d","64ecad827a7d5f570085fd32","null","null","<p style=""font-size: 60px; font-family: BACS"">YJLcAOQAr</p>","","","","","","","","",""
"html-keyboard-response","225","336280","0.0-11.0-0.56","5f60713e595007000a8e1da7","64e77d7b61f440b60e28659d","64ecad827a7d5f570085fd32","null","null","<p style=""font-size: 60px; font-family: BACS"">NAacQrNlZ</p>","","","","","","","","",""
"html-keyboard-response","226","337289","0.0-11.0-0.57","5f60713e595007000a8e1da7","64e77d7b61f440b60e28659d","64ecad827a7d5f570085fd32","null","null","<p style=""font-size: 60px; font-family: BACS"">rGUAYcUN</p>","","","","","","","","",""
"html-keyboard-response","227","338290","0.0-11.0-0.58","5f60713e595007000a8e1da7","64e77d7b61f440b60e28659d","64ecad827a7d5f570085fd32","null","null","<p style=""font-size: 60px; font-family: BACS"">uQkrdrNlZ</p>","","","","","","","","",""
"html-keyboard-response","228","339296","0.0-11.0-0.59","5f60713e595007000a8e1da7","64e77d7b61f440b60e28659d","64ecad827a7d5f570085fd32","null","null","<p style=""font-size: 60px; font-family: BACS"">QcQAJOJlN</p>","","","","","","","","",""
"html-keyboard-response","229","340306","0.0-11.0-0.60","5f60713e595007000a8e1da7","64e77d7b61f440b60e28659d","64ecad827a7d5f570085fd32","null","null","<p style=""font-size: 60px; font-family: BACS"">bRABtmhc</p>","","","","","","","","",""
"html-keyboard-response","230","341312","0.0-11.0-0.61","5f60713e595007000a8e1da7","64e77d7b61f440b60e28659d","64ecad827a7d5f570085fd32","null","null","<p style=""font-size: 60px; font-family: BACS"">QcQAJOQAr</p>","","","","","","","","",""
"html-keyboard-response","231","342319","0.0-11.0-0.62","5f60713e595007000a8e1da7","64e77d7b61f440b60e28659d","64ecad827a7d5f570085fd32","null","null","<p style=""font-size: 60px; font-family: BACS"">mhtcmhc</p>","","","","","","","","",""
"html-keyboard-response","232","343327","0.0-11.0-0.63","5f60713e595007000a8e1da7","64e77d7b61f440b60e28659d","64ecad827a7d5f570085fd32","null","null","<p style=""font-size: 60px; font-family: BACS"">YJLcArNlZ</p>","","","","","","","","",""
"html-keyboard-response","233","344331","0.0-11.0-0.64","5f60713e595007000a8e1da7","64e77d7b61f440b60e28659d","64ecad827a7d5f570085fd32","null","null","<p style=""font-size: 60px; font-family: BACS"">QOLmuNUZ</p>","","","","","","","","",""
"html-keyboard-response","234","345344","0.0-11.0-0.65","5f60713e595007000a8e1da7","64e77d7b61f440b60e28659d","64ecad827a7d5f570085fd32","null","null","<p style=""font-size: 60px; font-family: BACS"">bRABtAdYl</p>","","","","","","","","",""
"html-keyboard-response","235","346358","0.0-11.0-0.66","5f60713e595007000a8e1da7","64e77d7b61f440b60e28659d","64ecad827a7d5f570085fd32","null","null","<p style=""font-size: 60px; font-family: BACS"">OYuvbNUZ</p>","","","","","","","","",""
"html-keyboard-response","236","347364","0.0-11.0-0.67","5f60713e595007000a8e1da7","64e77d7b61f440b60e28659d","64ecad827a7d5f570085fd32","null","null","<p style=""font-size: 60px; font-family: BACS"">kGlUcUN</p>","","","","","","","","",""
"html-keyboard-response","237","348375","0.0-11.0-0.68","5f60713e595007000a8e1da7","64e77d7b61f440b60e28659d","64ecad827a7d5f570085fd32","null","null","<p style=""font-size: 60px; font-family: BACS"">hTDdAdYl</p>","","","","","","","","",""
"html-keyboard-response","238","349388","0.0-11.0-0.69","5f60713e595007000a8e1da7","64e77d7b61f440b60e28659d","64ecad827a7d5f570085fd32","null","null","<p style=""font-size: 60px; font-family: BACS"">JvaAOQAr</p>","","","","","","","","",""
"html-keyboard-response","239","350395","0.0-11.0-0.70","5f60713e595007000a8e1da7","64e77d7b61f440b60e28659d","64ecad827a7d5f570085fd32","null","null","<p style=""font-size: 60px; font-family: BACS"">thbOMAdYl</p>","","","","","","","","",""
"html-keyboard-response","240","351406","0.0-11.0-0.71","5f60713e595007000a8e1da7","64e77d7b61f440b60e28659d","64ecad827a7d5f570085fd32","null","null","<p style=""font-size: 60px; font-family: BACS"">rGUAYrNlZ</p>","","","","","","","","",""
"html-keyboard-response","241","352407","0.0-11.0-0.72","5f60713e595007000a8e1da7","64e77d7b61f440b60e28659d","64ecad827a7d5f570085fd32","null","null","<p style=""font-size: 60px; font-family: BACS"">mhtcAdYl</p>","","","","","","","","",""
"html-keyboard-response","242","353418","0.0-11.0-0.73","5f60713e595007000a8e1da7","64e77d7b61f440b60e28659d","64ecad827a7d5f570085fd32","null","null","<p style=""font-size: 60px; font-family: BACS"">JvaAcUN</p>","","","","","","","","",""
"html-keyboard-response","243","354424","0.0-11.0-0.74","5f60713e595007000a8e1da7","64e77d7b61f440b60e28659d","64ecad827a7d5f570085fd32","null","null","<p style=""font-size: 60px; font-family: BACS"">UrOQOQAr</p>","","","","","","","","",""
"html-keyboard-response","244","355432","0.0-11.0-0.75","5f60713e595007000a8e1da7","64e77d7b61f440b60e28659d","64ecad827a7d5f570085fd32","null","null","<p style=""font-size: 60px; font-family: BACS"">uQkrdOJlN</p>","","","","","","","","",""
"html-keyboard-response","245","356438","0.0-11.0-0.76","5f60713e595007000a8e1da7","64e77d7b61f440b60e28659d","64ecad827a7d5f570085fd32","null","null","<p style=""font-size: 60px; font-family: BACS"">TEBKEcR</p>","","","","","","","","",""
"html-keyboard-response","246","357453","0.0-11.0-0.77","5f60713e595007000a8e1da7","64e77d7b61f440b60e28659d","64ecad827a7d5f570085fd32","null","null","<p style=""font-size: 60px; font-family: BACS"">YJLcAOJlN</p>","","","","","","","","",""
"html-keyboard-response","247","358459","0.0-11.0-0.78","5f60713e595007000a8e1da7","64e77d7b61f440b60e28659d","64ecad827a7d5f570085fd32","null","null","<p style=""font-size: 60px; font-family: BACS"">mhtcEcR</p>","","","","","","","","",""
"html-keyboard-response","248","359468","0.0-11.0-0.79","5f60713e595007000a8e1da7","64e77d7b61f440b60e28659d","64ecad827a7d5f570085fd32","null","null","<p style=""font-size: 60px; font-family: BACS"">btlckAdYl</p>","","","","","","","","",""
"html-keyboard-response","249","362628","0.0-12.0","5f60713e595007000a8e1da7","64e77d7b61f440b60e28659d","64ecad827a7d5f570085fd32","3159"," ","<p>Great, you've seen the third block of words. You may now take a short break.</p>
      <p>Press the spacebar when you're ready to continue.</p>","","","","","","","","",""
"html-keyboard-response","250","363633","0.0-13.0-0.0","5f60713e595007000a8e1da7","64e77d7b61f440b60e28659d","64ecad827a7d5f570085fd32","null","null","<p style=""font-size: 60px; font-family: BACS"">hAROKAdYl</p>","","","","","","","","",""
"html-keyboard-response","251","364640","0.0-13.0-0.1","5f60713e595007000a8e1da7","64e77d7b61f440b60e28659d","64ecad827a7d5f570085fd32","null","null","<p style=""font-size: 60px; font-family: BACS"">YJLcArNlZ</p>","","","","","","","","",""
"html-keyboard-response","252","365651","0.0-13.0-0.2","5f60713e595007000a8e1da7","64e77d7b61f440b60e28659d","64ecad827a7d5f570085fd32","null","null","<p style=""font-size: 60px; font-family: BACS"">TEBKmtKP</p>","","","","","","","","",""
"html-keyboard-response","253","366657","0.0-13.0-0.3","5f60713e595007000a8e1da7","64e77d7b61f440b60e28659d","64ecad827a7d5f570085fd32","null","null","<p style=""font-size: 60px; font-family: BACS"">rGUAYOQAr</p>","","","","","","","","",""
"html-keyboard-response","254","367662","0.0-13.0-0.4","5f60713e595007000a8e1da7","64e77d7b61f440b60e28659d","64ecad827a7d5f570085fd32","null","null","<p style=""font-size: 60px; font-family: BACS"">RKYkEKBO</p>","","","","","","","","",""
"html-keyboard-response","255","368670","0.0-13.0-0.5","5f60713e595007000a8e1da7","64e77d7b61f440b60e28659d","64ecad827a7d5f570085fd32","null","null","<p style=""font-size: 60px; font-family: BACS"">bRABtmtKP</p>","","","","","","","","",""
"html-keyboard-response","256","369680","0.0-13.0-0.6","5f60713e595007000a8e1da7","64e77d7b61f440b60e28659d","64ecad827a7d5f570085fd32","null","null","<p style=""font-size: 60px; font-family: BACS"">UrOQNUZ</p>","","","","","","","","",""
"html-keyboard-response","257","370689","0.0-13.0-0.7","5f60713e595007000a8e1da7","64e77d7b61f440b60e28659d","64ecad827a7d5f570085fd32","null","null","<p style=""font-size: 60px; font-family: BACS"">thbOMEKBO</p>","","","","","","","","",""
"html-keyboard-response","258","371696","0.0-13.0-0.8","5f60713e595007000a8e1da7","64e77d7b61f440b60e28659d","64ecad827a7d5f570085fd32","null","null","<p style=""font-size: 60px; font-family: BACS"">TEBKmhc</p>","","","","","","","","",""
"html-keyboard-response","259","372704","0.0-13.0-0.9","5f60713e595007000a8e1da7","64e77d7b61f440b60e28659d","64ecad827a7d5f570085fd32","null","null","<p style=""font-size: 60px; font-family: BACS"">QcQAJOQAr</p>","","","","","","","","",""
"html-keyboard-response","260","373715","0.0-13.0-0.10","5f60713e595007000a8e1da7","64e77d7b61f440b60e28659d","64ecad827a7d5f570085fd32","null","null","<p style=""font-size: 60px; font-family: BACS"">JvaArNlZ</p>","","","","","","","","",""
"html-keyboard-response","261","374724","0.0-13.0-0.11","5f60713e595007000a8e1da7","64e77d7b61f440b60e28659d","64ecad827a7d5f570085fd32","null","null","<p style=""font-size: 60px; font-family: BACS"">uQkrdNUZ</p>","","","","","","","","",""
"html-keyboard-response","262","375730","0.0-13.0-0.12","5f60713e595007000a8e1da7","64e77d7b61f440b60e28659d","64ecad827a7d5f570085fd32","null","null","<p style=""font-size: 60px; font-family: BACS"">bRABtEcR</p>","","","","","","","","",""
"html-keyboard-response","263","376730","0.0-13.0-0.13","5f60713e595007000a8e1da7","64e77d7b61f440b60e28659d","64ecad827a7d5f570085fd32","null","null","<p style=""font-size: 60px; font-family: BACS"">QOLmucUN</p>","","","","","","","","",""
"html-keyboard-response","264","377745","0.0-13.0-0.14","5f60713e595007000a8e1da7","64e77d7b61f440b60e28659d","64ecad827a7d5f570085fd32","null","null","<p style=""font-size: 60px; font-family: BACS"">bAdkmhc</p>","","","","","","","","",""
"html-keyboard-response","265","378749","0.0-13.0-0.15","5f60713e595007000a8e1da7","64e77d7b61f440b60e28659d","64ecad827a7d5f570085fd32","null","null","<p style=""font-size: 60px; font-family: BACS"">NAacQrNlZ</p>","","","","","","","","",""
"html-keyboard-response","266","379758","0.0-13.0-0.16","5f60713e595007000a8e1da7","64e77d7b61f440b60e28659d","64ecad827a7d5f570085fd32","null","null","<p style=""font-size: 60px; font-family: BACS"">mhtcmtKP</p>","","","","","","","","",""
"html-keyboard-response","267","380761","0.0-13.0-0.17","5f60713e595007000a8e1da7","64e77d7b61f440b60e28659d","64ecad827a7d5f570085fd32","null","null","<p style=""font-size: 60px; font-family: BACS"">hTDdAdYl</p>","","","","","","","","",""
"html-keyboard-response","268","381769","0.0-13.0-0.18","5f60713e595007000a8e1da7","64e77d7b61f440b60e28659d","64ecad827a7d5f570085fd32","null","null","<p style=""font-size: 60px; font-family: BACS"">hAROKEcR</p>","","","","","","","","",""
"html-keyboard-response","269","382778","0.0-13.0-0.19","5f60713e595007000a8e1da7","64e77d7b61f440b60e28659d","64ecad827a7d5f570085fd32","null","null","<p style=""font-size: 60px; font-family: BACS"">NAacQOJlN</p>","","","","","","","","",""
"html-keyboard-response","270","383783","0.0-13.0-0.20","5f60713e595007000a8e1da7","64e77d7b61f440b60e28659d","64ecad827a7d5f570085fd32","null","null","<p style=""font-size: 60px; font-family: BACS"">QcQAJNUZ</p>","","","","","","","","",""
"html-keyboard-response","271","384784","0.0-13.0-0.21","5f60713e595007000a8e1da7","64e77d7b61f440b60e28659d","64ecad827a7d5f570085fd32","null","null","<p style=""font-size: 60px; font-family: BACS"">rGUAYcUN</p>","","","","","","","","",""
"html-keyboard-response","272","385786","0.0-13.0-0.22","5f60713e595007000a8e1da7","64e77d7b61f440b60e28659d","64ecad827a7d5f570085fd32","null","null","<p style=""font-size: 60px; font-family: BACS"">hAROKmtKP</p>","","","","","","","","",""
"html-keyboard-response","273","386792","0.0-13.0-0.23","5f60713e595007000a8e1da7","64e77d7b61f440b60e28659d","64ecad827a7d5f570085fd32","null","null","<p style=""font-size: 60px; font-family: BACS"">RKYkmhc</p>","","","","","","","","",""
"html-keyboard-response","274","387798","0.0-13.0-0.24","5f60713e595007000a8e1da7","64e77d7b61f440b60e28659d","64ecad827a7d5f570085fd32","null","null","<p style=""font-size: 60px; font-family: BACS"">rGUAYrNlZ</p>","","","","","","","","",""
"html-keyboard-response","275","388809","0.0-13.0-0.25","5f60713e595007000a8e1da7","64e77d7b61f440b60e28659d","64ecad827a7d5f570085fd32","null","null","<p style=""font-size: 60px; font-family: BACS"">mhtcAdYl</p>","","","","","","","","",""
"html-keyboard-response","276","389816","0.0-13.0-0.26","5f60713e595007000a8e1da7","64e77d7b61f440b60e28659d","64ecad827a7d5f570085fd32","null","null","<p style=""font-size: 60px; font-family: BACS"">JvaAOJlN</p>","","","","","","","","",""
"html-keyboard-response","277","390823","0.0-13.0-0.27","5f60713e595007000a8e1da7","64e77d7b61f440b60e28659d","64ecad827a7d5f570085fd32","null","null","<p style=""font-size: 60px; font-family: BACS"">thbOMAdYl</p>","","","","","","","","",""
"html-keyboard-response","278","391828","0.0-13.0-0.28","5f60713e595007000a8e1da7","64e77d7b61f440b60e28659d","64ecad827a7d5f570085fd32","null","null","<p style=""font-size: 60px; font-family: BACS"">OYuvbrNlZ</p>","","","","","","","","",""
"html-keyboard-response","279","392834","0.0-13.0-0.29","5f60713e595007000a8e1da7","64e77d7b61f440b60e28659d","64ecad827a7d5f570085fd32","null","null","<p style=""font-size: 60px; font-family: BACS"">QOLmuOQAr</p>","","","","","","","","",""
"html-keyboard-response","280","393848","0.0-13.0-0.30","5f60713e595007000a8e1da7","64e77d7b61f440b60e28659d","64ecad827a7d5f570085fd32","null","null","<p style=""font-size: 60px; font-family: BACS"">btlckEKBO</p>","","","","","","","","",""
"html-keyboard-response","281","394852","0.0-13.0-0.31","5f60713e595007000a8e1da7","64e77d7b61f440b60e28659d","64ecad827a7d5f570085fd32","null","null","<p style=""font-size: 60px; font-family: BACS"">NAacQcUN</p>","","","","","","","","",""
"html-keyboard-response","282","395866","0.0-13.0-0.32","5f60713e595007000a8e1da7","64e77d7b61f440b60e28659d","64ecad827a7d5f570085fd32","null","null","<p style=""font-size: 60px; font-family: BACS"">btlckmhc</p>","","","","","","","","",""
"html-keyboard-response","283","396873","0.0-13.0-0.33","5f60713e595007000a8e1da7","64e77d7b61f440b60e28659d","64ecad827a7d5f570085fd32","null","null","<p style=""font-size: 60px; font-family: BACS"">TEBKEcR</p>","","","","","","","","",""
"html-keyboard-response","284","397880","0.0-13.0-0.34","5f60713e595007000a8e1da7","64e77d7b61f440b60e28659d","64ecad827a7d5f570085fd32","null","null","<p style=""font-size: 60px; font-family: BACS"">hTDdEKBO</p>","","","","","","","","",""
"html-keyboard-response","285","398882","0.0-13.0-0.35","5f60713e595007000a8e1da7","64e77d7b61f440b60e28659d","64ecad827a7d5f570085fd32","null","null","<p style=""font-size: 60px; font-family: BACS"">JvaAOQAr</p>","","","","","","","","",""
"html-keyboard-response","286","399883","0.0-13.0-0.36","5f60713e595007000a8e1da7","64e77d7b61f440b60e28659d","64ecad827a7d5f570085fd32","null","null","<p style=""font-size: 60px; font-family: BACS"">YJLcAOJlN</p>","","","","","","","","",""
"html-keyboard-response","287","400888","0.0-13.0-0.37","5f60713e595007000a8e1da7","64e77d7b61f440b60e28659d","64ecad827a7d5f570085fd32","null","null","<p style=""font-size: 60px; font-family: BACS"">hTDdmtKP</p>","","","","","","","","",""
"html-keyboard-response","288","401896","0.0-13.0-0.38","5f60713e595007000a8e1da7","64e77d7b61f440b60e28659d","64ecad827a7d5f570085fd32","null","null","<p style=""font-size: 60px; font-family: BACS"">UrOQcUN</p>","","","","","","","","",""
"html-keyboard-response","289","402903","0.0-13.0-0.39","5f60713e595007000a8e1da7","64e77d7b61f440b60e28659d","64ecad827a7d5f570085fd32","null","null","<p style=""font-size: 60px; font-family: BACS"">NAacQNUZ</p>","","","","","","","","",""
"html-keyboard-response","290","403908","0.0-13.0-0.40","5f60713e595007000a8e1da7","64e77d7b61f440b60e28659d","64ecad827a7d5f570085fd32","null","null","<p style=""font-size: 60px; font-family: BACS"">bRABtmhc</p>","","","","","","","","",""
"html-keyboard-response","291","404915","0.0-13.0-0.41","5f60713e595007000a8e1da7","64e77d7b61f440b60e28659d","64ecad827a7d5f570085fd32","null","null","<p style=""font-size: 60px; font-family: BACS"">bAdkEcR</p>","","","","","","","","",""
"html-keyboard-response","292","405923","0.0-13.0-0.42","5f60713e595007000a8e1da7","64e77d7b61f440b60e28659d","64ecad827a7d5f570085fd32","null","null","<p style=""font-size: 60px; font-family: BACS"">mhtcmhc</p>","","","","","","","","",""
"html-keyboard-response","293","406928","0.0-13.0-0.43","5f60713e595007000a8e1da7","64e77d7b61f440b60e28659d","64ecad827a7d5f570085fd32","null","null","<p style=""font-size: 60px; font-family: BACS"">RKYkAdYl</p>","","","","","","","","",""
"html-keyboard-response","294","407931","0.0-13.0-0.44","5f60713e595007000a8e1da7","64e77d7b61f440b60e28659d","64ecad827a7d5f570085fd32","null","null","<p style=""font-size: 60px; font-family: BACS"">UrOQrNlZ</p>","","","","","","","","",""
"html-keyboard-response","295","408940","0.0-13.0-0.45","5f60713e595007000a8e1da7","64e77d7b61f440b60e28659d","64ecad827a7d5f570085fd32","null","null","<p style=""font-size: 60px; font-family: BACS"">kGlUcUN</p>","","","","","","","","",""
"html-keyboard-response","296","409946","0.0-13.0-0.46","5f60713e595007000a8e1da7","64e77d7b61f440b60e28659d","64ecad827a7d5f570085fd32","null","null","<p style=""font-size: 60px; font-family: BACS"">hlbtbmtKP</p>","","","","","","","","",""
"html-keyboard-response","297","410957","0.0-13.0-0.47","5f60713e595007000a8e1da7","64e77d7b61f440b60e28659d","64ecad827a7d5f570085fd32","null","null","<p style=""font-size: 60px; font-family: BACS"">hTDdmhc</p>","","","","","","","","",""
"html-keyboard-response","298","411962","0.0-13.0-0.48","5f60713e595007000a8e1da7","64e77d7b61f440b60e28659d","64ecad827a7d5f570085fd32","null","null","<p style=""font-size: 60px; font-family: BACS"">thbOMmtKP</p>","","","","","","","","",""
"html-keyboard-response","299","412966","0.0-13.0-0.49","5f60713e595007000a8e1da7","64e77d7b61f440b60e28659d","64ecad827a7d5f570085fd32","null","null","<p style=""font-size: 60px; font-family: BACS"">kGlUOQAr</p>","","","","","","","","",""
"html-keyboard-response","300","413974","0.0-13.0-0.50","5f60713e595007000a8e1da7","64e77d7b61f440b60e28659d","64ecad827a7d5f570085fd32","null","null","<p style=""font-size: 60px; font-family: BACS"">bAdkAdYl</p>","","","","","","","","",""
"html-keyboard-response","301","414981","0.0-13.0-0.51","5f60713e595007000a8e1da7","64e77d7b61f440b60e28659d","64ecad827a7d5f570085fd32","null","null","<p style=""font-size: 60px; font-family: BACS"">mhtcEcR</p>","","","","","","","","",""
"html-keyboard-response","302","415992","0.0-13.0-0.52","5f60713e595007000a8e1da7","64e77d7b61f440b60e28659d","64ecad827a7d5f570085fd32","null","null","<p style=""font-size: 60px; font-family: BACS"">bAdkEKBO</p>","","","","","","","","",""
"html-keyboard-response","303","416996","0.0-13.0-0.53","5f60713e595007000a8e1da7","64e77d7b61f440b60e28659d","64ecad827a7d5f570085fd32","null","null","<p style=""font-size: 60px; font-family: BACS"">kGlUNUZ</p>","","","","","","","","",""
"html-keyboard-response","304","417999","0.0-13.0-0.54","5f60713e595007000a8e1da7","64e77d7b61f440b60e28659d","64ecad827a7d5f570085fd32","null","null","<p style=""font-size: 60px; font-family: BACS"">rGUAYOJlN</p>","","","","","","","","",""
"html-keyboard-response","305","419007","0.0-13.0-0.55","5f60713e595007000a8e1da7","64e77d7b61f440b60e28659d","64ecad827a7d5f570085fd32","null","null","<p style=""font-size: 60px; font-family: BACS"">hAROKEKBO</p>","","","","","","","","",""
"html-keyboard-response","306","420016","0.0-13.0-0.56","5f60713e595007000a8e1da7","64e77d7b61f440b60e28659d","64ecad827a7d5f570085fd32","null","null","<p style=""font-size: 60px; font-family: BACS"">OYuvbNUZ</p>","","","","","","","","",""
"html-keyboard-response","307","421021","0.0-13.0-0.57","5f60713e595007000a8e1da7","64e77d7b61f440b60e28659d","64ecad827a7d5f570085fd32","null","null","<p style=""font-size: 60px; font-family: BACS"">btlckAdYl</p>","","","","","","","","",""
"html-keyboard-response","308","422029","0.0-13.0-0.58","5f60713e595007000a8e1da7","64e77d7b61f440b60e28659d","64ecad827a7d5f570085fd32","null","null","<p style=""font-size: 60px; font-family: BACS"">hlbtbmhc</p>","","","","","","","","",""
"html-keyboard-response","309","423038","0.0-13.0-0.59","5f60713e595007000a8e1da7","64e77d7b61f440b60e28659d","64ecad827a7d5f570085fd32","null","null","<p style=""font-size: 60px; font-family: BACS"">thbOMEcR</p>","","","","","","","","",""
"html-keyboard-response","310","424046","0.0-13.0-0.60","5f60713e595007000a8e1da7","64e77d7b61f440b60e28659d","64ecad827a7d5f570085fd32","null","null","<p style=""font-size: 60px; font-family: BACS"">uQkrdcUN</p>","","","","","","","","",""
"html-keyboard-response","311","425055","0.0-13.0-0.61","5f60713e595007000a8e1da7","64e77d7b61f440b60e28659d","64ecad827a7d5f570085fd32","null","null","<p style=""font-size: 60px; font-family: BACS"">QcQAJOJlN</p>","","","","","","","","",""
"html-keyboard-response","312","426062","0.0-13.0-0.62","5f60713e595007000a8e1da7","64e77d7b61f440b60e28659d","64ecad827a7d5f570085fd32","null","null","<p style=""font-size: 60px; font-family: BACS"">QOLmuNUZ</p>","","","","","","","","",""
"html-keyboard-response","313","427069","0.0-13.0-0.63","5f60713e595007000a8e1da7","64e77d7b61f440b60e28659d","64ecad827a7d5f570085fd32","null","null","<p style=""font-size: 60px; font-family: BACS"">hlbtbEKBO</p>","","","","","","","","",""
"html-keyboard-response","314","428076","0.0-13.0-0.64","5f60713e595007000a8e1da7","64e77d7b61f440b60e28659d","64ecad827a7d5f570085fd32","null","null","<p style=""font-size: 60px; font-family: BACS"">QcQAJcUN</p>","","","","","","","","",""
"html-keyboard-response","315","429085","0.0-13.0-0.65","5f60713e595007000a8e1da7","64e77d7b61f440b60e28659d","64ecad827a7d5f570085fd32","null","null","<p style=""font-size: 60px; font-family: BACS"">uQkrdOJlN</p>","","","","","","","","",""
"html-keyboard-response","316","430092","0.0-13.0-0.66","5f60713e595007000a8e1da7","64e77d7b61f440b60e28659d","64ecad827a7d5f570085fd32","null","null","<p style=""font-size: 60px; font-family: BACS"">UrOQOQAr</p>","","","","","","","","",""
"html-keyboard-response","317","431099","0.0-13.0-0.67","5f60713e595007000a8e1da7","64e77d7b61f440b60e28659d","64ecad827a7d5f570085fd32","null","null","<p style=""font-size: 60px; font-family: BACS"">JvaAcUN</p>","","","","","","","","",""
"html-keyboard-response","318","432103","0.0-13.0-0.68","5f60713e595007000a8e1da7","64e77d7b61f440b60e28659d","64ecad827a7d5f570085fd32","null","null","<p style=""font-size: 60px; font-family: BACS"">OYuvbOJlN</p>","","","","","","","","",""
"html-keyboard-response","319","433111","0.0-13.0-0.69","5f60713e595007000a8e1da7","64e77d7b61f440b60e28659d","64ecad827a7d5f570085fd32","null","null","<p style=""font-size: 60px; font-family: BACS"">btlckmtKP</p>","","","","","","","","",""
"html-keyboard-response","320","434117","0.0-13.0-0.70","5f60713e595007000a8e1da7","64e77d7b61f440b60e28659d","64ecad827a7d5f570085fd32","null","null","<p style=""font-size: 60px; font-family: BACS"">YJLcANUZ</p>","","","","","","","","",""
"html-keyboard-response","321","435123","0.0-13.0-0.71","5f60713e595007000a8e1da7","64e77d7b61f440b60e28659d","64ecad827a7d5f570085fd32","null","null","<p style=""font-size: 60px; font-family: BACS"">uQkrdrNlZ</p>","","","","","","","","",""
"html-keyboard-response","322","436132","0.0-13.0-0.72","5f60713e595007000a8e1da7","64e77d7b61f440b60e28659d","64ecad827a7d5f570085fd32","null","null","<p style=""font-size: 60px; font-family: BACS"">OYuvbOQAr</p>","","","","","","","","",""
"html-keyboard-response","323","437138","0.0-13.0-0.73","5f60713e595007000a8e1da7","64e77d7b61f440b60e28659d","64ecad827a7d5f570085fd32","null","null","<p style=""font-size: 60px; font-family: BACS"">hlbtbEcR</p>","","","","","","","","",""
"html-keyboard-response","324","438147","0.0-13.0-0.74","5f60713e595007000a8e1da7","64e77d7b61f440b60e28659d","64ecad827a7d5f570085fd32","null","null","<p style=""font-size: 60px; font-family: BACS"">YJLcAOQAr</p>","","","","","","","","",""
"html-keyboard-response","325","439147","0.0-13.0-0.75","5f60713e595007000a8e1da7","64e77d7b61f440b60e28659d","64ecad827a7d5f570085fd32","null","null","<p style=""font-size: 60px; font-family: BACS"">QOLmuOJlN</p>","","","","","","","","",""
"html-keyboard-response","326","440149","0.0-13.0-0.76","5f60713e595007000a8e1da7","64e77d7b61f440b60e28659d","64ecad827a7d5f570085fd32","null","null","<p style=""font-size: 60px; font-family: BACS"">TEBKEKBO</p>","","","","","","","","",""
"html-keyboard-response","327","441159","0.0-13.0-0.77","5f60713e595007000a8e1da7","64e77d7b61f440b60e28659d","64ecad827a7d5f570085fd32","null","null","<p style=""font-size: 60px; font-family: BACS"">kGlUrNlZ</p>","","","","","","","","",""
"html-keyboard-response","328","442168","0.0-13.0-0.78","5f60713e595007000a8e1da7","64e77d7b61f440b60e28659d","64ecad827a7d5f570085fd32","null","null","<p style=""font-size: 60px; font-family: BACS"">RKYkEcR</p>","","","","","","","","",""
"html-keyboard-response","329","443184","0.0-13.0-0.79","5f60713e595007000a8e1da7","64e77d7b61f440b60e28659d","64ecad827a7d5f570085fd32","null","null","<p style=""font-size: 60px; font-family: BACS"">bRABtAdYl</p>","","","","","","","","",""
"html-keyboard-response","330","446443","0.0-14.0","5f60713e595007000a8e1da7","64e77d7b61f440b60e28659d","64ecad827a7d5f570085fd32","3259"," ","<p>Great, you've seen the fourth block of words. You may now take a short break.</p>
      <p>Press the spacebar when you're ready to continue.</p>","","","","","","","","",""
"html-keyboard-response","331","447454","0.0-15.0-0.0","5f60713e595007000a8e1da7","64e77d7b61f440b60e28659d","64ecad827a7d5f570085fd32","null","null","<p style=""font-size: 60px; font-family: BACS"">thbOMmtKP</p>","","","","","","","","",""
"html-keyboard-response","332","448463","0.0-15.0-0.1","5f60713e595007000a8e1da7","64e77d7b61f440b60e28659d","64ecad827a7d5f570085fd32","null","null","<p style=""font-size: 60px; font-family: BACS"">thbOMmtKP</p>","","","","","","","","",""
"html-keyboard-response","333","449469","0.0-15.0-0.2","5f60713e595007000a8e1da7","64e77d7b61f440b60e28659d","64ecad827a7d5f570085fd32","null","null","<p style=""font-size: 60px; font-family: BACS"">thbOMmtKP</p>","","","","","","","","",""
"html-keyboard-response","334","450470","0.0-15.0-0.3","5f60713e595007000a8e1da7","64e77d7b61f440b60e28659d","64ecad827a7d5f570085fd32","null","null","<p style=""font-size: 60px; font-family: BACS"">thbOMmtKP</p>","","","","","","","","",""
"html-keyboard-response","335","451480","0.0-15.0-0.4","5f60713e595007000a8e1da7","64e77d7b61f440b60e28659d","64ecad827a7d5f570085fd32","null","null","<p style=""font-size: 60px; font-family: BACS"">thbOMmtKP</p>","","","","","","","","",""
"html-keyboard-response","336","452482","0.0-15.0-0.5","5f60713e595007000a8e1da7","64e77d7b61f440b60e28659d","64ecad827a7d5f570085fd32","null","null","<p style=""font-size: 60px; font-family: BACS"">thbOMmtKP</p>","","","","","","","","",""
"html-keyboard-response","337","453482","0.0-15.0-0.6","5f60713e595007000a8e1da7","64e77d7b61f440b60e28659d","64ecad827a7d5f570085fd32","null","null","<p style=""font-size: 60px; font-family: BACS"">thbOMmtKP</p>","","","","","","","","",""
"html-keyboard-response","338","454485","0.0-15.0-0.7","5f60713e595007000a8e1da7","64e77d7b61f440b60e28659d","64ecad827a7d5f570085fd32","null","null","<p style=""font-size: 60px; font-family: BACS"">thbOMmtKP</p>","","","","","","","","",""
"html-keyboard-response","339","455492","0.0-15.0-0.8","5f60713e595007000a8e1da7","64e77d7b61f440b60e28659d","64ecad827a7d5f570085fd32","null","null","<p style=""font-size: 60px; font-family: BACS"">thbOMmtKP</p>","","","","","","","","",""
"html-keyboard-response","340","456492","0.0-15.0-0.9","5f60713e595007000a8e1da7","64e77d7b61f440b60e28659d","64ecad827a7d5f570085fd32","null","null","<p style=""font-size: 60px; font-family: BACS"">thbOMmtKP</p>","","","","","","","","",""
"html-keyboard-response","341","457505","0.0-15.0-0.10","5f60713e595007000a8e1da7","64e77d7b61f440b60e28659d","64ecad827a7d5f570085fd32","null","null","<p style=""font-size: 60px; font-family: BACS"">thbOMmtKP</p>","","","","","","","","",""
"html-keyboard-response","342","458511","0.0-15.0-0.11","5f60713e595007000a8e1da7","64e77d7b61f440b60e28659d","64ecad827a7d5f570085fd32","null","null","<p style=""font-size: 60px; font-family: BACS"">thbOMmtKP</p>","","","","","","","","",""
"html-keyboard-response","343","459519","0.0-15.0-0.12","5f60713e595007000a8e1da7","64e77d7b61f440b60e28659d","64ecad827a7d5f570085fd32","null","null","<p style=""font-size: 60px; font-family: BACS"">thbOMmtKP</p>","","","","","","","","",""
"html-keyboard-response","344","460524","0.0-15.0-0.13","5f60713e595007000a8e1da7","64e77d7b61f440b60e28659d","64ecad827a7d5f570085fd32","null","null","<p style=""font-size: 60px; font-family: BACS"">thbOMmtKP</p>","","","","","","","","",""
"html-keyboard-response","345","461538","0.0-15.0-0.14","5f60713e595007000a8e1da7","64e77d7b61f440b60e28659d","64ecad827a7d5f570085fd32","null","null","<p style=""font-size: 60px; font-family: BACS"">thbOMmtKP</p>","","","","","","","","",""
"html-keyboard-response","346","462545","0.0-15.0-0.15","5f60713e595007000a8e1da7","64e77d7b61f440b60e28659d","64ecad827a7d5f570085fd32","null","null","<p style=""font-size: 60px; font-family: BACS"">thbOMmtKP</p>","","","","","","","","",""
"html-keyboard-response","347","463562","0.0-15.0-0.16","5f60713e595007000a8e1da7","64e77d7b61f440b60e28659d","64ecad827a7d5f570085fd32","null","null","<p style=""font-size: 60px; font-family: BACS"">thbOMmtKP</p>","","","","","","","","",""
"html-keyboard-response","348","464568","0.0-15.0-0.17","5f60713e595007000a8e1da7","64e77d7b61f440b60e28659d","64ecad827a7d5f570085fd32","null","null","<p style=""font-size: 60px; font-family: BACS"">thbOMmtKP</p>","","","","","","","","",""
"html-keyboard-response","349","465573","0.0-15.0-0.18","5f60713e595007000a8e1da7","64e77d7b61f440b60e28659d","64ecad827a7d5f570085fd32","null","null","<p style=""font-size: 60px; font-family: BACS"">thbOMmtKP</p>","","","","","","","","",""
"html-keyboard-response","350","466579","0.0-15.0-0.19","5f60713e595007000a8e1da7","64e77d7b61f440b60e28659d","64ecad827a7d5f570085fd32","null","null","<p style=""font-size: 60px; font-family: BACS"">thbOMmtKP</p>","","","","","","","","",""
"html-keyboard-response","351","467586","0.0-15.0-0.20","5f60713e595007000a8e1da7","64e77d7b61f440b60e28659d","64ecad827a7d5f570085fd32","null","null","<p style=""font-size: 60px; font-family: BACS"">thbOMmtKP</p>","","","","","","","","",""
"html-keyboard-response","352","468592","0.0-15.0-0.21","5f60713e595007000a8e1da7","64e77d7b61f440b60e28659d","64ecad827a7d5f570085fd32","null","null","<p style=""font-size: 60px; font-family: BACS"">thbOMmtKP</p>","","","","","","","","",""
"html-keyboard-response","353","469599","0.0-15.0-0.22","5f60713e595007000a8e1da7","64e77d7b61f440b60e28659d","64ecad827a7d5f570085fd32","null","null","<p style=""font-size: 60px; font-family: BACS"">thbOMmtKP</p>","","","","","","","","",""
"html-keyboard-response","354","470602","0.0-15.0-0.23","5f60713e595007000a8e1da7","64e77d7b61f440b60e28659d","64ecad827a7d5f570085fd32","null","null","<p style=""font-size: 60px; font-family: BACS"">thbOMmtKP</p>","","","","","","","","",""
"html-keyboard-response","355","471608","0.0-15.0-0.24","5f60713e595007000a8e1da7","64e77d7b61f440b60e28659d","64ecad827a7d5f570085fd32","null","null","<p style=""font-size: 60px; font-family: BACS"">thbOMmtKP</p>","","","","","","","","",""
"html-keyboard-response","356","472611","0.0-15.0-0.25","5f60713e595007000a8e1da7","64e77d7b61f440b60e28659d","64ecad827a7d5f570085fd32","null","null","<p style=""font-size: 60px; font-family: BACS"">thbOMmtKP</p>","","","","","","","","",""
"html-keyboard-response","357","473618","0.0-15.0-0.26","5f60713e595007000a8e1da7","64e77d7b61f440b60e28659d","64ecad827a7d5f570085fd32","null","null","<p style=""font-size: 60px; font-family: BACS"">thbOMmtKP</p>","","","","","","","","",""
"html-keyboard-response","358","474627","0.0-15.0-0.27","5f60713e595007000a8e1da7","64e77d7b61f440b60e28659d","64ecad827a7d5f570085fd32","null","null","<p style=""font-size: 60px; font-family: BACS"">thbOMmtKP</p>","","","","","","","","",""
"html-keyboard-response","359","475630","0.0-15.0-0.28","5f60713e595007000a8e1da7","64e77d7b61f440b60e28659d","64ecad827a7d5f570085fd32","null","null","<p style=""font-size: 60px; font-family: BACS"">thbOMmtKP</p>","","","","","","","","",""
"html-keyboard-response","360","476636","0.0-15.0-0.29","5f60713e595007000a8e1da7","64e77d7b61f440b60e28659d","64ecad827a7d5f570085fd32","null","null","<p style=""font-size: 60px; font-family: BACS"">thbOMmtKP</p>","","","","","","","","",""
"html-keyboard-response","361","477648","0.0-15.0-0.30","5f60713e595007000a8e1da7","64e77d7b61f440b60e28659d","64ecad827a7d5f570085fd32","null","null","<p style=""font-size: 60px; font-family: BACS"">thbOMmtKP</p>","","","","","","","","",""
"html-keyboard-response","362","478653","0.0-15.0-0.31","5f60713e595007000a8e1da7","64e77d7b61f440b60e28659d","64ecad827a7d5f570085fd32","null","null","<p style=""font-size: 60px; font-family: BACS"">thbOMmtKP</p>","","","","","","","","",""
"html-keyboard-response","363","479658","0.0-15.0-0.32","5f60713e595007000a8e1da7","64e77d7b61f440b60e28659d","64ecad827a7d5f570085fd32","null","null","<p style=""font-size: 60px; font-family: BACS"">thbOMmtKP</p>","","","","","","","","",""
"html-keyboard-response","364","480668","0.0-15.0-0.33","5f60713e595007000a8e1da7","64e77d7b61f440b60e28659d","64ecad827a7d5f570085fd32","null","null","<p style=""font-size: 60px; font-family: BACS"">thbOMmtKP</p>","","","","","","","","",""
"html-keyboard-response","365","481677","0.0-15.0-0.34","5f60713e595007000a8e1da7","64e77d7b61f440b60e28659d","64ecad827a7d5f570085fd32","null","null","<p style=""font-size: 60px; font-family: BACS"">thbOMmtKP</p>","","","","","","","","",""
"html-keyboard-response","366","482680","0.0-15.0-0.35","5f60713e595007000a8e1da7","64e77d7b61f440b60e28659d","64ecad827a7d5f570085fd32","null","null","<p style=""font-size: 60px; font-family: BACS"">thbOMmtKP</p>","","","","","","","","",""
"html-keyboard-response","367","483689","0.0-15.0-0.36","5f60713e595007000a8e1da7","64e77d7b61f440b60e28659d","64ecad827a7d5f570085fd32","null","null","<p style=""font-size: 60px; font-family: BACS"">thbOMmtKP</p>","","","","","","","","",""
"html-keyboard-response","368","484693","0.0-15.0-0.37","5f60713e595007000a8e1da7","64e77d7b61f440b60e28659d","64ecad827a7d5f570085fd32","null","null","<p style=""font-size: 60px; font-family: BACS"">thbOMmtKP</p>","","","","","","","","",""
"html-keyboard-response","369","485697","0.0-15.0-0.38","5f60713e595007000a8e1da7","64e77d7b61f440b60e28659d","64ecad827a7d5f570085fd32","null","null","<p style=""font-size: 60px; font-family: BACS"">thbOMmtKP</p>","","","","","","","","",""
"html-keyboard-response","370","486706","0.0-15.0-0.39","5f60713e595007000a8e1da7","64e77d7b61f440b60e28659d","64ecad827a7d5f570085fd32","null","null","<p style=""font-size: 60px; font-family: BACS"">thbOMmtKP</p>","","","","","","","","",""
"html-keyboard-response","371","487711","0.0-15.0-0.40","5f60713e595007000a8e1da7","64e77d7b61f440b60e28659d","64ecad827a7d5f570085fd32","null","null","<p style=""font-size: 60px; font-family: BACS"">thbOMmtKP</p>","","","","","","","","",""
"html-keyboard-response","372","488719","0.0-15.0-0.41","5f60713e595007000a8e1da7","64e77d7b61f440b60e28659d","64ecad827a7d5f570085fd32","null","null","<p style=""font-size: 60px; font-family: BACS"">thbOMmtKP</p>","","","","","","","","",""
"html-keyboard-response","373","489727","0.0-15.0-0.42","5f60713e595007000a8e1da7","64e77d7b61f440b60e28659d","64ecad827a7d5f570085fd32","null","null","<p style=""font-size: 60px; font-family: BACS"">thbOMmtKP</p>","","","","","","","","",""
"html-keyboard-response","374","490730","0.0-15.0-0.43","5f60713e595007000a8e1da7","64e77d7b61f440b60e28659d","64ecad827a7d5f570085fd32","null","null","<p style=""font-size: 60px; font-family: BACS"">thbOMmtKP</p>","","","","","","","","",""
"html-keyboard-response","375","491739","0.0-15.0-0.44","5f60713e595007000a8e1da7","64e77d7b61f440b60e28659d","64ecad827a7d5f570085fd32","null","null","<p style=""font-size: 60px; font-family: BACS"">thbOMmtKP</p>","","","","","","","","",""
"html-keyboard-response","376","492740","0.0-15.0-0.45","5f60713e595007000a8e1da7","64e77d7b61f440b60e28659d","64ecad827a7d5f570085fd32","null","null","<p style=""font-size: 60px; font-family: BACS"">thbOMmtKP</p>","","","","","","","","",""
"html-keyboard-response","377","493742","0.0-15.0-0.46","5f60713e595007000a8e1da7","64e77d7b61f440b60e28659d","64ecad827a7d5f570085fd32","null","null","<p style=""font-size: 60px; font-family: BACS"">thbOMmtKP</p>","","","","","","","","",""
"html-keyboard-response","378","494745","0.0-15.0-0.47","5f60713e595007000a8e1da7","64e77d7b61f440b60e28659d","64ecad827a7d5f570085fd32","null","null","<p style=""font-size: 60px; font-family: BACS"">thbOMmtKP</p>","","","","","","","","",""
"html-keyboard-response","379","495757","0.0-15.0-0.48","5f60713e595007000a8e1da7","64e77d7b61f440b60e28659d","64ecad827a7d5f570085fd32","null","null","<p style=""font-size: 60px; font-family: BACS"">thbOMmtKP</p>","","","","","","","","",""
"html-keyboard-response","380","496760","0.0-15.0-0.49","5f60713e595007000a8e1da7","64e77d7b61f440b60e28659d","64ecad827a7d5f570085fd32","null","null","<p style=""font-size: 60px; font-family: BACS"">thbOMmtKP</p>","","","","","","","","",""
"html-keyboard-response","381","497765","0.0-15.0-0.50","5f60713e595007000a8e1da7","64e77d7b61f440b60e28659d","64ecad827a7d5f570085fd32","null","null","<p style=""font-size: 60px; font-family: BACS"">thbOMmtKP</p>","","","","","","","","",""
"html-keyboard-response","382","498770","0.0-15.0-0.51","5f60713e595007000a8e1da7","64e77d7b61f440b60e28659d","64ecad827a7d5f570085fd32","null","null","<p style=""font-size: 60px; font-family: BACS"">thbOMmtKP</p>","","","","","","","","",""
"html-keyboard-response","383","499779","0.0-15.0-0.52","5f60713e595007000a8e1da7","64e77d7b61f440b60e28659d","64ecad827a7d5f570085fd32","null","null","<p style=""font-size: 60px; font-family: BACS"">thbOMmtKP</p>","","","","","","","","",""
"html-keyboard-response","384","500786","0.0-15.0-0.53","5f60713e595007000a8e1da7","64e77d7b61f440b60e28659d","64ecad827a7d5f570085fd32","null","null","<p style=""font-size: 60px; font-family: BACS"">thbOMmtKP</p>","","","","","","","","",""
"html-keyboard-response","385","501787","0.0-15.0-0.54","5f60713e595007000a8e1da7","64e77d7b61f440b60e28659d","64ecad827a7d5f570085fd32","null","null","<p style=""font-size: 60px; font-family: BACS"">thbOMmtKP</p>","","","","","","","","",""
"html-keyboard-response","386","502803","0.0-15.0-0.55","5f60713e595007000a8e1da7","64e77d7b61f440b60e28659d","64ecad827a7d5f570085fd32","null","null","<p style=""font-size: 60px; font-family: BACS"">thbOMmtKP</p>","","","","","","","","",""
"html-keyboard-response","387","503810","0.0-15.0-0.56","5f60713e595007000a8e1da7","64e77d7b61f440b60e28659d","64ecad827a7d5f570085fd32","null","null","<p style=""font-size: 60px; font-family: BACS"">thbOMmtKP</p>","","","","","","","","",""
"html-keyboard-response","388","504817","0.0-15.0-0.57","5f60713e595007000a8e1da7","64e77d7b61f440b60e28659d","64ecad827a7d5f570085fd32","null","null","<p style=""font-size: 60px; font-family: BACS"">thbOMmtKP</p>","","","","","","","","",""
"html-keyboard-response","389","505821","0.0-15.0-0.58","5f60713e595007000a8e1da7","64e77d7b61f440b60e28659d","64ecad827a7d5f570085fd32","null","null","<p style=""font-size: 60px; font-family: BACS"">thbOMmtKP</p>","","","","","","","","",""
"html-keyboard-response","390","506833","0.0-15.0-0.59","5f60713e595007000a8e1da7","64e77d7b61f440b60e28659d","64ecad827a7d5f570085fd32","null","null","<p style=""font-size: 60px; font-family: BACS"">thbOMmtKP</p>","","","","","","","","",""
"html-keyboard-response","391","507839","0.0-15.0-0.60","5f60713e595007000a8e1da7","64e77d7b61f440b60e28659d","64ecad827a7d5f570085fd32","null","null","<p style=""font-size: 60px; font-family: BACS"">thbOMmtKP</p>","","","","","","","","",""
"html-keyboard-response","392","508845","0.0-15.0-0.61","5f60713e595007000a8e1da7","64e77d7b61f440b60e28659d","64ecad827a7d5f570085fd32","null","null","<p style=""font-size: 60px; font-family: BACS"">thbOMmtKP</p>","","","","","","","","",""
"html-keyboard-response","393","509853","0.0-15.0-0.62","5f60713e595007000a8e1da7","64e77d7b61f440b60e28659d","64ecad827a7d5f570085fd32","null","null","<p style=""font-size: 60px; font-family: BACS"">thbOMmtKP</p>","","","","","","","","",""
"html-keyboard-response","394","510860","0.0-15.0-0.63","5f60713e595007000a8e1da7","64e77d7b61f440b60e28659d","64ecad827a7d5f570085fd32","null","null","<p style=""font-size: 60px; font-family: BACS"">thbOMmtKP</p>","","","","","","","","",""
"html-keyboard-response","395","511872","0.0-15.0-0.64","5f60713e595007000a8e1da7","64e77d7b61f440b60e28659d","64ecad827a7d5f570085fd32","null","null","<p style=""font-size: 60px; font-family: BACS"">thbOMmtKP</p>","","","","","","","","",""
"html-keyboard-response","396","512883","0.0-15.0-0.65","5f60713e595007000a8e1da7","64e77d7b61f440b60e28659d","64ecad827a7d5f570085fd32","null","null","<p style=""font-size: 60px; font-family: BACS"">thbOMmtKP</p>","","","","","","","","",""
"html-keyboard-response","397","513887","0.0-15.0-0.66","5f60713e595007000a8e1da7","64e77d7b61f440b60e28659d","64ecad827a7d5f570085fd32","null","null","<p style=""font-size: 60px; font-family: BACS"">thbOMmtKP</p>","","","","","","","","",""
