"trial_type","trial_index","time_elapsed","internal_node_id","subject_id","study_id","session_id","rt","response","stimulus","success","item","task","correct_response","testing_condition","correct","target","confound","name","view_history"
"pavlovia","0","1886","0.0-0.0","6124a4ba3df07e768bd9c90b","650c16f0f2faf8d7a0d14c09","651c35632c246d387b3b27cd","","","","","","","","","","","","",""
"survey-html-form","1","14996","0.0-1.0","6124a4ba3df07e768bd9c90b","650c16f0f2faf8d7a0d14c09","651c35632c246d387b3b27cd","13104","{""ID"":""6124a4ba3df07e768bd9c90b""}","","","","","","","","","","",""
"html-keyboard-response","2","41017","0.0-2.0","6124a4ba3df07e768bd9c90b","650c16f0f2faf8d7a0d14c09","651c35632c246d387b3b27cd","26017"," ","<p style=""font-size: 15px;"">Before beginning, we ask that you read the consent information and confirm your agreement to participate in the experiment.</p>
      <p style=""font-size: 15px;""> We ask that you remember that this is a research project and that your participation is entirely voluntary. You can stop your participation at any time, without needing to provide any explanation. The study we're asking you to participate in aims at examining how readers process written words. You will be engaged in a session of apprximately 20 minutes, followed by a brief questionnaire. You will have the opportunity to take a few breaks during the experiment. You will be paid £4 for your participation, corresponding to a rate of £8/hour. While this experiment looks at cognitive faculties, this experiment doesn't constitute clinical proof of eventual pathologies.</p>
      <p style=""font-size: 15px;"">All of the information collected thanks to yours and others' participation will be held in a secure password-protected server, and will not be shared with anyone not authorised to view it. Your personal information will be kept with an arbitrary participant ID. Thanks to this data anonymity process, any researcher analysing the data won't be able to track the information back to a specific participant. Therefore, this process will make identifying you impossibile, even when results from the study will be published in scientific reviews, presented at congresses, or at any other public forum. More generally, the collected data will be treated in accordance with the laws on privacy and conformity to the Legislative Degree n. 196 ""Code regarding the protection of personal data"" of the 30th of June 2003 and to the European Regulation 2016/670 (General Data Protection Regulation - GDPR). The Data Protection Officer is Avv. Valentina Carollo, who can be contacted at the following email addresses: <a href=""mailto:dpo@sissa.it"">dpo@sissa.it</a> or <a href=""mailto:rpd@sissa.it"">rpd@sissa.it</a> - PEC: <a href=""mailto:protocollo@pec.sissa.it"">protocollo@pec.sissa.it</a>.</p>
      <p style=""font-size: 15px;""> Before expressing your consent to participate, we would like to remind you again that in case you need explanations on any aspect of the experimental procedure, the researcher is at your disposition (<a href=""mailto:aliebelt@sissa.it"">aliebelt@sissa.it</a>, <a href=""mailto:davide.crepaldi@sissa.it"">davide.crepaldi@sissa.it</a>).</p>
      <p style=""font-size: 15px;"">If you would like to download the informed consent form, you can do so here: <a href=""BASL-Informed_Consent.pdf"" download>informed consent form</a>.</p>
      <p style=""font-size: 15px;"">We ask that you press the spacebar to proceed to the consent section.</p>","","","","","","","","","",""
"survey-html-form","3","65738","0.0-3.0","6124a4ba3df07e768bd9c90b","650c16f0f2faf8d7a0d14c09","651c35632c246d387b3b27cd","24718","{""consent1"":""YES"",""consent2"":""YES"",""consent3"":""YES"",""consent4"":""YES"",""consent5"":""YES"",""consent6"":""YES""}","","","","","","","","","","",""
"fullscreen","4","71995","0.0-4.0","6124a4ba3df07e768bd9c90b","650c16f0f2faf8d7a0d14c09","651c35632c246d387b3b27cd","","","","true","","","","","","","","",""
"html-keyboard-response","5","98985","0.0-5.0","6124a4ba3df07e768bd9c90b","650c16f0f2faf8d7a0d14c09","651c35632c246d387b3b27cd","26986"," ","<p>Welcome, and thank you very much for your time!</p>
      <p>In this experiment, you'll be a language expert who's been asked to take a look at words that Earth has received in its first communication with aliens. Your task, in this first part of the experiment, is to pay close attention to the words you'll be shown; later, world leaders will ask you questions on what you saw. The words will be shown to you quite quickly; it seems that the aliens were in a hurry :-)</p>
      <p>Press the spacebar to continue.<p>","","","","","","","","","",""
"html-keyboard-response","6","99050","0.0-6.0","6124a4ba3df07e768bd9c90b","650c16f0f2faf8d7a0d14c09","651c35632c246d387b3b27cd","null","null","<p style=""font-size: 120px; font-family: BACS""> </p>","","","","","","","","","",""
"html-keyboard-response","7","110398","0.0-7.0","6124a4ba3df07e768bd9c90b","650c16f0f2faf8d7a0d14c09","651c35632c246d387b3b27cd","11347"," ","<p>Here is an example of the words you'll see:</p>
      <img src='esempio.png' height='400px'>
      <p>When you're ready to begin, press the spacebar.</p></div>","","","","","","","","","",""
"html-keyboard-response","8","111404","0.0-8.0-0.0","6124a4ba3df07e768bd9c90b","650c16f0f2faf8d7a0d14c09","651c35632c246d387b3b27cd","null","null","<p style=""font-size: 60px; font-family: BACS"">aYQmYArG</p>","","","","","","","","","",""
"html-keyboard-response","9","112421","0.0-8.0-0.1","6124a4ba3df07e768bd9c90b","650c16f0f2faf8d7a0d14c09","651c35632c246d387b3b27cd","null","null","<p style=""font-size: 60px; font-family: BACS"">ldAadUr</p>","","","","","","","","","",""
"html-keyboard-response","10","113426","0.0-8.0-0.2","6124a4ba3df07e768bd9c90b","650c16f0f2faf8d7a0d14c09","651c35632c246d387b3b27cd","null","null","<p style=""font-size: 60px; font-family: BACS"">EPMDkTAm</p>","","","","","","","","","",""
"html-keyboard-response","11","114438","0.0-8.0-0.3","6124a4ba3df07e768bd9c90b","650c16f0f2faf8d7a0d14c09","651c35632c246d387b3b27cd","null","null","<p style=""font-size: 60px; font-family: BACS"">hTtBbYTOM</p>","","","","","","","","","",""
"html-keyboard-response","12","115469","0.0-8.0-0.4","6124a4ba3df07e768bd9c90b","650c16f0f2faf8d7a0d14c09","651c35632c246d387b3b27cd","null","null","<p style=""font-size: 60px; font-family: BACS"">LcNUJYArG</p>","","","","","","","","","",""
"html-keyboard-response","13","116494","0.0-8.0-0.5","6124a4ba3df07e768bd9c90b","650c16f0f2faf8d7a0d14c09","651c35632c246d387b3b27cd","null","null","<p style=""font-size: 60px; font-family: BACS"">UmNJdUr</p>","","","","","","","","","",""
"html-keyboard-response","14","117516","0.0-8.0-0.6","6124a4ba3df07e768bd9c90b","650c16f0f2faf8d7a0d14c09","651c35632c246d387b3b27cd","null","null","<p style=""font-size: 60px; font-family: BACS"">GJZmUZu</p>","","","","","","","","","",""
"html-keyboard-response","15","118533","0.0-8.0-0.7","6124a4ba3df07e768bd9c90b","650c16f0f2faf8d7a0d14c09","651c35632c246d387b3b27cd","null","null","<p style=""font-size: 60px; font-family: BACS"">PhktkPTl</p>","","","","","","","","","",""
"html-keyboard-response","16","119558","0.0-8.0-0.8","6124a4ba3df07e768bd9c90b","650c16f0f2faf8d7a0d14c09","651c35632c246d387b3b27cd","null","null","<p style=""font-size: 60px; font-family: BACS"">dNZAYArG</p>","","","","","","","","","",""
"html-keyboard-response","17","120581","0.0-8.0-0.9","6124a4ba3df07e768bd9c90b","650c16f0f2faf8d7a0d14c09","651c35632c246d387b3b27cd","null","null","<p style=""font-size: 60px; font-family: BACS"">lRckAOMC</p>","","","","","","","","","",""
"html-keyboard-response","18","121591","0.0-8.0-0.10","6124a4ba3df07e768bd9c90b","650c16f0f2faf8d7a0d14c09","651c35632c246d387b3b27cd","null","null","<p style=""font-size: 60px; font-family: BACS"">LcNUJdUr</p>","","","","","","","","","",""
"html-keyboard-response","19","122615","0.0-8.0-0.11","6124a4ba3df07e768bd9c90b","650c16f0f2faf8d7a0d14c09","651c35632c246d387b3b27cd","null","null","<p style=""font-size: 60px; font-family: BACS"">GJZmYArG</p>","","","","","","","","","",""
"html-keyboard-response","20","123623","0.0-8.0-0.12","6124a4ba3df07e768bd9c90b","650c16f0f2faf8d7a0d14c09","651c35632c246d387b3b27cd","null","null","<p style=""font-size: 60px; font-family: BACS"">PhktkYTOM</p>","","","","","","","","","",""
"html-keyboard-response","21","124638","0.0-8.0-0.13","6124a4ba3df07e768bd9c90b","650c16f0f2faf8d7a0d14c09","651c35632c246d387b3b27cd","null","null","<p style=""font-size: 60px; font-family: BACS"">bvuZdUr</p>","","","","","","","","","",""
"html-keyboard-response","22","125652","0.0-8.0-0.14","6124a4ba3df07e768bd9c90b","650c16f0f2faf8d7a0d14c09","651c35632c246d387b3b27cd","null","null","<p style=""font-size: 60px; font-family: BACS"">RlAKcYTOM</p>","","","","","","","","","",""
"html-keyboard-response","23","126668","0.0-8.0-0.15","6124a4ba3df07e768bd9c90b","650c16f0f2faf8d7a0d14c09","651c35632c246d387b3b27cd","null","null","<p style=""font-size: 60px; font-family: BACS"">GJZmuUY</p>","","","","","","","","","",""
"html-keyboard-response","24","127671","0.0-8.0-0.16","6124a4ba3df07e768bd9c90b","650c16f0f2faf8d7a0d14c09","651c35632c246d387b3b27cd","null","null","<p style=""font-size: 60px; font-family: BACS"">LcNUJGUa</p>","","","","","","","","","",""
"html-keyboard-response","25","128703","0.0-8.0-0.17","6124a4ba3df07e768bd9c90b","650c16f0f2faf8d7a0d14c09","651c35632c246d387b3b27cd","null","null","<p style=""font-size: 60px; font-family: BACS"">hCktOMC</p>","","","","","","","","","",""
"html-keyboard-response","26","129732","0.0-8.0-0.18","6124a4ba3df07e768bd9c90b","650c16f0f2faf8d7a0d14c09","651c35632c246d387b3b27cd","null","null","<p style=""font-size: 60px; font-family: BACS"">uQuZcUZu</p>","","","","","","","","","",""
"html-keyboard-response","27","130740","0.0-8.0-0.19","6124a4ba3df07e768bd9c90b","650c16f0f2faf8d7a0d14c09","651c35632c246d387b3b27cd","null","null","<p style=""font-size: 60px; font-family: BACS"">ldAauUY</p>","","","","","","","","","",""
"html-keyboard-response","28","131766","0.0-8.0-0.20","6124a4ba3df07e768bd9c90b","650c16f0f2faf8d7a0d14c09","651c35632c246d387b3b27cd","null","null","<p style=""font-size: 60px; font-family: BACS"">uQuZcYArG</p>","","","","","","","","","",""
"html-keyboard-response","29","132789","0.0-8.0-0.21","6124a4ba3df07e768bd9c90b","650c16f0f2faf8d7a0d14c09","651c35632c246d387b3b27cd","null","null","<p style=""font-size: 60px; font-family: BACS"">ktBdOMC</p>","","","","","","","","","",""
"html-keyboard-response","30","133806","0.0-8.0-0.22","6124a4ba3df07e768bd9c90b","650c16f0f2faf8d7a0d14c09","651c35632c246d387b3b27cd","null","null","<p style=""font-size: 60px; font-family: BACS"">aYaNuUY</p>","","","","","","","","","",""
"html-keyboard-response","31","134821","0.0-8.0-0.23","6124a4ba3df07e768bd9c90b","650c16f0f2faf8d7a0d14c09","651c35632c246d387b3b27cd","null","null","<p style=""font-size: 60px; font-family: BACS"">lRckATAm</p>","","","","","","","","","",""
"html-keyboard-response","32","135852","0.0-8.0-0.24","6124a4ba3df07e768bd9c90b","650c16f0f2faf8d7a0d14c09","651c35632c246d387b3b27cd","null","null","<p style=""font-size: 60px; font-family: BACS"">dNZAdUr</p>","","","","","","","","","",""
"html-keyboard-response","33","136872","0.0-8.0-0.25","6124a4ba3df07e768bd9c90b","650c16f0f2faf8d7a0d14c09","651c35632c246d387b3b27cd","null","null","<p style=""font-size: 60px; font-family: BACS"">vmuLlGUa</p>","","","","","","","","","",""
"html-keyboard-response","34","137888","0.0-8.0-0.26","6124a4ba3df07e768bd9c90b","650c16f0f2faf8d7a0d14c09","651c35632c246d387b3b27cd","null","null","<p style=""font-size: 60px; font-family: BACS"">hBmMCBYhT</p>","","","","","","","","","",""
"html-keyboard-response","35","138905","0.0-8.0-0.27","6124a4ba3df07e768bd9c90b","650c16f0f2faf8d7a0d14c09","651c35632c246d387b3b27cd","null","null","<p style=""font-size: 60px; font-family: BACS"">uQuZcuUY</p>","","","","","","","","","",""
"html-keyboard-response","36","139932","0.0-8.0-0.28","6124a4ba3df07e768bd9c90b","650c16f0f2faf8d7a0d14c09","651c35632c246d387b3b27cd","null","null","<p style=""font-size: 60px; font-family: BACS"">RKYkYTOM</p>","","","","","","","","","",""
"html-keyboard-response","37","140952","0.0-8.0-0.29","6124a4ba3df07e768bd9c90b","650c16f0f2faf8d7a0d14c09","651c35632c246d387b3b27cd","null","null","<p style=""font-size: 60px; font-family: BACS"">hAROKPTl</p>","","","","","","","","","",""
"html-keyboard-response","38","141966","0.0-8.0-0.30","6124a4ba3df07e768bd9c90b","650c16f0f2faf8d7a0d14c09","651c35632c246d387b3b27cd","null","null","<p style=""font-size: 60px; font-family: BACS"">UmNJYArG</p>","","","","","","","","","",""
"html-keyboard-response","39","142990","0.0-8.0-0.31","6124a4ba3df07e768bd9c90b","650c16f0f2faf8d7a0d14c09","651c35632c246d387b3b27cd","null","null","<p style=""font-size: 60px; font-family: BACS"">RlAKcOMC</p>","","","","","","","","","",""
"html-keyboard-response","40","144007","0.0-8.0-0.32","6124a4ba3df07e768bd9c90b","650c16f0f2faf8d7a0d14c09","651c35632c246d387b3b27cd","null","null","<p style=""font-size: 60px; font-family: BACS"">hTtBbPTl</p>","","","","","","","","","",""
"html-keyboard-response","41","145020","0.0-8.0-0.33","6124a4ba3df07e768bd9c90b","650c16f0f2faf8d7a0d14c09","651c35632c246d387b3b27cd","null","null","<p style=""font-size: 60px; font-family: BACS"">ktBdBYhT</p>","","","","","","","","","",""
"html-keyboard-response","42","146039","0.0-8.0-0.34","6124a4ba3df07e768bd9c90b","650c16f0f2faf8d7a0d14c09","651c35632c246d387b3b27cd","null","null","<p style=""font-size: 60px; font-family: BACS"">UmNJuUY</p>","","","","","","","","","",""
"html-keyboard-response","43","147063","0.0-8.0-0.35","6124a4ba3df07e768bd9c90b","650c16f0f2faf8d7a0d14c09","651c35632c246d387b3b27cd","null","null","<p style=""font-size: 60px; font-family: BACS"">ldAaUZu</p>","","","","","","","","","",""
"html-keyboard-response","44","148077","0.0-8.0-0.36","6124a4ba3df07e768bd9c90b","650c16f0f2faf8d7a0d14c09","651c35632c246d387b3b27cd","null","null","<p style=""font-size: 60px; font-family: BACS"">aYaNGUa</p>","","","","","","","","","",""
"html-keyboard-response","45","149103","0.0-8.0-0.37","6124a4ba3df07e768bd9c90b","650c16f0f2faf8d7a0d14c09","651c35632c246d387b3b27cd","null","null","<p style=""font-size: 60px; font-family: BACS"">RKYkTAm</p>","","","","","","","","","",""
"html-keyboard-response","46","150117","0.0-8.0-0.38","6124a4ba3df07e768bd9c90b","650c16f0f2faf8d7a0d14c09","651c35632c246d387b3b27cd","null","null","<p style=""font-size: 60px; font-family: BACS"">ldAaGUa</p>","","","","","","","","","",""
"html-keyboard-response","47","151147","0.0-8.0-0.39","6124a4ba3df07e768bd9c90b","650c16f0f2faf8d7a0d14c09","651c35632c246d387b3b27cd","null","null","<p style=""font-size: 60px; font-family: BACS"">hTtBbBYhT</p>","","","","","","","","","",""
"html-keyboard-response","48","152158","0.0-8.0-0.40","6124a4ba3df07e768bd9c90b","650c16f0f2faf8d7a0d14c09","651c35632c246d387b3b27cd","null","null","<p style=""font-size: 60px; font-family: BACS"">dNZAuUY</p>","","","","","","","","","",""
"html-keyboard-response","49","153190","0.0-8.0-0.41","6124a4ba3df07e768bd9c90b","650c16f0f2faf8d7a0d14c09","651c35632c246d387b3b27cd","null","null","<p style=""font-size: 60px; font-family: BACS"">lRckABYhT</p>","","","","","","","","","",""
"html-keyboard-response","50","154200","0.0-8.0-0.42","6124a4ba3df07e768bd9c90b","650c16f0f2faf8d7a0d14c09","651c35632c246d387b3b27cd","null","null","<p style=""font-size: 60px; font-family: BACS"">vmuLluUY</p>","","","","","","","","","",""
"html-keyboard-response","51","155221","0.0-8.0-0.43","6124a4ba3df07e768bd9c90b","650c16f0f2faf8d7a0d14c09","651c35632c246d387b3b27cd","null","null","<p style=""font-size: 60px; font-family: BACS"">RlAKcBYhT</p>","","","","","","","","","",""
"html-keyboard-response","52","156251","0.0-8.0-0.44","6124a4ba3df07e768bd9c90b","650c16f0f2faf8d7a0d14c09","651c35632c246d387b3b27cd","null","null","<p style=""font-size: 60px; font-family: BACS"">hCktYTOM</p>","","","","","","","","","",""
"html-keyboard-response","53","157271","0.0-8.0-0.45","6124a4ba3df07e768bd9c90b","650c16f0f2faf8d7a0d14c09","651c35632c246d387b3b27cd","null","null","<p style=""font-size: 60px; font-family: BACS"">lRckAPTl</p>","","","","","","","","","",""
"html-keyboard-response","54","158287","0.0-8.0-0.46","6124a4ba3df07e768bd9c90b","650c16f0f2faf8d7a0d14c09","651c35632c246d387b3b27cd","null","null","<p style=""font-size: 60px; font-family: BACS"">ktBdTAm</p>","","","","","","","","","",""
"html-keyboard-response","55","160027","0.0-8.0-0.47","6124a4ba3df07e768bd9c90b","650c16f0f2faf8d7a0d14c09","651c35632c246d387b3b27cd","null","null","<p style=""font-size: 60px; font-family: BACS"">aYaNYArG</p>","","","","","","","","","",""
"html-keyboard-response","56","161036","0.0-8.0-0.48","6124a4ba3df07e768bd9c90b","650c16f0f2faf8d7a0d14c09","651c35632c246d387b3b27cd","null","null","<p style=""font-size: 60px; font-family: BACS"">hCktBYhT</p>","","","","","","","","","",""
"html-keyboard-response","57","163036","0.0-8.0-0.49","6124a4ba3df07e768bd9c90b","650c16f0f2faf8d7a0d14c09","651c35632c246d387b3b27cd","null","null","<p style=""font-size: 60px; font-family: BACS"">LcNUJuUY</p>","","","","","","","","","",""
"html-keyboard-response","58","165029","0.0-8.0-0.50","6124a4ba3df07e768bd9c90b","650c16f0f2faf8d7a0d14c09","651c35632c246d387b3b27cd","null","null","<p style=""font-size: 60px; font-family: BACS"">hBmMCOMC</p>","","","","","","","","","",""
"html-keyboard-response","59","166038","0.0-8.0-0.51","6124a4ba3df07e768bd9c90b","650c16f0f2faf8d7a0d14c09","651c35632c246d387b3b27cd","null","null","<p style=""font-size: 60px; font-family: BACS"">vmuLldUr</p>","","","","","","","","","",""
"html-keyboard-response","60","168041","0.0-8.0-0.52","6124a4ba3df07e768bd9c90b","650c16f0f2faf8d7a0d14c09","651c35632c246d387b3b27cd","null","null","<p style=""font-size: 60px; font-family: BACS"">bvuZGUa</p>","","","","","","","","","",""
"html-keyboard-response","61","170039","0.0-8.0-0.53","6124a4ba3df07e768bd9c90b","650c16f0f2faf8d7a0d14c09","651c35632c246d387b3b27cd","null","null","<p style=""font-size: 60px; font-family: BACS"">RKYkOMC</p>","","","","","","","","","",""
"html-keyboard-response","62","171043","0.0-8.0-0.54","6124a4ba3df07e768bd9c90b","650c16f0f2faf8d7a0d14c09","651c35632c246d387b3b27cd","null","null","<p style=""font-size: 60px; font-family: BACS"">hBmMCTAm</p>","","","","","","","","","",""
"html-keyboard-response","63","173034","0.0-8.0-0.55","6124a4ba3df07e768bd9c90b","650c16f0f2faf8d7a0d14c09","651c35632c246d387b3b27cd","null","null","<p style=""font-size: 60px; font-family: BACS"">hCktPTl</p>","","","","","","","","","",""
"html-keyboard-response","64","174042","0.0-8.0-0.56","6124a4ba3df07e768bd9c90b","650c16f0f2faf8d7a0d14c09","651c35632c246d387b3b27cd","null","null","<p style=""font-size: 60px; font-family: BACS"">vmuLlUZu</p>","","","","","","","","","",""
"html-keyboard-response","65","175053","0.0-8.0-0.57","6124a4ba3df07e768bd9c90b","650c16f0f2faf8d7a0d14c09","651c35632c246d387b3b27cd","null","null","<p style=""font-size: 60px; font-family: BACS"">EPMDkPTl</p>","","","","","","","","","",""
"html-keyboard-response","66","176067","0.0-8.0-0.58","6124a4ba3df07e768bd9c90b","650c16f0f2faf8d7a0d14c09","651c35632c246d387b3b27cd","null","null","<p style=""font-size: 60px; font-family: BACS"">GJZmGUa</p>","","","","","","","","","",""
"html-keyboard-response","67","177070","0.0-8.0-0.59","6124a4ba3df07e768bd9c90b","650c16f0f2faf8d7a0d14c09","651c35632c246d387b3b27cd","null","null","<p style=""font-size: 60px; font-family: BACS"">ktBdPTl</p>","","","","","","","","","",""
"html-keyboard-response","68","178087","0.0-8.0-0.60","6124a4ba3df07e768bd9c90b","650c16f0f2faf8d7a0d14c09","651c35632c246d387b3b27cd","null","null","<p style=""font-size: 60px; font-family: BACS"">aYQmdUr</p>","","","","","","","","","",""
"html-keyboard-response","69","179103","0.0-8.0-0.61","6124a4ba3df07e768bd9c90b","650c16f0f2faf8d7a0d14c09","651c35632c246d387b3b27cd","null","null","<p style=""font-size: 60px; font-family: BACS"">bvuZYArG</p>","","","","","","","","","",""
"html-keyboard-response","70","180131","0.0-8.0-0.62","6124a4ba3df07e768bd9c90b","650c16f0f2faf8d7a0d14c09","651c35632c246d387b3b27cd","null","null","<p style=""font-size: 60px; font-family: BACS"">hAROKYTOM</p>","","","","","","","","","",""
"html-keyboard-response","71","181139","0.0-8.0-0.63","6124a4ba3df07e768bd9c90b","650c16f0f2faf8d7a0d14c09","651c35632c246d387b3b27cd","null","null","<p style=""font-size: 60px; font-family: BACS"">aYaNUZu</p>","","","","","","","","","",""
"html-keyboard-response","72","182161","0.0-8.0-0.64","6124a4ba3df07e768bd9c90b","650c16f0f2faf8d7a0d14c09","651c35632c246d387b3b27cd","null","null","<p style=""font-size: 60px; font-family: BACS"">UmNJGUa</p>","","","","","","","","","",""
"html-keyboard-response","73","183165","0.0-8.0-0.65","6124a4ba3df07e768bd9c90b","650c16f0f2faf8d7a0d14c09","651c35632c246d387b3b27cd","null","null","<p style=""font-size: 60px; font-family: BACS"">PhktkTAm</p>","","","","","","","","","",""
"html-keyboard-response","74","184183","0.0-8.0-0.66","6124a4ba3df07e768bd9c90b","650c16f0f2faf8d7a0d14c09","651c35632c246d387b3b27cd","null","null","<p style=""font-size: 60px; font-family: BACS"">hBmMCYTOM</p>","","","","","","","","","",""
"html-keyboard-response","75","185197","0.0-8.0-0.67","6124a4ba3df07e768bd9c90b","650c16f0f2faf8d7a0d14c09","651c35632c246d387b3b27cd","null","null","<p style=""font-size: 60px; font-family: BACS"">RKYkBYhT</p>","","","","","","","","","",""
"html-keyboard-response","76","186215","0.0-8.0-0.68","6124a4ba3df07e768bd9c90b","650c16f0f2faf8d7a0d14c09","651c35632c246d387b3b27cd","null","null","<p style=""font-size: 60px; font-family: BACS"">aYQmUZu</p>","","","","","","","","","",""
"html-keyboard-response","77","187229","0.0-8.0-0.69","6124a4ba3df07e768bd9c90b","650c16f0f2faf8d7a0d14c09","651c35632c246d387b3b27cd","null","null","<p style=""font-size: 60px; font-family: BACS"">uQuZcdUr</p>","","","","","","","","","",""
"html-keyboard-response","78","188238","0.0-8.0-0.70","6124a4ba3df07e768bd9c90b","650c16f0f2faf8d7a0d14c09","651c35632c246d387b3b27cd","null","null","<p style=""font-size: 60px; font-family: BACS"">EPMDkOMC</p>","","","","","","","","","",""
"html-keyboard-response","79","189253","0.0-8.0-0.71","6124a4ba3df07e768bd9c90b","650c16f0f2faf8d7a0d14c09","651c35632c246d387b3b27cd","null","null","<p style=""font-size: 60px; font-family: BACS"">bvuZUZu</p>","","","","","","","","","",""
"html-keyboard-response","80","190269","0.0-8.0-0.72","6124a4ba3df07e768bd9c90b","650c16f0f2faf8d7a0d14c09","651c35632c246d387b3b27cd","null","null","<p style=""font-size: 60px; font-family: BACS"">RlAKcPTl</p>","","","","","","","","","",""
"html-keyboard-response","81","191281","0.0-8.0-0.73","6124a4ba3df07e768bd9c90b","650c16f0f2faf8d7a0d14c09","651c35632c246d387b3b27cd","null","null","<p style=""font-size: 60px; font-family: BACS"">aYQmGUa</p>","","","","","","","","","",""
"html-keyboard-response","82","192298","0.0-8.0-0.74","6124a4ba3df07e768bd9c90b","650c16f0f2faf8d7a0d14c09","651c35632c246d387b3b27cd","null","null","<p style=""font-size: 60px; font-family: BACS"">dNZAUZu</p>","","","","","","","","","",""
"html-keyboard-response","83","193325","0.0-8.0-0.75","6124a4ba3df07e768bd9c90b","650c16f0f2faf8d7a0d14c09","651c35632c246d387b3b27cd","null","null","<p style=""font-size: 60px; font-family: BACS"">hAROKOMC</p>","","","","","","","","","",""
"html-keyboard-response","84","194350","0.0-8.0-0.76","6124a4ba3df07e768bd9c90b","650c16f0f2faf8d7a0d14c09","651c35632c246d387b3b27cd","null","null","<p style=""font-size: 60px; font-family: BACS"">hTtBbTAm</p>","","","","","","","","","",""
"html-keyboard-response","85","195366","0.0-8.0-0.77","6124a4ba3df07e768bd9c90b","650c16f0f2faf8d7a0d14c09","651c35632c246d387b3b27cd","null","null","<p style=""font-size: 60px; font-family: BACS"">PhktkBYhT</p>","","","","","","","","","",""
"html-keyboard-response","86","196382","0.0-8.0-0.78","6124a4ba3df07e768bd9c90b","650c16f0f2faf8d7a0d14c09","651c35632c246d387b3b27cd","null","null","<p style=""font-size: 60px; font-family: BACS"">hAROKTAm</p>","","","","","","","","","",""
"html-keyboard-response","87","197389","0.0-8.0-0.79","6124a4ba3df07e768bd9c90b","650c16f0f2faf8d7a0d14c09","651c35632c246d387b3b27cd","null","null","<p style=""font-size: 60px; font-family: BACS"">EPMDkYTOM</p>","","","","","","","","","",""
"html-keyboard-response","88","203328","0.0-9.0","6124a4ba3df07e768bd9c90b","650c16f0f2faf8d7a0d14c09","651c35632c246d387b3b27cd","5936"," ","<p>Great, you've seen the first block of words. You may now take a short break.</p>
      <p>Press the spacebar when you're ready to continue.</p>","","","","","","","","","",""
"html-keyboard-response","89","204331","0.0-10.0-0.0","6124a4ba3df07e768bd9c90b","650c16f0f2faf8d7a0d14c09","651c35632c246d387b3b27cd","null","null","<p style=""font-size: 60px; font-family: BACS"">bvuZGUa</p>","","","","","","","","","",""
"html-keyboard-response","90","205334","0.0-10.0-0.1","6124a4ba3df07e768bd9c90b","650c16f0f2faf8d7a0d14c09","651c35632c246d387b3b27cd","null","null","<p style=""font-size: 60px; font-family: BACS"">ktBdTAm</p>","","","","","","","","","",""
"html-keyboard-response","91","206349","0.0-10.0-0.2","6124a4ba3df07e768bd9c90b","650c16f0f2faf8d7a0d14c09","651c35632c246d387b3b27cd","null","null","<p style=""font-size: 60px; font-family: BACS"">RKYkOMC</p>","","","","","","","","","",""
"html-keyboard-response","92","207359","0.0-10.0-0.3","6124a4ba3df07e768bd9c90b","650c16f0f2faf8d7a0d14c09","651c35632c246d387b3b27cd","null","null","<p style=""font-size: 60px; font-family: BACS"">ldAadUr</p>","","","","","","","","","",""
"html-keyboard-response","93","208389","0.0-10.0-0.4","6124a4ba3df07e768bd9c90b","650c16f0f2faf8d7a0d14c09","651c35632c246d387b3b27cd","null","null","<p style=""font-size: 60px; font-family: BACS"">PhktkTAm</p>","","","","","","","","","",""
"html-keyboard-response","94","209399","0.0-10.0-0.5","6124a4ba3df07e768bd9c90b","650c16f0f2faf8d7a0d14c09","651c35632c246d387b3b27cd","null","null","<p style=""font-size: 60px; font-family: BACS"">dNZAYArG</p>","","","","","","","","","",""
"html-keyboard-response","95","210423","0.0-10.0-0.6","6124a4ba3df07e768bd9c90b","650c16f0f2faf8d7a0d14c09","651c35632c246d387b3b27cd","null","null","<p style=""font-size: 60px; font-family: BACS"">RKYkBYhT</p>","","","","","","","","","",""
"html-keyboard-response","96","211444","0.0-10.0-0.7","6124a4ba3df07e768bd9c90b","650c16f0f2faf8d7a0d14c09","651c35632c246d387b3b27cd","null","null","<p style=""font-size: 60px; font-family: BACS"">EPMDkPTl</p>","","","","","","","","","",""
"html-keyboard-response","97","212463","0.0-10.0-0.8","6124a4ba3df07e768bd9c90b","650c16f0f2faf8d7a0d14c09","651c35632c246d387b3b27cd","null","null","<p style=""font-size: 60px; font-family: BACS"">ldAaUZu</p>","","","","","","","","","",""
"html-keyboard-response","98","213478","0.0-10.0-0.9","6124a4ba3df07e768bd9c90b","650c16f0f2faf8d7a0d14c09","651c35632c246d387b3b27cd","null","null","<p style=""font-size: 60px; font-family: BACS"">aYaNYArG</p>","","","","","","","","","",""
"html-keyboard-response","99","214511","0.0-10.0-0.10","6124a4ba3df07e768bd9c90b","650c16f0f2faf8d7a0d14c09","651c35632c246d387b3b27cd","null","null","<p style=""font-size: 60px; font-family: BACS"">hCktYTOM</p>","","","","","","","","","",""
"html-keyboard-response","100","215525","0.0-10.0-0.11","6124a4ba3df07e768bd9c90b","650c16f0f2faf8d7a0d14c09","651c35632c246d387b3b27cd","null","null","<p style=""font-size: 60px; font-family: BACS"">ktBdPTl</p>","","","","","","","","","",""
"html-keyboard-response","101","216551","0.0-10.0-0.12","6124a4ba3df07e768bd9c90b","650c16f0f2faf8d7a0d14c09","651c35632c246d387b3b27cd","null","null","<p style=""font-size: 60px; font-family: BACS"">LcNUJdUr</p>","","","","","","","","","",""
"html-keyboard-response","102","217558","0.0-10.0-0.13","6124a4ba3df07e768bd9c90b","650c16f0f2faf8d7a0d14c09","651c35632c246d387b3b27cd","null","null","<p style=""font-size: 60px; font-family: BACS"">hBmMCTAm</p>","","","","","","","","","",""
"html-keyboard-response","103","218582","0.0-10.0-0.14","6124a4ba3df07e768bd9c90b","650c16f0f2faf8d7a0d14c09","651c35632c246d387b3b27cd","null","null","<p style=""font-size: 60px; font-family: BACS"">uQuZcuUY</p>","","","","","","","","","",""
"html-keyboard-response","104","219600","0.0-10.0-0.15","6124a4ba3df07e768bd9c90b","650c16f0f2faf8d7a0d14c09","651c35632c246d387b3b27cd","null","null","<p style=""font-size: 60px; font-family: BACS"">EPMDkYTOM</p>","","","","","","","","","",""
"html-keyboard-response","105","220620","0.0-10.0-0.16","6124a4ba3df07e768bd9c90b","650c16f0f2faf8d7a0d14c09","651c35632c246d387b3b27cd","null","null","<p style=""font-size: 60px; font-family: BACS"">vmuLluUY</p>","","","","","","","","","",""
"html-keyboard-response","106","221649","0.0-10.0-0.17","6124a4ba3df07e768bd9c90b","650c16f0f2faf8d7a0d14c09","651c35632c246d387b3b27cd","null","null","<p style=""font-size: 60px; font-family: BACS"">PhktkPTl</p>","","","","","","","","","",""
"html-keyboard-response","107","222665","0.0-10.0-0.18","6124a4ba3df07e768bd9c90b","650c16f0f2faf8d7a0d14c09","651c35632c246d387b3b27cd","null","null","<p style=""font-size: 60px; font-family: BACS"">hCktBYhT</p>","","","","","","","","","",""
"html-keyboard-response","108","223685","0.0-10.0-0.19","6124a4ba3df07e768bd9c90b","650c16f0f2faf8d7a0d14c09","651c35632c246d387b3b27cd","null","null","<p style=""font-size: 60px; font-family: BACS"">RKYkYTOM</p>","","","","","","","","","",""
"html-keyboard-response","109","224703","0.0-10.0-0.20","6124a4ba3df07e768bd9c90b","650c16f0f2faf8d7a0d14c09","651c35632c246d387b3b27cd","null","null","<p style=""font-size: 60px; font-family: BACS"">lRckABYhT</p>","","","","","","","","","",""
"html-keyboard-response","110","225727","0.0-10.0-0.21","6124a4ba3df07e768bd9c90b","650c16f0f2faf8d7a0d14c09","651c35632c246d387b3b27cd","null","null","<p style=""font-size: 60px; font-family: BACS"">RKYkTAm</p>","","","","","","","","","",""
"html-keyboard-response","111","226747","0.0-10.0-0.22","6124a4ba3df07e768bd9c90b","650c16f0f2faf8d7a0d14c09","651c35632c246d387b3b27cd","null","null","<p style=""font-size: 60px; font-family: BACS"">aYQmGUa</p>","","","","","","","","","",""
"html-keyboard-response","112","227761","0.0-10.0-0.23","6124a4ba3df07e768bd9c90b","650c16f0f2faf8d7a0d14c09","651c35632c246d387b3b27cd","null","null","<p style=""font-size: 60px; font-family: BACS"">UmNJdUr</p>","","","","","","","","","",""
"html-keyboard-response","113","228783","0.0-10.0-0.24","6124a4ba3df07e768bd9c90b","650c16f0f2faf8d7a0d14c09","651c35632c246d387b3b27cd","null","null","<p style=""font-size: 60px; font-family: BACS"">uQuZcYArG</p>","","","","","","","","","",""
"html-keyboard-response","114","229807","0.0-10.0-0.25","6124a4ba3df07e768bd9c90b","650c16f0f2faf8d7a0d14c09","651c35632c246d387b3b27cd","null","null","<p style=""font-size: 60px; font-family: BACS"">aYaNuUY</p>","","","","","","","","","",""
"html-keyboard-response","115","230829","0.0-10.0-0.26","6124a4ba3df07e768bd9c90b","650c16f0f2faf8d7a0d14c09","651c35632c246d387b3b27cd","null","null","<p style=""font-size: 60px; font-family: BACS"">RlAKcPTl</p>","","","","","","","","","",""
"html-keyboard-response","116","231838","0.0-10.0-0.27","6124a4ba3df07e768bd9c90b","650c16f0f2faf8d7a0d14c09","651c35632c246d387b3b27cd","null","null","<p style=""font-size: 60px; font-family: BACS"">aYaNGUa</p>","","","","","","","","","",""
"html-keyboard-response","117","232861","0.0-10.0-0.28","6124a4ba3df07e768bd9c90b","650c16f0f2faf8d7a0d14c09","651c35632c246d387b3b27cd","null","null","<p style=""font-size: 60px; font-family: BACS"">lRckAPTl</p>","","","","","","","","","",""
"html-keyboard-response","118","233879","0.0-10.0-0.29","6124a4ba3df07e768bd9c90b","650c16f0f2faf8d7a0d14c09","651c35632c246d387b3b27cd","null","null","<p style=""font-size: 60px; font-family: BACS"">bvuZYArG</p>","","","","","","","","","",""
"html-keyboard-response","119","234909","0.0-10.0-0.30","6124a4ba3df07e768bd9c90b","650c16f0f2faf8d7a0d14c09","651c35632c246d387b3b27cd","null","null","<p style=""font-size: 60px; font-family: BACS"">dNZAdUr</p>","","","","","","","","","",""
"html-keyboard-response","120","235918","0.0-10.0-0.31","6124a4ba3df07e768bd9c90b","650c16f0f2faf8d7a0d14c09","651c35632c246d387b3b27cd","null","null","<p style=""font-size: 60px; font-family: BACS"">RlAKcOMC</p>","","","","","","","","","",""
"html-keyboard-response","121","236942","0.0-10.0-0.32","6124a4ba3df07e768bd9c90b","650c16f0f2faf8d7a0d14c09","651c35632c246d387b3b27cd","null","null","<p style=""font-size: 60px; font-family: BACS"">lRckATAm</p>","","","","","","","","","",""
"html-keyboard-response","122","237966","0.0-10.0-0.33","6124a4ba3df07e768bd9c90b","650c16f0f2faf8d7a0d14c09","651c35632c246d387b3b27cd","null","null","<p style=""font-size: 60px; font-family: BACS"">hAROKOMC</p>","","","","","","","","","",""
"html-keyboard-response","123","239039","0.0-10.0-0.34","6124a4ba3df07e768bd9c90b","650c16f0f2faf8d7a0d14c09","651c35632c246d387b3b27cd","null","null","<p style=""font-size: 60px; font-family: BACS"">aYQmUZu</p>","","","","","","","","","",""
"html-keyboard-response","124","241028","0.0-10.0-0.35","6124a4ba3df07e768bd9c90b","650c16f0f2faf8d7a0d14c09","651c35632c246d387b3b27cd","null","null","<p style=""font-size: 60px; font-family: BACS"">hCktOMC</p>","","","","","","","","","",""
"html-keyboard-response","125","243037","0.0-10.0-0.36","6124a4ba3df07e768bd9c90b","650c16f0f2faf8d7a0d14c09","651c35632c246d387b3b27cd","null","null","<p style=""font-size: 60px; font-family: BACS"">RlAKcBYhT</p>","","","","","","","","","",""
"html-keyboard-response","126","245036","0.0-10.0-0.37","6124a4ba3df07e768bd9c90b","650c16f0f2faf8d7a0d14c09","651c35632c246d387b3b27cd","null","null","<p style=""font-size: 60px; font-family: BACS"">hTtBbPTl</p>","","","","","","","","","",""
"html-keyboard-response","127","247037","0.0-10.0-0.38","6124a4ba3df07e768bd9c90b","650c16f0f2faf8d7a0d14c09","651c35632c246d387b3b27cd","null","null","<p style=""font-size: 60px; font-family: BACS"">bvuZUZu</p>","","","","","","","","","",""
"html-keyboard-response","128","249039","0.0-10.0-0.39","6124a4ba3df07e768bd9c90b","650c16f0f2faf8d7a0d14c09","651c35632c246d387b3b27cd","null","null","<p style=""font-size: 60px; font-family: BACS"">hBmMCYTOM</p>","","","","","","","","","",""
"html-keyboard-response","129","251030","0.0-10.0-0.40","6124a4ba3df07e768bd9c90b","650c16f0f2faf8d7a0d14c09","651c35632c246d387b3b27cd","null","null","<p style=""font-size: 60px; font-family: BACS"">dNZAuUY</p>","","","","","","","","","",""
"html-keyboard-response","130","253034","0.0-10.0-0.41","6124a4ba3df07e768bd9c90b","650c16f0f2faf8d7a0d14c09","651c35632c246d387b3b27cd","null","null","<p style=""font-size: 60px; font-family: BACS"">vmuLldUr</p>","","","","","","","","","",""
"html-keyboard-response","131","254037","0.0-10.0-0.42","6124a4ba3df07e768bd9c90b","650c16f0f2faf8d7a0d14c09","651c35632c246d387b3b27cd","null","null","<p style=""font-size: 60px; font-family: BACS"">ktBdBYhT</p>","","","","","","","","","",""
"html-keyboard-response","132","256041","0.0-10.0-0.43","6124a4ba3df07e768bd9c90b","650c16f0f2faf8d7a0d14c09","651c35632c246d387b3b27cd","null","null","<p style=""font-size: 60px; font-family: BACS"">EPMDkTAm</p>","","","","","","","","","",""
"html-keyboard-response","133","257043","0.0-10.0-0.44","6124a4ba3df07e768bd9c90b","650c16f0f2faf8d7a0d14c09","651c35632c246d387b3b27cd","null","null","<p style=""font-size: 60px; font-family: BACS"">uQuZcUZu</p>","","","","","","","","","",""
"html-keyboard-response","134","259034","0.0-10.0-0.45","6124a4ba3df07e768bd9c90b","650c16f0f2faf8d7a0d14c09","651c35632c246d387b3b27cd","null","null","<p style=""font-size: 60px; font-family: BACS"">LcNUJGUa</p>","","","","","","","","","",""
"html-keyboard-response","135","260041","0.0-10.0-0.46","6124a4ba3df07e768bd9c90b","650c16f0f2faf8d7a0d14c09","651c35632c246d387b3b27cd","null","null","<p style=""font-size: 60px; font-family: BACS"">hAROKYTOM</p>","","","","","","","","","",""
"html-keyboard-response","136","262039","0.0-10.0-0.47","6124a4ba3df07e768bd9c90b","650c16f0f2faf8d7a0d14c09","651c35632c246d387b3b27cd","null","null","<p style=""font-size: 60px; font-family: BACS"">GJZmGUa</p>","","","","","","","","","",""
"html-keyboard-response","137","264036","0.0-10.0-0.48","6124a4ba3df07e768bd9c90b","650c16f0f2faf8d7a0d14c09","651c35632c246d387b3b27cd","null","null","<p style=""font-size: 60px; font-family: BACS"">EPMDkOMC</p>","","","","","","","","","",""
"html-keyboard-response","138","265043","0.0-10.0-0.49","6124a4ba3df07e768bd9c90b","650c16f0f2faf8d7a0d14c09","651c35632c246d387b3b27cd","null","null","<p style=""font-size: 60px; font-family: BACS"">LcNUJYArG</p>","","","","","","","","","",""
"html-keyboard-response","139","267028","0.0-10.0-0.50","6124a4ba3df07e768bd9c90b","650c16f0f2faf8d7a0d14c09","651c35632c246d387b3b27cd","null","null","<p style=""font-size: 60px; font-family: BACS"">GJZmUZu</p>","","","","","","","","","",""
"html-keyboard-response","140","268036","0.0-10.0-0.51","6124a4ba3df07e768bd9c90b","650c16f0f2faf8d7a0d14c09","651c35632c246d387b3b27cd","null","null","<p style=""font-size: 60px; font-family: BACS"">hAROKPTl</p>","","","","","","","","","",""
"html-keyboard-response","141","269042","0.0-10.0-0.52","6124a4ba3df07e768bd9c90b","650c16f0f2faf8d7a0d14c09","651c35632c246d387b3b27cd","null","null","<p style=""font-size: 60px; font-family: BACS"">hTtBbTAm</p>","","","","","","","","","",""
"html-keyboard-response","142","271032","0.0-10.0-0.53","6124a4ba3df07e768bd9c90b","650c16f0f2faf8d7a0d14c09","651c35632c246d387b3b27cd","null","null","<p style=""font-size: 60px; font-family: BACS"">hCktPTl</p>","","","","","","","","","",""
"html-keyboard-response","143","272037","0.0-10.0-0.54","6124a4ba3df07e768bd9c90b","650c16f0f2faf8d7a0d14c09","651c35632c246d387b3b27cd","null","null","<p style=""font-size: 60px; font-family: BACS"">lRckAOMC</p>","","","","","","","","","",""
"html-keyboard-response","144","273042","0.0-10.0-0.55","6124a4ba3df07e768bd9c90b","650c16f0f2faf8d7a0d14c09","651c35632c246d387b3b27cd","null","null","<p style=""font-size: 60px; font-family: BACS"">vmuLlUZu</p>","","","","","","","","","",""
"html-keyboard-response","145","275034","0.0-10.0-0.56","6124a4ba3df07e768bd9c90b","650c16f0f2faf8d7a0d14c09","651c35632c246d387b3b27cd","null","null","<p style=""font-size: 60px; font-family: BACS"">LcNUJuUY</p>","","","","","","","","","",""
"html-keyboard-response","146","277039","0.0-10.0-0.57","6124a4ba3df07e768bd9c90b","650c16f0f2faf8d7a0d14c09","651c35632c246d387b3b27cd","null","null","<p style=""font-size: 60px; font-family: BACS"">ldAaGUa</p>","","","","","","","","","",""
"html-keyboard-response","147","279032","0.0-10.0-0.58","6124a4ba3df07e768bd9c90b","650c16f0f2faf8d7a0d14c09","651c35632c246d387b3b27cd","null","null","<p style=""font-size: 60px; font-family: BACS"">hTtBbBYhT</p>","","","","","","","","","",""
"html-keyboard-response","148","280041","0.0-10.0-0.59","6124a4ba3df07e768bd9c90b","650c16f0f2faf8d7a0d14c09","651c35632c246d387b3b27cd","null","null","<p style=""font-size: 60px; font-family: BACS"">aYaNUZu</p>","","","","","","","","","",""
"html-keyboard-response","149","282042","0.0-10.0-0.60","6124a4ba3df07e768bd9c90b","650c16f0f2faf8d7a0d14c09","651c35632c246d387b3b27cd","null","null","<p style=""font-size: 60px; font-family: BACS"">bvuZdUr</p>","","","","","","","","","",""
"html-keyboard-response","150","284037","0.0-10.0-0.61","6124a4ba3df07e768bd9c90b","650c16f0f2faf8d7a0d14c09","651c35632c246d387b3b27cd","null","null","<p style=""font-size: 60px; font-family: BACS"">UmNJYArG</p>","","","","","","","","","",""
"html-keyboard-response","151","286035","0.0-10.0-0.62","6124a4ba3df07e768bd9c90b","650c16f0f2faf8d7a0d14c09","651c35632c246d387b3b27cd","null","null","<p style=""font-size: 60px; font-family: BACS"">hBmMCBYhT</p>","","","","","","","","","",""
"html-keyboard-response","152","288036","0.0-10.0-0.63","6124a4ba3df07e768bd9c90b","650c16f0f2faf8d7a0d14c09","651c35632c246d387b3b27cd","null","null","<p style=""font-size: 60px; font-family: BACS"">RlAKcYTOM</p>","","","","","","","","","",""
"html-keyboard-response","153","290037","0.0-10.0-0.64","6124a4ba3df07e768bd9c90b","650c16f0f2faf8d7a0d14c09","651c35632c246d387b3b27cd","null","null","<p style=""font-size: 60px; font-family: BACS"">GJZmYArG</p>","","","","","","","","","",""
"html-keyboard-response","154","291047","0.0-10.0-0.65","6124a4ba3df07e768bd9c90b","650c16f0f2faf8d7a0d14c09","651c35632c246d387b3b27cd","null","null","<p style=""font-size: 60px; font-family: BACS"">aYQmdUr</p>","","","","","","","","","",""
"html-keyboard-response","155","292063","0.0-10.0-0.66","6124a4ba3df07e768bd9c90b","650c16f0f2faf8d7a0d14c09","651c35632c246d387b3b27cd","null","null","<p style=""font-size: 60px; font-family: BACS"">UmNJGUa</p>","","","","","","","","","",""
"html-keyboard-response","156","293078","0.0-10.0-0.67","6124a4ba3df07e768bd9c90b","650c16f0f2faf8d7a0d14c09","651c35632c246d387b3b27cd","null","null","<p style=""font-size: 60px; font-family: BACS"">PhktkYTOM</p>","","","","","","","","","",""
"html-keyboard-response","157","294093","0.0-10.0-0.68","6124a4ba3df07e768bd9c90b","650c16f0f2faf8d7a0d14c09","651c35632c246d387b3b27cd","null","null","<p style=""font-size: 60px; font-family: BACS"">uQuZcdUr</p>","","","","","","","","","",""
"html-keyboard-response","158","295101","0.0-10.0-0.69","6124a4ba3df07e768bd9c90b","650c16f0f2faf8d7a0d14c09","651c35632c246d387b3b27cd","null","null","<p style=""font-size: 60px; font-family: BACS"">dNZAUZu</p>","","","","","","","","","",""
"html-keyboard-response","159","296143","0.0-10.0-0.70","6124a4ba3df07e768bd9c90b","650c16f0f2faf8d7a0d14c09","651c35632c246d387b3b27cd","null","null","<p style=""font-size: 60px; font-family: BACS"">aYQmYArG</p>","","","","","","","","","",""
"html-keyboard-response","160","297161","0.0-10.0-0.71","6124a4ba3df07e768bd9c90b","650c16f0f2faf8d7a0d14c09","651c35632c246d387b3b27cd","null","null","<p style=""font-size: 60px; font-family: BACS"">vmuLlGUa</p>","","","","","","","","","",""
"html-keyboard-response","161","298173","0.0-10.0-0.72","6124a4ba3df07e768bd9c90b","650c16f0f2faf8d7a0d14c09","651c35632c246d387b3b27cd","null","null","<p style=""font-size: 60px; font-family: BACS"">PhktkBYhT</p>","","","","","","","","","",""
"html-keyboard-response","162","299189","0.0-10.0-0.73","6124a4ba3df07e768bd9c90b","650c16f0f2faf8d7a0d14c09","651c35632c246d387b3b27cd","null","null","<p style=""font-size: 60px; font-family: BACS"">UmNJuUY</p>","","","","","","","","","",""
"html-keyboard-response","163","300215","0.0-10.0-0.74","6124a4ba3df07e768bd9c90b","650c16f0f2faf8d7a0d14c09","651c35632c246d387b3b27cd","null","null","<p style=""font-size: 60px; font-family: BACS"">hTtBbYTOM</p>","","","","","","","","","",""
"html-keyboard-response","164","301236","0.0-10.0-0.75","6124a4ba3df07e768bd9c90b","650c16f0f2faf8d7a0d14c09","651c35632c246d387b3b27cd","null","null","<p style=""font-size: 60px; font-family: BACS"">ktBdOMC</p>","","","","","","","","","",""
"html-keyboard-response","165","302252","0.0-10.0-0.76","6124a4ba3df07e768bd9c90b","650c16f0f2faf8d7a0d14c09","651c35632c246d387b3b27cd","null","null","<p style=""font-size: 60px; font-family: BACS"">ldAauUY</p>","","","","","","","","","",""
"html-keyboard-response","166","303268","0.0-10.0-0.77","6124a4ba3df07e768bd9c90b","650c16f0f2faf8d7a0d14c09","651c35632c246d387b3b27cd","null","null","<p style=""font-size: 60px; font-family: BACS"">hAROKTAm</p>","","","","","","","","","",""
"html-keyboard-response","167","304293","0.0-10.0-0.78","6124a4ba3df07e768bd9c90b","650c16f0f2faf8d7a0d14c09","651c35632c246d387b3b27cd","null","null","<p style=""font-size: 60px; font-family: BACS"">hBmMCOMC</p>","","","","","","","","","",""
"html-keyboard-response","168","305310","0.0-10.0-0.79","6124a4ba3df07e768bd9c90b","650c16f0f2faf8d7a0d14c09","651c35632c246d387b3b27cd","null","null","<p style=""font-size: 60px; font-family: BACS"">GJZmuUY</p>","","","","","","","","","",""
"html-keyboard-response","169","319858","0.0-11.0","6124a4ba3df07e768bd9c90b","650c16f0f2faf8d7a0d14c09","651c35632c246d387b3b27cd","14547"," ","<p>Great, you've seen the second block of words. You may now take a short break.</p>
      <p>Press the spacebar when you're ready to continue.</p>","","","","","","","","","",""
"html-keyboard-response","170","320862","0.0-12.0-0.0","6124a4ba3df07e768bd9c90b","650c16f0f2faf8d7a0d14c09","651c35632c246d387b3b27cd","null","null","<p style=""font-size: 60px; font-family: BACS"">ktBdOMC</p>","","","","","","","","","",""
"html-keyboard-response","171","321870","0.0-12.0-0.1","6124a4ba3df07e768bd9c90b","650c16f0f2faf8d7a0d14c09","651c35632c246d387b3b27cd","null","null","<p style=""font-size: 60px; font-family: BACS"">dNZAuUY</p>","","","","","","","","","",""
"html-keyboard-response","172","322872","0.0-12.0-0.2","6124a4ba3df07e768bd9c90b","650c16f0f2faf8d7a0d14c09","651c35632c246d387b3b27cd","null","null","<p style=""font-size: 60px; font-family: BACS"">lRckABYhT</p>","","","","","","","","","",""
"html-keyboard-response","173","323877","0.0-12.0-0.3","6124a4ba3df07e768bd9c90b","650c16f0f2faf8d7a0d14c09","651c35632c246d387b3b27cd","null","null","<p style=""font-size: 60px; font-family: BACS"">hBmMCYTOM</p>","","","","","","","","","",""
"html-keyboard-response","174","324901","0.0-12.0-0.4","6124a4ba3df07e768bd9c90b","650c16f0f2faf8d7a0d14c09","651c35632c246d387b3b27cd","null","null","<p style=""font-size: 60px; font-family: BACS"">LcNUJYArG</p>","","","","","","","","","",""
"html-keyboard-response","175","325919","0.0-12.0-0.5","6124a4ba3df07e768bd9c90b","650c16f0f2faf8d7a0d14c09","651c35632c246d387b3b27cd","null","null","<p style=""font-size: 60px; font-family: BACS"">RKYkOMC</p>","","","","","","","","","",""
"html-keyboard-response","176","326950","0.0-12.0-0.6","6124a4ba3df07e768bd9c90b","650c16f0f2faf8d7a0d14c09","651c35632c246d387b3b27cd","null","null","<p style=""font-size: 60px; font-family: BACS"">RlAKcYTOM</p>","","","","","","","","","",""
"html-keyboard-response","177","327971","0.0-12.0-0.7","6124a4ba3df07e768bd9c90b","650c16f0f2faf8d7a0d14c09","651c35632c246d387b3b27cd","null","null","<p style=""font-size: 60px; font-family: BACS"">GJZmYArG</p>","","","","","","","","","",""
"html-keyboard-response","178","328989","0.0-12.0-0.8","6124a4ba3df07e768bd9c90b","650c16f0f2faf8d7a0d14c09","651c35632c246d387b3b27cd","null","null","<p style=""font-size: 60px; font-family: BACS"">hBmMCBYhT</p>","","","","","","","","","",""
"html-keyboard-response","179","330005","0.0-12.0-0.9","6124a4ba3df07e768bd9c90b","650c16f0f2faf8d7a0d14c09","651c35632c246d387b3b27cd","null","null","<p style=""font-size: 60px; font-family: BACS"">LcNUJuUY</p>","","","","","","","","","",""
"html-keyboard-response","180","331022","0.0-12.0-0.10","6124a4ba3df07e768bd9c90b","650c16f0f2faf8d7a0d14c09","651c35632c246d387b3b27cd","null","null","<p style=""font-size: 60px; font-family: BACS"">dNZAUZu</p>","","","","","","","","","",""
"html-keyboard-response","181","332037","0.0-12.0-0.11","6124a4ba3df07e768bd9c90b","650c16f0f2faf8d7a0d14c09","651c35632c246d387b3b27cd","null","null","<p style=""font-size: 60px; font-family: BACS"">GJZmuUY</p>","","","","","","","","","",""
"html-keyboard-response","182","333061","0.0-12.0-0.12","6124a4ba3df07e768bd9c90b","650c16f0f2faf8d7a0d14c09","651c35632c246d387b3b27cd","null","null","<p style=""font-size: 60px; font-family: BACS"">hAROKYTOM</p>","","","","","","","","","",""
"html-keyboard-response","183","334084","0.0-12.0-0.13","6124a4ba3df07e768bd9c90b","650c16f0f2faf8d7a0d14c09","651c35632c246d387b3b27cd","null","null","<p style=""font-size: 60px; font-family: BACS"">aYaNUZu</p>","","","","","","","","","",""
"html-keyboard-response","184","335100","0.0-12.0-0.14","6124a4ba3df07e768bd9c90b","650c16f0f2faf8d7a0d14c09","651c35632c246d387b3b27cd","null","null","<p style=""font-size: 60px; font-family: BACS"">hCktBYhT</p>","","","","","","","","","",""
"html-keyboard-response","185","336125","0.0-12.0-0.15","6124a4ba3df07e768bd9c90b","650c16f0f2faf8d7a0d14c09","651c35632c246d387b3b27cd","null","null","<p style=""font-size: 60px; font-family: BACS"">EPMDkPTl</p>","","","","","","","","","",""
"html-keyboard-response","186","337142","0.0-12.0-0.16","6124a4ba3df07e768bd9c90b","650c16f0f2faf8d7a0d14c09","651c35632c246d387b3b27cd","null","null","<p style=""font-size: 60px; font-family: BACS"">lRckAOMC</p>","","","","","","","","","",""
"html-keyboard-response","187","338163","0.0-12.0-0.17","6124a4ba3df07e768bd9c90b","650c16f0f2faf8d7a0d14c09","651c35632c246d387b3b27cd","null","null","<p style=""font-size: 60px; font-family: BACS"">UmNJuUY</p>","","","","","","","","","",""
"html-keyboard-response","188","339188","0.0-12.0-0.18","6124a4ba3df07e768bd9c90b","650c16f0f2faf8d7a0d14c09","651c35632c246d387b3b27cd","null","null","<p style=""font-size: 60px; font-family: BACS"">uQuZcYArG</p>","","","","","","","","","",""
"html-keyboard-response","189","340203","0.0-12.0-0.19","6124a4ba3df07e768bd9c90b","650c16f0f2faf8d7a0d14c09","651c35632c246d387b3b27cd","null","null","<p style=""font-size: 60px; font-family: BACS"">ktBdTAm</p>","","","","","","","","","",""
"html-keyboard-response","190","341220","0.0-12.0-0.20","6124a4ba3df07e768bd9c90b","650c16f0f2faf8d7a0d14c09","651c35632c246d387b3b27cd","null","null","<p style=""font-size: 60px; font-family: BACS"">PhktkBYhT</p>","","","","","","","","","",""
"html-keyboard-response","191","342246","0.0-12.0-0.21","6124a4ba3df07e768bd9c90b","650c16f0f2faf8d7a0d14c09","651c35632c246d387b3b27cd","null","null","<p style=""font-size: 60px; font-family: BACS"">hTtBbPTl</p>","","","","","","","","","",""
"html-keyboard-response","192","343263","0.0-12.0-0.22","6124a4ba3df07e768bd9c90b","650c16f0f2faf8d7a0d14c09","651c35632c246d387b3b27cd","null","null","<p style=""font-size: 60px; font-family: BACS"">ldAaGUa</p>","","","","","","","","","",""
"html-keyboard-response","193","344278","0.0-12.0-0.23","6124a4ba3df07e768bd9c90b","650c16f0f2faf8d7a0d14c09","651c35632c246d387b3b27cd","null","null","<p style=""font-size: 60px; font-family: BACS"">EPMDkYTOM</p>","","","","","","","","","",""
"html-keyboard-response","194","345309","0.0-12.0-0.24","6124a4ba3df07e768bd9c90b","650c16f0f2faf8d7a0d14c09","651c35632c246d387b3b27cd","null","null","<p style=""font-size: 60px; font-family: BACS"">ktBdBYhT</p>","","","","","","","","","",""
"html-keyboard-response","195","346324","0.0-12.0-0.25","6124a4ba3df07e768bd9c90b","650c16f0f2faf8d7a0d14c09","651c35632c246d387b3b27cd","null","null","<p style=""font-size: 60px; font-family: BACS"">LcNUJGUa</p>","","","","","","","","","",""
"html-keyboard-response","196","347350","0.0-12.0-0.26","6124a4ba3df07e768bd9c90b","650c16f0f2faf8d7a0d14c09","651c35632c246d387b3b27cd","null","null","<p style=""font-size: 60px; font-family: BACS"">hAROKPTl</p>","","","","","","","","","",""
"html-keyboard-response","197","348372","0.0-12.0-0.27","6124a4ba3df07e768bd9c90b","650c16f0f2faf8d7a0d14c09","651c35632c246d387b3b27cd","null","null","<p style=""font-size: 60px; font-family: BACS"">hBmMCOMC</p>","","","","","","","","","",""
"html-keyboard-response","198","349390","0.0-12.0-0.28","6124a4ba3df07e768bd9c90b","650c16f0f2faf8d7a0d14c09","651c35632c246d387b3b27cd","null","null","<p style=""font-size: 60px; font-family: BACS"">ldAauUY</p>","","","","","","","","","",""
"html-keyboard-response","199","350405","0.0-12.0-0.29","6124a4ba3df07e768bd9c90b","650c16f0f2faf8d7a0d14c09","651c35632c246d387b3b27cd","null","null","<p style=""font-size: 60px; font-family: BACS"">UmNJdUr</p>","","","","","","","","","",""
"html-keyboard-response","200","351422","0.0-12.0-0.30","6124a4ba3df07e768bd9c90b","650c16f0f2faf8d7a0d14c09","651c35632c246d387b3b27cd","null","null","<p style=""font-size: 60px; font-family: BACS"">aYQmUZu</p>","","","","","","","","","",""
"html-keyboard-response","201","352436","0.0-12.0-0.31","6124a4ba3df07e768bd9c90b","650c16f0f2faf8d7a0d14c09","651c35632c246d387b3b27cd","null","null","<p style=""font-size: 60px; font-family: BACS"">dNZAYArG</p>","","","","","","","","","",""
"html-keyboard-response","202","353469","0.0-12.0-0.32","6124a4ba3df07e768bd9c90b","650c16f0f2faf8d7a0d14c09","651c35632c246d387b3b27cd","null","null","<p style=""font-size: 60px; font-family: BACS"">GJZmUZu</p>","","","","","","","","","",""
"html-keyboard-response","203","354485","0.0-12.0-0.33","6124a4ba3df07e768bd9c90b","650c16f0f2faf8d7a0d14c09","651c35632c246d387b3b27cd","null","null","<p style=""font-size: 60px; font-family: BACS"">ldAadUr</p>","","","","","","","","","",""
"html-keyboard-response","204","356036","0.0-12.0-0.34","6124a4ba3df07e768bd9c90b","650c16f0f2faf8d7a0d14c09","651c35632c246d387b3b27cd","null","null","<p style=""font-size: 60px; font-family: BACS"">aYQmGUa</p>","","","","","","","","","",""
"html-keyboard-response","205","358032","0.0-12.0-0.35","6124a4ba3df07e768bd9c90b","650c16f0f2faf8d7a0d14c09","651c35632c246d387b3b27cd","null","null","<p style=""font-size: 60px; font-family: BACS"">RlAKcOMC</p>","","","","","","","","","",""
"html-keyboard-response","206","359034","0.0-12.0-0.36","6124a4ba3df07e768bd9c90b","650c16f0f2faf8d7a0d14c09","651c35632c246d387b3b27cd","null","null","<p style=""font-size: 60px; font-family: BACS"">vmuLldUr</p>","","","","","","","","","",""
"html-keyboard-response","207","361040","0.0-12.0-0.37","6124a4ba3df07e768bd9c90b","650c16f0f2faf8d7a0d14c09","651c35632c246d387b3b27cd","null","null","<p style=""font-size: 60px; font-family: BACS"">GJZmGUa</p>","","","","","","","","","",""
"html-keyboard-response","208","363037","0.0-12.0-0.38","6124a4ba3df07e768bd9c90b","650c16f0f2faf8d7a0d14c09","651c35632c246d387b3b27cd","null","null","<p style=""font-size: 60px; font-family: BACS"">uQuZcdUr</p>","","","","","","","","","",""
"html-keyboard-response","209","365039","0.0-12.0-0.39","6124a4ba3df07e768bd9c90b","650c16f0f2faf8d7a0d14c09","651c35632c246d387b3b27cd","null","null","<p style=""font-size: 60px; font-family: BACS"">EPMDkOMC</p>","","","","","","","","","",""
"html-keyboard-response","210","367032","0.0-12.0-0.40","6124a4ba3df07e768bd9c90b","650c16f0f2faf8d7a0d14c09","651c35632c246d387b3b27cd","null","null","<p style=""font-size: 60px; font-family: BACS"">vmuLlUZu</p>","","","","","","","","","",""
"html-keyboard-response","211","368043","0.0-12.0-0.41","6124a4ba3df07e768bd9c90b","650c16f0f2faf8d7a0d14c09","651c35632c246d387b3b27cd","null","null","<p style=""font-size: 60px; font-family: BACS"">PhktkPTl</p>","","","","","","","","","",""
"html-keyboard-response","212","370029","0.0-12.0-0.42","6124a4ba3df07e768bd9c90b","650c16f0f2faf8d7a0d14c09","651c35632c246d387b3b27cd","null","null","<p style=""font-size: 60px; font-family: BACS"">hTtBbBYhT</p>","","","","","","","","","",""
"html-keyboard-response","213","371037","0.0-12.0-0.43","6124a4ba3df07e768bd9c90b","650c16f0f2faf8d7a0d14c09","651c35632c246d387b3b27cd","null","null","<p style=""font-size: 60px; font-family: BACS"">EPMDkTAm</p>","","","","","","","","","",""
"html-keyboard-response","214","373034","0.0-12.0-0.44","6124a4ba3df07e768bd9c90b","650c16f0f2faf8d7a0d14c09","651c35632c246d387b3b27cd","null","null","<p style=""font-size: 60px; font-family: BACS"">ldAaUZu</p>","","","","","","","","","",""
"html-keyboard-response","215","375042","0.0-12.0-0.45","6124a4ba3df07e768bd9c90b","650c16f0f2faf8d7a0d14c09","651c35632c246d387b3b27cd","null","null","<p style=""font-size: 60px; font-family: BACS"">aYaNGUa</p>","","","","","","","","","",""
"html-keyboard-response","216","377041","0.0-12.0-0.46","6124a4ba3df07e768bd9c90b","650c16f0f2faf8d7a0d14c09","651c35632c246d387b3b27cd","null","null","<p style=""font-size: 60px; font-family: BACS"">hAROKTAm</p>","","","","","","","","","",""
"html-keyboard-response","217","379035","0.0-12.0-0.47","6124a4ba3df07e768bd9c90b","650c16f0f2faf8d7a0d14c09","651c35632c246d387b3b27cd","null","null","<p style=""font-size: 60px; font-family: BACS"">hCktOMC</p>","","","","","","","","","",""
"html-keyboard-response","218","381029","0.0-12.0-0.48","6124a4ba3df07e768bd9c90b","650c16f0f2faf8d7a0d14c09","651c35632c246d387b3b27cd","null","null","<p style=""font-size: 60px; font-family: BACS"">bvuZUZu</p>","","","","","","","","","",""
"html-keyboard-response","219","383035","0.0-12.0-0.49","6124a4ba3df07e768bd9c90b","650c16f0f2faf8d7a0d14c09","651c35632c246d387b3b27cd","null","null","<p style=""font-size: 60px; font-family: BACS"">UmNJGUa</p>","","","","","","","","","",""
"html-keyboard-response","220","385042","0.0-12.0-0.50","6124a4ba3df07e768bd9c90b","650c16f0f2faf8d7a0d14c09","651c35632c246d387b3b27cd","null","null","<p style=""font-size: 60px; font-family: BACS"">uQuZcUZu</p>","","","","","","","","","",""
"html-keyboard-response","221","387034","0.0-12.0-0.51","6124a4ba3df07e768bd9c90b","650c16f0f2faf8d7a0d14c09","651c35632c246d387b3b27cd","null","null","<p style=""font-size: 60px; font-family: BACS"">hCktYTOM</p>","","","","","","","","","",""
"html-keyboard-response","222","389040","0.0-12.0-0.52","6124a4ba3df07e768bd9c90b","650c16f0f2faf8d7a0d14c09","651c35632c246d387b3b27cd","null","null","<p style=""font-size: 60px; font-family: BACS"">vmuLlGUa</p>","","","","","","","","","",""
"html-keyboard-response","223","391041","0.0-12.0-0.53","6124a4ba3df07e768bd9c90b","650c16f0f2faf8d7a0d14c09","651c35632c246d387b3b27cd","null","null","<p style=""font-size: 60px; font-family: BACS"">aYaNYArG</p>","","","","","","","","","",""
"html-keyboard-response","224","393042","0.0-12.0-0.54","6124a4ba3df07e768bd9c90b","650c16f0f2faf8d7a0d14c09","651c35632c246d387b3b27cd","null","null","<p style=""font-size: 60px; font-family: BACS"">hCktPTl</p>","","","","","","","","","",""
"html-keyboard-response","225","395042","0.0-12.0-0.55","6124a4ba3df07e768bd9c90b","650c16f0f2faf8d7a0d14c09","651c35632c246d387b3b27cd","null","null","<p style=""font-size: 60px; font-family: BACS"">lRckATAm</p>","","","","","","","","","",""
"html-keyboard-response","226","397035","0.0-12.0-0.56","6124a4ba3df07e768bd9c90b","650c16f0f2faf8d7a0d14c09","651c35632c246d387b3b27cd","null","null","<p style=""font-size: 60px; font-family: BACS"">UmNJYArG</p>","","","","","","","","","",""
"html-keyboard-response","227","399043","0.0-12.0-0.57","6124a4ba3df07e768bd9c90b","650c16f0f2faf8d7a0d14c09","651c35632c246d387b3b27cd","null","null","<p style=""font-size: 60px; font-family: BACS"">aYQmdUr</p>","","","","","","","","","",""
"html-keyboard-response","228","401028","0.0-12.0-0.58","6124a4ba3df07e768bd9c90b","650c16f0f2faf8d7a0d14c09","651c35632c246d387b3b27cd","null","null","<p style=""font-size: 60px; font-family: BACS"">hAROKOMC</p>","","","","","","","","","",""
"html-keyboard-response","229","402036","0.0-12.0-0.59","6124a4ba3df07e768bd9c90b","650c16f0f2faf8d7a0d14c09","651c35632c246d387b3b27cd","null","null","<p style=""font-size: 60px; font-family: BACS"">RlAKcBYhT</p>","","","","","","","","","",""
"html-keyboard-response","230","404028","0.0-12.0-0.60","6124a4ba3df07e768bd9c90b","650c16f0f2faf8d7a0d14c09","651c35632c246d387b3b27cd","null","null","<p style=""font-size: 60px; font-family: BACS"">bvuZYArG</p>","","","","","","","","","",""
"html-keyboard-response","231","406038","0.0-12.0-0.61","6124a4ba3df07e768bd9c90b","650c16f0f2faf8d7a0d14c09","651c35632c246d387b3b27cd","null","null","<p style=""font-size: 60px; font-family: BACS"">RKYkBYhT</p>","","","","","","","","","",""
"html-keyboard-response","232","407042","0.0-12.0-0.62","6124a4ba3df07e768bd9c90b","650c16f0f2faf8d7a0d14c09","651c35632c246d387b3b27cd","null","null","<p style=""font-size: 60px; font-family: BACS"">aYQmYArG</p>","","","","","","","","","",""
"html-keyboard-response","233","409035","0.0-12.0-0.63","6124a4ba3df07e768bd9c90b","650c16f0f2faf8d7a0d14c09","651c35632c246d387b3b27cd","null","null","<p style=""font-size: 60px; font-family: BACS"">hBmMCTAm</p>","","","","","","","","","",""
"html-keyboard-response","234","411027","0.0-12.0-0.64","6124a4ba3df07e768bd9c90b","650c16f0f2faf8d7a0d14c09","651c35632c246d387b3b27cd","null","null","<p style=""font-size: 60px; font-family: BACS"">dNZAdUr</p>","","","","","","","","","",""
"html-keyboard-response","235","412037","0.0-12.0-0.65","6124a4ba3df07e768bd9c90b","650c16f0f2faf8d7a0d14c09","651c35632c246d387b3b27cd","null","null","<p style=""font-size: 60px; font-family: BACS"">RlAKcPTl</p>","","","","","","","","","",""
"html-keyboard-response","236","414036","0.0-12.0-0.66","6124a4ba3df07e768bd9c90b","650c16f0f2faf8d7a0d14c09","651c35632c246d387b3b27cd","null","null","<p style=""font-size: 60px; font-family: BACS"">RKYkTAm</p>","","","","","","","","","",""
"html-keyboard-response","237","415039","0.0-12.0-0.67","6124a4ba3df07e768bd9c90b","650c16f0f2faf8d7a0d14c09","651c35632c246d387b3b27cd","null","null","<p style=""font-size: 60px; font-family: BACS"">PhktkYTOM</p>","","","","","","","","","",""
"html-keyboard-response","238","417038","0.0-12.0-0.68","6124a4ba3df07e768bd9c90b","650c16f0f2faf8d7a0d14c09","651c35632c246d387b3b27cd","null","null","<p style=""font-size: 60px; font-family: BACS"">bvuZGUa</p>","","","","","","","","","",""
"html-keyboard-response","239","419032","0.0-12.0-0.69","6124a4ba3df07e768bd9c90b","650c16f0f2faf8d7a0d14c09","651c35632c246d387b3b27cd","null","null","<p style=""font-size: 60px; font-family: BACS"">LcNUJdUr</p>","","","","","","","","","",""
"html-keyboard-response","240","420041","0.0-12.0-0.70","6124a4ba3df07e768bd9c90b","650c16f0f2faf8d7a0d14c09","651c35632c246d387b3b27cd","null","null","<p style=""font-size: 60px; font-family: BACS"">uQuZcuUY</p>","","","","","","","","","",""
"html-keyboard-response","241","422031","0.0-12.0-0.71","6124a4ba3df07e768bd9c90b","650c16f0f2faf8d7a0d14c09","651c35632c246d387b3b27cd","null","null","<p style=""font-size: 60px; font-family: BACS"">lRckAPTl</p>","","","","","","","","","",""
"html-keyboard-response","242","423039","0.0-12.0-0.72","6124a4ba3df07e768bd9c90b","650c16f0f2faf8d7a0d14c09","651c35632c246d387b3b27cd","null","null","<p style=""font-size: 60px; font-family: BACS"">bvuZdUr</p>","","","","","","","","","",""
"html-keyboard-response","243","425031","0.0-12.0-0.73","6124a4ba3df07e768bd9c90b","650c16f0f2faf8d7a0d14c09","651c35632c246d387b3b27cd","null","null","<p style=""font-size: 60px; font-family: BACS"">PhktkTAm</p>","","","","","","","","","",""
"html-keyboard-response","244","426042","0.0-12.0-0.74","6124a4ba3df07e768bd9c90b","650c16f0f2faf8d7a0d14c09","651c35632c246d387b3b27cd","null","null","<p style=""font-size: 60px; font-family: BACS"">aYaNuUY</p>","","","","","","","","","",""
"html-keyboard-response","245","428038","0.0-12.0-0.75","6124a4ba3df07e768bd9c90b","650c16f0f2faf8d7a0d14c09","651c35632c246d387b3b27cd","null","null","<p style=""font-size: 60px; font-family: BACS"">ktBdPTl</p>","","","","","","","","","",""
"html-keyboard-response","246","430037","0.0-12.0-0.76","6124a4ba3df07e768bd9c90b","650c16f0f2faf8d7a0d14c09","651c35632c246d387b3b27cd","null","null","<p style=""font-size: 60px; font-family: BACS"">hTtBbYTOM</p>","","","","","","","","","",""
"html-keyboard-response","247","432038","0.0-12.0-0.77","6124a4ba3df07e768bd9c90b","650c16f0f2faf8d7a0d14c09","651c35632c246d387b3b27cd","null","null","<p style=""font-size: 60px; font-family: BACS"">vmuLluUY</p>","","","","","","","","","",""
"html-keyboard-response","248","434035","0.0-12.0-0.78","6124a4ba3df07e768bd9c90b","650c16f0f2faf8d7a0d14c09","651c35632c246d387b3b27cd","null","null","<p style=""font-size: 60px; font-family: BACS"">RKYkYTOM</p>","","","","","","","","","",""
"html-keyboard-response","249","435039","0.0-12.0-0.79","6124a4ba3df07e768bd9c90b","650c16f0f2faf8d7a0d14c09","651c35632c246d387b3b27cd","null","null","<p style=""font-size: 60px; font-family: BACS"">hTtBbTAm</p>","","","","","","","","","",""
"html-keyboard-response","250","454302","0.0-13.0","6124a4ba3df07e768bd9c90b","650c16f0f2faf8d7a0d14c09","651c35632c246d387b3b27cd","19262"," ","<p>Great, you've seen the third block of words. You may now take a short break.</p>
      <p>Press the spacebar when you're ready to continue.</p>","","","","","","","","","",""
"html-keyboard-response","251","455311","0.0-14.0-0.0","6124a4ba3df07e768bd9c90b","650c16f0f2faf8d7a0d14c09","651c35632c246d387b3b27cd","null","null","<p style=""font-size: 60px; font-family: BACS"">LcNUJGUa</p>","","","","","","","","","",""
"html-keyboard-response","252","456327","0.0-14.0-0.1","6124a4ba3df07e768bd9c90b","650c16f0f2faf8d7a0d14c09","651c35632c246d387b3b27cd","null","null","<p style=""font-size: 60px; font-family: BACS"">PhktkTAm</p>","","","","","","","","","",""
"html-keyboard-response","253","457335","0.0-14.0-0.2","6124a4ba3df07e768bd9c90b","650c16f0f2faf8d7a0d14c09","651c35632c246d387b3b27cd","null","null","<p style=""font-size: 60px; font-family: BACS"">aYaNYArG</p>","","","","","","","","","",""
"html-keyboard-response","254","458347","0.0-14.0-0.3","6124a4ba3df07e768bd9c90b","650c16f0f2faf8d7a0d14c09","651c35632c246d387b3b27cd","null","null","<p style=""font-size: 60px; font-family: BACS"">RKYkOMC</p>","","","","","","","","","",""
"html-keyboard-response","255","459359","0.0-14.0-0.4","6124a4ba3df07e768bd9c90b","650c16f0f2faf8d7a0d14c09","651c35632c246d387b3b27cd","null","null","<p style=""font-size: 60px; font-family: BACS"">ktBdBYhT</p>","","","","","","","","","",""
"html-keyboard-response","256","460383","0.0-14.0-0.5","6124a4ba3df07e768bd9c90b","650c16f0f2faf8d7a0d14c09","651c35632c246d387b3b27cd","null","null","<p style=""font-size: 60px; font-family: BACS"">aYaNuUY</p>","","","","","","","","","",""
"html-keyboard-response","257","461397","0.0-14.0-0.6","6124a4ba3df07e768bd9c90b","650c16f0f2faf8d7a0d14c09","651c35632c246d387b3b27cd","null","null","<p style=""font-size: 60px; font-family: BACS"">hTtBbTAm</p>","","","","","","","","","",""
"html-keyboard-response","258","462419","0.0-14.0-0.7","6124a4ba3df07e768bd9c90b","650c16f0f2faf8d7a0d14c09","651c35632c246d387b3b27cd","null","null","<p style=""font-size: 60px; font-family: BACS"">bvuZYArG</p>","","","","","","","","","",""
"html-keyboard-response","259","463447","0.0-14.0-0.8","6124a4ba3df07e768bd9c90b","650c16f0f2faf8d7a0d14c09","651c35632c246d387b3b27cd","null","null","<p style=""font-size: 60px; font-family: BACS"">ktBdOMC</p>","","","","","","","","","",""
"html-keyboard-response","260","464463","0.0-14.0-0.9","6124a4ba3df07e768bd9c90b","650c16f0f2faf8d7a0d14c09","651c35632c246d387b3b27cd","null","null","<p style=""font-size: 60px; font-family: BACS"">aYQmdUr</p>","","","","","","","","","",""
"html-keyboard-response","261","465479","0.0-14.0-0.10","6124a4ba3df07e768bd9c90b","650c16f0f2faf8d7a0d14c09","651c35632c246d387b3b27cd","null","null","<p style=""font-size: 60px; font-family: BACS"">GJZmGUa</p>","","","","","","","","","",""
"html-keyboard-response","262","466510","0.0-14.0-0.11","6124a4ba3df07e768bd9c90b","650c16f0f2faf8d7a0d14c09","651c35632c246d387b3b27cd","null","null","<p style=""font-size: 60px; font-family: BACS"">dNZAUZu</p>","","","","","","","","","",""
"html-keyboard-response","263","467529","0.0-14.0-0.12","6124a4ba3df07e768bd9c90b","650c16f0f2faf8d7a0d14c09","651c35632c246d387b3b27cd","null","null","<p style=""font-size: 60px; font-family: BACS"">hTtBbBYhT</p>","","","","","","","","","",""
"html-keyboard-response","264","468542","0.0-14.0-0.13","6124a4ba3df07e768bd9c90b","650c16f0f2faf8d7a0d14c09","651c35632c246d387b3b27cd","null","null","<p style=""font-size: 60px; font-family: BACS"">RKYkTAm</p>","","","","","","","","","",""
"html-keyboard-response","265","469563","0.0-14.0-0.14","6124a4ba3df07e768bd9c90b","650c16f0f2faf8d7a0d14c09","651c35632c246d387b3b27cd","null","null","<p style=""font-size: 60px; font-family: BACS"">UmNJGUa</p>","","","","","","","","","",""
"html-keyboard-response","266","470579","0.0-14.0-0.15","6124a4ba3df07e768bd9c90b","650c16f0f2faf8d7a0d14c09","651c35632c246d387b3b27cd","null","null","<p style=""font-size: 60px; font-family: BACS"">ldAauUY</p>","","","","","","","","","",""
"html-keyboard-response","267","471602","0.0-14.0-0.16","6124a4ba3df07e768bd9c90b","650c16f0f2faf8d7a0d14c09","651c35632c246d387b3b27cd","null","null","<p style=""font-size: 60px; font-family: BACS"">RKYkYTOM</p>","","","","","","","","","",""
"html-keyboard-response","268","472627","0.0-14.0-0.17","6124a4ba3df07e768bd9c90b","650c16f0f2faf8d7a0d14c09","651c35632c246d387b3b27cd","null","null","<p style=""font-size: 60px; font-family: BACS"">EPMDkOMC</p>","","","","","","","","","",""
"html-keyboard-response","269","473647","0.0-14.0-0.18","6124a4ba3df07e768bd9c90b","650c16f0f2faf8d7a0d14c09","651c35632c246d387b3b27cd","null","null","<p style=""font-size: 60px; font-family: BACS"">PhktkYTOM</p>","","","","","","","","","",""
"html-keyboard-response","270","474662","0.0-14.0-0.19","6124a4ba3df07e768bd9c90b","650c16f0f2faf8d7a0d14c09","651c35632c246d387b3b27cd","null","null","<p style=""font-size: 60px; font-family: BACS"">hAROKTAm</p>","","","","","","","","","",""
"html-keyboard-response","271","475678","0.0-14.0-0.20","6124a4ba3df07e768bd9c90b","650c16f0f2faf8d7a0d14c09","651c35632c246d387b3b27cd","null","null","<p style=""font-size: 60px; font-family: BACS"">aYaNGUa</p>","","","","","","","","","",""
"html-keyboard-response","272","476697","0.0-14.0-0.21","6124a4ba3df07e768bd9c90b","650c16f0f2faf8d7a0d14c09","651c35632c246d387b3b27cd","null","null","<p style=""font-size: 60px; font-family: BACS"">uQuZcUZu</p>","","","","","","","","","",""
"html-keyboard-response","273","477719","0.0-14.0-0.22","6124a4ba3df07e768bd9c90b","650c16f0f2faf8d7a0d14c09","651c35632c246d387b3b27cd","null","null","<p style=""font-size: 60px; font-family: BACS"">hCktBYhT</p>","","","","","","","","","",""
"html-keyboard-response","274","478745","0.0-14.0-0.23","6124a4ba3df07e768bd9c90b","650c16f0f2faf8d7a0d14c09","651c35632c246d387b3b27cd","null","null","<p style=""font-size: 60px; font-family: BACS"">aYQmYArG</p>","","","","","","","","","",""
"html-keyboard-response","275","479759","0.0-14.0-0.24","6124a4ba3df07e768bd9c90b","650c16f0f2faf8d7a0d14c09","651c35632c246d387b3b27cd","null","null","<p style=""font-size: 60px; font-family: BACS"">hCktYTOM</p>","","","","","","","","","",""
"html-keyboard-response","276","480782","0.0-14.0-0.25","6124a4ba3df07e768bd9c90b","650c16f0f2faf8d7a0d14c09","651c35632c246d387b3b27cd","null","null","<p style=""font-size: 60px; font-family: BACS"">hBmMCTAm</p>","","","","","","","","","",""
"html-keyboard-response","277","481805","0.0-14.0-0.26","6124a4ba3df07e768bd9c90b","650c16f0f2faf8d7a0d14c09","651c35632c246d387b3b27cd","null","null","<p style=""font-size: 60px; font-family: BACS"">RlAKcYTOM</p>","","","","","","","","","",""
"html-keyboard-response","278","482829","0.0-14.0-0.27","6124a4ba3df07e768bd9c90b","650c16f0f2faf8d7a0d14c09","651c35632c246d387b3b27cd","null","null","<p style=""font-size: 60px; font-family: BACS"">LcNUJdUr</p>","","","","","","","","","",""
"html-keyboard-response","279","483838","0.0-14.0-0.28","6124a4ba3df07e768bd9c90b","650c16f0f2faf8d7a0d14c09","651c35632c246d387b3b27cd","null","null","<p style=""font-size: 60px; font-family: BACS"">hAROKOMC</p>","","","","","","","","","",""
"html-keyboard-response","280","484862","0.0-14.0-0.29","6124a4ba3df07e768bd9c90b","650c16f0f2faf8d7a0d14c09","651c35632c246d387b3b27cd","null","null","<p style=""font-size: 60px; font-family: BACS"">EPMDkTAm</p>","","","","","","","","","",""
"html-keyboard-response","281","485878","0.0-14.0-0.30","6124a4ba3df07e768bd9c90b","650c16f0f2faf8d7a0d14c09","651c35632c246d387b3b27cd","null","null","<p style=""font-size: 60px; font-family: BACS"">dNZAdUr</p>","","","","","","","","","",""
"html-keyboard-response","282","486901","0.0-14.0-0.31","6124a4ba3df07e768bd9c90b","650c16f0f2faf8d7a0d14c09","651c35632c246d387b3b27cd","null","null","<p style=""font-size: 60px; font-family: BACS"">aYQmUZu</p>","","","","","","","","","",""
"html-keyboard-response","283","487917","0.0-14.0-0.32","6124a4ba3df07e768bd9c90b","650c16f0f2faf8d7a0d14c09","651c35632c246d387b3b27cd","null","null","<p style=""font-size: 60px; font-family: BACS"">LcNUJuUY</p>","","","","","","","","","",""
"html-keyboard-response","284","488943","0.0-14.0-0.33","6124a4ba3df07e768bd9c90b","650c16f0f2faf8d7a0d14c09","651c35632c246d387b3b27cd","null","null","<p style=""font-size: 60px; font-family: BACS"">UmNJYArG</p>","","","","","","","","","",""
"html-keyboard-response","285","490035","0.0-14.0-0.34","6124a4ba3df07e768bd9c90b","650c16f0f2faf8d7a0d14c09","651c35632c246d387b3b27cd","null","null","<p style=""font-size: 60px; font-family: BACS"">vmuLlGUa</p>","","","","","","","","","",""
"html-keyboard-response","286","492043","0.0-14.0-0.35","6124a4ba3df07e768bd9c90b","650c16f0f2faf8d7a0d14c09","651c35632c246d387b3b27cd","null","null","<p style=""font-size: 60px; font-family: BACS"">lRckAOMC</p>","","","","","","","","","",""
"html-keyboard-response","287","494031","0.0-14.0-0.36","6124a4ba3df07e768bd9c90b","650c16f0f2faf8d7a0d14c09","651c35632c246d387b3b27cd","null","null","<p style=""font-size: 60px; font-family: BACS"">UmNJdUr</p>","","","","","","","","","",""
"html-keyboard-response","288","495041","0.0-14.0-0.37","6124a4ba3df07e768bd9c90b","650c16f0f2faf8d7a0d14c09","651c35632c246d387b3b27cd","null","null","<p style=""font-size: 60px; font-family: BACS"">lRckABYhT</p>","","","","","","","","","",""
"html-keyboard-response","289","497036","0.0-14.0-0.38","6124a4ba3df07e768bd9c90b","650c16f0f2faf8d7a0d14c09","651c35632c246d387b3b27cd","null","null","<p style=""font-size: 60px; font-family: BACS"">ktBdTAm</p>","","","","","","","","","",""
"html-keyboard-response","290","499027","0.0-14.0-0.39","6124a4ba3df07e768bd9c90b","650c16f0f2faf8d7a0d14c09","651c35632c246d387b3b27cd","null","null","<p style=""font-size: 60px; font-family: BACS"">vmuLluUY</p>","","","","","","","","","",""
"html-keyboard-response","291","500031","0.0-14.0-0.40","6124a4ba3df07e768bd9c90b","650c16f0f2faf8d7a0d14c09","651c35632c246d387b3b27cd","null","null","<p style=""font-size: 60px; font-family: BACS"">PhktkPTl</p>","","","","","","","","","",""
"html-keyboard-response","292","502028","0.0-14.0-0.41","6124a4ba3df07e768bd9c90b","650c16f0f2faf8d7a0d14c09","651c35632c246d387b3b27cd","null","null","<p style=""font-size: 60px; font-family: BACS"">bvuZdUr</p>","","","","","","","","","",""
"html-keyboard-response","293","504028","0.0-14.0-0.42","6124a4ba3df07e768bd9c90b","650c16f0f2faf8d7a0d14c09","651c35632c246d387b3b27cd","null","null","<p style=""font-size: 60px; font-family: BACS"">uQuZcYArG</p>","","","","","","","","","",""
"html-keyboard-response","294","505038","0.0-14.0-0.43","6124a4ba3df07e768bd9c90b","650c16f0f2faf8d7a0d14c09","651c35632c246d387b3b27cd","null","null","<p style=""font-size: 60px; font-family: BACS"">lRckAPTl</p>","","","","","","","","","",""
"html-keyboard-response","295","506042","0.0-14.0-0.44","6124a4ba3df07e768bd9c90b","650c16f0f2faf8d7a0d14c09","651c35632c246d387b3b27cd","null","null","<p style=""font-size: 60px; font-family: BACS"">hTtBbYTOM</p>","","","","","","","","","",""
"html-keyboard-response","296","508028","0.0-14.0-0.45","6124a4ba3df07e768bd9c90b","650c16f0f2faf8d7a0d14c09","651c35632c246d387b3b27cd","null","null","<p style=""font-size: 60px; font-family: BACS"">GJZmuUY</p>","","","","","","","","","",""
"html-keyboard-response","297","509040","0.0-14.0-0.46","6124a4ba3df07e768bd9c90b","650c16f0f2faf8d7a0d14c09","651c35632c246d387b3b27cd","null","null","<p style=""font-size: 60px; font-family: BACS"">ldAaUZu</p>","","","","","","","","","",""
"html-keyboard-response","298","510044","0.0-14.0-0.47","6124a4ba3df07e768bd9c90b","650c16f0f2faf8d7a0d14c09","651c35632c246d387b3b27cd","null","null","<p style=""font-size: 60px; font-family: BACS"">lRckATAm</p>","","","","","","","","","",""
"html-keyboard-response","299","512041","0.0-14.0-0.48","6124a4ba3df07e768bd9c90b","650c16f0f2faf8d7a0d14c09","651c35632c246d387b3b27cd","null","null","<p style=""font-size: 60px; font-family: BACS"">bvuZUZu</p>","","","","","","","","","",""
"html-keyboard-response","300","514034","0.0-14.0-0.49","6124a4ba3df07e768bd9c90b","650c16f0f2faf8d7a0d14c09","651c35632c246d387b3b27cd","null","null","<p style=""font-size: 60px; font-family: BACS"">hCktOMC</p>","","","","","","","","","",""
"html-keyboard-response","301","516028","0.0-14.0-0.50","6124a4ba3df07e768bd9c90b","650c16f0f2faf8d7a0d14c09","651c35632c246d387b3b27cd","null","null","<p style=""font-size: 60px; font-family: BACS"">dNZAYArG</p>","","","","","","","","","",""
"html-keyboard-response","302","517038","0.0-14.0-0.51","6124a4ba3df07e768bd9c90b","650c16f0f2faf8d7a0d14c09","651c35632c246d387b3b27cd","null","null","<p style=""font-size: 60px; font-family: BACS"">aYQmGUa</p>","","","","","","","","","",""
"html-keyboard-response","303","519027","0.0-14.0-0.52","6124a4ba3df07e768bd9c90b","650c16f0f2faf8d7a0d14c09","651c35632c246d387b3b27cd","null","null","<p style=""font-size: 60px; font-family: BACS"">UmNJuUY</p>","","","","","","","","","",""
"html-keyboard-response","304","520039","0.0-14.0-0.53","6124a4ba3df07e768bd9c90b","650c16f0f2faf8d7a0d14c09","651c35632c246d387b3b27cd","null","null","<p style=""font-size: 60px; font-family: BACS"">hCktPTl</p>","","","","","","","","","",""
"html-keyboard-response","305","521043","0.0-14.0-0.54","6124a4ba3df07e768bd9c90b","650c16f0f2faf8d7a0d14c09","651c35632c246d387b3b27cd","null","null","<p style=""font-size: 60px; font-family: BACS"">dNZAuUY</p>","","","","","","","","","",""
"html-keyboard-response","306","523032","0.0-14.0-0.55","6124a4ba3df07e768bd9c90b","650c16f0f2faf8d7a0d14c09","651c35632c246d387b3b27cd","null","null","<p style=""font-size: 60px; font-family: BACS"">GJZmYArG</p>","","","","","","","","","",""
"html-keyboard-response","307","524037","0.0-14.0-0.56","6124a4ba3df07e768bd9c90b","650c16f0f2faf8d7a0d14c09","651c35632c246d387b3b27cd","null","null","<p style=""font-size: 60px; font-family: BACS"">uQuZcdUr</p>","","","","","","","","","",""
"html-keyboard-response","308","525039","0.0-14.0-0.57","6124a4ba3df07e768bd9c90b","650c16f0f2faf8d7a0d14c09","651c35632c246d387b3b27cd","null","null","<p style=""font-size: 60px; font-family: BACS"">EPMDkYTOM</p>","","","","","","","","","",""
"html-keyboard-response","309","527037","0.0-14.0-0.58","6124a4ba3df07e768bd9c90b","650c16f0f2faf8d7a0d14c09","651c35632c246d387b3b27cd","null","null","<p style=""font-size: 60px; font-family: BACS"">vmuLlUZu</p>","","","","","","","","","",""
"html-keyboard-response","310","529030","0.0-14.0-0.59","6124a4ba3df07e768bd9c90b","650c16f0f2faf8d7a0d14c09","651c35632c246d387b3b27cd","null","null","<p style=""font-size: 60px; font-family: BACS"">hBmMCBYhT</p>","","","","","","","","","",""
"html-keyboard-response","311","530039","0.0-14.0-0.60","6124a4ba3df07e768bd9c90b","650c16f0f2faf8d7a0d14c09","651c35632c246d387b3b27cd","null","null","<p style=""font-size: 60px; font-family: BACS"">hAROKPTl</p>","","","","","","","","","",""
"html-keyboard-response","312","532035","0.0-14.0-0.61","6124a4ba3df07e768bd9c90b","650c16f0f2faf8d7a0d14c09","651c35632c246d387b3b27cd","null","null","<p style=""font-size: 60px; font-family: BACS"">PhktkBYhT</p>","","","","","","","","","",""
"html-keyboard-response","313","533038","0.0-14.0-0.62","6124a4ba3df07e768bd9c90b","650c16f0f2faf8d7a0d14c09","651c35632c246d387b3b27cd","null","null","<p style=""font-size: 60px; font-family: BACS"">aYaNUZu</p>","","","","","","","","","",""
"html-keyboard-response","314","535035","0.0-14.0-0.63","6124a4ba3df07e768bd9c90b","650c16f0f2faf8d7a0d14c09","651c35632c246d387b3b27cd","null","null","<p style=""font-size: 60px; font-family: BACS"">ldAaGUa</p>","","","","","","","","","",""
"html-keyboard-response","315","537032","0.0-14.0-0.64","6124a4ba3df07e768bd9c90b","650c16f0f2faf8d7a0d14c09","651c35632c246d387b3b27cd","null","null","<p style=""font-size: 60px; font-family: BACS"">EPMDkPTl</p>","","","","","","","","","",""
"html-keyboard-response","316","538043","0.0-14.0-0.65","6124a4ba3df07e768bd9c90b","650c16f0f2faf8d7a0d14c09","651c35632c246d387b3b27cd","null","null","<p style=""font-size: 60px; font-family: BACS"">bvuZGUa</p>","","","","","","","","","",""
"html-keyboard-response","317","540028","0.0-14.0-0.66","6124a4ba3df07e768bd9c90b","650c16f0f2faf8d7a0d14c09","651c35632c246d387b3b27cd","null","null","<p style=""font-size: 60px; font-family: BACS"">hBmMCYTOM</p>","","","","","","","","","",""
"html-keyboard-response","318","542027","0.0-14.0-0.67","6124a4ba3df07e768bd9c90b","650c16f0f2faf8d7a0d14c09","651c35632c246d387b3b27cd","null","null","<p style=""font-size: 60px; font-family: BACS"">RlAKcPTl</p>","","","","","","","","","",""
"html-keyboard-response","319","544037","0.0-14.0-0.68","6124a4ba3df07e768bd9c90b","650c16f0f2faf8d7a0d14c09","651c35632c246d387b3b27cd","null","null","<p style=""font-size: 60px; font-family: BACS"">hBmMCOMC</p>","","","","","","","","","",""
"html-keyboard-response","320","546028","0.0-14.0-0.69","6124a4ba3df07e768bd9c90b","650c16f0f2faf8d7a0d14c09","651c35632c246d387b3b27cd","null","null","<p style=""font-size: 60px; font-family: BACS"">GJZmUZu</p>","","","","","","","","","",""
"html-keyboard-response","321","547039","0.0-14.0-0.70","6124a4ba3df07e768bd9c90b","650c16f0f2faf8d7a0d14c09","651c35632c246d387b3b27cd","null","null","<p style=""font-size: 60px; font-family: BACS"">uQuZcuUY</p>","","","","","","","","","",""
"html-keyboard-response","322","549030","0.0-14.0-0.71","6124a4ba3df07e768bd9c90b","650c16f0f2faf8d7a0d14c09","651c35632c246d387b3b27cd","null","null","<p style=""font-size: 60px; font-family: BACS"">RlAKcOMC</p>","","","","","","","","","",""
"html-keyboard-response","323","551042","0.0-14.0-0.72","6124a4ba3df07e768bd9c90b","650c16f0f2faf8d7a0d14c09","651c35632c246d387b3b27cd","null","null","<p style=""font-size: 60px; font-family: BACS"">LcNUJYArG</p>","","","","","","","","","",""
"html-keyboard-response","324","553029","0.0-14.0-0.73","6124a4ba3df07e768bd9c90b","650c16f0f2faf8d7a0d14c09","651c35632c246d387b3b27cd","null","null","<p style=""font-size: 60px; font-family: BACS"">hTtBbPTl</p>","","","","","","","","","",""
"html-keyboard-response","325","554036","0.0-14.0-0.74","6124a4ba3df07e768bd9c90b","650c16f0f2faf8d7a0d14c09","651c35632c246d387b3b27cd","null","null","<p style=""font-size: 60px; font-family: BACS"">ldAadUr</p>","","","","","","","","","",""
"html-keyboard-response","326","556038","0.0-14.0-0.75","6124a4ba3df07e768bd9c90b","650c16f0f2faf8d7a0d14c09","651c35632c246d387b3b27cd","null","null","<p style=""font-size: 60px; font-family: BACS"">RKYkBYhT</p>","","","","","","","","","",""
"html-keyboard-response","327","558031","0.0-14.0-0.76","6124a4ba3df07e768bd9c90b","650c16f0f2faf8d7a0d14c09","651c35632c246d387b3b27cd","null","null","<p style=""font-size: 60px; font-family: BACS"">ktBdPTl</p>","","","","","","","","","",""
"html-keyboard-response","328","560040","0.0-14.0-0.77","6124a4ba3df07e768bd9c90b","650c16f0f2faf8d7a0d14c09","651c35632c246d387b3b27cd","null","null","<p style=""font-size: 60px; font-family: BACS"">vmuLldUr</p>","","","","","","","","","",""
"html-keyboard-response","329","562040","0.0-14.0-0.78","6124a4ba3df07e768bd9c90b","650c16f0f2faf8d7a0d14c09","651c35632c246d387b3b27cd","null","null","<p style=""font-size: 60px; font-family: BACS"">hAROKYTOM</p>","","","","","","","","","",""
"html-keyboard-response","330","564027","0.0-14.0-0.79","6124a4ba3df07e768bd9c90b","650c16f0f2faf8d7a0d14c09","651c35632c246d387b3b27cd","null","null","<p style=""font-size: 60px; font-family: BACS"">RlAKcBYhT</p>","","","","","","","","","",""
"html-keyboard-response","331","572595","0.0-15.0","6124a4ba3df07e768bd9c90b","650c16f0f2faf8d7a0d14c09","651c35632c246d387b3b27cd","8567"," ","<p>Great, you've seen the fourth block of words. You may now take a short break.</p>
      <p>Press the spacebar when you're ready to continue.</p>","","","","","","","","","",""
"html-keyboard-response","332","573605","0.0-16.0-0.0","6124a4ba3df07e768bd9c90b","650c16f0f2faf8d7a0d14c09","651c35632c246d387b3b27cd","null","null","<p style=""font-size: 60px; font-family: BACS"">EPMDkYTOM</p>","","","","","","","","","",""
"html-keyboard-response","333","574622","0.0-16.0-0.1","6124a4ba3df07e768bd9c90b","650c16f0f2faf8d7a0d14c09","651c35632c246d387b3b27cd","null","null","<p style=""font-size: 60px; font-family: BACS"">EPMDkYTOM</p>","","","","","","","","","",""
"html-keyboard-response","334","575636","0.0-16.0-0.2","6124a4ba3df07e768bd9c90b","650c16f0f2faf8d7a0d14c09","651c35632c246d387b3b27cd","null","null","<p style=""font-size: 60px; font-family: BACS"">EPMDkYTOM</p>","","","","","","","","","",""
"html-keyboard-response","335","576653","0.0-16.0-0.3","6124a4ba3df07e768bd9c90b","650c16f0f2faf8d7a0d14c09","651c35632c246d387b3b27cd","null","null","<p style=""font-size: 60px; font-family: BACS"">EPMDkYTOM</p>","","","","","","","","","",""
"html-keyboard-response","336","577686","0.0-16.0-0.4","6124a4ba3df07e768bd9c90b","650c16f0f2faf8d7a0d14c09","651c35632c246d387b3b27cd","null","null","<p style=""font-size: 60px; font-family: BACS"">EPMDkYTOM</p>","","","","","","","","","",""
"html-keyboard-response","337","578702","0.0-16.0-0.5","6124a4ba3df07e768bd9c90b","650c16f0f2faf8d7a0d14c09","651c35632c246d387b3b27cd","null","null","<p style=""font-size: 60px; font-family: BACS"">EPMDkYTOM</p>","","","","","","","","","",""
"html-keyboard-response","338","579719","0.0-16.0-0.6","6124a4ba3df07e768bd9c90b","650c16f0f2faf8d7a0d14c09","651c35632c246d387b3b27cd","null","null","<p style=""font-size: 60px; font-family: BACS"">EPMDkYTOM</p>","","","","","","","","","",""
"html-keyboard-response","339","580750","0.0-16.0-0.7","6124a4ba3df07e768bd9c90b","650c16f0f2faf8d7a0d14c09","651c35632c246d387b3b27cd","null","null","<p style=""font-size: 60px; font-family: BACS"">EPMDkYTOM</p>","","","","","","","","","",""
"html-keyboard-response","340","581773","0.0-16.0-0.8","6124a4ba3df07e768bd9c90b","650c16f0f2faf8d7a0d14c09","651c35632c246d387b3b27cd","null","null","<p style=""font-size: 60px; font-family: BACS"">EPMDkYTOM</p>","","","","","","","","","",""
"html-keyboard-response","341","582791","0.0-16.0-0.9","6124a4ba3df07e768bd9c90b","650c16f0f2faf8d7a0d14c09","651c35632c246d387b3b27cd","null","null","<p style=""font-size: 60px; font-family: BACS"">EPMDkYTOM</p>","","","","","","","","","",""
"html-keyboard-response","342","583806","0.0-16.0-0.10","6124a4ba3df07e768bd9c90b","650c16f0f2faf8d7a0d14c09","651c35632c246d387b3b27cd","null","null","<p style=""font-size: 60px; font-family: BACS"">EPMDkYTOM</p>","","","","","","","","","",""
"html-keyboard-response","343","584822","0.0-16.0-0.11","6124a4ba3df07e768bd9c90b","650c16f0f2faf8d7a0d14c09","651c35632c246d387b3b27cd","null","null","<p style=""font-size: 60px; font-family: BACS"">EPMDkYTOM</p>","","","","","","","","","",""
"html-keyboard-response","344","585838","0.0-16.0-0.12","6124a4ba3df07e768bd9c90b","650c16f0f2faf8d7a0d14c09","651c35632c246d387b3b27cd","null","null","<p style=""font-size: 60px; font-family: BACS"">EPMDkYTOM</p>","","","","","","","","","",""
"html-keyboard-response","345","586870","0.0-16.0-0.13","6124a4ba3df07e768bd9c90b","650c16f0f2faf8d7a0d14c09","651c35632c246d387b3b27cd","null","null","<p style=""font-size: 60px; font-family: BACS"">EPMDkYTOM</p>","","","","","","","","","",""
"html-keyboard-response","346","587887","0.0-16.0-0.14","6124a4ba3df07e768bd9c90b","650c16f0f2faf8d7a0d14c09","651c35632c246d387b3b27cd","null","null","<p style=""font-size: 60px; font-family: BACS"">EPMDkYTOM</p>","","","","","","","","","",""
"html-keyboard-response","347","588909","0.0-16.0-0.15","6124a4ba3df07e768bd9c90b","650c16f0f2faf8d7a0d14c09","651c35632c246d387b3b27cd","null","null","<p style=""font-size: 60px; font-family: BACS"">EPMDkYTOM</p>","","","","","","","","","",""
"html-keyboard-response","348","589927","0.0-16.0-0.16","6124a4ba3df07e768bd9c90b","650c16f0f2faf8d7a0d14c09","651c35632c246d387b3b27cd","null","null","<p style=""font-size: 60px; font-family: BACS"">EPMDkYTOM</p>","","","","","","","","","",""
"html-keyboard-response","349","590943","0.0-16.0-0.17","6124a4ba3df07e768bd9c90b","650c16f0f2faf8d7a0d14c09","651c35632c246d387b3b27cd","null","null","<p style=""font-size: 60px; font-family: BACS"">EPMDkYTOM</p>","","","","","","","","","",""
"html-keyboard-response","350","591958","0.0-16.0-0.18","6124a4ba3df07e768bd9c90b","650c16f0f2faf8d7a0d14c09","651c35632c246d387b3b27cd","null","null","<p style=""font-size: 60px; font-family: BACS"">EPMDkYTOM</p>","","","","","","","","","",""
"html-keyboard-response","351","592963","0.0-16.0-0.19","6124a4ba3df07e768bd9c90b","650c16f0f2faf8d7a0d14c09","651c35632c246d387b3b27cd","null","null","<p style=""font-size: 60px; font-family: BACS"">EPMDkYTOM</p>","","","","","","","","","",""
"html-keyboard-response","352","593973","0.0-16.0-0.20","6124a4ba3df07e768bd9c90b","650c16f0f2faf8d7a0d14c09","651c35632c246d387b3b27cd","null","null","<p style=""font-size: 60px; font-family: BACS"">EPMDkYTOM</p>","","","","","","","","","",""
"html-keyboard-response","353","594976","0.0-16.0-0.21","6124a4ba3df07e768bd9c90b","650c16f0f2faf8d7a0d14c09","651c35632c246d387b3b27cd","null","null","<p style=""font-size: 60px; font-family: BACS"">EPMDkYTOM</p>","","","","","","","","","",""
"html-keyboard-response","354","595981","0.0-16.0-0.22","6124a4ba3df07e768bd9c90b","650c16f0f2faf8d7a0d14c09","651c35632c246d387b3b27cd","null","null","<p style=""font-size: 60px; font-family: BACS"">EPMDkYTOM</p>","","","","","","","","","",""
"html-keyboard-response","355","597007","0.0-16.0-0.23","6124a4ba3df07e768bd9c90b","650c16f0f2faf8d7a0d14c09","651c35632c246d387b3b27cd","null","null","<p style=""font-size: 60px; font-family: BACS"">EPMDkYTOM</p>","","","","","","","","","",""
"html-keyboard-response","356","598027","0.0-16.0-0.24","6124a4ba3df07e768bd9c90b","650c16f0f2faf8d7a0d14c09","651c35632c246d387b3b27cd","null","null","<p style=""font-size: 60px; font-family: BACS"">EPMDkYTOM</p>","","","","","","","","","",""
"html-keyboard-response","357","599044","0.0-16.0-0.25","6124a4ba3df07e768bd9c90b","650c16f0f2faf8d7a0d14c09","651c35632c246d387b3b27cd","null","null","<p style=""font-size: 60px; font-family: BACS"">EPMDkYTOM</p>","","","","","","","","","",""
"html-keyboard-response","358","600047","0.0-16.0-0.26","6124a4ba3df07e768bd9c90b","650c16f0f2faf8d7a0d14c09","651c35632c246d387b3b27cd","null","null","<p style=""font-size: 60px; font-family: BACS"">EPMDkYTOM</p>","","","","","","","","","",""
"html-keyboard-response","359","601055","0.0-16.0-0.27","6124a4ba3df07e768bd9c90b","650c16f0f2faf8d7a0d14c09","651c35632c246d387b3b27cd","null","null","<p style=""font-size: 60px; font-family: BACS"">EPMDkYTOM</p>","","","","","","","","","",""
"html-keyboard-response","360","602060","0.0-16.0-0.28","6124a4ba3df07e768bd9c90b","650c16f0f2faf8d7a0d14c09","651c35632c246d387b3b27cd","null","null","<p style=""font-size: 60px; font-family: BACS"">EPMDkYTOM</p>","","","","","","","","","",""
"html-keyboard-response","361","603063","0.0-16.0-0.29","6124a4ba3df07e768bd9c90b","650c16f0f2faf8d7a0d14c09","651c35632c246d387b3b27cd","null","null","<p style=""font-size: 60px; font-family: BACS"">EPMDkYTOM</p>","","","","","","","","","",""
"html-keyboard-response","362","604070","0.0-16.0-0.30","6124a4ba3df07e768bd9c90b","650c16f0f2faf8d7a0d14c09","651c35632c246d387b3b27cd","null","null","<p style=""font-size: 60px; font-family: BACS"">EPMDkYTOM</p>","","","","","","","","","",""
"html-keyboard-response","363","605087","0.0-16.0-0.31","6124a4ba3df07e768bd9c90b","650c16f0f2faf8d7a0d14c09","651c35632c246d387b3b27cd","null","null","<p style=""font-size: 60px; font-family: BACS"">EPMDkYTOM</p>","","","","","","","","","",""
"html-keyboard-response","364","606098","0.0-16.0-0.32","6124a4ba3df07e768bd9c90b","650c16f0f2faf8d7a0d14c09","651c35632c246d387b3b27cd","null","null","<p style=""font-size: 60px; font-family: BACS"">EPMDkYTOM</p>","","","","","","","","","",""
"html-keyboard-response","365","607103","0.0-16.0-0.33","6124a4ba3df07e768bd9c90b","650c16f0f2faf8d7a0d14c09","651c35632c246d387b3b27cd","null","null","<p style=""font-size: 60px; font-family: BACS"">EPMDkYTOM</p>","","","","","","","","","",""
"html-keyboard-response","366","608119","0.0-16.0-0.34","6124a4ba3df07e768bd9c90b","650c16f0f2faf8d7a0d14c09","651c35632c246d387b3b27cd","null","null","<p style=""font-size: 60px; font-family: BACS"">EPMDkYTOM</p>","","","","","","","","","",""
"html-keyboard-response","367","609133","0.0-16.0-0.35","6124a4ba3df07e768bd9c90b","650c16f0f2faf8d7a0d14c09","651c35632c246d387b3b27cd","null","null","<p style=""font-size: 60px; font-family: BACS"">EPMDkYTOM</p>","","","","","","","","","",""
"html-keyboard-response","368","610153","0.0-16.0-0.36","6124a4ba3df07e768bd9c90b","650c16f0f2faf8d7a0d14c09","651c35632c246d387b3b27cd","null","null","<p style=""font-size: 60px; font-family: BACS"">EPMDkYTOM</p>","","","","","","","","","",""
"html-keyboard-response","369","611159","0.0-16.0-0.37","6124a4ba3df07e768bd9c90b","650c16f0f2faf8d7a0d14c09","651c35632c246d387b3b27cd","null","null","<p style=""font-size: 60px; font-family: BACS"">EPMDkYTOM</p>","","","","","","","","","",""
"html-keyboard-response","370","612183","0.0-16.0-0.38","6124a4ba3df07e768bd9c90b","650c16f0f2faf8d7a0d14c09","651c35632c246d387b3b27cd","null","null","<p style=""font-size: 60px; font-family: BACS"">EPMDkYTOM</p>","","","","","","","","","",""
"html-keyboard-response","371","613197","0.0-16.0-0.39","6124a4ba3df07e768bd9c90b","650c16f0f2faf8d7a0d14c09","651c35632c246d387b3b27cd","null","null","<p style=""font-size: 60px; font-family: BACS"">EPMDkYTOM</p>","","","","","","","","","",""
"html-keyboard-response","372","614219","0.0-16.0-0.40","6124a4ba3df07e768bd9c90b","650c16f0f2faf8d7a0d14c09","651c35632c246d387b3b27cd","null","null","<p style=""font-size: 60px; font-family: BACS"">EPMDkYTOM</p>","","","","","","","","","",""
"html-keyboard-response","373","615239","0.0-16.0-0.41","6124a4ba3df07e768bd9c90b","650c16f0f2faf8d7a0d14c09","651c35632c246d387b3b27cd","null","null","<p style=""font-size: 60px; font-family: BACS"">EPMDkYTOM</p>","","","","","","","","","",""
"html-keyboard-response","374","616269","0.0-16.0-0.42","6124a4ba3df07e768bd9c90b","650c16f0f2faf8d7a0d14c09","651c35632c246d387b3b27cd","null","null","<p style=""font-size: 60px; font-family: BACS"">EPMDkYTOM</p>","","","","","","","","","",""
"html-keyboard-response","375","617285","0.0-16.0-0.43","6124a4ba3df07e768bd9c90b","650c16f0f2faf8d7a0d14c09","651c35632c246d387b3b27cd","null","null","<p style=""font-size: 60px; font-family: BACS"">EPMDkYTOM</p>","","","","","","","","","",""
"html-keyboard-response","376","618311","0.0-16.0-0.44","6124a4ba3df07e768bd9c90b","650c16f0f2faf8d7a0d14c09","651c35632c246d387b3b27cd","null","null","<p style=""font-size: 60px; font-family: BACS"">EPMDkYTOM</p>","","","","","","","","","",""
"html-keyboard-response","377","619319","0.0-16.0-0.45","6124a4ba3df07e768bd9c90b","650c16f0f2faf8d7a0d14c09","651c35632c246d387b3b27cd","null","null","<p style=""font-size: 60px; font-family: BACS"">EPMDkYTOM</p>","","","","","","","","","",""
"html-keyboard-response","378","620349","0.0-16.0-0.46","6124a4ba3df07e768bd9c90b","650c16f0f2faf8d7a0d14c09","651c35632c246d387b3b27cd","null","null","<p style=""font-size: 60px; font-family: BACS"">EPMDkYTOM</p>","","","","","","","","","",""
"html-keyboard-response","379","621368","0.0-16.0-0.47","6124a4ba3df07e768bd9c90b","650c16f0f2faf8d7a0d14c09","651c35632c246d387b3b27cd","null","null","<p style=""font-size: 60px; font-family: BACS"">EPMDkYTOM</p>","","","","","","","","","",""
"html-keyboard-response","380","622389","0.0-16.0-0.48","6124a4ba3df07e768bd9c90b","650c16f0f2faf8d7a0d14c09","651c35632c246d387b3b27cd","null","null","<p style=""font-size: 60px; font-family: BACS"">EPMDkYTOM</p>","","","","","","","","","",""
"html-keyboard-response","381","623398","0.0-16.0-0.49","6124a4ba3df07e768bd9c90b","650c16f0f2faf8d7a0d14c09","651c35632c246d387b3b27cd","null","null","<p style=""font-size: 60px; font-family: BACS"">EPMDkYTOM</p>","","","","","","","","","",""
"html-keyboard-response","382","624422","0.0-16.0-0.50","6124a4ba3df07e768bd9c90b","650c16f0f2faf8d7a0d14c09","651c35632c246d387b3b27cd","null","null","<p style=""font-size: 60px; font-family: BACS"">EPMDkYTOM</p>","","","","","","","","","",""
"html-keyboard-response","383","625439","0.0-16.0-0.51","6124a4ba3df07e768bd9c90b","650c16f0f2faf8d7a0d14c09","651c35632c246d387b3b27cd","null","null","<p style=""font-size: 60px; font-family: BACS"">EPMDkYTOM</p>","","","","","","","","","",""
"html-keyboard-response","384","626469","0.0-16.0-0.52","6124a4ba3df07e768bd9c90b","650c16f0f2faf8d7a0d14c09","651c35632c246d387b3b27cd","null","null","<p style=""font-size: 60px; font-family: BACS"">EPMDkYTOM</p>","","","","","","","","","",""
"html-keyboard-response","385","627484","0.0-16.0-0.53","6124a4ba3df07e768bd9c90b","650c16f0f2faf8d7a0d14c09","651c35632c246d387b3b27cd","null","null","<p style=""font-size: 60px; font-family: BACS"">EPMDkYTOM</p>","","","","","","","","","",""
"html-keyboard-response","386","628510","0.0-16.0-0.54","6124a4ba3df07e768bd9c90b","650c16f0f2faf8d7a0d14c09","651c35632c246d387b3b27cd","null","null","<p style=""font-size: 60px; font-family: BACS"">EPMDkYTOM</p>","","","","","","","","","",""
"html-keyboard-response","387","629526","0.0-16.0-0.55","6124a4ba3df07e768bd9c90b","650c16f0f2faf8d7a0d14c09","651c35632c246d387b3b27cd","null","null","<p style=""font-size: 60px; font-family: BACS"">EPMDkYTOM</p>","","","","","","","","","",""
"html-keyboard-response","388","630541","0.0-16.0-0.56","6124a4ba3df07e768bd9c90b","650c16f0f2faf8d7a0d14c09","651c35632c246d387b3b27cd","null","null","<p style=""font-size: 60px; font-family: BACS"">EPMDkYTOM</p>","","","","","","","","","",""
"html-keyboard-response","389","631567","0.0-16.0-0.57","6124a4ba3df07e768bd9c90b","650c16f0f2faf8d7a0d14c09","651c35632c246d387b3b27cd","null","null","<p style=""font-size: 60px; font-family: BACS"">EPMDkYTOM</p>","","","","","","","","","",""
"html-keyboard-response","390","632593","0.0-16.0-0.58","6124a4ba3df07e768bd9c90b","650c16f0f2faf8d7a0d14c09","651c35632c246d387b3b27cd","null","null","<p style=""font-size: 60px; font-family: BACS"">EPMDkYTOM</p>","","","","","","","","","",""
"html-keyboard-response","391","633599","0.0-16.0-0.59","6124a4ba3df07e768bd9c90b","650c16f0f2faf8d7a0d14c09","651c35632c246d387b3b27cd","null","null","<p style=""font-size: 60px; font-family: BACS"">EPMDkYTOM</p>","","","","","","","","","",""
"html-keyboard-response","392","634621","0.0-16.0-0.60","6124a4ba3df07e768bd9c90b","650c16f0f2faf8d7a0d14c09","651c35632c246d387b3b27cd","null","null","<p style=""font-size: 60px; font-family: BACS"">EPMDkYTOM</p>","","","","","","","","","",""
"html-keyboard-response","393","635637","0.0-16.0-0.61","6124a4ba3df07e768bd9c90b","650c16f0f2faf8d7a0d14c09","651c35632c246d387b3b27cd","null","null","<p style=""font-size: 60px; font-family: BACS"">EPMDkYTOM</p>","","","","","","","","","",""
