"trial_type","trial_index","time_elapsed","internal_node_id","subject_id","study_id","session_id","rt","response","stimulus","success","item","task","correct_response","testing_condition","correct","target","confound","name"
"pavlovia","0","743","0.0-0.0","5f0f93938935de000855898b","650c16f0f2faf8d7a0d14c09","651c1e0d6882c1a9d645761c","","","","","","","","","","","",""
"survey-html-form","1","4334","0.0-1.0","5f0f93938935de000855898b","650c16f0f2faf8d7a0d14c09","651c1e0d6882c1a9d645761c","3591","{""ID"":""5f0f93938935de000855898b""}","","","","","","","","","",""
"html-keyboard-response","2","10102","0.0-2.0","5f0f93938935de000855898b","650c16f0f2faf8d7a0d14c09","651c1e0d6882c1a9d645761c","5766"," ","<p style=""font-size: 15px;"">Before beginning, we ask that you read the consent information and confirm your agreement to participate in the experiment.</p>
      <p style=""font-size: 15px;""> We ask that you remember that this is a research project and that your participation is entirely voluntary. You can stop your participation at any time, without needing to provide any explanation. The study we're asking you to participate in aims at examining how readers process written words. You will be engaged in a session of apprximately 20 minutes, followed by a brief questionnaire. You will have the opportunity to take a few breaks during the experiment. You will be paid £4 for your participation, corresponding to a rate of £8/hour. While this experiment looks at cognitive faculties, this experiment doesn't constitute clinical proof of eventual pathologies.</p>
      <p style=""font-size: 15px;"">All of the information collected thanks to yours and others' participation will be held in a secure password-protected server, and will not be shared with anyone not authorised to view it. Your personal information will be kept with an arbitrary participant ID. Thanks to this data anonymity process, any researcher analysing the data won't be able to track the information back to a specific participant. Therefore, this process will make identifying you impossibile, even when results from the study will be published in scientific reviews, presented at congresses, or at any other public forum. More generally, the collected data will be treated in accordance with the laws on privacy and conformity to the Legislative Degree n. 196 ""Code regarding the protection of personal data"" of the 30th of June 2003 and to the European Regulation 2016/670 (General Data Protection Regulation - GDPR). The Data Protection Officer is Avv. Valentina Carollo, who can be contacted at the following email addresses: <a href=""mailto:dpo@sissa.it"">dpo@sissa.it</a> or <a href=""mailto:rpd@sissa.it"">rpd@sissa.it</a> - PEC: <a href=""mailto:protocollo@pec.sissa.it"">protocollo@pec.sissa.it</a>.</p>
      <p style=""font-size: 15px;""> Before expressing your consent to participate, we would like to remind you again that in case you need explanations on any aspect of the experimental procedure, the researcher is at your disposition (<a href=""mailto:aliebelt@sissa.it"">aliebelt@sissa.it</a>, <a href=""mailto:davide.crepaldi@sissa.it"">davide.crepaldi@sissa.it</a>).</p>
      <p style=""font-size: 15px;"">If you would like to download the informed consent form, you can do so here: <a href=""BASL-Informed_Consent.pdf"" download>informed consent form</a>.</p>
      <p style=""font-size: 15px;"">We ask that you press the spacebar to proceed to the consent section.</p>","","","","","","","","",""
"survey-html-form","3","21796","0.0-3.0","5f0f93938935de000855898b","650c16f0f2faf8d7a0d14c09","651c1e0d6882c1a9d645761c","11692","{""consent1"":""YES"",""consent2"":""YES"",""consent3"":""YES"",""consent4"":""YES"",""consent5"":""YES"",""consent6"":""YES""}","","","","","","","","","",""
"fullscreen","4","27890","0.0-4.0","5f0f93938935de000855898b","650c16f0f2faf8d7a0d14c09","651c1e0d6882c1a9d645761c","","","","true","","","","","","","",""
"html-keyboard-response","5","54621","0.0-5.0","5f0f93938935de000855898b","650c16f0f2faf8d7a0d14c09","651c1e0d6882c1a9d645761c","26729"," ","<p>Welcome, and thank you very much for your time!</p>
      <p>In this experiment, you'll be a language expert who's been asked to take a look at words that Earth has received in its first communication with aliens. Your task, in this first part of the experiment, is to pay close attention to the words you'll be shown; later, world leaders will ask you questions on what you saw. The words will be shown to you quite quickly; it seems that the aliens were in a hurry :-)</p>
      <p>Press the spacebar to continue.<p>","","","","","","","","",""
"html-keyboard-response","6","54673","0.0-6.0","5f0f93938935de000855898b","650c16f0f2faf8d7a0d14c09","651c1e0d6882c1a9d645761c","null","null","<p style=""font-size: 120px; font-family: BACS""> </p>","","","","","","","","",""
"html-keyboard-response","7","70928","0.0-7.0","5f0f93938935de000855898b","650c16f0f2faf8d7a0d14c09","651c1e0d6882c1a9d645761c","16255"," ","<p>Here is an example of the words you'll see:</p>
      <img src='esempio.png' height='400px'>
      <p>When you're ready to begin, press the spacebar.</p></div>","","","","","","","","",""
"html-keyboard-response","8","71930","0.0-8.0-0.0","5f0f93938935de000855898b","650c16f0f2faf8d7a0d14c09","651c1e0d6882c1a9d645761c","null","null","<p style=""font-size: 60px; font-family: BACS"">lKdbcPED</p>","","","","","","","","",""
"html-keyboard-response","9","72934","0.0-8.0-0.1","5f0f93938935de000855898b","650c16f0f2faf8d7a0d14c09","651c1e0d6882c1a9d645761c","null","null","<p style=""font-size: 60px; font-family: BACS"">JuamlLUOk</p>","","","","","","","","",""
"html-keyboard-response","10","73944","0.0-8.0-0.2","5f0f93938935de000855898b","650c16f0f2faf8d7a0d14c09","651c1e0d6882c1a9d645761c","null","null","<p style=""font-size: 60px; font-family: BACS"">cRElDAPT</p>","","","","","","","","",""
"html-keyboard-response","11","74958","0.0-8.0-0.3","5f0f93938935de000855898b","650c16f0f2faf8d7a0d14c09","651c1e0d6882c1a9d645761c","null","null","<p style=""font-size: 60px; font-family: BACS"">kNuaLkNc</p>","","","","","","","","",""
"html-keyboard-response","12","75968","0.0-8.0-0.4","5f0f93938935de000855898b","650c16f0f2faf8d7a0d14c09","651c1e0d6882c1a9d645761c","null","null","<p style=""font-size: 60px; font-family: BACS"">UdYUQLUOk</p>","","","","","","","","",""
"html-keyboard-response","13","76983","0.0-8.0-0.5","5f0f93938935de000855898b","650c16f0f2faf8d7a0d14c09","651c1e0d6882c1a9d645761c","null","null","<p style=""font-size: 60px; font-family: BACS"">RKYkPED</p>","","","","","","","","",""
"html-keyboard-response","14","77999","0.0-8.0-0.6","5f0f93938935de000855898b","650c16f0f2faf8d7a0d14c09","651c1e0d6882c1a9d645761c","null","null","<p style=""font-size: 60px; font-family: BACS"">TbKMEdPc</p>","","","","","","","","",""
"html-keyboard-response","15","79002","0.0-8.0-0.7","5f0f93938935de000855898b","650c16f0f2faf8d7a0d14c09","651c1e0d6882c1a9d645761c","null","null","<p style=""font-size: 60px; font-family: BACS"">lbBDEbTE</p>","","","","","","","","",""
"html-keyboard-response","16","80017","0.0-8.0-0.8","5f0f93938935de000855898b","650c16f0f2faf8d7a0d14c09","651c1e0d6882c1a9d645761c","null","null","<p style=""font-size: 60px; font-family: BACS"">lKdbcAPEM</p>","","","","","","","","",""
"html-keyboard-response","17","81024","0.0-8.0-0.9","5f0f93938935de000855898b","650c16f0f2faf8d7a0d14c09","651c1e0d6882c1a9d645761c","null","null","<p style=""font-size: 60px; font-family: BACS"">tmtEMPED</p>","","","","","","","","",""
"html-keyboard-response","18","82031","0.0-8.0-0.10","5f0f93938935de000855898b","650c16f0f2faf8d7a0d14c09","651c1e0d6882c1a9d645761c","null","null","<p style=""font-size: 60px; font-family: BACS"">vmuLlNYZu</p>","","","","","","","","",""
"html-keyboard-response","19","83047","0.0-8.0-0.11","5f0f93938935de000855898b","650c16f0f2faf8d7a0d14c09","651c1e0d6882c1a9d645761c","null","null","<p style=""font-size: 60px; font-family: BACS"">adkrLkNc</p>","","","","","","","","",""
"html-keyboard-response","20","84058","0.0-8.0-0.12","5f0f93938935de000855898b","650c16f0f2faf8d7a0d14c09","651c1e0d6882c1a9d645761c","null","null","<p style=""font-size: 60px; font-family: BACS"">lKdbcAPT</p>","","","","","","","","",""
"html-keyboard-response","21","85066","0.0-8.0-0.13","5f0f93938935de000855898b","650c16f0f2faf8d7a0d14c09","651c1e0d6882c1a9d645761c","null","null","<p style=""font-size: 60px; font-family: BACS"">OcYMAPEM</p>","","","","","","","","",""
"html-keyboard-response","22","86078","0.0-8.0-0.14","5f0f93938935de000855898b","650c16f0f2faf8d7a0d14c09","651c1e0d6882c1a9d645761c","null","null","<p style=""font-size: 60px; font-family: BACS"">mLdkZGQYQ</p>","","","","","","","","",""
"html-keyboard-response","23","87085","0.0-8.0-0.15","5f0f93938935de000855898b","650c16f0f2faf8d7a0d14c09","651c1e0d6882c1a9d645761c","null","null","<p style=""font-size: 60px; font-family: BACS"">TbKMEAPEM</p>","","","","","","","","",""
"html-keyboard-response","24","88097","0.0-8.0-0.16","5f0f93938935de000855898b","650c16f0f2faf8d7a0d14c09","651c1e0d6882c1a9d645761c","null","null","<p style=""font-size: 60px; font-family: BACS"">kcOYPED</p>","","","","","","","","",""
"html-keyboard-response","25","89109","0.0-8.0-0.17","5f0f93938935de000855898b","650c16f0f2faf8d7a0d14c09","651c1e0d6882c1a9d645761c","null","null","<p style=""font-size: 60px; font-family: BACS"">RKYkAPT</p>","","","","","","","","",""
"html-keyboard-response","26","90117","0.0-8.0-0.18","5f0f93938935de000855898b","650c16f0f2faf8d7a0d14c09","651c1e0d6882c1a9d645761c","null","null","<p style=""font-size: 60px; font-family: BACS"">OcYMPED</p>","","","","","","","","",""
"html-keyboard-response","27","91123","0.0-8.0-0.19","5f0f93938935de000855898b","650c16f0f2faf8d7a0d14c09","651c1e0d6882c1a9d645761c","null","null","<p style=""font-size: 60px; font-family: BACS"">JvaALUOk</p>","","","","","","","","",""
"html-keyboard-response","28","92134","0.0-8.0-0.20","5f0f93938935de000855898b","650c16f0f2faf8d7a0d14c09","651c1e0d6882c1a9d645761c","null","null","<p style=""font-size: 60px; font-family: BACS"">mLdkZJcL</p>","","","","","","","","",""
"html-keyboard-response","29","93138","0.0-8.0-0.21","5f0f93938935de000855898b","650c16f0f2faf8d7a0d14c09","651c1e0d6882c1a9d645761c","null","null","<p style=""font-size: 60px; font-family: BACS"">lZcuLUOk</p>","","","","","","","","",""
"html-keyboard-response","30","94155","0.0-8.0-0.22","5f0f93938935de000855898b","650c16f0f2faf8d7a0d14c09","651c1e0d6882c1a9d645761c","null","null","<p style=""font-size: 60px; font-family: BACS"">tmtEMAPT</p>","","","","","","","","",""
"html-keyboard-response","31","95172","0.0-8.0-0.23","5f0f93938935de000855898b","650c16f0f2faf8d7a0d14c09","651c1e0d6882c1a9d645761c","null","null","<p style=""font-size: 60px; font-family: BACS"">cRElDdPc</p>","","","","","","","","",""
"html-keyboard-response","32","96182","0.0-8.0-0.24","5f0f93938935de000855898b","650c16f0f2faf8d7a0d14c09","651c1e0d6882c1a9d645761c","null","null","<p style=""font-size: 60px; font-family: BACS"">lZcuLkNc</p>","","","","","","","","",""
"html-keyboard-response","33","97194","0.0-8.0-0.25","5f0f93938935de000855898b","650c16f0f2faf8d7a0d14c09","651c1e0d6882c1a9d645761c","null","null","<p style=""font-size: 60px; font-family: BACS"">lRCBAPEM</p>","","","","","","","","",""
"html-keyboard-response","34","98207","0.0-8.0-0.26","5f0f93938935de000855898b","650c16f0f2faf8d7a0d14c09","651c1e0d6882c1a9d645761c","null","null","<p style=""font-size: 60px; font-family: BACS"">OcYMbTE</p>","","","","","","","","",""
"html-keyboard-response","35","99230","0.0-8.0-0.27","5f0f93938935de000855898b","650c16f0f2faf8d7a0d14c09","651c1e0d6882c1a9d645761c","null","null","<p style=""font-size: 60px; font-family: BACS"">JvaAGQYQ</p>","","","","","","","","",""
"html-keyboard-response","36","100233","0.0-8.0-0.28","5f0f93938935de000855898b","650c16f0f2faf8d7a0d14c09","651c1e0d6882c1a9d645761c","null","null","<p style=""font-size: 60px; font-family: BACS"">cRElDAPEM</p>","","","","","","","","",""
"html-keyboard-response","37","101238","0.0-8.0-0.29","5f0f93938935de000855898b","650c16f0f2faf8d7a0d14c09","651c1e0d6882c1a9d645761c","null","null","<p style=""font-size: 60px; font-family: BACS"">OcYMdPc</p>","","","","","","","","",""
"html-keyboard-response","38","102249","0.0-8.0-0.30","5f0f93938935de000855898b","650c16f0f2faf8d7a0d14c09","651c1e0d6882c1a9d645761c","null","null","<p style=""font-size: 60px; font-family: BACS"">lZcuNYZu</p>","","","","","","","","",""
"html-keyboard-response","39","103263","0.0-8.0-0.31","5f0f93938935de000855898b","650c16f0f2faf8d7a0d14c09","651c1e0d6882c1a9d645761c","null","null","<p style=""font-size: 60px; font-family: BACS"">tmtEMbTE</p>","","","","","","","","",""
"html-keyboard-response","40","104292","0.0-8.0-0.32","5f0f93938935de000855898b","650c16f0f2faf8d7a0d14c09","651c1e0d6882c1a9d645761c","null","null","<p style=""font-size: 60px; font-family: BACS"">JuamlJcL</p>","","","","","","","","",""
"html-keyboard-response","41","105297","0.0-8.0-0.33","5f0f93938935de000855898b","650c16f0f2faf8d7a0d14c09","651c1e0d6882c1a9d645761c","null","null","<p style=""font-size: 60px; font-family: BACS"">kNuaLUOk</p>","","","","","","","","",""
"html-keyboard-response","42","106311","0.0-8.0-0.34","5f0f93938935de000855898b","650c16f0f2faf8d7a0d14c09","651c1e0d6882c1a9d645761c","null","null","<p style=""font-size: 60px; font-family: BACS"">kcOYAPT</p>","","","","","","","","",""
"html-keyboard-response","43","107327","0.0-8.0-0.35","5f0f93938935de000855898b","650c16f0f2faf8d7a0d14c09","651c1e0d6882c1a9d645761c","null","null","<p style=""font-size: 60px; font-family: BACS"">mBYlbTE</p>","","","","","","","","",""
"html-keyboard-response","44","108334","0.0-8.0-0.36","5f0f93938935de000855898b","650c16f0f2faf8d7a0d14c09","651c1e0d6882c1a9d645761c","null","null","<p style=""font-size: 60px; font-family: BACS"">JdGmLkNc</p>","","","","","","","","",""
"html-keyboard-response","45","109346","0.0-8.0-0.37","5f0f93938935de000855898b","650c16f0f2faf8d7a0d14c09","651c1e0d6882c1a9d645761c","null","null","<p style=""font-size: 60px; font-family: BACS"">dkLlGQYQ</p>","","","","","","","","",""
"html-keyboard-response","46","110349","0.0-8.0-0.38","5f0f93938935de000855898b","650c16f0f2faf8d7a0d14c09","651c1e0d6882c1a9d645761c","null","null","<p style=""font-size: 60px; font-family: BACS"">JvaALkNc</p>","","","","","","","","",""
"html-keyboard-response","47","111361","0.0-8.0-0.39","5f0f93938935de000855898b","650c16f0f2faf8d7a0d14c09","651c1e0d6882c1a9d645761c","null","null","<p style=""font-size: 60px; font-family: BACS"">vmuLlLUOk</p>","","","","","","","","",""
"html-keyboard-response","48","112373","0.0-8.0-0.40","5f0f93938935de000855898b","650c16f0f2faf8d7a0d14c09","651c1e0d6882c1a9d645761c","null","null","<p style=""font-size: 60px; font-family: BACS"">dkLlNYZu</p>","","","","","","","","",""
"html-keyboard-response","49","113387","0.0-8.0-0.41","5f0f93938935de000855898b","650c16f0f2faf8d7a0d14c09","651c1e0d6882c1a9d645761c","null","null","<p style=""font-size: 60px; font-family: BACS"">RKYkdPc</p>","","","","","","","","",""
"html-keyboard-response","50","114392","0.0-8.0-0.42","5f0f93938935de000855898b","650c16f0f2faf8d7a0d14c09","651c1e0d6882c1a9d645761c","null","null","<p style=""font-size: 60px; font-family: BACS"">UdYUQJcL</p>","","","","","","","","",""
"html-keyboard-response","51","115406","0.0-8.0-0.43","5f0f93938935de000855898b","650c16f0f2faf8d7a0d14c09","651c1e0d6882c1a9d645761c","null","null","<p style=""font-size: 60px; font-family: BACS"">RKYkAPEM</p>","","","","","","","","",""
"html-keyboard-response","52","116416","0.0-8.0-0.44","5f0f93938935de000855898b","650c16f0f2faf8d7a0d14c09","651c1e0d6882c1a9d645761c","null","null","<p style=""font-size: 60px; font-family: BACS"">JuamlLkNc</p>","","","","","","","","",""
"html-keyboard-response","53","117426","0.0-8.0-0.45","5f0f93938935de000855898b","650c16f0f2faf8d7a0d14c09","651c1e0d6882c1a9d645761c","null","null","<p style=""font-size: 60px; font-family: BACS"">mLdkZNYZu</p>","","","","","","","","",""
"html-keyboard-response","54","118442","0.0-8.0-0.46","5f0f93938935de000855898b","650c16f0f2faf8d7a0d14c09","651c1e0d6882c1a9d645761c","null","null","<p style=""font-size: 60px; font-family: BACS"">lRCBPED</p>","","","","","","","","",""
"html-keyboard-response","55","119453","0.0-8.0-0.47","5f0f93938935de000855898b","650c16f0f2faf8d7a0d14c09","651c1e0d6882c1a9d645761c","null","null","<p style=""font-size: 60px; font-family: BACS"">JdGmJcL</p>","","","","","","","","",""
"html-keyboard-response","56","120462","0.0-8.0-0.48","5f0f93938935de000855898b","650c16f0f2faf8d7a0d14c09","651c1e0d6882c1a9d645761c","null","null","<p style=""font-size: 60px; font-family: BACS"">lbBDEAPEM</p>","","","","","","","","",""
"html-keyboard-response","57","121465","0.0-8.0-0.49","5f0f93938935de000855898b","650c16f0f2faf8d7a0d14c09","651c1e0d6882c1a9d645761c","null","null","<p style=""font-size: 60px; font-family: BACS"">adkrGQYQ</p>","","","","","","","","",""
"html-keyboard-response","58","122472","0.0-8.0-0.50","5f0f93938935de000855898b","650c16f0f2faf8d7a0d14c09","651c1e0d6882c1a9d645761c","null","null","<p style=""font-size: 60px; font-family: BACS"">UdYUQLkNc</p>","","","","","","","","",""
"html-keyboard-response","59","123485","0.0-8.0-0.51","5f0f93938935de000855898b","650c16f0f2faf8d7a0d14c09","651c1e0d6882c1a9d645761c","null","null","<p style=""font-size: 60px; font-family: BACS"">tmtEMdPc</p>","","","","","","","","",""
"html-keyboard-response","60","124501","0.0-8.0-0.52","5f0f93938935de000855898b","650c16f0f2faf8d7a0d14c09","651c1e0d6882c1a9d645761c","null","null","<p style=""font-size: 60px; font-family: BACS"">lRCBbTE</p>","","","","","","","","",""
"html-keyboard-response","61","125510","0.0-8.0-0.53","5f0f93938935de000855898b","650c16f0f2faf8d7a0d14c09","651c1e0d6882c1a9d645761c","null","null","<p style=""font-size: 60px; font-family: BACS"">dkLlJcL</p>","","","","","","","","",""
"html-keyboard-response","62","126519","0.0-8.0-0.54","5f0f93938935de000855898b","650c16f0f2faf8d7a0d14c09","651c1e0d6882c1a9d645761c","null","null","<p style=""font-size: 60px; font-family: BACS"">JdGmNYZu</p>","","","","","","","","",""
"html-keyboard-response","63","127530","0.0-8.0-0.55","5f0f93938935de000855898b","650c16f0f2faf8d7a0d14c09","651c1e0d6882c1a9d645761c","null","null","<p style=""font-size: 60px; font-family: BACS"">mLdkZLUOk</p>","","","","","","","","",""
"html-keyboard-response","64","128541","0.0-8.0-0.56","5f0f93938935de000855898b","650c16f0f2faf8d7a0d14c09","651c1e0d6882c1a9d645761c","null","null","<p style=""font-size: 60px; font-family: BACS"">vmuLlGQYQ</p>","","","","","","","","",""
"html-keyboard-response","65","129556","0.0-8.0-0.57","5f0f93938935de000855898b","650c16f0f2faf8d7a0d14c09","651c1e0d6882c1a9d645761c","null","null","<p style=""font-size: 60px; font-family: BACS"">adkrNYZu</p>","","","","","","","","",""
"html-keyboard-response","66","130565","0.0-8.0-0.58","5f0f93938935de000855898b","650c16f0f2faf8d7a0d14c09","651c1e0d6882c1a9d645761c","null","null","<p style=""font-size: 60px; font-family: BACS"">lbBDEAPT</p>","","","","","","","","",""
"html-keyboard-response","67","131574","0.0-8.0-0.59","5f0f93938935de000855898b","650c16f0f2faf8d7a0d14c09","651c1e0d6882c1a9d645761c","null","null","<p style=""font-size: 60px; font-family: BACS"">vmuLlJcL</p>","","","","","","","","",""
"html-keyboard-response","68","132582","0.0-8.0-0.60","5f0f93938935de000855898b","650c16f0f2faf8d7a0d14c09","651c1e0d6882c1a9d645761c","null","null","<p style=""font-size: 60px; font-family: BACS"">cRElDbTE</p>","","","","","","","","",""
"html-keyboard-response","69","133596","0.0-8.0-0.61","5f0f93938935de000855898b","650c16f0f2faf8d7a0d14c09","651c1e0d6882c1a9d645761c","null","null","<p style=""font-size: 60px; font-family: BACS"">lZcuGQYQ</p>","","","","","","","","",""
"html-keyboard-response","70","134601","0.0-8.0-0.62","5f0f93938935de000855898b","650c16f0f2faf8d7a0d14c09","651c1e0d6882c1a9d645761c","null","null","<p style=""font-size: 60px; font-family: BACS"">JuamlNYZu</p>","","","","","","","","",""
"html-keyboard-response","71","135608","0.0-8.0-0.63","5f0f93938935de000855898b","650c16f0f2faf8d7a0d14c09","651c1e0d6882c1a9d645761c","null","null","<p style=""font-size: 60px; font-family: BACS"">kcOYAPEM</p>","","","","","","","","",""
"html-keyboard-response","72","136619","0.0-8.0-0.64","5f0f93938935de000855898b","650c16f0f2faf8d7a0d14c09","651c1e0d6882c1a9d645761c","null","null","<p style=""font-size: 60px; font-family: BACS"">TbKMEPED</p>","","","","","","","","",""
"html-keyboard-response","73","137634","0.0-8.0-0.65","5f0f93938935de000855898b","650c16f0f2faf8d7a0d14c09","651c1e0d6882c1a9d645761c","null","null","<p style=""font-size: 60px; font-family: BACS"">dkLlLkNc</p>","","","","","","","","",""
"html-keyboard-response","74","138642","0.0-8.0-0.66","5f0f93938935de000855898b","650c16f0f2faf8d7a0d14c09","651c1e0d6882c1a9d645761c","null","null","<p style=""font-size: 60px; font-family: BACS"">JdGmLUOk</p>","","","","","","","","",""
"html-keyboard-response","75","139654","0.0-8.0-0.67","5f0f93938935de000855898b","650c16f0f2faf8d7a0d14c09","651c1e0d6882c1a9d645761c","null","null","<p style=""font-size: 60px; font-family: BACS"">lRCBAPT</p>","","","","","","","","",""
"html-keyboard-response","76","140666","0.0-8.0-0.68","5f0f93938935de000855898b","650c16f0f2faf8d7a0d14c09","651c1e0d6882c1a9d645761c","null","null","<p style=""font-size: 60px; font-family: BACS"">adkrJcL</p>","","","","","","","","",""
"html-keyboard-response","77","141670","0.0-8.0-0.69","5f0f93938935de000855898b","650c16f0f2faf8d7a0d14c09","651c1e0d6882c1a9d645761c","null","null","<p style=""font-size: 60px; font-family: BACS"">mBYlPED</p>","","","","","","","","",""
"html-keyboard-response","78","142683","0.0-8.0-0.70","5f0f93938935de000855898b","650c16f0f2faf8d7a0d14c09","651c1e0d6882c1a9d645761c","null","null","<p style=""font-size: 60px; font-family: BACS"">TbKMEbTE</p>","","","","","","","","",""
"html-keyboard-response","79","143695","0.0-8.0-0.71","5f0f93938935de000855898b","650c16f0f2faf8d7a0d14c09","651c1e0d6882c1a9d645761c","null","null","<p style=""font-size: 60px; font-family: BACS"">kNuaNYZu</p>","","","","","","","","",""
"html-keyboard-response","80","144706","0.0-8.0-0.72","5f0f93938935de000855898b","650c16f0f2faf8d7a0d14c09","651c1e0d6882c1a9d645761c","null","null","<p style=""font-size: 60px; font-family: BACS"">JvaAJcL</p>","","","","","","","","",""
"html-keyboard-response","81","145712","0.0-8.0-0.73","5f0f93938935de000855898b","650c16f0f2faf8d7a0d14c09","651c1e0d6882c1a9d645761c","null","null","<p style=""font-size: 60px; font-family: BACS"">lbBDEdPc</p>","","","","","","","","",""
"html-keyboard-response","82","146725","0.0-8.0-0.74","5f0f93938935de000855898b","650c16f0f2faf8d7a0d14c09","651c1e0d6882c1a9d645761c","null","null","<p style=""font-size: 60px; font-family: BACS"">UdYUQGQYQ</p>","","","","","","","","",""
"html-keyboard-response","83","147734","0.0-8.0-0.75","5f0f93938935de000855898b","650c16f0f2faf8d7a0d14c09","651c1e0d6882c1a9d645761c","null","null","<p style=""font-size: 60px; font-family: BACS"">kcOYdPc</p>","","","","","","","","",""
"html-keyboard-response","84","148742","0.0-8.0-0.76","5f0f93938935de000855898b","650c16f0f2faf8d7a0d14c09","651c1e0d6882c1a9d645761c","null","null","<p style=""font-size: 60px; font-family: BACS"">lKdbcbTE</p>","","","","","","","","",""
"html-keyboard-response","85","149744","0.0-8.0-0.77","5f0f93938935de000855898b","650c16f0f2faf8d7a0d14c09","651c1e0d6882c1a9d645761c","null","null","<p style=""font-size: 60px; font-family: BACS"">mBYldPc</p>","","","","","","","","",""
"html-keyboard-response","86","150758","0.0-8.0-0.78","5f0f93938935de000855898b","650c16f0f2faf8d7a0d14c09","651c1e0d6882c1a9d645761c","null","null","<p style=""font-size: 60px; font-family: BACS"">kNuaGQYQ</p>","","","","","","","","",""
"html-keyboard-response","87","151773","0.0-8.0-0.79","5f0f93938935de000855898b","650c16f0f2faf8d7a0d14c09","651c1e0d6882c1a9d645761c","null","null","<p style=""font-size: 60px; font-family: BACS"">mBYlAPT</p>","","","","","","","","",""
"html-keyboard-response","88","177308","0.0-9.0","5f0f93938935de000855898b","650c16f0f2faf8d7a0d14c09","651c1e0d6882c1a9d645761c","25534"," ","<p>Great, you've seen the first block of words. You may now take a short break.</p>
      <p>Press the spacebar when you're ready to continue.</p>","","","","","","","","",""
"html-keyboard-response","89","178317","0.0-10.0-0.0","5f0f93938935de000855898b","650c16f0f2faf8d7a0d14c09","651c1e0d6882c1a9d645761c","null","null","<p style=""font-size: 60px; font-family: BACS"">kcOYAPEM</p>","","","","","","","","",""
"html-keyboard-response","90","179334","0.0-10.0-0.1","5f0f93938935de000855898b","650c16f0f2faf8d7a0d14c09","651c1e0d6882c1a9d645761c","null","null","<p style=""font-size: 60px; font-family: BACS"">lZcuGQYQ</p>","","","","","","","","",""
"html-keyboard-response","91","180350","0.0-10.0-0.2","5f0f93938935de000855898b","650c16f0f2faf8d7a0d14c09","651c1e0d6882c1a9d645761c","null","null","<p style=""font-size: 60px; font-family: BACS"">JdGmNYZu</p>","","","","","","","","",""
"html-keyboard-response","92","181354","0.0-10.0-0.3","5f0f93938935de000855898b","650c16f0f2faf8d7a0d14c09","651c1e0d6882c1a9d645761c","null","null","<p style=""font-size: 60px; font-family: BACS"">dkLlLkNc</p>","","","","","","","","",""
"html-keyboard-response","93","182367","0.0-10.0-0.4","5f0f93938935de000855898b","650c16f0f2faf8d7a0d14c09","651c1e0d6882c1a9d645761c","null","null","<p style=""font-size: 60px; font-family: BACS"">RKYkdPc</p>","","","","","","","","",""
"html-keyboard-response","94","183379","0.0-10.0-0.5","5f0f93938935de000855898b","650c16f0f2faf8d7a0d14c09","651c1e0d6882c1a9d645761c","null","null","<p style=""font-size: 60px; font-family: BACS"">lbBDEAPEM</p>","","","","","","","","",""
"html-keyboard-response","95","184388","0.0-10.0-0.6","5f0f93938935de000855898b","650c16f0f2faf8d7a0d14c09","651c1e0d6882c1a9d645761c","null","null","<p style=""font-size: 60px; font-family: BACS"">kcOYAPT</p>","","","","","","","","",""
"html-keyboard-response","96","185395","0.0-10.0-0.7","5f0f93938935de000855898b","650c16f0f2faf8d7a0d14c09","651c1e0d6882c1a9d645761c","null","null","<p style=""font-size: 60px; font-family: BACS"">mLdkZLUOk</p>","","","","","","","","",""
"html-keyboard-response","97","186410","0.0-10.0-0.8","5f0f93938935de000855898b","650c16f0f2faf8d7a0d14c09","651c1e0d6882c1a9d645761c","null","null","<p style=""font-size: 60px; font-family: BACS"">dkLlJcL</p>","","","","","","","","",""
"html-keyboard-response","98","187422","0.0-10.0-0.9","5f0f93938935de000855898b","650c16f0f2faf8d7a0d14c09","651c1e0d6882c1a9d645761c","null","null","<p style=""font-size: 60px; font-family: BACS"">RKYkAPT</p>","","","","","","","","",""
"html-keyboard-response","99","188431","0.0-10.0-0.10","5f0f93938935de000855898b","650c16f0f2faf8d7a0d14c09","651c1e0d6882c1a9d645761c","null","null","<p style=""font-size: 60px; font-family: BACS"">tmtEMbTE</p>","","","","","","","","",""
"html-keyboard-response","100","189441","0.0-10.0-0.11","5f0f93938935de000855898b","650c16f0f2faf8d7a0d14c09","651c1e0d6882c1a9d645761c","null","null","<p style=""font-size: 60px; font-family: BACS"">JdGmLUOk</p>","","","","","","","","",""
"html-keyboard-response","101","190443","0.0-10.0-0.12","5f0f93938935de000855898b","650c16f0f2faf8d7a0d14c09","651c1e0d6882c1a9d645761c","null","null","<p style=""font-size: 60px; font-family: BACS"">lZcuNYZu</p>","","","","","","","","",""
"html-keyboard-response","102","191446","0.0-10.0-0.13","5f0f93938935de000855898b","650c16f0f2faf8d7a0d14c09","651c1e0d6882c1a9d645761c","null","null","<p style=""font-size: 60px; font-family: BACS"">JdGmJcL</p>","","","","","","","","",""
"html-keyboard-response","103","192454","0.0-10.0-0.14","5f0f93938935de000855898b","650c16f0f2faf8d7a0d14c09","651c1e0d6882c1a9d645761c","null","null","<p style=""font-size: 60px; font-family: BACS"">mBYlbTE</p>","","","","","","","","",""
"html-keyboard-response","104","193458","0.0-10.0-0.15","5f0f93938935de000855898b","650c16f0f2faf8d7a0d14c09","651c1e0d6882c1a9d645761c","null","null","<p style=""font-size: 60px; font-family: BACS"">lZcuLkNc</p>","","","","","","","","",""
"html-keyboard-response","105","194461","0.0-10.0-0.16","5f0f93938935de000855898b","650c16f0f2faf8d7a0d14c09","651c1e0d6882c1a9d645761c","null","null","<p style=""font-size: 60px; font-family: BACS"">lKdbcAPT</p>","","","","","","","","",""
"html-keyboard-response","106","195470","0.0-10.0-0.17","5f0f93938935de000855898b","650c16f0f2faf8d7a0d14c09","651c1e0d6882c1a9d645761c","null","null","<p style=""font-size: 60px; font-family: BACS"">mLdkZJcL</p>","","","","","","","","",""
"html-keyboard-response","107","196486","0.0-10.0-0.18","5f0f93938935de000855898b","650c16f0f2faf8d7a0d14c09","651c1e0d6882c1a9d645761c","null","null","<p style=""font-size: 60px; font-family: BACS"">JvaAGQYQ</p>","","","","","","","","",""
"html-keyboard-response","108","197489","0.0-10.0-0.19","5f0f93938935de000855898b","650c16f0f2faf8d7a0d14c09","651c1e0d6882c1a9d645761c","null","null","<p style=""font-size: 60px; font-family: BACS"">tmtEMAPT</p>","","","","","","","","",""
"html-keyboard-response","109","198503","0.0-10.0-0.20","5f0f93938935de000855898b","650c16f0f2faf8d7a0d14c09","651c1e0d6882c1a9d645761c","null","null","<p style=""font-size: 60px; font-family: BACS"">JuamlLkNc</p>","","","","","","","","",""
"html-keyboard-response","110","199517","0.0-10.0-0.21","5f0f93938935de000855898b","650c16f0f2faf8d7a0d14c09","651c1e0d6882c1a9d645761c","null","null","<p style=""font-size: 60px; font-family: BACS"">OcYMdPc</p>","","","","","","","","",""
"html-keyboard-response","111","200532","0.0-10.0-0.22","5f0f93938935de000855898b","650c16f0f2faf8d7a0d14c09","651c1e0d6882c1a9d645761c","null","null","<p style=""font-size: 60px; font-family: BACS"">tmtEMPED</p>","","","","","","","","",""
"html-keyboard-response","112","201537","0.0-10.0-0.23","5f0f93938935de000855898b","650c16f0f2faf8d7a0d14c09","651c1e0d6882c1a9d645761c","null","null","<p style=""font-size: 60px; font-family: BACS"">adkrLkNc</p>","","","","","","","","",""
"html-keyboard-response","113","202550","0.0-10.0-0.24","5f0f93938935de000855898b","650c16f0f2faf8d7a0d14c09","651c1e0d6882c1a9d645761c","null","null","<p style=""font-size: 60px; font-family: BACS"">lRCBbTE</p>","","","","","","","","",""
"html-keyboard-response","114","203559","0.0-10.0-0.25","5f0f93938935de000855898b","650c16f0f2faf8d7a0d14c09","651c1e0d6882c1a9d645761c","null","null","<p style=""font-size: 60px; font-family: BACS"">kNuaLUOk</p>","","","","","","","","",""
"html-keyboard-response","115","204571","0.0-10.0-0.26","5f0f93938935de000855898b","650c16f0f2faf8d7a0d14c09","651c1e0d6882c1a9d645761c","null","null","<p style=""font-size: 60px; font-family: BACS"">cRElDdPc</p>","","","","","","","","",""
"html-keyboard-response","116","205580","0.0-10.0-0.27","5f0f93938935de000855898b","650c16f0f2faf8d7a0d14c09","651c1e0d6882c1a9d645761c","null","null","<p style=""font-size: 60px; font-family: BACS"">lKdbcbTE</p>","","","","","","","","",""
"html-keyboard-response","117","206589","0.0-10.0-0.28","5f0f93938935de000855898b","650c16f0f2faf8d7a0d14c09","651c1e0d6882c1a9d645761c","null","null","<p style=""font-size: 60px; font-family: BACS"">cRElDAPT</p>","","","","","","","","",""
"html-keyboard-response","118","207594","0.0-10.0-0.29","5f0f93938935de000855898b","650c16f0f2faf8d7a0d14c09","651c1e0d6882c1a9d645761c","null","null","<p style=""font-size: 60px; font-family: BACS"">kNuaGQYQ</p>","","","","","","","","",""
"html-keyboard-response","119","208603","0.0-10.0-0.30","5f0f93938935de000855898b","650c16f0f2faf8d7a0d14c09","651c1e0d6882c1a9d645761c","null","null","<p style=""font-size: 60px; font-family: BACS"">TbKMEdPc</p>","","","","","","","","",""
"html-keyboard-response","120","209617","0.0-10.0-0.31","5f0f93938935de000855898b","650c16f0f2faf8d7a0d14c09","651c1e0d6882c1a9d645761c","null","null","<p style=""font-size: 60px; font-family: BACS"">OcYMAPEM</p>","","","","","","","","",""
"html-keyboard-response","121","210625","0.0-10.0-0.32","5f0f93938935de000855898b","650c16f0f2faf8d7a0d14c09","651c1e0d6882c1a9d645761c","null","null","<p style=""font-size: 60px; font-family: BACS"">tmtEMdPc</p>","","","","","","","","",""
"html-keyboard-response","122","211634","0.0-10.0-0.33","5f0f93938935de000855898b","650c16f0f2faf8d7a0d14c09","651c1e0d6882c1a9d645761c","null","null","<p style=""font-size: 60px; font-family: BACS"">JvaALUOk</p>","","","","","","","","",""
"html-keyboard-response","123","212649","0.0-10.0-0.34","5f0f93938935de000855898b","650c16f0f2faf8d7a0d14c09","651c1e0d6882c1a9d645761c","null","null","<p style=""font-size: 60px; font-family: BACS"">adkrGQYQ</p>","","","","","","","","",""
"html-keyboard-response","124","213656","0.0-10.0-0.35","5f0f93938935de000855898b","650c16f0f2faf8d7a0d14c09","651c1e0d6882c1a9d645761c","null","null","<p style=""font-size: 60px; font-family: BACS"">mBYldPc</p>","","","","","","","","",""
"html-keyboard-response","125","214669","0.0-10.0-0.36","5f0f93938935de000855898b","650c16f0f2faf8d7a0d14c09","651c1e0d6882c1a9d645761c","null","null","<p style=""font-size: 60px; font-family: BACS"">lKdbcAPEM</p>","","","","","","","","",""
"html-keyboard-response","126","215680","0.0-10.0-0.37","5f0f93938935de000855898b","650c16f0f2faf8d7a0d14c09","651c1e0d6882c1a9d645761c","null","null","<p style=""font-size: 60px; font-family: BACS"">OcYMbTE</p>","","","","","","","","",""
"html-keyboard-response","127","216695","0.0-10.0-0.38","5f0f93938935de000855898b","650c16f0f2faf8d7a0d14c09","651c1e0d6882c1a9d645761c","null","null","<p style=""font-size: 60px; font-family: BACS"">lRCBPED</p>","","","","","","","","",""
"html-keyboard-response","128","217702","0.0-10.0-0.39","5f0f93938935de000855898b","650c16f0f2faf8d7a0d14c09","651c1e0d6882c1a9d645761c","null","null","<p style=""font-size: 60px; font-family: BACS"">TbKMEbTE</p>","","","","","","","","",""
"html-keyboard-response","129","218714","0.0-10.0-0.40","5f0f93938935de000855898b","650c16f0f2faf8d7a0d14c09","651c1e0d6882c1a9d645761c","null","null","<p style=""font-size: 60px; font-family: BACS"">UdYUQLkNc</p>","","","","","","","","",""
"html-keyboard-response","130","219724","0.0-10.0-0.41","5f0f93938935de000855898b","650c16f0f2faf8d7a0d14c09","651c1e0d6882c1a9d645761c","null","null","<p style=""font-size: 60px; font-family: BACS"">RKYkAPEM</p>","","","","","","","","",""
"html-keyboard-response","131","220730","0.0-10.0-0.42","5f0f93938935de000855898b","650c16f0f2faf8d7a0d14c09","651c1e0d6882c1a9d645761c","null","null","<p style=""font-size: 60px; font-family: BACS"">dkLlNYZu</p>","","","","","","","","",""
"html-keyboard-response","132","221737","0.0-10.0-0.43","5f0f93938935de000855898b","650c16f0f2faf8d7a0d14c09","651c1e0d6882c1a9d645761c","null","null","<p style=""font-size: 60px; font-family: BACS"">lbBDEbTE</p>","","","","","","","","",""
"html-keyboard-response","133","222749","0.0-10.0-0.44","5f0f93938935de000855898b","650c16f0f2faf8d7a0d14c09","651c1e0d6882c1a9d645761c","null","null","<p style=""font-size: 60px; font-family: BACS"">mLdkZGQYQ</p>","","","","","","","","",""
"html-keyboard-response","134","223765","0.0-10.0-0.45","5f0f93938935de000855898b","650c16f0f2faf8d7a0d14c09","651c1e0d6882c1a9d645761c","null","null","<p style=""font-size: 60px; font-family: BACS"">lZcuLUOk</p>","","","","","","","","",""
"html-keyboard-response","135","224768","0.0-10.0-0.46","5f0f93938935de000855898b","650c16f0f2faf8d7a0d14c09","651c1e0d6882c1a9d645761c","null","null","<p style=""font-size: 60px; font-family: BACS"">lRCBAPEM</p>","","","","","","","","",""
"html-keyboard-response","136","225782","0.0-10.0-0.47","5f0f93938935de000855898b","650c16f0f2faf8d7a0d14c09","651c1e0d6882c1a9d645761c","null","null","<p style=""font-size: 60px; font-family: BACS"">adkrJcL</p>","","","","","","","","",""
"html-keyboard-response","137","226791","0.0-10.0-0.48","5f0f93938935de000855898b","650c16f0f2faf8d7a0d14c09","651c1e0d6882c1a9d645761c","null","null","<p style=""font-size: 60px; font-family: BACS"">vmuLlGQYQ</p>","","","","","","","","",""
"html-keyboard-response","138","227802","0.0-10.0-0.49","5f0f93938935de000855898b","650c16f0f2faf8d7a0d14c09","651c1e0d6882c1a9d645761c","null","null","<p style=""font-size: 60px; font-family: BACS"">lKdbcPED</p>","","","","","","","","",""
"html-keyboard-response","139","228818","0.0-10.0-0.50","5f0f93938935de000855898b","650c16f0f2faf8d7a0d14c09","651c1e0d6882c1a9d645761c","null","null","<p style=""font-size: 60px; font-family: BACS"">JvaALkNc</p>","","","","","","","","",""
"html-keyboard-response","140","229835","0.0-10.0-0.51","5f0f93938935de000855898b","650c16f0f2faf8d7a0d14c09","651c1e0d6882c1a9d645761c","null","null","<p style=""font-size: 60px; font-family: BACS"">UdYUQLUOk</p>","","","","","","","","",""
"html-keyboard-response","141","230844","0.0-10.0-0.52","5f0f93938935de000855898b","650c16f0f2faf8d7a0d14c09","651c1e0d6882c1a9d645761c","null","null","<p style=""font-size: 60px; font-family: BACS"">OcYMPED</p>","","","","","","","","",""
"html-keyboard-response","142","231854","0.0-10.0-0.53","5f0f93938935de000855898b","650c16f0f2faf8d7a0d14c09","651c1e0d6882c1a9d645761c","null","null","<p style=""font-size: 60px; font-family: BACS"">vmuLlJcL</p>","","","","","","","","",""
"html-keyboard-response","143","232867","0.0-10.0-0.54","5f0f93938935de000855898b","650c16f0f2faf8d7a0d14c09","651c1e0d6882c1a9d645761c","null","null","<p style=""font-size: 60px; font-family: BACS"">TbKMEPED</p>","","","","","","","","",""
"html-keyboard-response","144","233878","0.0-10.0-0.55","5f0f93938935de000855898b","650c16f0f2faf8d7a0d14c09","651c1e0d6882c1a9d645761c","null","null","<p style=""font-size: 60px; font-family: BACS"">lRCBAPT</p>","","","","","","","","",""
"html-keyboard-response","145","234881","0.0-10.0-0.56","5f0f93938935de000855898b","650c16f0f2faf8d7a0d14c09","651c1e0d6882c1a9d645761c","null","null","<p style=""font-size: 60px; font-family: BACS"">kcOYdPc</p>","","","","","","","","",""
"html-keyboard-response","146","235887","0.0-10.0-0.57","5f0f93938935de000855898b","650c16f0f2faf8d7a0d14c09","651c1e0d6882c1a9d645761c","null","null","<p style=""font-size: 60px; font-family: BACS"">lbBDEAPT</p>","","","","","","","","",""
"html-keyboard-response","147","236894","0.0-10.0-0.58","5f0f93938935de000855898b","650c16f0f2faf8d7a0d14c09","651c1e0d6882c1a9d645761c","null","null","<p style=""font-size: 60px; font-family: BACS"">vmuLlNYZu</p>","","","","","","","","",""
"html-keyboard-response","148","237907","0.0-10.0-0.59","5f0f93938935de000855898b","650c16f0f2faf8d7a0d14c09","651c1e0d6882c1a9d645761c","null","null","<p style=""font-size: 60px; font-family: BACS"">JvaAJcL</p>","","","","","","","","",""
"html-keyboard-response","149","238913","0.0-10.0-0.60","5f0f93938935de000855898b","650c16f0f2faf8d7a0d14c09","651c1e0d6882c1a9d645761c","null","null","<p style=""font-size: 60px; font-family: BACS"">cRElDbTE</p>","","","","","","","","",""
"html-keyboard-response","150","239918","0.0-10.0-0.61","5f0f93938935de000855898b","650c16f0f2faf8d7a0d14c09","651c1e0d6882c1a9d645761c","null","null","<p style=""font-size: 60px; font-family: BACS"">RKYkPED</p>","","","","","","","","",""
"html-keyboard-response","151","240929","0.0-10.0-0.62","5f0f93938935de000855898b","650c16f0f2faf8d7a0d14c09","651c1e0d6882c1a9d645761c","null","null","<p style=""font-size: 60px; font-family: BACS"">JdGmLkNc</p>","","","","","","","","",""
"html-keyboard-response","152","241933","0.0-10.0-0.63","5f0f93938935de000855898b","650c16f0f2faf8d7a0d14c09","651c1e0d6882c1a9d645761c","null","null","<p style=""font-size: 60px; font-family: BACS"">dkLlGQYQ</p>","","","","","","","","",""
"html-keyboard-response","153","242944","0.0-10.0-0.64","5f0f93938935de000855898b","650c16f0f2faf8d7a0d14c09","651c1e0d6882c1a9d645761c","null","null","<p style=""font-size: 60px; font-family: BACS"">mBYlPED</p>","","","","","","","","",""
"html-keyboard-response","154","243956","0.0-10.0-0.65","5f0f93938935de000855898b","650c16f0f2faf8d7a0d14c09","651c1e0d6882c1a9d645761c","null","null","<p style=""font-size: 60px; font-family: BACS"">mLdkZNYZu</p>","","","","","","","","",""
"html-keyboard-response","155","244959","0.0-10.0-0.66","5f0f93938935de000855898b","650c16f0f2faf8d7a0d14c09","651c1e0d6882c1a9d645761c","null","null","<p style=""font-size: 60px; font-family: BACS"">JuamlJcL</p>","","","","","","","","",""
"html-keyboard-response","156","245963","0.0-10.0-0.67","5f0f93938935de000855898b","650c16f0f2faf8d7a0d14c09","651c1e0d6882c1a9d645761c","null","null","<p style=""font-size: 60px; font-family: BACS"">cRElDAPEM</p>","","","","","","","","",""
"html-keyboard-response","157","246975","0.0-10.0-0.68","5f0f93938935de000855898b","650c16f0f2faf8d7a0d14c09","651c1e0d6882c1a9d645761c","null","null","<p style=""font-size: 60px; font-family: BACS"">mBYlAPT</p>","","","","","","","","",""
"html-keyboard-response","158","247986","0.0-10.0-0.69","5f0f93938935de000855898b","650c16f0f2faf8d7a0d14c09","651c1e0d6882c1a9d645761c","null","null","<p style=""font-size: 60px; font-family: BACS"">kNuaLkNc</p>","","","","","","","","",""
"html-keyboard-response","159","248988","0.0-10.0-0.70","5f0f93938935de000855898b","650c16f0f2faf8d7a0d14c09","651c1e0d6882c1a9d645761c","null","null","<p style=""font-size: 60px; font-family: BACS"">JuamlLUOk</p>","","","","","","","","",""
"html-keyboard-response","160","250002","0.0-10.0-0.71","5f0f93938935de000855898b","650c16f0f2faf8d7a0d14c09","651c1e0d6882c1a9d645761c","null","null","<p style=""font-size: 60px; font-family: BACS"">TbKMEAPEM</p>","","","","","","","","",""
"html-keyboard-response","161","251008","0.0-10.0-0.72","5f0f93938935de000855898b","650c16f0f2faf8d7a0d14c09","651c1e0d6882c1a9d645761c","null","null","<p style=""font-size: 60px; font-family: BACS"">vmuLlLUOk</p>","","","","","","","","",""
"html-keyboard-response","162","252023","0.0-10.0-0.73","5f0f93938935de000855898b","650c16f0f2faf8d7a0d14c09","651c1e0d6882c1a9d645761c","null","null","<p style=""font-size: 60px; font-family: BACS"">JuamlNYZu</p>","","","","","","","","",""
"html-keyboard-response","163","253029","0.0-10.0-0.74","5f0f93938935de000855898b","650c16f0f2faf8d7a0d14c09","651c1e0d6882c1a9d645761c","null","null","<p style=""font-size: 60px; font-family: BACS"">UdYUQJcL</p>","","","","","","","","",""
"html-keyboard-response","164","254042","0.0-10.0-0.75","5f0f93938935de000855898b","650c16f0f2faf8d7a0d14c09","651c1e0d6882c1a9d645761c","null","null","<p style=""font-size: 60px; font-family: BACS"">adkrNYZu</p>","","","","","","","","",""
"html-keyboard-response","165","255048","0.0-10.0-0.76","5f0f93938935de000855898b","650c16f0f2faf8d7a0d14c09","651c1e0d6882c1a9d645761c","null","null","<p style=""font-size: 60px; font-family: BACS"">kcOYPED</p>","","","","","","","","",""
"html-keyboard-response","166","256055","0.0-10.0-0.77","5f0f93938935de000855898b","650c16f0f2faf8d7a0d14c09","651c1e0d6882c1a9d645761c","null","null","<p style=""font-size: 60px; font-family: BACS"">kNuaNYZu</p>","","","","","","","","",""
"html-keyboard-response","167","257070","0.0-10.0-0.78","5f0f93938935de000855898b","650c16f0f2faf8d7a0d14c09","651c1e0d6882c1a9d645761c","null","null","<p style=""font-size: 60px; font-family: BACS"">UdYUQGQYQ</p>","","","","","","","","",""
"html-keyboard-response","168","258081","0.0-10.0-0.79","5f0f93938935de000855898b","650c16f0f2faf8d7a0d14c09","651c1e0d6882c1a9d645761c","null","null","<p style=""font-size: 60px; font-family: BACS"">lbBDEdPc</p>","","","","","","","","",""
"html-keyboard-response","169","264382","0.0-11.0","5f0f93938935de000855898b","650c16f0f2faf8d7a0d14c09","651c1e0d6882c1a9d645761c","6300"," ","<p>Great, you've seen the second block of words. You may now take a short break.</p>
      <p>Press the spacebar when you're ready to continue.</p>","","","","","","","","",""
"html-keyboard-response","170","265383","0.0-12.0-0.0","5f0f93938935de000855898b","650c16f0f2faf8d7a0d14c09","651c1e0d6882c1a9d645761c","null","null","<p style=""font-size: 60px; font-family: BACS"">cRElDAPEM</p>","","","","","","","","",""
"html-keyboard-response","171","266389","0.0-12.0-0.1","5f0f93938935de000855898b","650c16f0f2faf8d7a0d14c09","651c1e0d6882c1a9d645761c","null","null","<p style=""font-size: 60px; font-family: BACS"">dkLlGQYQ</p>","","","","","","","","",""
"html-keyboard-response","172","267403","0.0-12.0-0.2","5f0f93938935de000855898b","650c16f0f2faf8d7a0d14c09","651c1e0d6882c1a9d645761c","null","null","<p style=""font-size: 60px; font-family: BACS"">kcOYPED</p>","","","","","","","","",""
"html-keyboard-response","173","268411","0.0-12.0-0.3","5f0f93938935de000855898b","650c16f0f2faf8d7a0d14c09","651c1e0d6882c1a9d645761c","null","null","<p style=""font-size: 60px; font-family: BACS"">lZcuLkNc</p>","","","","","","","","",""
"html-keyboard-response","174","269426","0.0-12.0-0.4","5f0f93938935de000855898b","650c16f0f2faf8d7a0d14c09","651c1e0d6882c1a9d645761c","null","null","<p style=""font-size: 60px; font-family: BACS"">JdGmNYZu</p>","","","","","","","","",""
"html-keyboard-response","175","270431","0.0-12.0-0.5","5f0f93938935de000855898b","650c16f0f2faf8d7a0d14c09","651c1e0d6882c1a9d645761c","null","null","<p style=""font-size: 60px; font-family: BACS"">kcOYAPT</p>","","","","","","","","",""
"html-keyboard-response","176","271445","0.0-12.0-0.6","5f0f93938935de000855898b","650c16f0f2faf8d7a0d14c09","651c1e0d6882c1a9d645761c","null","null","<p style=""font-size: 60px; font-family: BACS"">adkrLkNc</p>","","","","","","","","",""
"html-keyboard-response","177","272461","0.0-12.0-0.7","5f0f93938935de000855898b","650c16f0f2faf8d7a0d14c09","651c1e0d6882c1a9d645761c","null","null","<p style=""font-size: 60px; font-family: BACS"">JdGmJcL</p>","","","","","","","","",""
"html-keyboard-response","178","273474","0.0-12.0-0.8","5f0f93938935de000855898b","650c16f0f2faf8d7a0d14c09","651c1e0d6882c1a9d645761c","null","null","<p style=""font-size: 60px; font-family: BACS"">kNuaNYZu</p>","","","","","","","","",""
"html-keyboard-response","179","274488","0.0-12.0-0.9","5f0f93938935de000855898b","650c16f0f2faf8d7a0d14c09","651c1e0d6882c1a9d645761c","null","null","<p style=""font-size: 60px; font-family: BACS"">mBYlPED</p>","","","","","","","","",""
"html-keyboard-response","180","275494","0.0-12.0-0.10","5f0f93938935de000855898b","650c16f0f2faf8d7a0d14c09","651c1e0d6882c1a9d645761c","null","null","<p style=""font-size: 60px; font-family: BACS"">mLdkZLUOk</p>","","","","","","","","",""
"html-keyboard-response","181","276505","0.0-12.0-0.11","5f0f93938935de000855898b","650c16f0f2faf8d7a0d14c09","651c1e0d6882c1a9d645761c","null","null","<p style=""font-size: 60px; font-family: BACS"">kcOYAPEM</p>","","","","","","","","",""
"html-keyboard-response","182","277520","0.0-12.0-0.12","5f0f93938935de000855898b","650c16f0f2faf8d7a0d14c09","651c1e0d6882c1a9d645761c","null","null","<p style=""font-size: 60px; font-family: BACS"">adkrGQYQ</p>","","","","","","","","",""
"html-keyboard-response","183","278526","0.0-12.0-0.13","5f0f93938935de000855898b","650c16f0f2faf8d7a0d14c09","651c1e0d6882c1a9d645761c","null","null","<p style=""font-size: 60px; font-family: BACS"">JdGmLkNc</p>","","","","","","","","",""
"html-keyboard-response","184","279540","0.0-12.0-0.14","5f0f93938935de000855898b","650c16f0f2faf8d7a0d14c09","651c1e0d6882c1a9d645761c","null","null","<p style=""font-size: 60px; font-family: BACS"">OcYMdPc</p>","","","","","","","","",""
"html-keyboard-response","185","280552","0.0-12.0-0.15","5f0f93938935de000855898b","650c16f0f2faf8d7a0d14c09","651c1e0d6882c1a9d645761c","null","null","<p style=""font-size: 60px; font-family: BACS"">mLdkZGQYQ</p>","","","","","","","","",""
"html-keyboard-response","186","281566","0.0-12.0-0.16","5f0f93938935de000855898b","650c16f0f2faf8d7a0d14c09","651c1e0d6882c1a9d645761c","null","null","<p style=""font-size: 60px; font-family: BACS"">lRCBAPEM</p>","","","","","","","","",""
"html-keyboard-response","187","282582","0.0-12.0-0.17","5f0f93938935de000855898b","650c16f0f2faf8d7a0d14c09","651c1e0d6882c1a9d645761c","null","null","<p style=""font-size: 60px; font-family: BACS"">mBYlbTE</p>","","","","","","","","",""
"html-keyboard-response","188","283598","0.0-12.0-0.18","5f0f93938935de000855898b","650c16f0f2faf8d7a0d14c09","651c1e0d6882c1a9d645761c","null","null","<p style=""font-size: 60px; font-family: BACS"">dkLlNYZu</p>","","","","","","","","",""
"html-keyboard-response","189","284608","0.0-12.0-0.19","5f0f93938935de000855898b","650c16f0f2faf8d7a0d14c09","651c1e0d6882c1a9d645761c","null","null","<p style=""font-size: 60px; font-family: BACS"">adkrJcL</p>","","","","","","","","",""
"html-keyboard-response","190","285619","0.0-12.0-0.20","5f0f93938935de000855898b","650c16f0f2faf8d7a0d14c09","651c1e0d6882c1a9d645761c","null","null","<p style=""font-size: 60px; font-family: BACS"">JvaALkNc</p>","","","","","","","","",""
"html-keyboard-response","191","286623","0.0-12.0-0.21","5f0f93938935de000855898b","650c16f0f2faf8d7a0d14c09","651c1e0d6882c1a9d645761c","null","null","<p style=""font-size: 60px; font-family: BACS"">mBYlAPT</p>","","","","","","","","",""
"html-keyboard-response","192","287630","0.0-12.0-0.22","5f0f93938935de000855898b","650c16f0f2faf8d7a0d14c09","651c1e0d6882c1a9d645761c","null","null","<p style=""font-size: 60px; font-family: BACS"">mLdkZNYZu</p>","","","","","","","","",""
"html-keyboard-response","193","288643","0.0-12.0-0.23","5f0f93938935de000855898b","650c16f0f2faf8d7a0d14c09","651c1e0d6882c1a9d645761c","null","null","<p style=""font-size: 60px; font-family: BACS"">kNuaGQYQ</p>","","","","","","","","",""
"html-keyboard-response","194","289656","0.0-12.0-0.24","5f0f93938935de000855898b","650c16f0f2faf8d7a0d14c09","651c1e0d6882c1a9d645761c","null","null","<p style=""font-size: 60px; font-family: BACS"">mLdkZJcL</p>","","","","","","","","",""
"html-keyboard-response","195","290667","0.0-12.0-0.25","5f0f93938935de000855898b","650c16f0f2faf8d7a0d14c09","651c1e0d6882c1a9d645761c","null","null","<p style=""font-size: 60px; font-family: BACS"">lKdbcbTE</p>","","","","","","","","",""
"html-keyboard-response","196","291668","0.0-12.0-0.26","5f0f93938935de000855898b","650c16f0f2faf8d7a0d14c09","651c1e0d6882c1a9d645761c","null","null","<p style=""font-size: 60px; font-family: BACS"">lZcuLUOk</p>","","","","","","","","",""
"html-keyboard-response","197","292675","0.0-12.0-0.27","5f0f93938935de000855898b","650c16f0f2faf8d7a0d14c09","651c1e0d6882c1a9d645761c","null","null","<p style=""font-size: 60px; font-family: BACS"">tmtEMAPT</p>","","","","","","","","",""
"html-keyboard-response","198","293683","0.0-12.0-0.28","5f0f93938935de000855898b","650c16f0f2faf8d7a0d14c09","651c1e0d6882c1a9d645761c","null","null","<p style=""font-size: 60px; font-family: BACS"">kNuaLUOk</p>","","","","","","","","",""
"html-keyboard-response","199","294690","0.0-12.0-0.29","5f0f93938935de000855898b","650c16f0f2faf8d7a0d14c09","651c1e0d6882c1a9d645761c","null","null","<p style=""font-size: 60px; font-family: BACS"">OcYMAPEM</p>","","","","","","","","",""
"html-keyboard-response","200","295693","0.0-12.0-0.30","5f0f93938935de000855898b","650c16f0f2faf8d7a0d14c09","651c1e0d6882c1a9d645761c","null","null","<p style=""font-size: 60px; font-family: BACS"">tmtEMdPc</p>","","","","","","","","",""
"html-keyboard-response","201","296708","0.0-12.0-0.31","5f0f93938935de000855898b","650c16f0f2faf8d7a0d14c09","651c1e0d6882c1a9d645761c","null","null","<p style=""font-size: 60px; font-family: BACS"">vmuLlJcL</p>","","","","","","","","",""
"html-keyboard-response","202","297720","0.0-12.0-0.32","5f0f93938935de000855898b","650c16f0f2faf8d7a0d14c09","651c1e0d6882c1a9d645761c","null","null","<p style=""font-size: 60px; font-family: BACS"">TbKMEdPc</p>","","","","","","","","",""
"html-keyboard-response","203","298729","0.0-12.0-0.33","5f0f93938935de000855898b","650c16f0f2faf8d7a0d14c09","651c1e0d6882c1a9d645761c","null","null","<p style=""font-size: 60px; font-family: BACS"">lbBDEAPT</p>","","","","","","","","",""
"html-keyboard-response","204","299735","0.0-12.0-0.34","5f0f93938935de000855898b","650c16f0f2faf8d7a0d14c09","651c1e0d6882c1a9d645761c","null","null","<p style=""font-size: 60px; font-family: BACS"">UdYUQLkNc</p>","","","","","","","","",""
"html-keyboard-response","205","300744","0.0-12.0-0.35","5f0f93938935de000855898b","650c16f0f2faf8d7a0d14c09","651c1e0d6882c1a9d645761c","null","null","<p style=""font-size: 60px; font-family: BACS"">lbBDEdPc</p>","","","","","","","","",""
"html-keyboard-response","206","301759","0.0-12.0-0.36","5f0f93938935de000855898b","650c16f0f2faf8d7a0d14c09","651c1e0d6882c1a9d645761c","null","null","<p style=""font-size: 60px; font-family: BACS"">kNuaLkNc</p>","","","","","","","","",""
"html-keyboard-response","207","302766","0.0-12.0-0.37","5f0f93938935de000855898b","650c16f0f2faf8d7a0d14c09","651c1e0d6882c1a9d645761c","null","null","<p style=""font-size: 60px; font-family: BACS"">lZcuNYZu</p>","","","","","","","","",""
"html-keyboard-response","208","303768","0.0-12.0-0.38","5f0f93938935de000855898b","650c16f0f2faf8d7a0d14c09","651c1e0d6882c1a9d645761c","null","null","<p style=""font-size: 60px; font-family: BACS"">tmtEMbTE</p>","","","","","","","","",""
"html-keyboard-response","209","304782","0.0-12.0-0.39","5f0f93938935de000855898b","650c16f0f2faf8d7a0d14c09","651c1e0d6882c1a9d645761c","null","null","<p style=""font-size: 60px; font-family: BACS"">dkLlJcL</p>","","","","","","","","",""
"html-keyboard-response","210","305796","0.0-12.0-0.40","5f0f93938935de000855898b","650c16f0f2faf8d7a0d14c09","651c1e0d6882c1a9d645761c","null","null","<p style=""font-size: 60px; font-family: BACS"">lbBDEbTE</p>","","","","","","","","",""
"html-keyboard-response","211","306807","0.0-12.0-0.41","5f0f93938935de000855898b","650c16f0f2faf8d7a0d14c09","651c1e0d6882c1a9d645761c","null","null","<p style=""font-size: 60px; font-family: BACS"">kcOYdPc</p>","","","","","","","","",""
"html-keyboard-response","212","307812","0.0-12.0-0.42","5f0f93938935de000855898b","650c16f0f2faf8d7a0d14c09","651c1e0d6882c1a9d645761c","null","null","<p style=""font-size: 60px; font-family: BACS"">UdYUQGQYQ</p>","","","","","","","","",""
"html-keyboard-response","213","308828","0.0-12.0-0.43","5f0f93938935de000855898b","650c16f0f2faf8d7a0d14c09","651c1e0d6882c1a9d645761c","null","null","<p style=""font-size: 60px; font-family: BACS"">lKdbcAPT</p>","","","","","","","","",""
"html-keyboard-response","214","309840","0.0-12.0-0.44","5f0f93938935de000855898b","650c16f0f2faf8d7a0d14c09","651c1e0d6882c1a9d645761c","null","null","<p style=""font-size: 60px; font-family: BACS"">lZcuGQYQ</p>","","","","","","","","",""
"html-keyboard-response","215","310866","0.0-12.0-0.45","5f0f93938935de000855898b","650c16f0f2faf8d7a0d14c09","651c1e0d6882c1a9d645761c","null","null","<p style=""font-size: 60px; font-family: BACS"">JvaAJcL</p>","","","","","","","","",""
"html-keyboard-response","216","311868","0.0-12.0-0.46","5f0f93938935de000855898b","650c16f0f2faf8d7a0d14c09","651c1e0d6882c1a9d645761c","null","null","<p style=""font-size: 60px; font-family: BACS"">adkrNYZu</p>","","","","","","","","",""
"html-keyboard-response","217","312882","0.0-12.0-0.47","5f0f93938935de000855898b","650c16f0f2faf8d7a0d14c09","651c1e0d6882c1a9d645761c","null","null","<p style=""font-size: 60px; font-family: BACS"">TbKMEPED</p>","","","","","","","","",""
"html-keyboard-response","218","313893","0.0-12.0-0.48","5f0f93938935de000855898b","650c16f0f2faf8d7a0d14c09","651c1e0d6882c1a9d645761c","null","null","<p style=""font-size: 60px; font-family: BACS"">RKYkdPc</p>","","","","","","","","",""
"html-keyboard-response","219","314897","0.0-12.0-0.49","5f0f93938935de000855898b","650c16f0f2faf8d7a0d14c09","651c1e0d6882c1a9d645761c","null","null","<p style=""font-size: 60px; font-family: BACS"">dkLlLkNc</p>","","","","","","","","",""
"html-keyboard-response","220","315906","0.0-12.0-0.50","5f0f93938935de000855898b","650c16f0f2faf8d7a0d14c09","651c1e0d6882c1a9d645761c","null","null","<p style=""font-size: 60px; font-family: BACS"">JdGmLUOk</p>","","","","","","","","",""
"html-keyboard-response","221","316908","0.0-12.0-0.51","5f0f93938935de000855898b","650c16f0f2faf8d7a0d14c09","651c1e0d6882c1a9d645761c","null","null","<p style=""font-size: 60px; font-family: BACS"">vmuLlNYZu</p>","","","","","","","","",""
"html-keyboard-response","222","317915","0.0-12.0-0.52","5f0f93938935de000855898b","650c16f0f2faf8d7a0d14c09","651c1e0d6882c1a9d645761c","null","null","<p style=""font-size: 60px; font-family: BACS"">TbKMEAPEM</p>","","","","","","","","",""
"html-keyboard-response","223","318928","0.0-12.0-0.53","5f0f93938935de000855898b","650c16f0f2faf8d7a0d14c09","651c1e0d6882c1a9d645761c","null","null","<p style=""font-size: 60px; font-family: BACS"">mBYldPc</p>","","","","","","","","",""
"html-keyboard-response","224","319935","0.0-12.0-0.54","5f0f93938935de000855898b","650c16f0f2faf8d7a0d14c09","651c1e0d6882c1a9d645761c","null","null","<p style=""font-size: 60px; font-family: BACS"">lKdbcAPEM</p>","","","","","","","","",""
"html-keyboard-response","225","320943","0.0-12.0-0.55","5f0f93938935de000855898b","650c16f0f2faf8d7a0d14c09","651c1e0d6882c1a9d645761c","null","null","<p style=""font-size: 60px; font-family: BACS"">OcYMbTE</p>","","","","","","","","",""
"html-keyboard-response","226","321950","0.0-12.0-0.56","5f0f93938935de000855898b","650c16f0f2faf8d7a0d14c09","651c1e0d6882c1a9d645761c","null","null","<p style=""font-size: 60px; font-family: BACS"">vmuLlGQYQ</p>","","","","","","","","",""
"html-keyboard-response","227","322956","0.0-12.0-0.57","5f0f93938935de000855898b","650c16f0f2faf8d7a0d14c09","651c1e0d6882c1a9d645761c","null","null","<p style=""font-size: 60px; font-family: BACS"">cRElDdPc</p>","","","","","","","","",""
"html-keyboard-response","228","323964","0.0-12.0-0.58","5f0f93938935de000855898b","650c16f0f2faf8d7a0d14c09","651c1e0d6882c1a9d645761c","null","null","<p style=""font-size: 60px; font-family: BACS"">JuamlLkNc</p>","","","","","","","","",""
"html-keyboard-response","229","324980","0.0-12.0-0.59","5f0f93938935de000855898b","650c16f0f2faf8d7a0d14c09","651c1e0d6882c1a9d645761c","null","null","<p style=""font-size: 60px; font-family: BACS"">UdYUQLUOk</p>","","","","","","","","",""
"html-keyboard-response","230","325994","0.0-12.0-0.60","5f0f93938935de000855898b","650c16f0f2faf8d7a0d14c09","651c1e0d6882c1a9d645761c","null","null","<p style=""font-size: 60px; font-family: BACS"">cRElDAPT</p>","","","","","","","","",""
"html-keyboard-response","231","327006","0.0-12.0-0.61","5f0f93938935de000855898b","650c16f0f2faf8d7a0d14c09","651c1e0d6882c1a9d645761c","null","null","<p style=""font-size: 60px; font-family: BACS"">lRCBbTE</p>","","","","","","","","",""
"html-keyboard-response","232","328020","0.0-12.0-0.62","5f0f93938935de000855898b","650c16f0f2faf8d7a0d14c09","651c1e0d6882c1a9d645761c","null","null","<p style=""font-size: 60px; font-family: BACS"">JuamlNYZu</p>","","","","","","","","",""
"html-keyboard-response","233","329033","0.0-12.0-0.63","5f0f93938935de000855898b","650c16f0f2faf8d7a0d14c09","651c1e0d6882c1a9d645761c","null","null","<p style=""font-size: 60px; font-family: BACS"">JvaAGQYQ</p>","","","","","","","","",""
"html-keyboard-response","234","330046","0.0-12.0-0.64","5f0f93938935de000855898b","650c16f0f2faf8d7a0d14c09","651c1e0d6882c1a9d645761c","null","null","<p style=""font-size: 60px; font-family: BACS"">vmuLlLUOk</p>","","","","","","","","",""
"html-keyboard-response","235","331052","0.0-12.0-0.65","5f0f93938935de000855898b","650c16f0f2faf8d7a0d14c09","651c1e0d6882c1a9d645761c","null","null","<p style=""font-size: 60px; font-family: BACS"">RKYkPED</p>","","","","","","","","",""
"html-keyboard-response","236","332067","0.0-12.0-0.66","5f0f93938935de000855898b","650c16f0f2faf8d7a0d14c09","651c1e0d6882c1a9d645761c","null","null","<p style=""font-size: 60px; font-family: BACS"">UdYUQJcL</p>","","","","","","","","",""
"html-keyboard-response","237","333080","0.0-12.0-0.67","5f0f93938935de000855898b","650c16f0f2faf8d7a0d14c09","651c1e0d6882c1a9d645761c","null","null","<p style=""font-size: 60px; font-family: BACS"">lbBDEAPEM</p>","","","","","","","","",""
"html-keyboard-response","238","334093","0.0-12.0-0.68","5f0f93938935de000855898b","650c16f0f2faf8d7a0d14c09","651c1e0d6882c1a9d645761c","null","null","<p style=""font-size: 60px; font-family: BACS"">RKYkAPT</p>","","","","","","","","",""
"html-keyboard-response","239","335097","0.0-12.0-0.69","5f0f93938935de000855898b","650c16f0f2faf8d7a0d14c09","651c1e0d6882c1a9d645761c","null","null","<p style=""font-size: 60px; font-family: BACS"">JuamlLUOk</p>","","","","","","","","",""
"html-keyboard-response","240","336105","0.0-12.0-0.70","5f0f93938935de000855898b","650c16f0f2faf8d7a0d14c09","651c1e0d6882c1a9d645761c","null","null","<p style=""font-size: 60px; font-family: BACS"">TbKMEbTE</p>","","","","","","","","",""
"html-keyboard-response","241","337120","0.0-12.0-0.71","5f0f93938935de000855898b","650c16f0f2faf8d7a0d14c09","651c1e0d6882c1a9d645761c","null","null","<p style=""font-size: 60px; font-family: BACS"">tmtEMPED</p>","","","","","","","","",""
"html-keyboard-response","242","338136","0.0-12.0-0.72","5f0f93938935de000855898b","650c16f0f2faf8d7a0d14c09","651c1e0d6882c1a9d645761c","null","null","<p style=""font-size: 60px; font-family: BACS"">JuamlJcL</p>","","","","","","","","",""
"html-keyboard-response","243","339152","0.0-12.0-0.73","5f0f93938935de000855898b","650c16f0f2faf8d7a0d14c09","651c1e0d6882c1a9d645761c","null","null","<p style=""font-size: 60px; font-family: BACS"">lRCBAPT</p>","","","","","","","","",""
"html-keyboard-response","244","340162","0.0-12.0-0.74","5f0f93938935de000855898b","650c16f0f2faf8d7a0d14c09","651c1e0d6882c1a9d645761c","null","null","<p style=""font-size: 60px; font-family: BACS"">OcYMPED</p>","","","","","","","","",""
"html-keyboard-response","245","341177","0.0-12.0-0.75","5f0f93938935de000855898b","650c16f0f2faf8d7a0d14c09","651c1e0d6882c1a9d645761c","null","null","<p style=""font-size: 60px; font-family: BACS"">JvaALUOk</p>","","","","","","","","",""
"html-keyboard-response","246","342191","0.0-12.0-0.76","5f0f93938935de000855898b","650c16f0f2faf8d7a0d14c09","651c1e0d6882c1a9d645761c","null","null","<p style=""font-size: 60px; font-family: BACS"">cRElDbTE</p>","","","","","","","","",""
"html-keyboard-response","247","343202","0.0-12.0-0.77","5f0f93938935de000855898b","650c16f0f2faf8d7a0d14c09","651c1e0d6882c1a9d645761c","null","null","<p style=""font-size: 60px; font-family: BACS"">lRCBPED</p>","","","","","","","","",""
"html-keyboard-response","248","344211","0.0-12.0-0.78","5f0f93938935de000855898b","650c16f0f2faf8d7a0d14c09","651c1e0d6882c1a9d645761c","null","null","<p style=""font-size: 60px; font-family: BACS"">RKYkAPEM</p>","","","","","","","","",""
"html-keyboard-response","249","345222","0.0-12.0-0.79","5f0f93938935de000855898b","650c16f0f2faf8d7a0d14c09","651c1e0d6882c1a9d645761c","null","null","<p style=""font-size: 60px; font-family: BACS"">lKdbcPED</p>","","","","","","","","",""
"html-keyboard-response","250","352579","0.0-13.0","5f0f93938935de000855898b","650c16f0f2faf8d7a0d14c09","651c1e0d6882c1a9d645761c","7356"," ","<p>Great, you've seen the third block of words. You may now take a short break.</p>
      <p>Press the spacebar when you're ready to continue.</p>","","","","","","","","",""
"html-keyboard-response","251","353595","0.0-14.0-0.0","5f0f93938935de000855898b","650c16f0f2faf8d7a0d14c09","651c1e0d6882c1a9d645761c","null","null","<p style=""font-size: 60px; font-family: BACS"">RKYkdPc</p>","","","","","","","","",""
"html-keyboard-response","252","354610","0.0-14.0-0.1","5f0f93938935de000855898b","650c16f0f2faf8d7a0d14c09","651c1e0d6882c1a9d645761c","null","null","<p style=""font-size: 60px; font-family: BACS"">lRCBAPEM</p>","","","","","","","","",""
"html-keyboard-response","253","355619","0.0-14.0-0.2","5f0f93938935de000855898b","650c16f0f2faf8d7a0d14c09","651c1e0d6882c1a9d645761c","null","null","<p style=""font-size: 60px; font-family: BACS"">mBYlAPT</p>","","","","","","","","",""
"html-keyboard-response","254","356623","0.0-14.0-0.3","5f0f93938935de000855898b","650c16f0f2faf8d7a0d14c09","651c1e0d6882c1a9d645761c","null","null","<p style=""font-size: 60px; font-family: BACS"">JdGmLkNc</p>","","","","","","","","",""
"html-keyboard-response","255","357637","0.0-14.0-0.4","5f0f93938935de000855898b","650c16f0f2faf8d7a0d14c09","651c1e0d6882c1a9d645761c","null","null","<p style=""font-size: 60px; font-family: BACS"">OcYMbTE</p>","","","","","","","","",""
"html-keyboard-response","256","358645","0.0-14.0-0.5","5f0f93938935de000855898b","650c16f0f2faf8d7a0d14c09","651c1e0d6882c1a9d645761c","null","null","<p style=""font-size: 60px; font-family: BACS"">kNuaNYZu</p>","","","","","","","","",""
"html-keyboard-response","257","359653","0.0-14.0-0.6","5f0f93938935de000855898b","650c16f0f2faf8d7a0d14c09","651c1e0d6882c1a9d645761c","null","null","<p style=""font-size: 60px; font-family: BACS"">OcYMPED</p>","","","","","","","","",""
"html-keyboard-response","258","360660","0.0-14.0-0.7","5f0f93938935de000855898b","650c16f0f2faf8d7a0d14c09","651c1e0d6882c1a9d645761c","null","null","<p style=""font-size: 60px; font-family: BACS"">JvaAJcL</p>","","","","","","","","",""
"html-keyboard-response","259","361668","0.0-14.0-0.8","5f0f93938935de000855898b","650c16f0f2faf8d7a0d14c09","651c1e0d6882c1a9d645761c","null","null","<p style=""font-size: 60px; font-family: BACS"">adkrNYZu</p>","","","","","","","","",""
"html-keyboard-response","260","362675","0.0-14.0-0.9","5f0f93938935de000855898b","650c16f0f2faf8d7a0d14c09","651c1e0d6882c1a9d645761c","null","null","<p style=""font-size: 60px; font-family: BACS"">lKdbcAPT</p>","","","","","","","","",""
"html-keyboard-response","261","363683","0.0-14.0-0.10","5f0f93938935de000855898b","650c16f0f2faf8d7a0d14c09","651c1e0d6882c1a9d645761c","null","null","<p style=""font-size: 60px; font-family: BACS"">kNuaLUOk</p>","","","","","","","","",""
"html-keyboard-response","262","364690","0.0-14.0-0.11","5f0f93938935de000855898b","650c16f0f2faf8d7a0d14c09","651c1e0d6882c1a9d645761c","null","null","<p style=""font-size: 60px; font-family: BACS"">lbBDEAPT</p>","","","","","","","","",""
"html-keyboard-response","263","365700","0.0-14.0-0.12","5f0f93938935de000855898b","650c16f0f2faf8d7a0d14c09","651c1e0d6882c1a9d645761c","null","null","<p style=""font-size: 60px; font-family: BACS"">JuamlLUOk</p>","","","","","","","","",""
"html-keyboard-response","264","366716","0.0-14.0-0.13","5f0f93938935de000855898b","650c16f0f2faf8d7a0d14c09","651c1e0d6882c1a9d645761c","null","null","<p style=""font-size: 60px; font-family: BACS"">adkrGQYQ</p>","","","","","","","","",""
"html-keyboard-response","265","367729","0.0-14.0-0.14","5f0f93938935de000855898b","650c16f0f2faf8d7a0d14c09","651c1e0d6882c1a9d645761c","null","null","<p style=""font-size: 60px; font-family: BACS"">cRElDdPc</p>","","","","","","","","",""
"html-keyboard-response","266","368744","0.0-14.0-0.15","5f0f93938935de000855898b","650c16f0f2faf8d7a0d14c09","651c1e0d6882c1a9d645761c","null","null","<p style=""font-size: 60px; font-family: BACS"">vmuLlJcL</p>","","","","","","","","",""
"html-keyboard-response","267","369761","0.0-14.0-0.16","5f0f93938935de000855898b","650c16f0f2faf8d7a0d14c09","651c1e0d6882c1a9d645761c","null","null","<p style=""font-size: 60px; font-family: BACS"">mLdkZLUOk</p>","","","","","","","","",""
"html-keyboard-response","268","370776","0.0-14.0-0.17","5f0f93938935de000855898b","650c16f0f2faf8d7a0d14c09","651c1e0d6882c1a9d645761c","null","null","<p style=""font-size: 60px; font-family: BACS"">OcYMAPEM</p>","","","","","","","","",""
"html-keyboard-response","269","371785","0.0-14.0-0.18","5f0f93938935de000855898b","650c16f0f2faf8d7a0d14c09","651c1e0d6882c1a9d645761c","null","null","<p style=""font-size: 60px; font-family: BACS"">TbKMEbTE</p>","","","","","","","","",""
"html-keyboard-response","270","372800","0.0-14.0-0.19","5f0f93938935de000855898b","650c16f0f2faf8d7a0d14c09","651c1e0d6882c1a9d645761c","null","null","<p style=""font-size: 60px; font-family: BACS"">lRCBAPT</p>","","","","","","","","",""
"html-keyboard-response","271","373810","0.0-14.0-0.20","5f0f93938935de000855898b","650c16f0f2faf8d7a0d14c09","651c1e0d6882c1a9d645761c","null","null","<p style=""font-size: 60px; font-family: BACS"">vmuLlGQYQ</p>","","","","","","","","",""
"html-keyboard-response","272","374821","0.0-14.0-0.21","5f0f93938935de000855898b","650c16f0f2faf8d7a0d14c09","651c1e0d6882c1a9d645761c","null","null","<p style=""font-size: 60px; font-family: BACS"">kNuaLkNc</p>","","","","","","","","",""
"html-keyboard-response","273","375831","0.0-14.0-0.22","5f0f93938935de000855898b","650c16f0f2faf8d7a0d14c09","651c1e0d6882c1a9d645761c","null","null","<p style=""font-size: 60px; font-family: BACS"">JdGmNYZu</p>","","","","","","","","",""
"html-keyboard-response","274","376840","0.0-14.0-0.23","5f0f93938935de000855898b","650c16f0f2faf8d7a0d14c09","651c1e0d6882c1a9d645761c","null","null","<p style=""font-size: 60px; font-family: BACS"">mBYldPc</p>","","","","","","","","",""
"html-keyboard-response","275","377854","0.0-14.0-0.24","5f0f93938935de000855898b","650c16f0f2faf8d7a0d14c09","651c1e0d6882c1a9d645761c","null","null","<p style=""font-size: 60px; font-family: BACS"">cRElDbTE</p>","","","","","","","","",""
"html-keyboard-response","276","378866","0.0-14.0-0.25","5f0f93938935de000855898b","650c16f0f2faf8d7a0d14c09","651c1e0d6882c1a9d645761c","null","null","<p style=""font-size: 60px; font-family: BACS"">lbBDEdPc</p>","","","","","","","","",""
"html-keyboard-response","277","379869","0.0-14.0-0.26","5f0f93938935de000855898b","650c16f0f2faf8d7a0d14c09","651c1e0d6882c1a9d645761c","null","null","<p style=""font-size: 60px; font-family: BACS"">lKdbcPED</p>","","","","","","","","",""
"html-keyboard-response","278","380884","0.0-14.0-0.27","5f0f93938935de000855898b","650c16f0f2faf8d7a0d14c09","651c1e0d6882c1a9d645761c","null","null","<p style=""font-size: 60px; font-family: BACS"">dkLlGQYQ</p>","","","","","","","","",""
"html-keyboard-response","279","381898","0.0-14.0-0.28","5f0f93938935de000855898b","650c16f0f2faf8d7a0d14c09","651c1e0d6882c1a9d645761c","null","null","<p style=""font-size: 60px; font-family: BACS"">adkrLkNc</p>","","","","","","","","",""
"html-keyboard-response","280","382912","0.0-14.0-0.29","5f0f93938935de000855898b","650c16f0f2faf8d7a0d14c09","651c1e0d6882c1a9d645761c","null","null","<p style=""font-size: 60px; font-family: BACS"">lRCBPED</p>","","","","","","","","",""
"html-keyboard-response","281","383917","0.0-14.0-0.30","5f0f93938935de000855898b","650c16f0f2faf8d7a0d14c09","651c1e0d6882c1a9d645761c","null","null","<p style=""font-size: 60px; font-family: BACS"">JvaALkNc</p>","","","","","","","","",""
"html-keyboard-response","282","384919","0.0-14.0-0.31","5f0f93938935de000855898b","650c16f0f2faf8d7a0d14c09","651c1e0d6882c1a9d645761c","null","null","<p style=""font-size: 60px; font-family: BACS"">mBYlbTE</p>","","","","","","","","",""
"html-keyboard-response","283","385934","0.0-14.0-0.32","5f0f93938935de000855898b","650c16f0f2faf8d7a0d14c09","651c1e0d6882c1a9d645761c","null","null","<p style=""font-size: 60px; font-family: BACS"">OcYMdPc</p>","","","","","","","","",""
"html-keyboard-response","284","386944","0.0-14.0-0.33","5f0f93938935de000855898b","650c16f0f2faf8d7a0d14c09","651c1e0d6882c1a9d645761c","null","null","<p style=""font-size: 60px; font-family: BACS"">UdYUQGQYQ</p>","","","","","","","","",""
"html-keyboard-response","285","387954","0.0-14.0-0.34","5f0f93938935de000855898b","650c16f0f2faf8d7a0d14c09","651c1e0d6882c1a9d645761c","null","null","<p style=""font-size: 60px; font-family: BACS"">lRCBbTE</p>","","","","","","","","",""
"html-keyboard-response","286","388955","0.0-14.0-0.35","5f0f93938935de000855898b","650c16f0f2faf8d7a0d14c09","651c1e0d6882c1a9d645761c","null","null","<p style=""font-size: 60px; font-family: BACS"">mLdkZNYZu</p>","","","","","","","","",""
"html-keyboard-response","287","389956","0.0-14.0-0.36","5f0f93938935de000855898b","650c16f0f2faf8d7a0d14c09","651c1e0d6882c1a9d645761c","null","null","<p style=""font-size: 60px; font-family: BACS"">TbKMEdPc</p>","","","","","","","","",""
"html-keyboard-response","288","390963","0.0-14.0-0.37","5f0f93938935de000855898b","650c16f0f2faf8d7a0d14c09","651c1e0d6882c1a9d645761c","null","null","<p style=""font-size: 60px; font-family: BACS"">UdYUQLUOk</p>","","","","","","","","",""
"html-keyboard-response","289","391979","0.0-14.0-0.38","5f0f93938935de000855898b","650c16f0f2faf8d7a0d14c09","651c1e0d6882c1a9d645761c","null","null","<p style=""font-size: 60px; font-family: BACS"">TbKMEPED</p>","","","","","","","","",""
"html-keyboard-response","290","392989","0.0-14.0-0.39","5f0f93938935de000855898b","650c16f0f2faf8d7a0d14c09","651c1e0d6882c1a9d645761c","null","null","<p style=""font-size: 60px; font-family: BACS"">lZcuGQYQ</p>","","","","","","","","",""
"html-keyboard-response","291","394001","0.0-14.0-0.40","5f0f93938935de000855898b","650c16f0f2faf8d7a0d14c09","651c1e0d6882c1a9d645761c","null","null","<p style=""font-size: 60px; font-family: BACS"">lbBDEAPEM</p>","","","","","","","","",""
"html-keyboard-response","292","395007","0.0-14.0-0.41","5f0f93938935de000855898b","650c16f0f2faf8d7a0d14c09","651c1e0d6882c1a9d645761c","null","null","<p style=""font-size: 60px; font-family: BACS"">lZcuLUOk</p>","","","","","","","","",""
"html-keyboard-response","293","396022","0.0-14.0-0.42","5f0f93938935de000855898b","650c16f0f2faf8d7a0d14c09","651c1e0d6882c1a9d645761c","null","null","<p style=""font-size: 60px; font-family: BACS"">kcOYdPc</p>","","","","","","","","",""
"html-keyboard-response","294","397038","0.0-14.0-0.43","5f0f93938935de000855898b","650c16f0f2faf8d7a0d14c09","651c1e0d6882c1a9d645761c","null","null","<p style=""font-size: 60px; font-family: BACS"">UdYUQJcL</p>","","","","","","","","",""
"html-keyboard-response","295","398053","0.0-14.0-0.44","5f0f93938935de000855898b","650c16f0f2faf8d7a0d14c09","651c1e0d6882c1a9d645761c","null","null","<p style=""font-size: 60px; font-family: BACS"">JvaALUOk</p>","","","","","","","","",""
"html-keyboard-response","296","399057","0.0-14.0-0.45","5f0f93938935de000855898b","650c16f0f2faf8d7a0d14c09","651c1e0d6882c1a9d645761c","null","null","<p style=""font-size: 60px; font-family: BACS"">kcOYPED</p>","","","","","","","","",""
"html-keyboard-response","297","400066","0.0-14.0-0.46","5f0f93938935de000855898b","650c16f0f2faf8d7a0d14c09","651c1e0d6882c1a9d645761c","null","null","<p style=""font-size: 60px; font-family: BACS"">lKdbcbTE</p>","","","","","","","","",""
"html-keyboard-response","298","401081","0.0-14.0-0.47","5f0f93938935de000855898b","650c16f0f2faf8d7a0d14c09","651c1e0d6882c1a9d645761c","null","null","<p style=""font-size: 60px; font-family: BACS"">dkLlNYZu</p>","","","","","","","","",""
"html-keyboard-response","299","402093","0.0-14.0-0.48","5f0f93938935de000855898b","650c16f0f2faf8d7a0d14c09","651c1e0d6882c1a9d645761c","null","null","<p style=""font-size: 60px; font-family: BACS"">UdYUQLkNc</p>","","","","","","","","",""
"html-keyboard-response","300","403107","0.0-14.0-0.49","5f0f93938935de000855898b","650c16f0f2faf8d7a0d14c09","651c1e0d6882c1a9d645761c","null","null","<p style=""font-size: 60px; font-family: BACS"">JdGmJcL</p>","","","","","","","","",""
"html-keyboard-response","301","404116","0.0-14.0-0.50","5f0f93938935de000855898b","650c16f0f2faf8d7a0d14c09","651c1e0d6882c1a9d645761c","null","null","<p style=""font-size: 60px; font-family: BACS"">tmtEMAPT</p>","","","","","","","","",""
"html-keyboard-response","302","405132","0.0-14.0-0.51","5f0f93938935de000855898b","650c16f0f2faf8d7a0d14c09","651c1e0d6882c1a9d645761c","null","null","<p style=""font-size: 60px; font-family: BACS"">kNuaGQYQ</p>","","","","","","","","",""
"html-keyboard-response","303","406141","0.0-14.0-0.52","5f0f93938935de000855898b","650c16f0f2faf8d7a0d14c09","651c1e0d6882c1a9d645761c","null","null","<p style=""font-size: 60px; font-family: BACS"">dkLlJcL</p>","","","","","","","","",""
"html-keyboard-response","304","407149","0.0-14.0-0.53","5f0f93938935de000855898b","650c16f0f2faf8d7a0d14c09","651c1e0d6882c1a9d645761c","null","null","<p style=""font-size: 60px; font-family: BACS"">vmuLlLUOk</p>","","","","","","","","",""
"html-keyboard-response","305","408161","0.0-14.0-0.54","5f0f93938935de000855898b","650c16f0f2faf8d7a0d14c09","651c1e0d6882c1a9d645761c","null","null","<p style=""font-size: 60px; font-family: BACS"">JvaAGQYQ</p>","","","","","","","","",""
"html-keyboard-response","306","409178","0.0-14.0-0.55","5f0f93938935de000855898b","650c16f0f2faf8d7a0d14c09","651c1e0d6882c1a9d645761c","null","null","<p style=""font-size: 60px; font-family: BACS"">adkrJcL</p>","","","","","","","","",""
"html-keyboard-response","307","410190","0.0-14.0-0.56","5f0f93938935de000855898b","650c16f0f2faf8d7a0d14c09","651c1e0d6882c1a9d645761c","null","null","<p style=""font-size: 60px; font-family: BACS"">lbBDEbTE</p>","","","","","","","","",""
"html-keyboard-response","308","411192","0.0-14.0-0.57","5f0f93938935de000855898b","650c16f0f2faf8d7a0d14c09","651c1e0d6882c1a9d645761c","null","null","<p style=""font-size: 60px; font-family: BACS"">JdGmLUOk</p>","","","","","","","","",""
"html-keyboard-response","309","412201","0.0-14.0-0.58","5f0f93938935de000855898b","650c16f0f2faf8d7a0d14c09","651c1e0d6882c1a9d645761c","null","null","<p style=""font-size: 60px; font-family: BACS"">kcOYAPT</p>","","","","","","","","",""
"html-keyboard-response","310","413212","0.0-14.0-0.59","5f0f93938935de000855898b","650c16f0f2faf8d7a0d14c09","651c1e0d6882c1a9d645761c","null","null","<p style=""font-size: 60px; font-family: BACS"">tmtEMbTE</p>","","","","","","","","",""
"html-keyboard-response","311","414222","0.0-14.0-0.60","5f0f93938935de000855898b","650c16f0f2faf8d7a0d14c09","651c1e0d6882c1a9d645761c","null","null","<p style=""font-size: 60px; font-family: BACS"">cRElDAPT</p>","","","","","","","","",""
"html-keyboard-response","312","415237","0.0-14.0-0.61","5f0f93938935de000855898b","650c16f0f2faf8d7a0d14c09","651c1e0d6882c1a9d645761c","null","null","<p style=""font-size: 60px; font-family: BACS"">mBYlPED</p>","","","","","","","","",""
"html-keyboard-response","313","416241","0.0-14.0-0.62","5f0f93938935de000855898b","650c16f0f2faf8d7a0d14c09","651c1e0d6882c1a9d645761c","null","null","<p style=""font-size: 60px; font-family: BACS"">JuamlNYZu</p>","","","","","","","","",""
"html-keyboard-response","314","417257","0.0-14.0-0.63","5f0f93938935de000855898b","650c16f0f2faf8d7a0d14c09","651c1e0d6882c1a9d645761c","null","null","<p style=""font-size: 60px; font-family: BACS"">mLdkZGQYQ</p>","","","","","","","","",""
"html-keyboard-response","315","418270","0.0-14.0-0.64","5f0f93938935de000855898b","650c16f0f2faf8d7a0d14c09","651c1e0d6882c1a9d645761c","null","null","<p style=""font-size: 60px; font-family: BACS"">RKYkPED</p>","","","","","","","","",""
"html-keyboard-response","316","419283","0.0-14.0-0.65","5f0f93938935de000855898b","650c16f0f2faf8d7a0d14c09","651c1e0d6882c1a9d645761c","null","null","<p style=""font-size: 60px; font-family: BACS"">JuamlJcL</p>","","","","","","","","",""
"html-keyboard-response","317","420295","0.0-14.0-0.66","5f0f93938935de000855898b","650c16f0f2faf8d7a0d14c09","651c1e0d6882c1a9d645761c","null","null","<p style=""font-size: 60px; font-family: BACS"">kcOYAPEM</p>","","","","","","","","",""
"html-keyboard-response","318","421300","0.0-14.0-0.67","5f0f93938935de000855898b","650c16f0f2faf8d7a0d14c09","651c1e0d6882c1a9d645761c","null","null","<p style=""font-size: 60px; font-family: BACS"">mLdkZJcL</p>","","","","","","","","",""
"html-keyboard-response","319","422306","0.0-14.0-0.68","5f0f93938935de000855898b","650c16f0f2faf8d7a0d14c09","651c1e0d6882c1a9d645761c","null","null","<p style=""font-size: 60px; font-family: BACS"">TbKMEAPEM</p>","","","","","","","","",""
"html-keyboard-response","320","423319","0.0-14.0-0.69","5f0f93938935de000855898b","650c16f0f2faf8d7a0d14c09","651c1e0d6882c1a9d645761c","null","null","<p style=""font-size: 60px; font-family: BACS"">vmuLlNYZu</p>","","","","","","","","",""
"html-keyboard-response","321","424335","0.0-14.0-0.70","5f0f93938935de000855898b","650c16f0f2faf8d7a0d14c09","651c1e0d6882c1a9d645761c","null","null","<p style=""font-size: 60px; font-family: BACS"">tmtEMdPc</p>","","","","","","","","",""
"html-keyboard-response","322","425337","0.0-14.0-0.71","5f0f93938935de000855898b","650c16f0f2faf8d7a0d14c09","651c1e0d6882c1a9d645761c","null","null","<p style=""font-size: 60px; font-family: BACS"">cRElDAPEM</p>","","","","","","","","",""
"html-keyboard-response","323","426345","0.0-14.0-0.72","5f0f93938935de000855898b","650c16f0f2faf8d7a0d14c09","651c1e0d6882c1a9d645761c","null","null","<p style=""font-size: 60px; font-family: BACS"">JuamlLkNc</p>","","","","","","","","",""
"html-keyboard-response","324","427361","0.0-14.0-0.73","5f0f93938935de000855898b","650c16f0f2faf8d7a0d14c09","651c1e0d6882c1a9d645761c","null","null","<p style=""font-size: 60px; font-family: BACS"">lZcuNYZu</p>","","","","","","","","",""
"html-keyboard-response","325","428377","0.0-14.0-0.74","5f0f93938935de000855898b","650c16f0f2faf8d7a0d14c09","651c1e0d6882c1a9d645761c","null","null","<p style=""font-size: 60px; font-family: BACS"">RKYkAPT</p>","","","","","","","","",""
"html-keyboard-response","326","429393","0.0-14.0-0.75","5f0f93938935de000855898b","650c16f0f2faf8d7a0d14c09","651c1e0d6882c1a9d645761c","null","null","<p style=""font-size: 60px; font-family: BACS"">lKdbcAPEM</p>","","","","","","","","",""
"html-keyboard-response","327","430402","0.0-14.0-0.76","5f0f93938935de000855898b","650c16f0f2faf8d7a0d14c09","651c1e0d6882c1a9d645761c","null","null","<p style=""font-size: 60px; font-family: BACS"">lZcuLkNc</p>","","","","","","","","",""
"html-keyboard-response","328","431415","0.0-14.0-0.77","5f0f93938935de000855898b","650c16f0f2faf8d7a0d14c09","651c1e0d6882c1a9d645761c","null","null","<p style=""font-size: 60px; font-family: BACS"">RKYkAPEM</p>","","","","","","","","",""
"html-keyboard-response","329","432424","0.0-14.0-0.78","5f0f93938935de000855898b","650c16f0f2faf8d7a0d14c09","651c1e0d6882c1a9d645761c","null","null","<p style=""font-size: 60px; font-family: BACS"">dkLlLkNc</p>","","","","","","","","",""
"html-keyboard-response","330","433440","0.0-14.0-0.79","5f0f93938935de000855898b","650c16f0f2faf8d7a0d14c09","651c1e0d6882c1a9d645761c","null","null","<p style=""font-size: 60px; font-family: BACS"">tmtEMPED</p>","","","","","","","","",""
"html-keyboard-response","331","436472","0.0-15.0","5f0f93938935de000855898b","650c16f0f2faf8d7a0d14c09","651c1e0d6882c1a9d645761c","3031"," ","<p>Great, you've seen the fourth block of words. You may now take a short break.</p>
      <p>Press the spacebar when you're ready to continue.</p>","","","","","","","","",""
"html-keyboard-response","332","437488","0.0-16.0-0.0","5f0f93938935de000855898b","650c16f0f2faf8d7a0d14c09","651c1e0d6882c1a9d645761c","null","null","<p style=""font-size: 60px; font-family: BACS"">mBYlAPT</p>","","","","","","","","",""
"html-keyboard-response","333","438503","0.0-16.0-0.1","5f0f93938935de000855898b","650c16f0f2faf8d7a0d14c09","651c1e0d6882c1a9d645761c","null","null","<p style=""font-size: 60px; font-family: BACS"">mBYlAPT</p>","","","","","","","","",""
"html-keyboard-response","334","439512","0.0-16.0-0.2","5f0f93938935de000855898b","650c16f0f2faf8d7a0d14c09","651c1e0d6882c1a9d645761c","null","null","<p style=""font-size: 60px; font-family: BACS"">mBYlAPT</p>","","","","","","","","",""
"html-keyboard-response","335","440519","0.0-16.0-0.3","5f0f93938935de000855898b","650c16f0f2faf8d7a0d14c09","651c1e0d6882c1a9d645761c","null","null","<p style=""font-size: 60px; font-family: BACS"">mBYlAPT</p>","","","","","","","","",""
"html-keyboard-response","336","441527","0.0-16.0-0.4","5f0f93938935de000855898b","650c16f0f2faf8d7a0d14c09","651c1e0d6882c1a9d645761c","null","null","<p style=""font-size: 60px; font-family: BACS"">mBYlAPT</p>","","","","","","","","",""
"html-keyboard-response","337","442541","0.0-16.0-0.5","5f0f93938935de000855898b","650c16f0f2faf8d7a0d14c09","651c1e0d6882c1a9d645761c","null","null","<p style=""font-size: 60px; font-family: BACS"">mBYlAPT</p>","","","","","","","","",""
"html-keyboard-response","338","443552","0.0-16.0-0.6","5f0f93938935de000855898b","650c16f0f2faf8d7a0d14c09","651c1e0d6882c1a9d645761c","null","null","<p style=""font-size: 60px; font-family: BACS"">mBYlAPT</p>","","","","","","","","",""
"html-keyboard-response","339","444562","0.0-16.0-0.7","5f0f93938935de000855898b","650c16f0f2faf8d7a0d14c09","651c1e0d6882c1a9d645761c","null","null","<p style=""font-size: 60px; font-family: BACS"">mBYlAPT</p>","","","","","","","","",""
"html-keyboard-response","340","445565","0.0-16.0-0.8","5f0f93938935de000855898b","650c16f0f2faf8d7a0d14c09","651c1e0d6882c1a9d645761c","null","null","<p style=""font-size: 60px; font-family: BACS"">mBYlAPT</p>","","","","","","","","",""
"html-keyboard-response","341","446580","0.0-16.0-0.9","5f0f93938935de000855898b","650c16f0f2faf8d7a0d14c09","651c1e0d6882c1a9d645761c","null","null","<p style=""font-size: 60px; font-family: BACS"">mBYlAPT</p>","","","","","","","","",""
"html-keyboard-response","342","447584","0.0-16.0-0.10","5f0f93938935de000855898b","650c16f0f2faf8d7a0d14c09","651c1e0d6882c1a9d645761c","null","null","<p style=""font-size: 60px; font-family: BACS"">mBYlAPT</p>","","","","","","","","",""
"html-keyboard-response","343","448599","0.0-16.0-0.11","5f0f93938935de000855898b","650c16f0f2faf8d7a0d14c09","651c1e0d6882c1a9d645761c","null","null","<p style=""font-size: 60px; font-family: BACS"">mBYlAPT</p>","","","","","","","","",""
"html-keyboard-response","344","449605","0.0-16.0-0.12","5f0f93938935de000855898b","650c16f0f2faf8d7a0d14c09","651c1e0d6882c1a9d645761c","null","null","<p style=""font-size: 60px; font-family: BACS"">mBYlAPT</p>","","","","","","","","",""
"html-keyboard-response","345","450620","0.0-16.0-0.13","5f0f93938935de000855898b","650c16f0f2faf8d7a0d14c09","651c1e0d6882c1a9d645761c","null","null","<p style=""font-size: 60px; font-family: BACS"">mBYlAPT</p>","","","","","","","","",""
"html-keyboard-response","346","451629","0.0-16.0-0.14","5f0f93938935de000855898b","650c16f0f2faf8d7a0d14c09","651c1e0d6882c1a9d645761c","null","null","<p style=""font-size: 60px; font-family: BACS"">mBYlAPT</p>","","","","","","","","",""
"html-keyboard-response","347","452641","0.0-16.0-0.15","5f0f93938935de000855898b","650c16f0f2faf8d7a0d14c09","651c1e0d6882c1a9d645761c","null","null","<p style=""font-size: 60px; font-family: BACS"">mBYlAPT</p>","","","","","","","","",""
"html-keyboard-response","348","453649","0.0-16.0-0.16","5f0f93938935de000855898b","650c16f0f2faf8d7a0d14c09","651c1e0d6882c1a9d645761c","null","null","<p style=""font-size: 60px; font-family: BACS"">mBYlAPT</p>","","","","","","","","",""
"html-keyboard-response","349","454657","0.0-16.0-0.17","5f0f93938935de000855898b","650c16f0f2faf8d7a0d14c09","651c1e0d6882c1a9d645761c","null","null","<p style=""font-size: 60px; font-family: BACS"">mBYlAPT</p>","","","","","","","","",""
"html-keyboard-response","350","455672","0.0-16.0-0.18","5f0f93938935de000855898b","650c16f0f2faf8d7a0d14c09","651c1e0d6882c1a9d645761c","null","null","<p style=""font-size: 60px; font-family: BACS"">mBYlAPT</p>","","","","","","","","",""
"html-keyboard-response","351","456688","0.0-16.0-0.19","5f0f93938935de000855898b","650c16f0f2faf8d7a0d14c09","651c1e0d6882c1a9d645761c","null","null","<p style=""font-size: 60px; font-family: BACS"">mBYlAPT</p>","","","","","","","","",""
"html-keyboard-response","352","457693","0.0-16.0-0.20","5f0f93938935de000855898b","650c16f0f2faf8d7a0d14c09","651c1e0d6882c1a9d645761c","null","null","<p style=""font-size: 60px; font-family: BACS"">mBYlAPT</p>","","","","","","","","",""
"html-keyboard-response","353","458706","0.0-16.0-0.21","5f0f93938935de000855898b","650c16f0f2faf8d7a0d14c09","651c1e0d6882c1a9d645761c","null","null","<p style=""font-size: 60px; font-family: BACS"">mBYlAPT</p>","","","","","","","","",""
"html-keyboard-response","354","459717","0.0-16.0-0.22","5f0f93938935de000855898b","650c16f0f2faf8d7a0d14c09","651c1e0d6882c1a9d645761c","null","null","<p style=""font-size: 60px; font-family: BACS"">mBYlAPT</p>","","","","","","","","",""
"html-keyboard-response","355","460727","0.0-16.0-0.23","5f0f93938935de000855898b","650c16f0f2faf8d7a0d14c09","651c1e0d6882c1a9d645761c","null","null","<p style=""font-size: 60px; font-family: BACS"">mBYlAPT</p>","","","","","","","","",""
"html-keyboard-response","356","461735","0.0-16.0-0.24","5f0f93938935de000855898b","650c16f0f2faf8d7a0d14c09","651c1e0d6882c1a9d645761c","null","null","<p style=""font-size: 60px; font-family: BACS"">mBYlAPT</p>","","","","","","","","",""
"html-keyboard-response","357","462750","0.0-16.0-0.25","5f0f93938935de000855898b","650c16f0f2faf8d7a0d14c09","651c1e0d6882c1a9d645761c","null","null","<p style=""font-size: 60px; font-family: BACS"">mBYlAPT</p>","","","","","","","","",""
"html-keyboard-response","358","463753","0.0-16.0-0.26","5f0f93938935de000855898b","650c16f0f2faf8d7a0d14c09","651c1e0d6882c1a9d645761c","null","null","<p style=""font-size: 60px; font-family: BACS"">mBYlAPT</p>","","","","","","","","",""
"html-keyboard-response","359","464762","0.0-16.0-0.27","5f0f93938935de000855898b","650c16f0f2faf8d7a0d14c09","651c1e0d6882c1a9d645761c","null","null","<p style=""font-size: 60px; font-family: BACS"">mBYlAPT</p>","","","","","","","","",""
"html-keyboard-response","360","465767","0.0-16.0-0.28","5f0f93938935de000855898b","650c16f0f2faf8d7a0d14c09","651c1e0d6882c1a9d645761c","null","null","<p style=""font-size: 60px; font-family: BACS"">mBYlAPT</p>","","","","","","","","",""
"html-keyboard-response","361","466773","0.0-16.0-0.29","5f0f93938935de000855898b","650c16f0f2faf8d7a0d14c09","651c1e0d6882c1a9d645761c","null","null","<p style=""font-size: 60px; font-family: BACS"">mBYlAPT</p>","","","","","","","","",""
"html-keyboard-response","362","467788","0.0-16.0-0.30","5f0f93938935de000855898b","650c16f0f2faf8d7a0d14c09","651c1e0d6882c1a9d645761c","null","null","<p style=""font-size: 60px; font-family: BACS"">mBYlAPT</p>","","","","","","","","",""
"html-keyboard-response","363","468796","0.0-16.0-0.31","5f0f93938935de000855898b","650c16f0f2faf8d7a0d14c09","651c1e0d6882c1a9d645761c","null","null","<p style=""font-size: 60px; font-family: BACS"">mBYlAPT</p>","","","","","","","","",""
"html-keyboard-response","364","469811","0.0-16.0-0.32","5f0f93938935de000855898b","650c16f0f2faf8d7a0d14c09","651c1e0d6882c1a9d645761c","null","null","<p style=""font-size: 60px; font-family: BACS"">mBYlAPT</p>","","","","","","","","",""
"html-keyboard-response","365","470824","0.0-16.0-0.33","5f0f93938935de000855898b","650c16f0f2faf8d7a0d14c09","651c1e0d6882c1a9d645761c","null","null","<p style=""font-size: 60px; font-family: BACS"">mBYlAPT</p>","","","","","","","","",""
"html-keyboard-response","366","471825","0.0-16.0-0.34","5f0f93938935de000855898b","650c16f0f2faf8d7a0d14c09","651c1e0d6882c1a9d645761c","null","null","<p style=""font-size: 60px; font-family: BACS"">mBYlAPT</p>","","","","","","","","",""
"html-keyboard-response","367","472834","0.0-16.0-0.35","5f0f93938935de000855898b","650c16f0f2faf8d7a0d14c09","651c1e0d6882c1a9d645761c","null","null","<p style=""font-size: 60px; font-family: BACS"">mBYlAPT</p>","","","","","","","","",""
"html-keyboard-response","368","473836","0.0-16.0-0.36","5f0f93938935de000855898b","650c16f0f2faf8d7a0d14c09","651c1e0d6882c1a9d645761c","null","null","<p style=""font-size: 60px; font-family: BACS"">mBYlAPT</p>","","","","","","","","",""
"html-keyboard-response","369","474847","0.0-16.0-0.37","5f0f93938935de000855898b","650c16f0f2faf8d7a0d14c09","651c1e0d6882c1a9d645761c","null","null","<p style=""font-size: 60px; font-family: BACS"">mBYlAPT</p>","","","","","","","","",""
"html-keyboard-response","370","475857","0.0-16.0-0.38","5f0f93938935de000855898b","650c16f0f2faf8d7a0d14c09","651c1e0d6882c1a9d645761c","null","null","<p style=""font-size: 60px; font-family: BACS"">mBYlAPT</p>","","","","","","","","",""
"html-keyboard-response","371","476864","0.0-16.0-0.39","5f0f93938935de000855898b","650c16f0f2faf8d7a0d14c09","651c1e0d6882c1a9d645761c","null","null","<p style=""font-size: 60px; font-family: BACS"">mBYlAPT</p>","","","","","","","","",""
"html-keyboard-response","372","477872","0.0-16.0-0.40","5f0f93938935de000855898b","650c16f0f2faf8d7a0d14c09","651c1e0d6882c1a9d645761c","null","null","<p style=""font-size: 60px; font-family: BACS"">mBYlAPT</p>","","","","","","","","",""
"html-keyboard-response","373","478882","0.0-16.0-0.41","5f0f93938935de000855898b","650c16f0f2faf8d7a0d14c09","651c1e0d6882c1a9d645761c","null","null","<p style=""font-size: 60px; font-family: BACS"">mBYlAPT</p>","","","","","","","","",""
"html-keyboard-response","374","479886","0.0-16.0-0.42","5f0f93938935de000855898b","650c16f0f2faf8d7a0d14c09","651c1e0d6882c1a9d645761c","null","null","<p style=""font-size: 60px; font-family: BACS"">mBYlAPT</p>","","","","","","","","",""
"html-keyboard-response","375","480902","0.0-16.0-0.43","5f0f93938935de000855898b","650c16f0f2faf8d7a0d14c09","651c1e0d6882c1a9d645761c","null","null","<p style=""font-size: 60px; font-family: BACS"">mBYlAPT</p>","","","","","","","","",""
"html-keyboard-response","376","481916","0.0-16.0-0.44","5f0f93938935de000855898b","650c16f0f2faf8d7a0d14c09","651c1e0d6882c1a9d645761c","null","null","<p style=""font-size: 60px; font-family: BACS"">mBYlAPT</p>","","","","","","","","",""
"html-keyboard-response","377","482928","0.0-16.0-0.45","5f0f93938935de000855898b","650c16f0f2faf8d7a0d14c09","651c1e0d6882c1a9d645761c","null","null","<p style=""font-size: 60px; font-family: BACS"">mBYlAPT</p>","","","","","","","","",""
"html-keyboard-response","378","483933","0.0-16.0-0.46","5f0f93938935de000855898b","650c16f0f2faf8d7a0d14c09","651c1e0d6882c1a9d645761c","null","null","<p style=""font-size: 60px; font-family: BACS"">mBYlAPT</p>","","","","","","","","",""
"html-keyboard-response","379","484944","0.0-16.0-0.47","5f0f93938935de000855898b","650c16f0f2faf8d7a0d14c09","651c1e0d6882c1a9d645761c","null","null","<p style=""font-size: 60px; font-family: BACS"">mBYlAPT</p>","","","","","","","","",""
"html-keyboard-response","380","485949","0.0-16.0-0.48","5f0f93938935de000855898b","650c16f0f2faf8d7a0d14c09","651c1e0d6882c1a9d645761c","null","null","<p style=""font-size: 60px; font-family: BACS"">mBYlAPT</p>","","","","","","","","",""
"html-keyboard-response","381","486959","0.0-16.0-0.49","5f0f93938935de000855898b","650c16f0f2faf8d7a0d14c09","651c1e0d6882c1a9d645761c","null","null","<p style=""font-size: 60px; font-family: BACS"">mBYlAPT</p>","","","","","","","","",""
"html-keyboard-response","382","487973","0.0-16.0-0.50","5f0f93938935de000855898b","650c16f0f2faf8d7a0d14c09","651c1e0d6882c1a9d645761c","null","null","<p style=""font-size: 60px; font-family: BACS"">mBYlAPT</p>","","","","","","","","",""
"html-keyboard-response","383","488980","0.0-16.0-0.51","5f0f93938935de000855898b","650c16f0f2faf8d7a0d14c09","651c1e0d6882c1a9d645761c","null","null","<p style=""font-size: 60px; font-family: BACS"">mBYlAPT</p>","","","","","","","","",""
"html-keyboard-response","384","489993","0.0-16.0-0.52","5f0f93938935de000855898b","650c16f0f2faf8d7a0d14c09","651c1e0d6882c1a9d645761c","null","null","<p style=""font-size: 60px; font-family: BACS"">mBYlAPT</p>","","","","","","","","",""
"html-keyboard-response","385","491006","0.0-16.0-0.53","5f0f93938935de000855898b","650c16f0f2faf8d7a0d14c09","651c1e0d6882c1a9d645761c","null","null","<p style=""font-size: 60px; font-family: BACS"">mBYlAPT</p>","","","","","","","","",""
"html-keyboard-response","386","492019","0.0-16.0-0.54","5f0f93938935de000855898b","650c16f0f2faf8d7a0d14c09","651c1e0d6882c1a9d645761c","null","null","<p style=""font-size: 60px; font-family: BACS"">mBYlAPT</p>","","","","","","","","",""
"html-keyboard-response","387","493033","0.0-16.0-0.55","5f0f93938935de000855898b","650c16f0f2faf8d7a0d14c09","651c1e0d6882c1a9d645761c","null","null","<p style=""font-size: 60px; font-family: BACS"">mBYlAPT</p>","","","","","","","","",""
"html-keyboard-response","388","494046","0.0-16.0-0.56","5f0f93938935de000855898b","650c16f0f2faf8d7a0d14c09","651c1e0d6882c1a9d645761c","null","null","<p style=""font-size: 60px; font-family: BACS"">mBYlAPT</p>","","","","","","","","",""
"html-keyboard-response","389","495059","0.0-16.0-0.57","5f0f93938935de000855898b","650c16f0f2faf8d7a0d14c09","651c1e0d6882c1a9d645761c","null","null","<p style=""font-size: 60px; font-family: BACS"">mBYlAPT</p>","","","","","","","","",""
"html-keyboard-response","390","496074","0.0-16.0-0.58","5f0f93938935de000855898b","650c16f0f2faf8d7a0d14c09","651c1e0d6882c1a9d645761c","null","null","<p style=""font-size: 60px; font-family: BACS"">mBYlAPT</p>","","","","","","","","",""
"html-keyboard-response","391","497086","0.0-16.0-0.59","5f0f93938935de000855898b","650c16f0f2faf8d7a0d14c09","651c1e0d6882c1a9d645761c","null","null","<p style=""font-size: 60px; font-family: BACS"">mBYlAPT</p>","","","","","","","","",""
"html-keyboard-response","392","498098","0.0-16.0-0.60","5f0f93938935de000855898b","650c16f0f2faf8d7a0d14c09","651c1e0d6882c1a9d645761c","null","null","<p style=""font-size: 60px; font-family: BACS"">mBYlAPT</p>","","","","","","","","",""
"html-keyboard-response","393","499100","0.0-16.0-0.61","5f0f93938935de000855898b","650c16f0f2faf8d7a0d14c09","651c1e0d6882c1a9d645761c","null","null","<p style=""font-size: 60px; font-family: BACS"">mBYlAPT</p>","","","","","","","","",""
"html-keyboard-response","394","500112","0.0-16.0-0.62","5f0f93938935de000855898b","650c16f0f2faf8d7a0d14c09","651c1e0d6882c1a9d645761c","null","null","<p style=""font-size: 60px; font-family: BACS"">mBYlAPT</p>","","","","","","","","",""
"html-keyboard-response","395","501123","0.0-16.0-0.63","5f0f93938935de000855898b","650c16f0f2faf8d7a0d14c09","651c1e0d6882c1a9d645761c","null","null","<p style=""font-size: 60px; font-family: BACS"">mBYlAPT</p>","","","","","","","","",""
"html-keyboard-response","396","502134","0.0-16.0-0.64","5f0f93938935de000855898b","650c16f0f2faf8d7a0d14c09","651c1e0d6882c1a9d645761c","null","null","<p style=""font-size: 60px; font-family: BACS"">mBYlAPT</p>","","","","","","","","",""
"html-keyboard-response","397","503146","0.0-16.0-0.65","5f0f93938935de000855898b","650c16f0f2faf8d7a0d14c09","651c1e0d6882c1a9d645761c","null","null","<p style=""font-size: 60px; font-family: BACS"">mBYlAPT</p>","","","","","","","","",""
"html-keyboard-response","398","504156","0.0-16.0-0.66","5f0f93938935de000855898b","650c16f0f2faf8d7a0d14c09","651c1e0d6882c1a9d645761c","null","null","<p style=""font-size: 60px; font-family: BACS"">mBYlAPT</p>","","","","","","","","",""
