"trial_type","trial_index","time_elapsed","internal_node_id","subject_id","study_id","session_id","rt","response","stimulus","success","item","task","correct_response","correct","target","confound","name"
"pavlovia","0","2598","0.0-0.0","5e99d95e0f50aa04266ad4ad","64b003020eef62ee308107cc","64b108921d744788250c993e","","","","","","","","","","",""
"survey-html-form","1","5278","0.0-1.0","5e99d95e0f50aa04266ad4ad","64b003020eef62ee308107cc","64b108921d744788250c993e","2677","{""ID"":""5e99d95e0f50aa04266ad4ad""}","","","","","","","","",""
"html-keyboard-response","2","17399","0.0-2.0","5e99d95e0f50aa04266ad4ad","64b003020eef62ee308107cc","64b108921d744788250c993e","12120"," ","<p style=""font-size: 15px;"">Prima di cominciare, le chiediamo di leggere il modulo di consenso informato e confermare la sua volontà di partecipare all'esperimento.</p>
      <p style=""font-size: 15px;""> La preghiamo di ricordare che questo è un progetto di ricerca e che la sua partecipazione è completamente volontaria. Lei si potra' ritirare in qualunque momento, senza necessariamente dover dare alcuna spiegazione. Lo studio al quale Le si chiede di partecipare ha lo scopo di esaminare come i lettori elaborano le parole scritte. La somministrazione delle prove è individuale. Lei sarà impegnato in una sessione di lavoro della durata media di 10 minuti, e un questionario di 10 minuti. L’ordine delle prove ed il loro svolgimento sono stabiliti in modo tale da evitare un eventuale affaticamento. Tutte le prove saranno precedute da un breve addestramento in modo tale che abbia la possibilità di familiarizzare con il compito. Sono previste alcune pause nel corso dello svolgimento dell’esperimento. Una ricompensa di £4 (£8 per ora) Le verrà consegnata al termine della sessione di testing. Nonostante il testing preveda delle prove cognitive, il presente esperimento non costituisce una prova clinica che permetta la diagnosi di eventuali patologie.</p>
      <p style=""font-size: 15px;"">Tutti i dati raccolti grazie alla partecipazione Sua e di altre persone volontarie saranno custoditi in server sicuri e protetti da password, e non sarà consentito ad alcuna persona non autorizzata di accedervi. Le Sue informazioni personali saranno conservate separatamente dai risultati della presente ricerca, cui saranno associati soltanto attraverso un ID arbitrario. Grazie a questo processo di anonimizzazione dei dati, a nessun ricercatore sarà possibile analizzare i risultati sapendo da quale specifico partecipante essi provengono. Inoltre, questa procedura renderà impossibile la Sua identificazione anche nel momento in cui i risultati della ricerca fossero pubblicati su riviste scientifiche, o presentati a congressi o in qualsiasi altro pubblico consesso. Più in generale, i dati raccolti saranno trattati in accordo con le leggi sulla privacy e in conformità al Decreto Legislativo 30 giugno 2003 n. 196 “Codice in materia di protezione dei dati personali” e al Regolamento Europeo 2016/679 (General Data Protection Regulation - GDPR). Il Responsabile della protezione dei dati (RPD) è l’Avv. Valentina Carollo che può essere contattato ai seguenti indirizzi email: <a href=""mailto:dpo@sissa.it"">dpo@sissa.it</a> oppure <a href=""mailto:rpd@sissa.it"">rpd@sissa.it</a> - PEC: <a href=""mailto:protocollo@pec.sissa.it"">protocollo@pec.sissa.it</a>.</p>
      <p style=""font-size: 15px;""> Prima di esprimere il suo consenso alla partecipazione, Le ricordiamo ancora che in caso Lei abbia bisogno di delucidazioni su qualunque aspetto della procedura sperimentale, il ricercatore è a Sua completa disposizione (<a href=""mailto:aliebelt@sissa.it"">aliebelt@sissa.it</a>, <a href=""mailto:davide.crepaldi@sissa.it"">davide.crepaldi@sissa.it</a>).</p>
      <p style=""font-size: 15px;"">Se vuole scaricare il modulo di consenso informato, clicca qui: <a href=""BASL_modulo_consenso.pdf"" download>modulo di consenso</a>.</p>
      <p style=""font-size: 15px;""> Le chiediamo di premere la barra per continuare al consenso.</p>","","","","","","","",""
"survey-html-form","3","27845","0.0-3.0","5e99d95e0f50aa04266ad4ad","64b003020eef62ee308107cc","64b108921d744788250c993e","10445","{""consent1"":""YES"",""consent2"":""YES"",""consent3"":""YES"",""consent4"":""YES"",""consent5"":""YES"",""consent6"":""YES""}","","","","","","","","",""
"fullscreen","4","32982","0.0-4.0","5e99d95e0f50aa04266ad4ad","64b003020eef62ee308107cc","64b108921d744788250c993e","","","","true","","","","","","",""
"html-keyboard-response","5","53830","0.0-5.0","5e99d95e0f50aa04266ad4ad","64b003020eef62ee308107cc","64b108921d744788250c993e","20847"," ","<p>Benvenuta/o, e grazie mille del tuo tempo!</p>
      <p>In questo esperimento sarai un esperto/un'esperta di linguaggio cui è stato chiesto di dare un'occhiata ad alcuni messaggi che la Terra ha ricevuto dallo spazio. Il tuo compito, in questa prima parte dell'esperimento, sarà di fare molta attenzione alle parole che ti verranno mostrate; più tardi, i leader del mondo ti chiederanno qualche informazione su quello che hai visto. Le parole si susseguiranno abbastanza velocemente; sembra che questi alieni abbiano una certa fretta :-) </p>
      <p>Per favore, chiama lo sperimentatore se ha qualche domanda.</p><p>Premi la barra per continuare.</p>","","","","","","","",""
"html-keyboard-response","6","61862","0.0-6.0","5e99d95e0f50aa04266ad4ad","64b003020eef62ee308107cc","64b108921d744788250c993e","8031"," ","<p>Ecco un esempio delle parole che vedrai:</p>
      <img src='esempio.png' height='400px'>
      <p>Quando sei pronti per iniziare, premi la barra.</p></div>","","","","","","","",""
"html-keyboard-response","7","62878","0.0-7.0-0.0","5e99d95e0f50aa04266ad4ad","64b003020eef62ee308107cc","64b108921d744788250c993e","null","null","<p style=""font-size: 60px; font-family: BACS"">aUZAJZr</p>","","","","","","","",""
"html-keyboard-response","8","63895","0.0-7.0-0.1","5e99d95e0f50aa04266ad4ad","64b003020eef62ee308107cc","64b108921d744788250c993e","null","null","<p style=""font-size: 60px; font-family: BACS"">cdKBYRCdc</p>","","","","","","","",""
"html-keyboard-response","9","64911","0.0-7.0-0.2","5e99d95e0f50aa04266ad4ad","64b003020eef62ee308107cc","64b108921d744788250c993e","null","null","<p style=""font-size: 60px; font-family: BACS"">KTDTBmhc</p>","","","","","","","",""
"html-keyboard-response","10","65928","0.0-7.0-0.3","5e99d95e0f50aa04266ad4ad","64b003020eef62ee308107cc","64b108921d744788250c993e","null","null","<p style=""font-size: 60px; font-family: BACS"">bmbNJZr</p>","","","","","","","",""
"html-keyboard-response","11","66945","0.0-7.0-0.4","5e99d95e0f50aa04266ad4ad","64b003020eef62ee308107cc","64b108921d744788250c993e","null","null","<p style=""font-size: 60px; font-family: BACS"">UdlGQLkNc</p>","","","","","","","",""
"html-keyboard-response","12","67961","0.0-7.0-0.5","5e99d95e0f50aa04266ad4ad","64b003020eef62ee308107cc","64b108921d744788250c993e","null","null","<p style=""font-size: 60px; font-family: BACS"">YlYcmhc</p>","","","","","","","",""
"html-keyboard-response","13","68978","0.0-7.0-0.6","5e99d95e0f50aa04266ad4ad","64b003020eef62ee308107cc","64b108921d744788250c993e","null","null","<p style=""font-size: 60px; font-family: BACS"">KTDTBkKE</p>","","","","","","","",""
"html-keyboard-response","14","69995","0.0-7.0-0.7","5e99d95e0f50aa04266ad4ad","64b003020eef62ee308107cc","64b108921d744788250c993e","null","null","<p style=""font-size: 60px; font-family: BACS"">vAuNlGUOA</p>","","","","","","","",""
"html-keyboard-response","15","71011","0.0-7.0-0.8","5e99d95e0f50aa04266ad4ad","64b003020eef62ee308107cc","64b108921d744788250c993e","null","null","<p style=""font-size: 60px; font-family: BACS"">aUZAvcb</p>","","","","","","","",""
"html-keyboard-response","16","72028","0.0-7.0-0.9","5e99d95e0f50aa04266ad4ad","64b003020eef62ee308107cc","64b108921d744788250c993e","null","null","<p style=""font-size: 60px; font-family: BACS"">MTdYmhc</p>","","","","","","","",""
"html-keyboard-response","17","73045","0.0-7.0-0.10","5e99d95e0f50aa04266ad4ad","64b003020eef62ee308107cc","64b108921d744788250c993e","null","null","<p style=""font-size: 60px; font-family: BACS"">TAdhMbTE</p>","","","","","","","",""
"html-keyboard-response","18","74059","0.0-7.0-0.11","5e99d95e0f50aa04266ad4ad","64b003020eef62ee308107cc","64b108921d744788250c993e","null","null","<p style=""font-size: 60px; font-family: BACS"">bmbNGUOA</p>","","","","","","","",""
"html-keyboard-response","19","75061","0.0-7.0-0.12","5e99d95e0f50aa04266ad4ad","64b003020eef62ee308107cc","64b108921d744788250c993e","null","null","<p style=""font-size: 60px; font-family: BACS"">KTDTBRCdc</p>","","","","","","","",""
"html-keyboard-response","20","76076","0.0-7.0-0.13","5e99d95e0f50aa04266ad4ad","64b003020eef62ee308107cc","64b108921d744788250c993e","null","null","<p style=""font-size: 60px; font-family: BACS"">TCbDCbTE</p>","","","","","","","",""
"html-keyboard-response","21","77078","0.0-7.0-0.14","5e99d95e0f50aa04266ad4ad","64b003020eef62ee308107cc","64b108921d744788250c993e","null","null","<p style=""font-size: 60px; font-family: BACS"">YlCPBRCdc</p>","","","","","","","",""
"html-keyboard-response","22","78093","0.0-7.0-0.15","5e99d95e0f50aa04266ad4ad","64b003020eef62ee308107cc","64b108921d744788250c993e","null","null","<p style=""font-size: 60px; font-family: BACS"">QbkAcGQYQ</p>","","","","","","","",""
"html-keyboard-response","23","79095","0.0-7.0-0.16","5e99d95e0f50aa04266ad4ad","64b003020eef62ee308107cc","64b108921d744788250c993e","null","null","<p style=""font-size: 60px; font-family: BACS"">JmvmOJZr</p>","","","","","","","",""
"html-keyboard-response","24","80111","0.0-7.0-0.17","5e99d95e0f50aa04266ad4ad","64b003020eef62ee308107cc","64b108921d744788250c993e","null","null","<p style=""font-size: 60px; font-family: BACS"">vAuNlLkNc</p>","","","","","","","",""
"html-keyboard-response","25","81127","0.0-7.0-0.18","5e99d95e0f50aa04266ad4ad","64b003020eef62ee308107cc","64b108921d744788250c993e","null","null","<p style=""font-size: 60px; font-family: BACS"">NLQGmGQYQ</p>","","","","","","","",""
"html-keyboard-response","26","82145","0.0-7.0-0.19","5e99d95e0f50aa04266ad4ad","64b003020eef62ee308107cc","64b108921d744788250c993e","null","null","<p style=""font-size: 60px; font-family: BACS"">YlYcRCdc</p>","","","","","","","",""
"html-keyboard-response","27","83162","0.0-7.0-0.20","5e99d95e0f50aa04266ad4ad","64b003020eef62ee308107cc","64b108921d744788250c993e","null","null","<p style=""font-size: 60px; font-family: BACS"">QbkAcGUOA</p>","","","","","","","",""
"html-keyboard-response","28","84178","0.0-7.0-0.21","5e99d95e0f50aa04266ad4ad","64b003020eef62ee308107cc","64b108921d744788250c993e","null","null","<p style=""font-size: 60px; font-family: BACS"">JmvmOLkNc</p>","","","","","","","",""
"html-keyboard-response","29","85195","0.0-7.0-0.22","5e99d95e0f50aa04266ad4ad","64b003020eef62ee308107cc","64b108921d744788250c993e","null","null","<p style=""font-size: 60px; font-family: BACS"">cdKBYkKE</p>","","","","","","","",""
"html-keyboard-response","30","86212","0.0-7.0-0.23","5e99d95e0f50aa04266ad4ad","64b003020eef62ee308107cc","64b108921d744788250c993e","null","null","<p style=""font-size: 60px; font-family: BACS"">mBbKbTE</p>","","","","","","","",""
"html-keyboard-response","31","87228","0.0-7.0-0.24","5e99d95e0f50aa04266ad4ad","64b003020eef62ee308107cc","64b108921d744788250c993e","null","null","<p style=""font-size: 60px; font-family: BACS"">alJYGQYQ</p>","","","","","","","",""
"html-keyboard-response","32","88245","0.0-7.0-0.25","5e99d95e0f50aa04266ad4ad","64b003020eef62ee308107cc","64b108921d744788250c993e","null","null","<p style=""font-size: 60px; font-family: BACS"">TAdhMmhc</p>","","","","","","","",""
"html-keyboard-response","33","89262","0.0-7.0-0.26","5e99d95e0f50aa04266ad4ad","64b003020eef62ee308107cc","64b108921d744788250c993e","null","null","<p style=""font-size: 60px; font-family: BACS"">NLQGmLkNc</p>","","","","","","","",""
"html-keyboard-response","34","90278","0.0-7.0-0.27","5e99d95e0f50aa04266ad4ad","64b003020eef62ee308107cc","64b108921d744788250c993e","null","null","<p style=""font-size: 60px; font-family: BACS"">KTDTBkBD</p>","","","","","","","",""
"html-keyboard-response","35","91294","0.0-7.0-0.28","5e99d95e0f50aa04266ad4ad","64b003020eef62ee308107cc","64b108921d744788250c993e","null","null","<p style=""font-size: 60px; font-family: BACS"">alJYJZr</p>","","","","","","","",""
"html-keyboard-response","36","92311","0.0-7.0-0.29","5e99d95e0f50aa04266ad4ad","64b003020eef62ee308107cc","64b108921d744788250c993e","null","null","<p style=""font-size: 60px; font-family: BACS"">YlCPBkKE</p>","","","","","","","",""
"html-keyboard-response","37","93328","0.0-7.0-0.30","5e99d95e0f50aa04266ad4ad","64b003020eef62ee308107cc","64b108921d744788250c993e","null","null","<p style=""font-size: 60px; font-family: BACS"">advYOvcb</p>","","","","","","","",""
"html-keyboard-response","38","94345","0.0-7.0-0.31","5e99d95e0f50aa04266ad4ad","64b003020eef62ee308107cc","64b108921d744788250c993e","null","null","<p style=""font-size: 60px; font-family: BACS"">QbkAcJZr</p>","","","","","","","",""
"html-keyboard-response","39","95362","0.0-7.0-0.32","5e99d95e0f50aa04266ad4ad","64b003020eef62ee308107cc","64b108921d744788250c993e","null","null","<p style=""font-size: 60px; font-family: BACS"">cdKBYmhc</p>","","","","","","","",""
"html-keyboard-response","40","96378","0.0-7.0-0.33","5e99d95e0f50aa04266ad4ad","64b003020eef62ee308107cc","64b108921d744788250c993e","null","null","<p style=""font-size: 60px; font-family: BACS"">vAuNlvcb</p>","","","","","","","",""
"html-keyboard-response","41","97395","0.0-7.0-0.34","5e99d95e0f50aa04266ad4ad","64b003020eef62ee308107cc","64b108921d744788250c993e","null","null","<p style=""font-size: 60px; font-family: BACS"">alJYGUOA</p>","","","","","","","",""
"html-keyboard-response","42","98411","0.0-7.0-0.35","5e99d95e0f50aa04266ad4ad","64b003020eef62ee308107cc","64b108921d744788250c993e","null","null","<p style=""font-size: 60px; font-family: BACS"">mBbKRCdc</p>","","","","","","","",""
"html-keyboard-response","43","99427","0.0-7.0-0.36","5e99d95e0f50aa04266ad4ad","64b003020eef62ee308107cc","64b108921d744788250c993e","null","null","<p style=""font-size: 60px; font-family: BACS"">UdlGQJZr</p>","","","","","","","",""
"html-keyboard-response","44","100445","0.0-7.0-0.37","5e99d95e0f50aa04266ad4ad","64b003020eef62ee308107cc","64b108921d744788250c993e","null","null","<p style=""font-size: 60px; font-family: BACS"">mBbKmhc</p>","","","","","","","",""
"html-keyboard-response","45","101462","0.0-7.0-0.38","5e99d95e0f50aa04266ad4ad","64b003020eef62ee308107cc","64b108921d744788250c993e","null","null","<p style=""font-size: 60px; font-family: BACS"">thbOMkBD</p>","","","","","","","",""
"html-keyboard-response","46","102478","0.0-7.0-0.39","5e99d95e0f50aa04266ad4ad","64b003020eef62ee308107cc","64b108921d744788250c993e","null","null","<p style=""font-size: 60px; font-family: BACS"">TAdhMkKE</p>","","","","","","","",""
"html-keyboard-response","47","103495","0.0-7.0-0.40","5e99d95e0f50aa04266ad4ad","64b003020eef62ee308107cc","64b108921d744788250c993e","null","null","<p style=""font-size: 60px; font-family: BACS"">mBbKkBD</p>","","","","","","","",""
"html-keyboard-response","48","104511","0.0-7.0-0.41","5e99d95e0f50aa04266ad4ad","64b003020eef62ee308107cc","64b108921d744788250c993e","null","null","<p style=""font-size: 60px; font-family: BACS"">bGuOJZr</p>","","","","","","","",""
"html-keyboard-response","49","105528","0.0-7.0-0.42","5e99d95e0f50aa04266ad4ad","64b003020eef62ee308107cc","64b108921d744788250c993e","null","null","<p style=""font-size: 60px; font-family: BACS"">advYOGQYQ</p>","","","","","","","",""
"html-keyboard-response","50","106545","0.0-7.0-0.43","5e99d95e0f50aa04266ad4ad","64b003020eef62ee308107cc","64b108921d744788250c993e","null","null","<p style=""font-size: 60px; font-family: BACS"">UdlGQvcb</p>","","","","","","","",""
"html-keyboard-response","51","107562","0.0-7.0-0.44","5e99d95e0f50aa04266ad4ad","64b003020eef62ee308107cc","64b108921d744788250c993e","null","null","<p style=""font-size: 60px; font-family: BACS"">alJYLkNc</p>","","","","","","","",""
"html-keyboard-response","52","108578","0.0-7.0-0.45","5e99d95e0f50aa04266ad4ad","64b003020eef62ee308107cc","64b108921d744788250c993e","null","null","<p style=""font-size: 60px; font-family: BACS"">TCbDCkKE</p>","","","","","","","",""
"html-keyboard-response","53","109580","0.0-7.0-0.46","5e99d95e0f50aa04266ad4ad","64b003020eef62ee308107cc","64b108921d744788250c993e","null","null","<p style=""font-size: 60px; font-family: BACS"">bGuOGUOA</p>","","","","","","","",""
"html-keyboard-response","54","110595","0.0-7.0-0.47","5e99d95e0f50aa04266ad4ad","64b003020eef62ee308107cc","64b108921d744788250c993e","null","null","<p style=""font-size: 60px; font-family: BACS"">RYtkcbTE</p>","","","","","","","",""
"html-keyboard-response","55","111612","0.0-7.0-0.48","5e99d95e0f50aa04266ad4ad","64b003020eef62ee308107cc","64b108921d744788250c993e","null","null","<p style=""font-size: 60px; font-family: BACS"">aUZAGQYQ</p>","","","","","","","",""
"html-keyboard-response","56","112628","0.0-7.0-0.49","5e99d95e0f50aa04266ad4ad","64b003020eef62ee308107cc","64b108921d744788250c993e","null","null","<p style=""font-size: 60px; font-family: BACS"">YlCPBkBD</p>","","","","","","","",""
"html-keyboard-response","57","113645","0.0-7.0-0.50","5e99d95e0f50aa04266ad4ad","64b003020eef62ee308107cc","64b108921d744788250c993e","null","null","<p style=""font-size: 60px; font-family: BACS"">vAuNlGQYQ</p>","","","","","","","",""
"html-keyboard-response","58","114661","0.0-7.0-0.51","5e99d95e0f50aa04266ad4ad","64b003020eef62ee308107cc","64b108921d744788250c993e","null","null","<p style=""font-size: 60px; font-family: BACS"">cdKBYkBD</p>","","","","","","","",""
"html-keyboard-response","59","115678","0.0-7.0-0.52","5e99d95e0f50aa04266ad4ad","64b003020eef62ee308107cc","64b108921d744788250c993e","null","null","<p style=""font-size: 60px; font-family: BACS"">thbOMmhc</p>","","","","","","","",""
"html-keyboard-response","60","116692","0.0-7.0-0.53","5e99d95e0f50aa04266ad4ad","64b003020eef62ee308107cc","64b108921d744788250c993e","null","null","<p style=""font-size: 60px; font-family: BACS"">MTdYRCdc</p>","","","","","","","",""
"html-keyboard-response","61","117695","0.0-7.0-0.54","5e99d95e0f50aa04266ad4ad","64b003020eef62ee308107cc","64b108921d744788250c993e","null","null","<p style=""font-size: 60px; font-family: BACS"">advYOLkNc</p>","","","","","","","",""
"html-keyboard-response","62","118712","0.0-7.0-0.55","5e99d95e0f50aa04266ad4ad","64b003020eef62ee308107cc","64b108921d744788250c993e","null","null","<p style=""font-size: 60px; font-family: BACS"">RYtkckBD</p>","","","","","","","",""
"html-keyboard-response","63","119728","0.0-7.0-0.56","5e99d95e0f50aa04266ad4ad","64b003020eef62ee308107cc","64b108921d744788250c993e","null","null","<p style=""font-size: 60px; font-family: BACS"">YlYcbTE</p>","","","","","","","",""
"html-keyboard-response","64","120745","0.0-7.0-0.57","5e99d95e0f50aa04266ad4ad","64b003020eef62ee308107cc","64b108921d744788250c993e","null","null","<p style=""font-size: 60px; font-family: BACS"">bGuOvcb</p>","","","","","","","",""
"html-keyboard-response","65","121762","0.0-7.0-0.58","5e99d95e0f50aa04266ad4ad","64b003020eef62ee308107cc","64b108921d744788250c993e","null","null","<p style=""font-size: 60px; font-family: BACS"">advYOJZr</p>","","","","","","","",""
"html-keyboard-response","66","122778","0.0-7.0-0.59","5e99d95e0f50aa04266ad4ad","64b003020eef62ee308107cc","64b108921d744788250c993e","null","null","<p style=""font-size: 60px; font-family: BACS"">UdlGQGQYQ</p>","","","","","","","",""
"html-keyboard-response","67","123793","0.0-7.0-0.60","5e99d95e0f50aa04266ad4ad","64b003020eef62ee308107cc","64b108921d744788250c993e","null","null","<p style=""font-size: 60px; font-family: BACS"">NLQGmvcb</p>","","","","","","","",""
"html-keyboard-response","68","124795","0.0-7.0-0.61","5e99d95e0f50aa04266ad4ad","64b003020eef62ee308107cc","64b108921d744788250c993e","null","null","<p style=""font-size: 60px; font-family: BACS"">YlYckKE</p>","","","","","","","",""
"html-keyboard-response","69","125812","0.0-7.0-0.62","5e99d95e0f50aa04266ad4ad","64b003020eef62ee308107cc","64b108921d744788250c993e","null","null","<p style=""font-size: 60px; font-family: BACS"">aUZAGUOA</p>","","","","","","","",""
"html-keyboard-response","70","126828","0.0-7.0-0.63","5e99d95e0f50aa04266ad4ad","64b003020eef62ee308107cc","64b108921d744788250c993e","null","null","<p style=""font-size: 60px; font-family: BACS"">bmbNLkNc</p>","","","","","","","",""
"html-keyboard-response","71","127845","0.0-7.0-0.64","5e99d95e0f50aa04266ad4ad","64b003020eef62ee308107cc","64b108921d744788250c993e","null","null","<p style=""font-size: 60px; font-family: BACS"">TCbDCRCdc</p>","","","","","","","",""
"html-keyboard-response","72","128862","0.0-7.0-0.65","5e99d95e0f50aa04266ad4ad","64b003020eef62ee308107cc","64b108921d744788250c993e","null","null","<p style=""font-size: 60px; font-family: BACS"">TAdhMkBD</p>","","","","","","","",""
"html-keyboard-response","73","129878","0.0-7.0-0.66","5e99d95e0f50aa04266ad4ad","64b003020eef62ee308107cc","64b108921d744788250c993e","null","null","<p style=""font-size: 60px; font-family: BACS"">bmbNvcb</p>","","","","","","","",""
"html-keyboard-response","74","130895","0.0-7.0-0.67","5e99d95e0f50aa04266ad4ad","64b003020eef62ee308107cc","64b108921d744788250c993e","null","null","<p style=""font-size: 60px; font-family: BACS"">thbOMbTE</p>","","","","","","","",""
"html-keyboard-response","75","131896","0.0-7.0-0.68","5e99d95e0f50aa04266ad4ad","64b003020eef62ee308107cc","64b108921d744788250c993e","null","null","<p style=""font-size: 60px; font-family: BACS"">bGuOLkNc</p>","","","","","","","",""
"html-keyboard-response","76","132912","0.0-7.0-0.69","5e99d95e0f50aa04266ad4ad","64b003020eef62ee308107cc","64b108921d744788250c993e","null","null","<p style=""font-size: 60px; font-family: BACS"">TCbDCmhc</p>","","","","","","","",""
"html-keyboard-response","77","133928","0.0-7.0-0.70","5e99d95e0f50aa04266ad4ad","64b003020eef62ee308107cc","64b108921d744788250c993e","null","null","<p style=""font-size: 60px; font-family: BACS"">MTdYbTE</p>","","","","","","","",""
"html-keyboard-response","78","134945","0.0-7.0-0.71","5e99d95e0f50aa04266ad4ad","64b003020eef62ee308107cc","64b108921d744788250c993e","null","null","<p style=""font-size: 60px; font-family: BACS"">JmvmOGUOA</p>","","","","","","","",""
"html-keyboard-response","79","135961","0.0-7.0-0.72","5e99d95e0f50aa04266ad4ad","64b003020eef62ee308107cc","64b108921d744788250c993e","null","null","<p style=""font-size: 60px; font-family: BACS"">MTdYkBD</p>","","","","","","","",""
"html-keyboard-response","80","136978","0.0-7.0-0.73","5e99d95e0f50aa04266ad4ad","64b003020eef62ee308107cc","64b108921d744788250c993e","null","null","<p style=""font-size: 60px; font-family: BACS"">JmvmOGQYQ</p>","","","","","","","",""
"html-keyboard-response","81","137995","0.0-7.0-0.74","5e99d95e0f50aa04266ad4ad","64b003020eef62ee308107cc","64b108921d744788250c993e","null","null","<p style=""font-size: 60px; font-family: BACS"">RYtkckKE</p>","","","","","","","",""
"html-keyboard-response","82","139012","0.0-7.0-0.75","5e99d95e0f50aa04266ad4ad","64b003020eef62ee308107cc","64b108921d744788250c993e","null","null","<p style=""font-size: 60px; font-family: BACS"">NLQGmGUOA</p>","","","","","","","",""
"html-keyboard-response","83","140013","0.0-7.0-0.76","5e99d95e0f50aa04266ad4ad","64b003020eef62ee308107cc","64b108921d744788250c993e","null","null","<p style=""font-size: 60px; font-family: BACS"">thbOMkKE</p>","","","","","","","",""
"html-keyboard-response","84","141028","0.0-7.0-0.77","5e99d95e0f50aa04266ad4ad","64b003020eef62ee308107cc","64b108921d744788250c993e","null","null","<p style=""font-size: 60px; font-family: BACS"">QbkAcvcb</p>","","","","","","","",""
"html-keyboard-response","85","142045","0.0-7.0-0.78","5e99d95e0f50aa04266ad4ad","64b003020eef62ee308107cc","64b108921d744788250c993e","null","null","<p style=""font-size: 60px; font-family: BACS"">RYtkcRCdc</p>","","","","","","","",""
"html-keyboard-response","86","143061","0.0-7.0-0.79","5e99d95e0f50aa04266ad4ad","64b003020eef62ee308107cc","64b108921d744788250c993e","null","null","<p style=""font-size: 60px; font-family: BACS"">YlCPBbTE</p>","","","","","","","",""
"html-keyboard-response","87","147582","0.0-8.0","5e99d95e0f50aa04266ad4ad","64b003020eef62ee308107cc","64b108921d744788250c993e","4519"," ","<p>Ottimo, hai visto il primo blocco di parole. Ora puoi prenderti una piccola pausa.</p>
      <p>Premi la barra quando sei pronta/o per riprendere.</p>","","","","","","","",""
"html-keyboard-response","88","148595","0.0-9.0-0.0","5e99d95e0f50aa04266ad4ad","64b003020eef62ee308107cc","64b108921d744788250c993e","null","null","<p style=""font-size: 60px; font-family: BACS"">bmbNJZr</p>","","","","","","","",""
"html-keyboard-response","89","149612","0.0-9.0-0.1","5e99d95e0f50aa04266ad4ad","64b003020eef62ee308107cc","64b108921d744788250c993e","null","null","<p style=""font-size: 60px; font-family: BACS"">NLQGmGQYQ</p>","","","","","","","",""
"html-keyboard-response","90","150628","0.0-9.0-0.2","5e99d95e0f50aa04266ad4ad","64b003020eef62ee308107cc","64b108921d744788250c993e","null","null","<p style=""font-size: 60px; font-family: BACS"">JmvmOLkNc</p>","","","","","","","",""
"html-keyboard-response","91","151645","0.0-9.0-0.3","5e99d95e0f50aa04266ad4ad","64b003020eef62ee308107cc","64b108921d744788250c993e","null","null","<p style=""font-size: 60px; font-family: BACS"">YlCPBkKE</p>","","","","","","","",""
"html-keyboard-response","92","152661","0.0-9.0-0.4","5e99d95e0f50aa04266ad4ad","64b003020eef62ee308107cc","64b108921d744788250c993e","null","null","<p style=""font-size: 60px; font-family: BACS"">aUZAvcb</p>","","","","","","","",""
"html-keyboard-response","93","153678","0.0-9.0-0.5","5e99d95e0f50aa04266ad4ad","64b003020eef62ee308107cc","64b108921d744788250c993e","null","null","<p style=""font-size: 60px; font-family: BACS"">QbkAcJZr</p>","","","","","","","",""
"html-keyboard-response","94","154695","0.0-9.0-0.6","5e99d95e0f50aa04266ad4ad","64b003020eef62ee308107cc","64b108921d744788250c993e","null","null","<p style=""font-size: 60px; font-family: BACS"">KTDTBRCdc</p>","","","","","","","",""
"html-keyboard-response","95","155712","0.0-9.0-0.7","5e99d95e0f50aa04266ad4ad","64b003020eef62ee308107cc","64b108921d744788250c993e","null","null","<p style=""font-size: 60px; font-family: BACS"">advYOLkNc</p>","","","","","","","",""
"html-keyboard-response","96","156728","0.0-9.0-0.8","5e99d95e0f50aa04266ad4ad","64b003020eef62ee308107cc","64b108921d744788250c993e","null","null","<p style=""font-size: 60px; font-family: BACS"">mBbKRCdc</p>","","","","","","","",""
"html-keyboard-response","97","157745","0.0-9.0-0.9","5e99d95e0f50aa04266ad4ad","64b003020eef62ee308107cc","64b108921d744788250c993e","null","null","<p style=""font-size: 60px; font-family: BACS"">MTdYmhc</p>","","","","","","","",""
"html-keyboard-response","98","158762","0.0-9.0-0.10","5e99d95e0f50aa04266ad4ad","64b003020eef62ee308107cc","64b108921d744788250c993e","null","null","<p style=""font-size: 60px; font-family: BACS"">RYtkckKE</p>","","","","","","","",""
"html-keyboard-response","99","159778","0.0-9.0-0.11","5e99d95e0f50aa04266ad4ad","64b003020eef62ee308107cc","64b108921d744788250c993e","null","null","<p style=""font-size: 60px; font-family: BACS"">bGuOGUOA</p>","","","","","","","",""
"html-keyboard-response","100","160779","0.0-9.0-0.12","5e99d95e0f50aa04266ad4ad","64b003020eef62ee308107cc","64b108921d744788250c993e","null","null","<p style=""font-size: 60px; font-family: BACS"">UdlGQvcb</p>","","","","","","","",""
"html-keyboard-response","101","161795","0.0-9.0-0.13","5e99d95e0f50aa04266ad4ad","64b003020eef62ee308107cc","64b108921d744788250c993e","null","null","<p style=""font-size: 60px; font-family: BACS"">cdKBYkBD</p>","","","","","","","",""
"html-keyboard-response","102","162812","0.0-9.0-0.14","5e99d95e0f50aa04266ad4ad","64b003020eef62ee308107cc","64b108921d744788250c993e","null","null","<p style=""font-size: 60px; font-family: BACS"">TCbDCmhc</p>","","","","","","","",""
"html-keyboard-response","103","163828","0.0-9.0-0.15","5e99d95e0f50aa04266ad4ad","64b003020eef62ee308107cc","64b108921d744788250c993e","null","null","<p style=""font-size: 60px; font-family: BACS"">UdlGQGQYQ</p>","","","","","","","",""
"html-keyboard-response","104","164845","0.0-9.0-0.16","5e99d95e0f50aa04266ad4ad","64b003020eef62ee308107cc","64b108921d744788250c993e","null","null","<p style=""font-size: 60px; font-family: BACS"">TAdhMkKE</p>","","","","","","","",""
"html-keyboard-response","105","165862","0.0-9.0-0.17","5e99d95e0f50aa04266ad4ad","64b003020eef62ee308107cc","64b108921d744788250c993e","null","null","<p style=""font-size: 60px; font-family: BACS"">QbkAcGUOA</p>","","","","","","","",""
"html-keyboard-response","106","166878","0.0-9.0-0.18","5e99d95e0f50aa04266ad4ad","64b003020eef62ee308107cc","64b108921d744788250c993e","null","null","<p style=""font-size: 60px; font-family: BACS"">JmvmOJZr</p>","","","","","","","",""
"html-keyboard-response","107","167895","0.0-9.0-0.19","5e99d95e0f50aa04266ad4ad","64b003020eef62ee308107cc","64b108921d744788250c993e","null","null","<p style=""font-size: 60px; font-family: BACS"">TCbDCRCdc</p>","","","","","","","",""
"html-keyboard-response","108","168912","0.0-9.0-0.20","5e99d95e0f50aa04266ad4ad","64b003020eef62ee308107cc","64b108921d744788250c993e","null","null","<p style=""font-size: 60px; font-family: BACS"">thbOMbTE</p>","","","","","","","",""
"html-keyboard-response","109","169928","0.0-9.0-0.21","5e99d95e0f50aa04266ad4ad","64b003020eef62ee308107cc","64b108921d744788250c993e","null","null","<p style=""font-size: 60px; font-family: BACS"">QbkAcvcb</p>","","","","","","","",""
"html-keyboard-response","110","170944","0.0-9.0-0.22","5e99d95e0f50aa04266ad4ad","64b003020eef62ee308107cc","64b108921d744788250c993e","null","null","<p style=""font-size: 60px; font-family: BACS"">advYOJZr</p>","","","","","","","",""
"html-keyboard-response","111","171945","0.0-9.0-0.23","5e99d95e0f50aa04266ad4ad","64b003020eef62ee308107cc","64b108921d744788250c993e","null","null","<p style=""font-size: 60px; font-family: BACS"">KTDTBmhc</p>","","","","","","","",""
"html-keyboard-response","112","172959","0.0-9.0-0.24","5e99d95e0f50aa04266ad4ad","64b003020eef62ee308107cc","64b108921d744788250c993e","null","null","<p style=""font-size: 60px; font-family: BACS"">TCbDCkKE</p>","","","","","","","",""
"html-keyboard-response","113","173961","0.0-9.0-0.25","5e99d95e0f50aa04266ad4ad","64b003020eef62ee308107cc","64b108921d744788250c993e","null","null","<p style=""font-size: 60px; font-family: BACS"">aUZAGQYQ</p>","","","","","","","",""
"html-keyboard-response","114","174978","0.0-9.0-0.26","5e99d95e0f50aa04266ad4ad","64b003020eef62ee308107cc","64b108921d744788250c993e","null","null","<p style=""font-size: 60px; font-family: BACS"">mBbKkBD</p>","","","","","","","",""
"html-keyboard-response","115","175995","0.0-9.0-0.27","5e99d95e0f50aa04266ad4ad","64b003020eef62ee308107cc","64b108921d744788250c993e","null","null","<p style=""font-size: 60px; font-family: BACS"">YlCPBbTE</p>","","","","","","","",""
"html-keyboard-response","116","177011","0.0-9.0-0.28","5e99d95e0f50aa04266ad4ad","64b003020eef62ee308107cc","64b108921d744788250c993e","null","null","<p style=""font-size: 60px; font-family: BACS"">UdlGQJZr</p>","","","","","","","",""
"html-keyboard-response","117","178028","0.0-9.0-0.29","5e99d95e0f50aa04266ad4ad","64b003020eef62ee308107cc","64b108921d744788250c993e","null","null","<p style=""font-size: 60px; font-family: BACS"">cdKBYkKE</p>","","","","","","","",""
"html-keyboard-response","118","179045","0.0-9.0-0.30","5e99d95e0f50aa04266ad4ad","64b003020eef62ee308107cc","64b108921d744788250c993e","null","null","<p style=""font-size: 60px; font-family: BACS"">YlYcmhc</p>","","","","","","","",""
"html-keyboard-response","119","180046","0.0-9.0-0.31","5e99d95e0f50aa04266ad4ad","64b003020eef62ee308107cc","64b108921d744788250c993e","null","null","<p style=""font-size: 60px; font-family: BACS"">bGuOvcb</p>","","","","","","","",""
"html-keyboard-response","120","181062","0.0-9.0-0.32","5e99d95e0f50aa04266ad4ad","64b003020eef62ee308107cc","64b108921d744788250c993e","null","null","<p style=""font-size: 60px; font-family: BACS"">mBbKmhc</p>","","","","","","","",""
"html-keyboard-response","121","182078","0.0-9.0-0.33","5e99d95e0f50aa04266ad4ad","64b003020eef62ee308107cc","64b108921d744788250c993e","null","null","<p style=""font-size: 60px; font-family: BACS"">bGuOJZr</p>","","","","","","","",""
"html-keyboard-response","122","183095","0.0-9.0-0.34","5e99d95e0f50aa04266ad4ad","64b003020eef62ee308107cc","64b108921d744788250c993e","null","null","<p style=""font-size: 60px; font-family: BACS"">thbOMmhc</p>","","","","","","","",""
"html-keyboard-response","123","184112","0.0-9.0-0.35","5e99d95e0f50aa04266ad4ad","64b003020eef62ee308107cc","64b108921d744788250c993e","null","null","<p style=""font-size: 60px; font-family: BACS"">MTdYRCdc</p>","","","","","","","",""
"html-keyboard-response","124","185128","0.0-9.0-0.36","5e99d95e0f50aa04266ad4ad","64b003020eef62ee308107cc","64b108921d744788250c993e","null","null","<p style=""font-size: 60px; font-family: BACS"">alJYGQYQ</p>","","","","","","","",""
"html-keyboard-response","125","186145","0.0-9.0-0.37","5e99d95e0f50aa04266ad4ad","64b003020eef62ee308107cc","64b108921d744788250c993e","null","null","<p style=""font-size: 60px; font-family: BACS"">mBbKbTE</p>","","","","","","","",""
"html-keyboard-response","126","187161","0.0-9.0-0.38","5e99d95e0f50aa04266ad4ad","64b003020eef62ee308107cc","64b108921d744788250c993e","null","null","<p style=""font-size: 60px; font-family: BACS"">alJYGUOA</p>","","","","","","","",""
"html-keyboard-response","127","188178","0.0-9.0-0.39","5e99d95e0f50aa04266ad4ad","64b003020eef62ee308107cc","64b108921d744788250c993e","null","null","<p style=""font-size: 60px; font-family: BACS"">vAuNlLkNc</p>","","","","","","","",""
"html-keyboard-response","128","189195","0.0-9.0-0.40","5e99d95e0f50aa04266ad4ad","64b003020eef62ee308107cc","64b108921d744788250c993e","null","null","<p style=""font-size: 60px; font-family: BACS"">JmvmOGQYQ</p>","","","","","","","",""
"html-keyboard-response","129","190211","0.0-9.0-0.41","5e99d95e0f50aa04266ad4ad","64b003020eef62ee308107cc","64b108921d744788250c993e","null","null","<p style=""font-size: 60px; font-family: BACS"">YlCPBkBD</p>","","","","","","","",""
"html-keyboard-response","130","191227","0.0-9.0-0.42","5e99d95e0f50aa04266ad4ad","64b003020eef62ee308107cc","64b108921d744788250c993e","null","null","<p style=""font-size: 60px; font-family: BACS"">cdKBYRCdc</p>","","","","","","","",""
"html-keyboard-response","131","192228","0.0-9.0-0.43","5e99d95e0f50aa04266ad4ad","64b003020eef62ee308107cc","64b108921d744788250c993e","null","null","<p style=""font-size: 60px; font-family: BACS"">YlYcbTE</p>","","","","","","","",""
"html-keyboard-response","132","193245","0.0-9.0-0.44","5e99d95e0f50aa04266ad4ad","64b003020eef62ee308107cc","64b108921d744788250c993e","null","null","<p style=""font-size: 60px; font-family: BACS"">bmbNLkNc</p>","","","","","","","",""
"html-keyboard-response","133","194261","0.0-9.0-0.45","5e99d95e0f50aa04266ad4ad","64b003020eef62ee308107cc","64b108921d744788250c993e","null","null","<p style=""font-size: 60px; font-family: BACS"">YlYckKE</p>","","","","","","","",""
"html-keyboard-response","134","195278","0.0-9.0-0.46","5e99d95e0f50aa04266ad4ad","64b003020eef62ee308107cc","64b108921d744788250c993e","null","null","<p style=""font-size: 60px; font-family: BACS"">RYtkcRCdc</p>","","","","","","","",""
"html-keyboard-response","135","196295","0.0-9.0-0.47","5e99d95e0f50aa04266ad4ad","64b003020eef62ee308107cc","64b108921d744788250c993e","null","null","<p style=""font-size: 60px; font-family: BACS"">alJYJZr</p>","","","","","","","",""
"html-keyboard-response","136","197312","0.0-9.0-0.48","5e99d95e0f50aa04266ad4ad","64b003020eef62ee308107cc","64b108921d744788250c993e","null","null","<p style=""font-size: 60px; font-family: BACS"">bmbNvcb</p>","","","","","","","",""
"html-keyboard-response","137","198328","0.0-9.0-0.49","5e99d95e0f50aa04266ad4ad","64b003020eef62ee308107cc","64b108921d744788250c993e","null","null","<p style=""font-size: 60px; font-family: BACS"">KTDTBkKE</p>","","","","","","","",""
"html-keyboard-response","138","199344","0.0-9.0-0.50","5e99d95e0f50aa04266ad4ad","64b003020eef62ee308107cc","64b108921d744788250c993e","null","null","<p style=""font-size: 60px; font-family: BACS"">NLQGmvcb</p>","","","","","","","",""
"html-keyboard-response","139","200345","0.0-9.0-0.51","5e99d95e0f50aa04266ad4ad","64b003020eef62ee308107cc","64b108921d744788250c993e","null","null","<p style=""font-size: 60px; font-family: BACS"">QbkAcGQYQ</p>","","","","","","","",""
"html-keyboard-response","140","201361","0.0-9.0-0.52","5e99d95e0f50aa04266ad4ad","64b003020eef62ee308107cc","64b108921d744788250c993e","null","null","<p style=""font-size: 60px; font-family: BACS"">RYtkckBD</p>","","","","","","","",""
"html-keyboard-response","141","202378","0.0-9.0-0.53","5e99d95e0f50aa04266ad4ad","64b003020eef62ee308107cc","64b108921d744788250c993e","null","null","<p style=""font-size: 60px; font-family: BACS"">vAuNlvcb</p>","","","","","","","",""
"html-keyboard-response","142","203395","0.0-9.0-0.54","5e99d95e0f50aa04266ad4ad","64b003020eef62ee308107cc","64b108921d744788250c993e","null","null","<p style=""font-size: 60px; font-family: BACS"">RYtkcbTE</p>","","","","","","","",""
"html-keyboard-response","143","204412","0.0-9.0-0.55","5e99d95e0f50aa04266ad4ad","64b003020eef62ee308107cc","64b108921d744788250c993e","null","null","<p style=""font-size: 60px; font-family: BACS"">NLQGmLkNc</p>","","","","","","","",""
"html-keyboard-response","144","205428","0.0-9.0-0.56","5e99d95e0f50aa04266ad4ad","64b003020eef62ee308107cc","64b108921d744788250c993e","null","null","<p style=""font-size: 60px; font-family: BACS"">YlCPBRCdc</p>","","","","","","","",""
"html-keyboard-response","145","206445","0.0-9.0-0.57","5e99d95e0f50aa04266ad4ad","64b003020eef62ee308107cc","64b108921d744788250c993e","null","null","<p style=""font-size: 60px; font-family: BACS"">TAdhMmhc</p>","","","","","","","",""
"html-keyboard-response","146","207462","0.0-9.0-0.58","5e99d95e0f50aa04266ad4ad","64b003020eef62ee308107cc","64b108921d744788250c993e","null","null","<p style=""font-size: 60px; font-family: BACS"">YlYcRCdc</p>","","","","","","","",""
"html-keyboard-response","147","208478","0.0-9.0-0.59","5e99d95e0f50aa04266ad4ad","64b003020eef62ee308107cc","64b108921d744788250c993e","null","null","<p style=""font-size: 60px; font-family: BACS"">vAuNlGUOA</p>","","","","","","","",""
"html-keyboard-response","148","209495","0.0-9.0-0.60","5e99d95e0f50aa04266ad4ad","64b003020eef62ee308107cc","64b108921d744788250c993e","null","null","<p style=""font-size: 60px; font-family: BACS"">advYOvcb</p>","","","","","","","",""
"html-keyboard-response","149","210512","0.0-9.0-0.61","5e99d95e0f50aa04266ad4ad","64b003020eef62ee308107cc","64b108921d744788250c993e","null","null","<p style=""font-size: 60px; font-family: BACS"">thbOMkKE</p>","","","","","","","",""
"html-keyboard-response","150","211528","0.0-9.0-0.62","5e99d95e0f50aa04266ad4ad","64b003020eef62ee308107cc","64b108921d744788250c993e","null","null","<p style=""font-size: 60px; font-family: BACS"">bGuOLkNc</p>","","","","","","","",""
"html-keyboard-response","151","212545","0.0-9.0-0.63","5e99d95e0f50aa04266ad4ad","64b003020eef62ee308107cc","64b108921d744788250c993e","null","null","<p style=""font-size: 60px; font-family: BACS"">TAdhMkBD</p>","","","","","","","",""
"html-keyboard-response","152","213560","0.0-9.0-0.64","5e99d95e0f50aa04266ad4ad","64b003020eef62ee308107cc","64b108921d744788250c993e","null","null","<p style=""font-size: 60px; font-family: BACS"">MTdYbTE</p>","","","","","","","",""
"html-keyboard-response","153","214577","0.0-9.0-0.65","5e99d95e0f50aa04266ad4ad","64b003020eef62ee308107cc","64b108921d744788250c993e","null","null","<p style=""font-size: 60px; font-family: BACS"">JmvmOGUOA</p>","","","","","","","",""
"html-keyboard-response","154","215578","0.0-9.0-0.66","5e99d95e0f50aa04266ad4ad","64b003020eef62ee308107cc","64b108921d744788250c993e","null","null","<p style=""font-size: 60px; font-family: BACS"">TAdhMbTE</p>","","","","","","","",""
"html-keyboard-response","155","216595","0.0-9.0-0.67","5e99d95e0f50aa04266ad4ad","64b003020eef62ee308107cc","64b108921d744788250c993e","null","null","<p style=""font-size: 60px; font-family: BACS"">thbOMkBD</p>","","","","","","","",""
"html-keyboard-response","156","217612","0.0-9.0-0.68","5e99d95e0f50aa04266ad4ad","64b003020eef62ee308107cc","64b108921d744788250c993e","null","null","<p style=""font-size: 60px; font-family: BACS"">aUZAJZr</p>","","","","","","","",""
"html-keyboard-response","157","218628","0.0-9.0-0.69","5e99d95e0f50aa04266ad4ad","64b003020eef62ee308107cc","64b108921d744788250c993e","null","null","<p style=""font-size: 60px; font-family: BACS"">alJYLkNc</p>","","","","","","","",""
"html-keyboard-response","158","219645","0.0-9.0-0.70","5e99d95e0f50aa04266ad4ad","64b003020eef62ee308107cc","64b108921d744788250c993e","null","null","<p style=""font-size: 60px; font-family: BACS"">KTDTBkBD</p>","","","","","","","",""
"html-keyboard-response","159","220662","0.0-9.0-0.71","5e99d95e0f50aa04266ad4ad","64b003020eef62ee308107cc","64b108921d744788250c993e","null","null","<p style=""font-size: 60px; font-family: BACS"">advYOGQYQ</p>","","","","","","","",""
"html-keyboard-response","160","221678","0.0-9.0-0.72","5e99d95e0f50aa04266ad4ad","64b003020eef62ee308107cc","64b108921d744788250c993e","null","null","<p style=""font-size: 60px; font-family: BACS"">TCbDCbTE</p>","","","","","","","",""
"html-keyboard-response","161","222694","0.0-9.0-0.73","5e99d95e0f50aa04266ad4ad","64b003020eef62ee308107cc","64b108921d744788250c993e","null","null","<p style=""font-size: 60px; font-family: BACS"">aUZAGUOA</p>","","","","","","","",""
"html-keyboard-response","162","223712","0.0-9.0-0.74","5e99d95e0f50aa04266ad4ad","64b003020eef62ee308107cc","64b108921d744788250c993e","null","null","<p style=""font-size: 60px; font-family: BACS"">cdKBYmhc</p>","","","","","","","",""
"html-keyboard-response","163","224728","0.0-9.0-0.75","5e99d95e0f50aa04266ad4ad","64b003020eef62ee308107cc","64b108921d744788250c993e","null","null","<p style=""font-size: 60px; font-family: BACS"">bmbNGUOA</p>","","","","","","","",""
"html-keyboard-response","164","225745","0.0-9.0-0.76","5e99d95e0f50aa04266ad4ad","64b003020eef62ee308107cc","64b108921d744788250c993e","null","null","<p style=""font-size: 60px; font-family: BACS"">UdlGQLkNc</p>","","","","","","","",""
"html-keyboard-response","165","226761","0.0-9.0-0.77","5e99d95e0f50aa04266ad4ad","64b003020eef62ee308107cc","64b108921d744788250c993e","null","null","<p style=""font-size: 60px; font-family: BACS"">MTdYkBD</p>","","","","","","","",""
"html-keyboard-response","166","227778","0.0-9.0-0.78","5e99d95e0f50aa04266ad4ad","64b003020eef62ee308107cc","64b108921d744788250c993e","null","null","<p style=""font-size: 60px; font-family: BACS"">vAuNlGQYQ</p>","","","","","","","",""
"html-keyboard-response","167","228792","0.0-9.0-0.79","5e99d95e0f50aa04266ad4ad","64b003020eef62ee308107cc","64b108921d744788250c993e","null","null","<p style=""font-size: 60px; font-family: BACS"">NLQGmGUOA</p>","","","","","","","",""
"html-keyboard-response","168","233862","0.0-10.0","5e99d95e0f50aa04266ad4ad","64b003020eef62ee308107cc","64b108921d744788250c993e","5070"," ","<p>Ottimo, hai visto il secondo blocco di parole. Ora puoi prenderti una piccola pausa.</p>
      <p>Premi la barra quando sei pronta/o per riprendere.</p>","","","","","","","",""
"html-keyboard-response","169","234878","0.0-11.0-0.0","5e99d95e0f50aa04266ad4ad","64b003020eef62ee308107cc","64b108921d744788250c993e","null","null","<p style=""font-size: 60px; font-family: BACS"">bmbNvcb</p>","","","","","","","",""
"html-keyboard-response","170","235895","0.0-11.0-0.1","5e99d95e0f50aa04266ad4ad","64b003020eef62ee308107cc","64b108921d744788250c993e","null","null","<p style=""font-size: 60px; font-family: BACS"">mBbKbTE</p>","","","","","","","",""
"html-keyboard-response","171","236911","0.0-11.0-0.2","5e99d95e0f50aa04266ad4ad","64b003020eef62ee308107cc","64b108921d744788250c993e","null","null","<p style=""font-size: 60px; font-family: BACS"">bGuOJZr</p>","","","","","","","",""
"html-keyboard-response","172","237928","0.0-11.0-0.3","5e99d95e0f50aa04266ad4ad","64b003020eef62ee308107cc","64b108921d744788250c993e","null","null","<p style=""font-size: 60px; font-family: BACS"">TAdhMkKE</p>","","","","","","","",""
"html-keyboard-response","173","238945","0.0-11.0-0.4","5e99d95e0f50aa04266ad4ad","64b003020eef62ee308107cc","64b108921d744788250c993e","null","null","<p style=""font-size: 60px; font-family: BACS"">bmbNGUOA</p>","","","","","","","",""
"html-keyboard-response","174","239960","0.0-11.0-0.5","5e99d95e0f50aa04266ad4ad","64b003020eef62ee308107cc","64b108921d744788250c993e","null","null","<p style=""font-size: 60px; font-family: BACS"">TAdhMkBD</p>","","","","","","","",""
"html-keyboard-response","175","240962","0.0-11.0-0.6","5e99d95e0f50aa04266ad4ad","64b003020eef62ee308107cc","64b108921d744788250c993e","null","null","<p style=""font-size: 60px; font-family: BACS"">YlYckKE</p>","","","","","","","",""
"html-keyboard-response","176","241978","0.0-11.0-0.7","5e99d95e0f50aa04266ad4ad","64b003020eef62ee308107cc","64b108921d744788250c993e","null","null","<p style=""font-size: 60px; font-family: BACS"">mBbKmhc</p>","","","","","","","",""
"html-keyboard-response","177","242995","0.0-11.0-0.8","5e99d95e0f50aa04266ad4ad","64b003020eef62ee308107cc","64b108921d744788250c993e","null","null","<p style=""font-size: 60px; font-family: BACS"">alJYLkNc</p>","","","","","","","",""
"html-keyboard-response","178","244011","0.0-11.0-0.9","5e99d95e0f50aa04266ad4ad","64b003020eef62ee308107cc","64b108921d744788250c993e","null","null","<p style=""font-size: 60px; font-family: BACS"">cdKBYkBD</p>","","","","","","","",""
"html-keyboard-response","179","245028","0.0-11.0-0.10","5e99d95e0f50aa04266ad4ad","64b003020eef62ee308107cc","64b108921d744788250c993e","null","null","<p style=""font-size: 60px; font-family: BACS"">YlYcbTE</p>","","","","","","","",""
"html-keyboard-response","180","246045","0.0-11.0-0.11","5e99d95e0f50aa04266ad4ad","64b003020eef62ee308107cc","64b108921d744788250c993e","null","null","<p style=""font-size: 60px; font-family: BACS"">alJYJZr</p>","","","","","","","",""
"html-keyboard-response","181","247062","0.0-11.0-0.12","5e99d95e0f50aa04266ad4ad","64b003020eef62ee308107cc","64b108921d744788250c993e","null","null","<p style=""font-size: 60px; font-family: BACS"">aUZAGUOA</p>","","","","","","","",""
"html-keyboard-response","182","248078","0.0-11.0-0.13","5e99d95e0f50aa04266ad4ad","64b003020eef62ee308107cc","64b108921d744788250c993e","null","null","<p style=""font-size: 60px; font-family: BACS"">TCbDCbTE</p>","","","","","","","",""
"html-keyboard-response","183","249095","0.0-11.0-0.14","5e99d95e0f50aa04266ad4ad","64b003020eef62ee308107cc","64b108921d744788250c993e","null","null","<p style=""font-size: 60px; font-family: BACS"">MTdYkBD</p>","","","","","","","",""
"html-keyboard-response","184","250112","0.0-11.0-0.15","5e99d95e0f50aa04266ad4ad","64b003020eef62ee308107cc","64b108921d744788250c993e","null","null","<p style=""font-size: 60px; font-family: BACS"">cdKBYkKE</p>","","","","","","","",""
"html-keyboard-response","185","251128","0.0-11.0-0.16","5e99d95e0f50aa04266ad4ad","64b003020eef62ee308107cc","64b108921d744788250c993e","null","null","<p style=""font-size: 60px; font-family: BACS"">advYOvcb</p>","","","","","","","",""
"html-keyboard-response","186","252145","0.0-11.0-0.17","5e99d95e0f50aa04266ad4ad","64b003020eef62ee308107cc","64b108921d744788250c993e","null","null","<p style=""font-size: 60px; font-family: BACS"">NLQGmGUOA</p>","","","","","","","",""
"html-keyboard-response","187","253162","0.0-11.0-0.18","5e99d95e0f50aa04266ad4ad","64b003020eef62ee308107cc","64b108921d744788250c993e","null","null","<p style=""font-size: 60px; font-family: BACS"">YlCPBRCdc</p>","","","","","","","",""
"html-keyboard-response","188","254178","0.0-11.0-0.19","5e99d95e0f50aa04266ad4ad","64b003020eef62ee308107cc","64b108921d744788250c993e","null","null","<p style=""font-size: 60px; font-family: BACS"">NLQGmLkNc</p>","","","","","","","",""
"html-keyboard-response","189","255195","0.0-11.0-0.20","5e99d95e0f50aa04266ad4ad","64b003020eef62ee308107cc","64b108921d744788250c993e","null","null","<p style=""font-size: 60px; font-family: BACS"">thbOMkKE</p>","","","","","","","",""
"html-keyboard-response","190","256212","0.0-11.0-0.21","5e99d95e0f50aa04266ad4ad","64b003020eef62ee308107cc","64b108921d744788250c993e","null","null","<p style=""font-size: 60px; font-family: BACS"">vAuNlGUOA</p>","","","","","","","",""
"html-keyboard-response","191","257228","0.0-11.0-0.22","5e99d95e0f50aa04266ad4ad","64b003020eef62ee308107cc","64b108921d744788250c993e","null","null","<p style=""font-size: 60px; font-family: BACS"">RYtkcRCdc</p>","","","","","","","",""
"html-keyboard-response","192","258245","0.0-11.0-0.23","5e99d95e0f50aa04266ad4ad","64b003020eef62ee308107cc","64b108921d744788250c993e","null","null","<p style=""font-size: 60px; font-family: BACS"">mBbKkBD</p>","","","","","","","",""
"html-keyboard-response","193","259261","0.0-11.0-0.24","5e99d95e0f50aa04266ad4ad","64b003020eef62ee308107cc","64b108921d744788250c993e","null","null","<p style=""font-size: 60px; font-family: BACS"">RYtkckKE</p>","","","","","","","",""
"html-keyboard-response","194","260279","0.0-11.0-0.25","5e99d95e0f50aa04266ad4ad","64b003020eef62ee308107cc","64b108921d744788250c993e","null","null","<p style=""font-size: 60px; font-family: BACS"">thbOMbTE</p>","","","","","","","",""
"html-keyboard-response","195","261295","0.0-11.0-0.26","5e99d95e0f50aa04266ad4ad","64b003020eef62ee308107cc","64b108921d744788250c993e","null","null","<p style=""font-size: 60px; font-family: BACS"">KTDTBmhc</p>","","","","","","","",""
"html-keyboard-response","196","262312","0.0-11.0-0.27","5e99d95e0f50aa04266ad4ad","64b003020eef62ee308107cc","64b108921d744788250c993e","null","null","<p style=""font-size: 60px; font-family: BACS"">UdlGQJZr</p>","","","","","","","",""
"html-keyboard-response","197","263328","0.0-11.0-0.28","5e99d95e0f50aa04266ad4ad","64b003020eef62ee308107cc","64b108921d744788250c993e","null","null","<p style=""font-size: 60px; font-family: BACS"">YlCPBkKE</p>","","","","","","","",""
"html-keyboard-response","198","264344","0.0-11.0-0.29","5e99d95e0f50aa04266ad4ad","64b003020eef62ee308107cc","64b108921d744788250c993e","null","null","<p style=""font-size: 60px; font-family: BACS"">UdlGQGQYQ</p>","","","","","","","",""
"html-keyboard-response","199","265362","0.0-11.0-0.30","5e99d95e0f50aa04266ad4ad","64b003020eef62ee308107cc","64b108921d744788250c993e","null","null","<p style=""font-size: 60px; font-family: BACS"">QbkAcGUOA</p>","","","","","","","",""
"html-keyboard-response","200","266379","0.0-11.0-0.31","5e99d95e0f50aa04266ad4ad","64b003020eef62ee308107cc","64b108921d744788250c993e","null","null","<p style=""font-size: 60px; font-family: BACS"">TAdhMmhc</p>","","","","","","","",""
"html-keyboard-response","201","267395","0.0-11.0-0.32","5e99d95e0f50aa04266ad4ad","64b003020eef62ee308107cc","64b108921d744788250c993e","null","null","<p style=""font-size: 60px; font-family: BACS"">YlYcRCdc</p>","","","","","","","",""
"html-keyboard-response","202","268412","0.0-11.0-0.33","5e99d95e0f50aa04266ad4ad","64b003020eef62ee308107cc","64b108921d744788250c993e","null","null","<p style=""font-size: 60px; font-family: BACS"">RYtkcbTE</p>","","","","","","","",""
"html-keyboard-response","203","269429","0.0-11.0-0.34","5e99d95e0f50aa04266ad4ad","64b003020eef62ee308107cc","64b108921d744788250c993e","null","null","<p style=""font-size: 60px; font-family: BACS"">mBbKRCdc</p>","","","","","","","",""
"html-keyboard-response","204","270445","0.0-11.0-0.35","5e99d95e0f50aa04266ad4ad","64b003020eef62ee308107cc","64b108921d744788250c993e","null","null","<p style=""font-size: 60px; font-family: BACS"">MTdYbTE</p>","","","","","","","",""
"html-keyboard-response","205","271462","0.0-11.0-0.36","5e99d95e0f50aa04266ad4ad","64b003020eef62ee308107cc","64b108921d744788250c993e","null","null","<p style=""font-size: 60px; font-family: BACS"">vAuNlLkNc</p>","","","","","","","",""
"html-keyboard-response","206","272478","0.0-11.0-0.37","5e99d95e0f50aa04266ad4ad","64b003020eef62ee308107cc","64b108921d744788250c993e","null","null","<p style=""font-size: 60px; font-family: BACS"">UdlGQvcb</p>","","","","","","","",""
"html-keyboard-response","207","273495","0.0-11.0-0.38","5e99d95e0f50aa04266ad4ad","64b003020eef62ee308107cc","64b108921d744788250c993e","null","null","<p style=""font-size: 60px; font-family: BACS"">TCbDCRCdc</p>","","","","","","","",""
"html-keyboard-response","208","274510","0.0-11.0-0.39","5e99d95e0f50aa04266ad4ad","64b003020eef62ee308107cc","64b108921d744788250c993e","null","null","<p style=""font-size: 60px; font-family: BACS"">advYOGQYQ</p>","","","","","","","",""
"html-keyboard-response","209","275529","0.0-11.0-0.40","5e99d95e0f50aa04266ad4ad","64b003020eef62ee308107cc","64b108921d744788250c993e","null","null","<p style=""font-size: 60px; font-family: BACS"">cdKBYmhc</p>","","","","","","","",""
"html-keyboard-response","210","276530","0.0-11.0-0.41","5e99d95e0f50aa04266ad4ad","64b003020eef62ee308107cc","64b108921d744788250c993e","null","null","<p style=""font-size: 60px; font-family: BACS"">JmvmOJZr</p>","","","","","","","",""
"html-keyboard-response","211","277545","0.0-11.0-0.42","5e99d95e0f50aa04266ad4ad","64b003020eef62ee308107cc","64b108921d744788250c993e","null","null","<p style=""font-size: 60px; font-family: BACS"">YlYcmhc</p>","","","","","","","",""
"html-keyboard-response","212","278562","0.0-11.0-0.43","5e99d95e0f50aa04266ad4ad","64b003020eef62ee308107cc","64b108921d744788250c993e","null","null","<p style=""font-size: 60px; font-family: BACS"">alJYGUOA</p>","","","","","","","",""
"html-keyboard-response","213","279579","0.0-11.0-0.44","5e99d95e0f50aa04266ad4ad","64b003020eef62ee308107cc","64b108921d744788250c993e","null","null","<p style=""font-size: 60px; font-family: BACS"">NLQGmGQYQ</p>","","","","","","","",""
"html-keyboard-response","214","280595","0.0-11.0-0.45","5e99d95e0f50aa04266ad4ad","64b003020eef62ee308107cc","64b108921d744788250c993e","null","null","<p style=""font-size: 60px; font-family: BACS"">bGuOvcb</p>","","","","","","","",""
"html-keyboard-response","215","281598","0.0-11.0-0.46","5e99d95e0f50aa04266ad4ad","64b003020eef62ee308107cc","64b108921d744788250c993e","null","null","<p style=""font-size: 60px; font-family: BACS"">JmvmOGQYQ</p>","","","","","","","",""
"html-keyboard-response","216","282612","0.0-11.0-0.47","5e99d95e0f50aa04266ad4ad","64b003020eef62ee308107cc","64b108921d744788250c993e","null","null","<p style=""font-size: 60px; font-family: BACS"">bGuOLkNc</p>","","","","","","","",""
"html-keyboard-response","217","283629","0.0-11.0-0.48","5e99d95e0f50aa04266ad4ad","64b003020eef62ee308107cc","64b108921d744788250c993e","null","null","<p style=""font-size: 60px; font-family: BACS"">TCbDCkKE</p>","","","","","","","",""
"html-keyboard-response","218","284645","0.0-11.0-0.49","5e99d95e0f50aa04266ad4ad","64b003020eef62ee308107cc","64b108921d744788250c993e","null","null","<p style=""font-size: 60px; font-family: BACS"">KTDTBkBD</p>","","","","","","","",""
"html-keyboard-response","219","285662","0.0-11.0-0.50","5e99d95e0f50aa04266ad4ad","64b003020eef62ee308107cc","64b108921d744788250c993e","null","null","<p style=""font-size: 60px; font-family: BACS"">TAdhMbTE</p>","","","","","","","",""
"html-keyboard-response","220","286679","0.0-11.0-0.51","5e99d95e0f50aa04266ad4ad","64b003020eef62ee308107cc","64b108921d744788250c993e","null","null","<p style=""font-size: 60px; font-family: BACS"">KTDTBkKE</p>","","","","","","","",""
"html-keyboard-response","221","287695","0.0-11.0-0.52","5e99d95e0f50aa04266ad4ad","64b003020eef62ee308107cc","64b108921d744788250c993e","null","null","<p style=""font-size: 60px; font-family: BACS"">JmvmOLkNc</p>","","","","","","","",""
"html-keyboard-response","222","288712","0.0-11.0-0.53","5e99d95e0f50aa04266ad4ad","64b003020eef62ee308107cc","64b108921d744788250c993e","null","null","<p style=""font-size: 60px; font-family: BACS"">thbOMkBD</p>","","","","","","","",""
"html-keyboard-response","223","289728","0.0-11.0-0.54","5e99d95e0f50aa04266ad4ad","64b003020eef62ee308107cc","64b108921d744788250c993e","null","null","<p style=""font-size: 60px; font-family: BACS"">bmbNLkNc</p>","","","","","","","",""
"html-keyboard-response","224","290729","0.0-11.0-0.55","5e99d95e0f50aa04266ad4ad","64b003020eef62ee308107cc","64b108921d744788250c993e","null","null","<p style=""font-size: 60px; font-family: BACS"">aUZAGQYQ</p>","","","","","","","",""
"html-keyboard-response","225","291745","0.0-11.0-0.56","5e99d95e0f50aa04266ad4ad","64b003020eef62ee308107cc","64b108921d744788250c993e","null","null","<p style=""font-size: 60px; font-family: BACS"">advYOLkNc</p>","","","","","","","",""
"html-keyboard-response","226","292762","0.0-11.0-0.57","5e99d95e0f50aa04266ad4ad","64b003020eef62ee308107cc","64b108921d744788250c993e","null","null","<p style=""font-size: 60px; font-family: BACS"">YlCPBbTE</p>","","","","","","","",""
"html-keyboard-response","227","293779","0.0-11.0-0.58","5e99d95e0f50aa04266ad4ad","64b003020eef62ee308107cc","64b108921d744788250c993e","null","null","<p style=""font-size: 60px; font-family: BACS"">QbkAcvcb</p>","","","","","","","",""
"html-keyboard-response","228","294795","0.0-11.0-0.59","5e99d95e0f50aa04266ad4ad","64b003020eef62ee308107cc","64b108921d744788250c993e","null","null","<p style=""font-size: 60px; font-family: BACS"">TCbDCmhc</p>","","","","","","","",""
"html-keyboard-response","229","295812","0.0-11.0-0.60","5e99d95e0f50aa04266ad4ad","64b003020eef62ee308107cc","64b108921d744788250c993e","null","null","<p style=""font-size: 60px; font-family: BACS"">advYOJZr</p>","","","","","","","",""
"html-keyboard-response","230","296829","0.0-11.0-0.61","5e99d95e0f50aa04266ad4ad","64b003020eef62ee308107cc","64b108921d744788250c993e","null","null","<p style=""font-size: 60px; font-family: BACS"">vAuNlvcb</p>","","","","","","","",""
"html-keyboard-response","231","297845","0.0-11.0-0.62","5e99d95e0f50aa04266ad4ad","64b003020eef62ee308107cc","64b108921d744788250c993e","null","null","<p style=""font-size: 60px; font-family: BACS"">bGuOGUOA</p>","","","","","","","",""
"html-keyboard-response","232","298862","0.0-11.0-0.63","5e99d95e0f50aa04266ad4ad","64b003020eef62ee308107cc","64b108921d744788250c993e","null","null","<p style=""font-size: 60px; font-family: BACS"">aUZAvcb</p>","","","","","","","",""
"html-keyboard-response","233","299879","0.0-11.0-0.64","5e99d95e0f50aa04266ad4ad","64b003020eef62ee308107cc","64b108921d744788250c993e","null","null","<p style=""font-size: 60px; font-family: BACS"">RYtkckBD</p>","","","","","","","",""
"html-keyboard-response","234","300895","0.0-11.0-0.65","5e99d95e0f50aa04266ad4ad","64b003020eef62ee308107cc","64b108921d744788250c993e","null","null","<p style=""font-size: 60px; font-family: BACS"">QbkAcGQYQ</p>","","","","","","","",""
"html-keyboard-response","235","301912","0.0-11.0-0.66","5e99d95e0f50aa04266ad4ad","64b003020eef62ee308107cc","64b108921d744788250c993e","null","null","<p style=""font-size: 60px; font-family: BACS"">YlCPBkBD</p>","","","","","","","",""
"html-keyboard-response","236","302929","0.0-11.0-0.67","5e99d95e0f50aa04266ad4ad","64b003020eef62ee308107cc","64b108921d744788250c993e","null","null","<p style=""font-size: 60px; font-family: BACS"">alJYGQYQ</p>","","","","","","","",""
"html-keyboard-response","237","303944","0.0-11.0-0.68","5e99d95e0f50aa04266ad4ad","64b003020eef62ee308107cc","64b108921d744788250c993e","null","null","<p style=""font-size: 60px; font-family: BACS"">thbOMmhc</p>","","","","","","","",""
"html-keyboard-response","238","304962","0.0-11.0-0.69","5e99d95e0f50aa04266ad4ad","64b003020eef62ee308107cc","64b108921d744788250c993e","null","null","<p style=""font-size: 60px; font-family: BACS"">JmvmOGUOA</p>","","","","","","","",""
"html-keyboard-response","239","305963","0.0-11.0-0.70","5e99d95e0f50aa04266ad4ad","64b003020eef62ee308107cc","64b108921d744788250c993e","null","null","<p style=""font-size: 60px; font-family: BACS"">MTdYRCdc</p>","","","","","","","",""
"html-keyboard-response","240","306979","0.0-11.0-0.71","5e99d95e0f50aa04266ad4ad","64b003020eef62ee308107cc","64b108921d744788250c993e","null","null","<p style=""font-size: 60px; font-family: BACS"">vAuNlGQYQ</p>","","","","","","","",""
"html-keyboard-response","241","307995","0.0-11.0-0.72","5e99d95e0f50aa04266ad4ad","64b003020eef62ee308107cc","64b108921d744788250c993e","null","null","<p style=""font-size: 60px; font-family: BACS"">QbkAcJZr</p>","","","","","","","",""
"html-keyboard-response","242","309012","0.0-11.0-0.73","5e99d95e0f50aa04266ad4ad","64b003020eef62ee308107cc","64b108921d744788250c993e","null","null","<p style=""font-size: 60px; font-family: BACS"">cdKBYRCdc</p>","","","","","","","",""
"html-keyboard-response","243","310029","0.0-11.0-0.74","5e99d95e0f50aa04266ad4ad","64b003020eef62ee308107cc","64b108921d744788250c993e","null","null","<p style=""font-size: 60px; font-family: BACS"">MTdYmhc</p>","","","","","","","",""
"html-keyboard-response","244","311045","0.0-11.0-0.75","5e99d95e0f50aa04266ad4ad","64b003020eef62ee308107cc","64b108921d744788250c993e","null","null","<p style=""font-size: 60px; font-family: BACS"">KTDTBRCdc</p>","","","","","","","",""
"html-keyboard-response","245","312062","0.0-11.0-0.76","5e99d95e0f50aa04266ad4ad","64b003020eef62ee308107cc","64b108921d744788250c993e","null","null","<p style=""font-size: 60px; font-family: BACS"">bmbNJZr</p>","","","","","","","",""
"html-keyboard-response","246","313079","0.0-11.0-0.77","5e99d95e0f50aa04266ad4ad","64b003020eef62ee308107cc","64b108921d744788250c993e","null","null","<p style=""font-size: 60px; font-family: BACS"">UdlGQLkNc</p>","","","","","","","",""
"html-keyboard-response","247","314095","0.0-11.0-0.78","5e99d95e0f50aa04266ad4ad","64b003020eef62ee308107cc","64b108921d744788250c993e","null","null","<p style=""font-size: 60px; font-family: BACS"">aUZAJZr</p>","","","","","","","",""
"html-keyboard-response","248","315111","0.0-11.0-0.79","5e99d95e0f50aa04266ad4ad","64b003020eef62ee308107cc","64b108921d744788250c993e","null","null","<p style=""font-size: 60px; font-family: BACS"">NLQGmvcb</p>","","","","","","","",""
"html-keyboard-response","249","319183","0.0-12.0","5e99d95e0f50aa04266ad4ad","64b003020eef62ee308107cc","64b108921d744788250c993e","4071"," ","<p>Ottimo, hai visto il terzo blocco di parole. Ora puoi prenderti una piccola pausa.</p>
      <p>Premi la barra quando sei pronta/o per riprendere.</p>","","","","","","","",""
"html-keyboard-response","250","320195","0.0-13.0-0.0","5e99d95e0f50aa04266ad4ad","64b003020eef62ee308107cc","64b108921d744788250c993e","null","null","<p style=""font-size: 60px; font-family: BACS"">YlCPBkKE</p>","","","","","","","",""
"html-keyboard-response","251","321212","0.0-13.0-0.1","5e99d95e0f50aa04266ad4ad","64b003020eef62ee308107cc","64b108921d744788250c993e","null","null","<p style=""font-size: 60px; font-family: BACS"">TCbDCmhc</p>","","","","","","","",""
"html-keyboard-response","252","322228","0.0-13.0-0.2","5e99d95e0f50aa04266ad4ad","64b003020eef62ee308107cc","64b108921d744788250c993e","null","null","<p style=""font-size: 60px; font-family: BACS"">bGuOLkNc</p>","","","","","","","",""
"html-keyboard-response","253","323245","0.0-13.0-0.3","5e99d95e0f50aa04266ad4ad","64b003020eef62ee308107cc","64b108921d744788250c993e","null","null","<p style=""font-size: 60px; font-family: BACS"">advYOGQYQ</p>","","","","","","","",""
"html-keyboard-response","254","324262","0.0-13.0-0.4","5e99d95e0f50aa04266ad4ad","64b003020eef62ee308107cc","64b108921d744788250c993e","null","null","<p style=""font-size: 60px; font-family: BACS"">KTDTBkKE</p>","","","","","","","",""
"html-keyboard-response","255","325278","0.0-13.0-0.5","5e99d95e0f50aa04266ad4ad","64b003020eef62ee308107cc","64b108921d744788250c993e","null","null","<p style=""font-size: 60px; font-family: BACS"">bmbNGUOA</p>","","","","","","","",""
"html-keyboard-response","256","326295","0.0-13.0-0.6","5e99d95e0f50aa04266ad4ad","64b003020eef62ee308107cc","64b108921d744788250c993e","null","null","<p style=""font-size: 60px; font-family: BACS"">advYOJZr</p>","","","","","","","",""
"html-keyboard-response","257","327312","0.0-13.0-0.7","5e99d95e0f50aa04266ad4ad","64b003020eef62ee308107cc","64b108921d744788250c993e","null","null","<p style=""font-size: 60px; font-family: BACS"">vAuNlGUOA</p>","","","","","","","",""
"html-keyboard-response","258","328328","0.0-13.0-0.8","5e99d95e0f50aa04266ad4ad","64b003020eef62ee308107cc","64b108921d744788250c993e","null","null","<p style=""font-size: 60px; font-family: BACS"">thbOMkBD</p>","","","","","","","",""
"html-keyboard-response","259","329345","0.0-13.0-0.9","5e99d95e0f50aa04266ad4ad","64b003020eef62ee308107cc","64b108921d744788250c993e","null","null","<p style=""font-size: 60px; font-family: BACS"">QbkAcGQYQ</p>","","","","","","","",""
"html-keyboard-response","260","330362","0.0-13.0-0.10","5e99d95e0f50aa04266ad4ad","64b003020eef62ee308107cc","64b108921d744788250c993e","null","null","<p style=""font-size: 60px; font-family: BACS"">mBbKbTE</p>","","","","","","","",""
"html-keyboard-response","261","331378","0.0-13.0-0.11","5e99d95e0f50aa04266ad4ad","64b003020eef62ee308107cc","64b108921d744788250c993e","null","null","<p style=""font-size: 60px; font-family: BACS"">JmvmOLkNc</p>","","","","","","","",""
"html-keyboard-response","262","332395","0.0-13.0-0.12","5e99d95e0f50aa04266ad4ad","64b003020eef62ee308107cc","64b108921d744788250c993e","null","null","<p style=""font-size: 60px; font-family: BACS"">TAdhMkBD</p>","","","","","","","",""
"html-keyboard-response","263","333412","0.0-13.0-0.13","5e99d95e0f50aa04266ad4ad","64b003020eef62ee308107cc","64b108921d744788250c993e","null","null","<p style=""font-size: 60px; font-family: BACS"">mBbKmhc</p>","","","","","","","",""
"html-keyboard-response","264","334428","0.0-13.0-0.14","5e99d95e0f50aa04266ad4ad","64b003020eef62ee308107cc","64b108921d744788250c993e","null","null","<p style=""font-size: 60px; font-family: BACS"">RYtkcRCdc</p>","","","","","","","",""
"html-keyboard-response","265","335445","0.0-13.0-0.15","5e99d95e0f50aa04266ad4ad","64b003020eef62ee308107cc","64b108921d744788250c993e","null","null","<p style=""font-size: 60px; font-family: BACS"">vAuNlvcb</p>","","","","","","","",""
"html-keyboard-response","266","336462","0.0-13.0-0.16","5e99d95e0f50aa04266ad4ad","64b003020eef62ee308107cc","64b108921d744788250c993e","null","null","<p style=""font-size: 60px; font-family: BACS"">NLQGmGQYQ</p>","","","","","","","",""
"html-keyboard-response","267","337478","0.0-13.0-0.17","5e99d95e0f50aa04266ad4ad","64b003020eef62ee308107cc","64b108921d744788250c993e","null","null","<p style=""font-size: 60px; font-family: BACS"">TCbDCRCdc</p>","","","","","","","",""
"html-keyboard-response","268","338495","0.0-13.0-0.18","5e99d95e0f50aa04266ad4ad","64b003020eef62ee308107cc","64b108921d744788250c993e","null","null","<p style=""font-size: 60px; font-family: BACS"">advYOLkNc</p>","","","","","","","",""
"html-keyboard-response","269","339512","0.0-13.0-0.19","5e99d95e0f50aa04266ad4ad","64b003020eef62ee308107cc","64b108921d744788250c993e","null","null","<p style=""font-size: 60px; font-family: BACS"">JmvmOGQYQ</p>","","","","","","","",""
"html-keyboard-response","270","340528","0.0-13.0-0.20","5e99d95e0f50aa04266ad4ad","64b003020eef62ee308107cc","64b108921d744788250c993e","null","null","<p style=""font-size: 60px; font-family: BACS"">MTdYkBD</p>","","","","","","","",""
"html-keyboard-response","271","341545","0.0-13.0-0.21","5e99d95e0f50aa04266ad4ad","64b003020eef62ee308107cc","64b108921d744788250c993e","null","null","<p style=""font-size: 60px; font-family: BACS"">bGuOJZr</p>","","","","","","","",""
"html-keyboard-response","272","342561","0.0-13.0-0.22","5e99d95e0f50aa04266ad4ad","64b003020eef62ee308107cc","64b108921d744788250c993e","null","null","<p style=""font-size: 60px; font-family: BACS"">aUZAGUOA</p>","","","","","","","",""
"html-keyboard-response","273","343578","0.0-13.0-0.23","5e99d95e0f50aa04266ad4ad","64b003020eef62ee308107cc","64b108921d744788250c993e","null","null","<p style=""font-size: 60px; font-family: BACS"">TCbDCbTE</p>","","","","","","","",""
"html-keyboard-response","274","344595","0.0-13.0-0.24","5e99d95e0f50aa04266ad4ad","64b003020eef62ee308107cc","64b108921d744788250c993e","null","null","<p style=""font-size: 60px; font-family: BACS"">bmbNvcb</p>","","","","","","","",""
"html-keyboard-response","275","345612","0.0-13.0-0.25","5e99d95e0f50aa04266ad4ad","64b003020eef62ee308107cc","64b108921d744788250c993e","null","null","<p style=""font-size: 60px; font-family: BACS"">RYtkcbTE</p>","","","","","","","",""
"html-keyboard-response","276","346629","0.0-13.0-0.26","5e99d95e0f50aa04266ad4ad","64b003020eef62ee308107cc","64b108921d744788250c993e","null","null","<p style=""font-size: 60px; font-family: BACS"">UdlGQGQYQ</p>","","","","","","","",""
"html-keyboard-response","277","347645","0.0-13.0-0.27","5e99d95e0f50aa04266ad4ad","64b003020eef62ee308107cc","64b108921d744788250c993e","null","null","<p style=""font-size: 60px; font-family: BACS"">MTdYbTE</p>","","","","","","","",""
"html-keyboard-response","278","348662","0.0-13.0-0.28","5e99d95e0f50aa04266ad4ad","64b003020eef62ee308107cc","64b108921d744788250c993e","null","null","<p style=""font-size: 60px; font-family: BACS"">RYtkckBD</p>","","","","","","","",""
"html-keyboard-response","279","349678","0.0-13.0-0.29","5e99d95e0f50aa04266ad4ad","64b003020eef62ee308107cc","64b108921d744788250c993e","null","null","<p style=""font-size: 60px; font-family: BACS"">MTdYmhc</p>","","","","","","","",""
"html-keyboard-response","280","350695","0.0-13.0-0.30","5e99d95e0f50aa04266ad4ad","64b003020eef62ee308107cc","64b108921d744788250c993e","null","null","<p style=""font-size: 60px; font-family: BACS"">UdlGQJZr</p>","","","","","","","",""
"html-keyboard-response","281","351712","0.0-13.0-0.31","5e99d95e0f50aa04266ad4ad","64b003020eef62ee308107cc","64b108921d744788250c993e","null","null","<p style=""font-size: 60px; font-family: BACS"">aUZAGQYQ</p>","","","","","","","",""
"html-keyboard-response","282","352729","0.0-13.0-0.32","5e99d95e0f50aa04266ad4ad","64b003020eef62ee308107cc","64b108921d744788250c993e","null","null","<p style=""font-size: 60px; font-family: BACS"">alJYLkNc</p>","","","","","","","",""
"html-keyboard-response","283","353745","0.0-13.0-0.33","5e99d95e0f50aa04266ad4ad","64b003020eef62ee308107cc","64b108921d744788250c993e","null","null","<p style=""font-size: 60px; font-family: BACS"">thbOMbTE</p>","","","","","","","",""
"html-keyboard-response","284","354762","0.0-13.0-0.34","5e99d95e0f50aa04266ad4ad","64b003020eef62ee308107cc","64b108921d744788250c993e","null","null","<p style=""font-size: 60px; font-family: BACS"">NLQGmvcb</p>","","","","","","","",""
"html-keyboard-response","285","355778","0.0-13.0-0.35","5e99d95e0f50aa04266ad4ad","64b003020eef62ee308107cc","64b108921d744788250c993e","null","null","<p style=""font-size: 60px; font-family: BACS"">alJYGQYQ</p>","","","","","","","",""
"html-keyboard-response","286","356795","0.0-13.0-0.36","5e99d95e0f50aa04266ad4ad","64b003020eef62ee308107cc","64b108921d744788250c993e","null","null","<p style=""font-size: 60px; font-family: BACS"">UdlGQLkNc</p>","","","","","","","",""
"html-keyboard-response","287","357812","0.0-13.0-0.37","5e99d95e0f50aa04266ad4ad","64b003020eef62ee308107cc","64b108921d744788250c993e","null","null","<p style=""font-size: 60px; font-family: BACS"">advYOvcb</p>","","","","","","","",""
"html-keyboard-response","288","358828","0.0-13.0-0.38","5e99d95e0f50aa04266ad4ad","64b003020eef62ee308107cc","64b108921d744788250c993e","null","null","<p style=""font-size: 60px; font-family: BACS"">thbOMmhc</p>","","","","","","","",""
"html-keyboard-response","289","359830","0.0-13.0-0.39","5e99d95e0f50aa04266ad4ad","64b003020eef62ee308107cc","64b108921d744788250c993e","null","null","<p style=""font-size: 60px; font-family: BACS"">vAuNlGQYQ</p>","","","","","","","",""
"html-keyboard-response","290","360845","0.0-13.0-0.40","5e99d95e0f50aa04266ad4ad","64b003020eef62ee308107cc","64b108921d744788250c993e","null","null","<p style=""font-size: 60px; font-family: BACS"">aUZAvcb</p>","","","","","","","",""
"html-keyboard-response","291","361847","0.0-13.0-0.41","5e99d95e0f50aa04266ad4ad","64b003020eef62ee308107cc","64b108921d744788250c993e","null","null","<p style=""font-size: 60px; font-family: BACS"">thbOMkKE</p>","","","","","","","",""
"html-keyboard-response","292","362862","0.0-13.0-0.42","5e99d95e0f50aa04266ad4ad","64b003020eef62ee308107cc","64b108921d744788250c993e","null","null","<p style=""font-size: 60px; font-family: BACS"">QbkAcJZr</p>","","","","","","","",""
"html-keyboard-response","293","363879","0.0-13.0-0.43","5e99d95e0f50aa04266ad4ad","64b003020eef62ee308107cc","64b108921d744788250c993e","null","null","<p style=""font-size: 60px; font-family: BACS"">TAdhMbTE</p>","","","","","","","",""
"html-keyboard-response","294","364895","0.0-13.0-0.44","5e99d95e0f50aa04266ad4ad","64b003020eef62ee308107cc","64b108921d744788250c993e","null","null","<p style=""font-size: 60px; font-family: BACS"">cdKBYkBD</p>","","","","","","","",""
"html-keyboard-response","295","365912","0.0-13.0-0.45","5e99d95e0f50aa04266ad4ad","64b003020eef62ee308107cc","64b108921d744788250c993e","null","null","<p style=""font-size: 60px; font-family: BACS"">YlYcbTE</p>","","","","","","","",""
"html-keyboard-response","296","366928","0.0-13.0-0.46","5e99d95e0f50aa04266ad4ad","64b003020eef62ee308107cc","64b108921d744788250c993e","null","null","<p style=""font-size: 60px; font-family: BACS"">cdKBYmhc</p>","","","","","","","",""
"html-keyboard-response","297","367945","0.0-13.0-0.47","5e99d95e0f50aa04266ad4ad","64b003020eef62ee308107cc","64b108921d744788250c993e","null","null","<p style=""font-size: 60px; font-family: BACS"">YlYckKE</p>","","","","","","","",""
"html-keyboard-response","298","368962","0.0-13.0-0.48","5e99d95e0f50aa04266ad4ad","64b003020eef62ee308107cc","64b108921d744788250c993e","null","null","<p style=""font-size: 60px; font-family: BACS"">MTdYRCdc</p>","","","","","","","",""
"html-keyboard-response","299","369979","0.0-13.0-0.49","5e99d95e0f50aa04266ad4ad","64b003020eef62ee308107cc","64b108921d744788250c993e","null","null","<p style=""font-size: 60px; font-family: BACS"">QbkAcGUOA</p>","","","","","","","",""
"html-keyboard-response","300","370995","0.0-13.0-0.50","5e99d95e0f50aa04266ad4ad","64b003020eef62ee308107cc","64b108921d744788250c993e","null","null","<p style=""font-size: 60px; font-family: BACS"">bGuOvcb</p>","","","","","","","",""
"html-keyboard-response","301","371996","0.0-13.0-0.51","5e99d95e0f50aa04266ad4ad","64b003020eef62ee308107cc","64b108921d744788250c993e","null","null","<p style=""font-size: 60px; font-family: BACS"">JmvmOGUOA</p>","","","","","","","",""
"html-keyboard-response","302","373012","0.0-13.0-0.52","5e99d95e0f50aa04266ad4ad","64b003020eef62ee308107cc","64b108921d744788250c993e","null","null","<p style=""font-size: 60px; font-family: BACS"">YlCPBbTE</p>","","","","","","","",""
"html-keyboard-response","303","374029","0.0-13.0-0.53","5e99d95e0f50aa04266ad4ad","64b003020eef62ee308107cc","64b108921d744788250c993e","null","null","<p style=""font-size: 60px; font-family: BACS"">alJYJZr</p>","","","","","","","",""
"html-keyboard-response","304","375045","0.0-13.0-0.54","5e99d95e0f50aa04266ad4ad","64b003020eef62ee308107cc","64b108921d744788250c993e","null","null","<p style=""font-size: 60px; font-family: BACS"">KTDTBRCdc</p>","","","","","","","",""
"html-keyboard-response","305","376062","0.0-13.0-0.55","5e99d95e0f50aa04266ad4ad","64b003020eef62ee308107cc","64b108921d744788250c993e","null","null","<p style=""font-size: 60px; font-family: BACS"">bmbNJZr</p>","","","","","","","",""
"html-keyboard-response","306","377078","0.0-13.0-0.56","5e99d95e0f50aa04266ad4ad","64b003020eef62ee308107cc","64b108921d744788250c993e","null","null","<p style=""font-size: 60px; font-family: BACS"">NLQGmGUOA</p>","","","","","","","",""
"html-keyboard-response","307","378095","0.0-13.0-0.57","5e99d95e0f50aa04266ad4ad","64b003020eef62ee308107cc","64b108921d744788250c993e","null","null","<p style=""font-size: 60px; font-family: BACS"">vAuNlLkNc</p>","","","","","","","",""
"html-keyboard-response","308","379112","0.0-13.0-0.58","5e99d95e0f50aa04266ad4ad","64b003020eef62ee308107cc","64b108921d744788250c993e","null","null","<p style=""font-size: 60px; font-family: BACS"">JmvmOJZr</p>","","","","","","","",""
"html-keyboard-response","309","380129","0.0-13.0-0.59","5e99d95e0f50aa04266ad4ad","64b003020eef62ee308107cc","64b108921d744788250c993e","null","null","<p style=""font-size: 60px; font-family: BACS"">NLQGmLkNc</p>","","","","","","","",""
"html-keyboard-response","310","381145","0.0-13.0-0.60","5e99d95e0f50aa04266ad4ad","64b003020eef62ee308107cc","64b108921d744788250c993e","null","null","<p style=""font-size: 60px; font-family: BACS"">cdKBYkKE</p>","","","","","","","",""
"html-keyboard-response","311","382162","0.0-13.0-0.61","5e99d95e0f50aa04266ad4ad","64b003020eef62ee308107cc","64b108921d744788250c993e","null","null","<p style=""font-size: 60px; font-family: BACS"">bmbNLkNc</p>","","","","","","","",""
"html-keyboard-response","312","383179","0.0-13.0-0.62","5e99d95e0f50aa04266ad4ad","64b003020eef62ee308107cc","64b108921d744788250c993e","null","null","<p style=""font-size: 60px; font-family: BACS"">TAdhMmhc</p>","","","","","","","",""
"html-keyboard-response","313","384180","0.0-13.0-0.63","5e99d95e0f50aa04266ad4ad","64b003020eef62ee308107cc","64b108921d744788250c993e","null","null","<p style=""font-size: 60px; font-family: BACS"">mBbKRCdc</p>","","","","","","","",""
"html-keyboard-response","314","385195","0.0-13.0-0.64","5e99d95e0f50aa04266ad4ad","64b003020eef62ee308107cc","64b108921d744788250c993e","null","null","<p style=""font-size: 60px; font-family: BACS"">bGuOGUOA</p>","","","","","","","",""
"html-keyboard-response","315","386212","0.0-13.0-0.65","5e99d95e0f50aa04266ad4ad","64b003020eef62ee308107cc","64b108921d744788250c993e","null","null","<p style=""font-size: 60px; font-family: BACS"">KTDTBmhc</p>","","","","","","","",""
"html-keyboard-response","316","387229","0.0-13.0-0.66","5e99d95e0f50aa04266ad4ad","64b003020eef62ee308107cc","64b108921d744788250c993e","null","null","<p style=""font-size: 60px; font-family: BACS"">YlYcRCdc</p>","","","","","","","",""
"html-keyboard-response","317","388245","0.0-13.0-0.67","5e99d95e0f50aa04266ad4ad","64b003020eef62ee308107cc","64b108921d744788250c993e","null","null","<p style=""font-size: 60px; font-family: BACS"">QbkAcvcb</p>","","","","","","","",""
"html-keyboard-response","318","389262","0.0-13.0-0.68","5e99d95e0f50aa04266ad4ad","64b003020eef62ee308107cc","64b108921d744788250c993e","null","null","<p style=""font-size: 60px; font-family: BACS"">TAdhMkKE</p>","","","","","","","",""
"html-keyboard-response","319","390279","0.0-13.0-0.69","5e99d95e0f50aa04266ad4ad","64b003020eef62ee308107cc","64b108921d744788250c993e","null","null","<p style=""font-size: 60px; font-family: BACS"">YlCPBRCdc</p>","","","","","","","",""
"html-keyboard-response","320","391280","0.0-13.0-0.70","5e99d95e0f50aa04266ad4ad","64b003020eef62ee308107cc","64b108921d744788250c993e","null","null","<p style=""font-size: 60px; font-family: BACS"">aUZAJZr</p>","","","","","","","",""
"html-keyboard-response","321","392295","0.0-13.0-0.71","5e99d95e0f50aa04266ad4ad","64b003020eef62ee308107cc","64b108921d744788250c993e","null","null","<p style=""font-size: 60px; font-family: BACS"">alJYGUOA</p>","","","","","","","",""
"html-keyboard-response","322","393312","0.0-13.0-0.72","5e99d95e0f50aa04266ad4ad","64b003020eef62ee308107cc","64b108921d744788250c993e","null","null","<p style=""font-size: 60px; font-family: BACS"">KTDTBkBD</p>","","","","","","","",""
"html-keyboard-response","323","394328","0.0-13.0-0.73","5e99d95e0f50aa04266ad4ad","64b003020eef62ee308107cc","64b108921d744788250c993e","null","null","<p style=""font-size: 60px; font-family: BACS"">RYtkckKE</p>","","","","","","","",""
"html-keyboard-response","324","395346","0.0-13.0-0.74","5e99d95e0f50aa04266ad4ad","64b003020eef62ee308107cc","64b108921d744788250c993e","null","null","<p style=""font-size: 60px; font-family: BACS"">YlCPBkBD</p>","","","","","","","",""
"html-keyboard-response","325","396362","0.0-13.0-0.75","5e99d95e0f50aa04266ad4ad","64b003020eef62ee308107cc","64b108921d744788250c993e","null","null","<p style=""font-size: 60px; font-family: BACS"">UdlGQvcb</p>","","","","","","","",""
"html-keyboard-response","326","397379","0.0-13.0-0.76","5e99d95e0f50aa04266ad4ad","64b003020eef62ee308107cc","64b108921d744788250c993e","null","null","<p style=""font-size: 60px; font-family: BACS"">mBbKkBD</p>","","","","","","","",""
"html-keyboard-response","327","398395","0.0-13.0-0.77","5e99d95e0f50aa04266ad4ad","64b003020eef62ee308107cc","64b108921d744788250c993e","null","null","<p style=""font-size: 60px; font-family: BACS"">TCbDCkKE</p>","","","","","","","",""
"html-keyboard-response","328","399412","0.0-13.0-0.78","5e99d95e0f50aa04266ad4ad","64b003020eef62ee308107cc","64b108921d744788250c993e","null","null","<p style=""font-size: 60px; font-family: BACS"">YlYcmhc</p>","","","","","","","",""
"html-keyboard-response","329","400429","0.0-13.0-0.79","5e99d95e0f50aa04266ad4ad","64b003020eef62ee308107cc","64b108921d744788250c993e","null","null","<p style=""font-size: 60px; font-family: BACS"">cdKBYRCdc</p>","","","","","","","",""
"html-keyboard-response","330","403951","0.0-14.0","5e99d95e0f50aa04266ad4ad","64b003020eef62ee308107cc","64b108921d744788250c993e","3522"," ","<p>Ottimo, hai visto il quarto blocco di parole. Ora puoi prenderti una piccola pausa.</p>
      <p>Premi la barra quando sei pronta/o per riprendere.</p>","","","","","","","",""
"html-keyboard-response","331","404962","0.0-15.0-0.0","5e99d95e0f50aa04266ad4ad","64b003020eef62ee308107cc","64b108921d744788250c993e","null","null","<p style=""font-size: 60px; font-family: BACS"">YlCPBbTE</p>","","","","","","","",""
"html-keyboard-response","332","405979","0.0-15.0-0.1","5e99d95e0f50aa04266ad4ad","64b003020eef62ee308107cc","64b108921d744788250c993e","null","null","<p style=""font-size: 60px; font-family: BACS"">YlCPBbTE</p>","","","","","","","",""
"html-keyboard-response","333","406996","0.0-15.0-0.2","5e99d95e0f50aa04266ad4ad","64b003020eef62ee308107cc","64b108921d744788250c993e","null","null","<p style=""font-size: 60px; font-family: BACS"">YlCPBbTE</p>","","","","","","","",""
"html-keyboard-response","334","408012","0.0-15.0-0.3","5e99d95e0f50aa04266ad4ad","64b003020eef62ee308107cc","64b108921d744788250c993e","null","null","<p style=""font-size: 60px; font-family: BACS"">YlCPBbTE</p>","","","","","","","",""
"html-keyboard-response","335","409029","0.0-15.0-0.4","5e99d95e0f50aa04266ad4ad","64b003020eef62ee308107cc","64b108921d744788250c993e","null","null","<p style=""font-size: 60px; font-family: BACS"">YlCPBbTE</p>","","","","","","","",""
"html-keyboard-response","336","410045","0.0-15.0-0.5","5e99d95e0f50aa04266ad4ad","64b003020eef62ee308107cc","64b108921d744788250c993e","null","null","<p style=""font-size: 60px; font-family: BACS"">YlCPBbTE</p>","","","","","","","",""
"html-keyboard-response","337","411062","0.0-15.0-0.6","5e99d95e0f50aa04266ad4ad","64b003020eef62ee308107cc","64b108921d744788250c993e","null","null","<p style=""font-size: 60px; font-family: BACS"">YlCPBbTE</p>","","","","","","","",""
"html-keyboard-response","338","412079","0.0-15.0-0.7","5e99d95e0f50aa04266ad4ad","64b003020eef62ee308107cc","64b108921d744788250c993e","null","null","<p style=""font-size: 60px; font-family: BACS"">YlCPBbTE</p>","","","","","","","",""
"html-keyboard-response","339","413095","0.0-15.0-0.8","5e99d95e0f50aa04266ad4ad","64b003020eef62ee308107cc","64b108921d744788250c993e","null","null","<p style=""font-size: 60px; font-family: BACS"">YlCPBbTE</p>","","","","","","","",""
"html-keyboard-response","340","414112","0.0-15.0-0.9","5e99d95e0f50aa04266ad4ad","64b003020eef62ee308107cc","64b108921d744788250c993e","null","null","<p style=""font-size: 60px; font-family: BACS"">YlCPBbTE</p>","","","","","","","",""
"html-keyboard-response","341","415129","0.0-15.0-0.10","5e99d95e0f50aa04266ad4ad","64b003020eef62ee308107cc","64b108921d744788250c993e","null","null","<p style=""font-size: 60px; font-family: BACS"">YlCPBbTE</p>","","","","","","","",""
"html-keyboard-response","342","416145","0.0-15.0-0.11","5e99d95e0f50aa04266ad4ad","64b003020eef62ee308107cc","64b108921d744788250c993e","null","null","<p style=""font-size: 60px; font-family: BACS"">YlCPBbTE</p>","","","","","","","",""
"html-keyboard-response","343","417162","0.0-15.0-0.12","5e99d95e0f50aa04266ad4ad","64b003020eef62ee308107cc","64b108921d744788250c993e","null","null","<p style=""font-size: 60px; font-family: BACS"">YlCPBbTE</p>","","","","","","","",""
"html-keyboard-response","344","418179","0.0-15.0-0.13","5e99d95e0f50aa04266ad4ad","64b003020eef62ee308107cc","64b108921d744788250c993e","null","null","<p style=""font-size: 60px; font-family: BACS"">YlCPBbTE</p>","","","","","","","",""
"html-keyboard-response","345","419196","0.0-15.0-0.14","5e99d95e0f50aa04266ad4ad","64b003020eef62ee308107cc","64b108921d744788250c993e","null","null","<p style=""font-size: 60px; font-family: BACS"">YlCPBbTE</p>","","","","","","","",""
"html-keyboard-response","346","420204","0.0-15.0-0.15","5e99d95e0f50aa04266ad4ad","64b003020eef62ee308107cc","64b108921d744788250c993e","null","null","<p style=""font-size: 60px; font-family: BACS"">YlCPBbTE</p>","","","","","","","",""
"html-keyboard-response","347","421212","0.0-15.0-0.16","5e99d95e0f50aa04266ad4ad","64b003020eef62ee308107cc","64b108921d744788250c993e","null","null","<p style=""font-size: 60px; font-family: BACS"">YlCPBbTE</p>","","","","","","","",""
"html-keyboard-response","348","422229","0.0-15.0-0.17","5e99d95e0f50aa04266ad4ad","64b003020eef62ee308107cc","64b108921d744788250c993e","null","null","<p style=""font-size: 60px; font-family: BACS"">YlCPBbTE</p>","","","","","","","",""
"html-keyboard-response","349","423246","0.0-15.0-0.18","5e99d95e0f50aa04266ad4ad","64b003020eef62ee308107cc","64b108921d744788250c993e","null","null","<p style=""font-size: 60px; font-family: BACS"">YlCPBbTE</p>","","","","","","","",""
"html-keyboard-response","350","424262","0.0-15.0-0.19","5e99d95e0f50aa04266ad4ad","64b003020eef62ee308107cc","64b108921d744788250c993e","null","null","<p style=""font-size: 60px; font-family: BACS"">YlCPBbTE</p>","","","","","","","",""
"html-keyboard-response","351","425279","0.0-15.0-0.20","5e99d95e0f50aa04266ad4ad","64b003020eef62ee308107cc","64b108921d744788250c993e","null","null","<p style=""font-size: 60px; font-family: BACS"">YlCPBbTE</p>","","","","","","","",""
"html-keyboard-response","352","426296","0.0-15.0-0.21","5e99d95e0f50aa04266ad4ad","64b003020eef62ee308107cc","64b108921d744788250c993e","null","null","<p style=""font-size: 60px; font-family: BACS"">YlCPBbTE</p>","","","","","","","",""
"html-keyboard-response","353","427312","0.0-15.0-0.22","5e99d95e0f50aa04266ad4ad","64b003020eef62ee308107cc","64b108921d744788250c993e","null","null","<p style=""font-size: 60px; font-family: BACS"">YlCPBbTE</p>","","","","","","","",""
"html-keyboard-response","354","428329","0.0-15.0-0.23","5e99d95e0f50aa04266ad4ad","64b003020eef62ee308107cc","64b108921d744788250c993e","null","null","<p style=""font-size: 60px; font-family: BACS"">YlCPBbTE</p>","","","","","","","",""
"html-keyboard-response","355","429346","0.0-15.0-0.24","5e99d95e0f50aa04266ad4ad","64b003020eef62ee308107cc","64b108921d744788250c993e","null","null","<p style=""font-size: 60px; font-family: BACS"">YlCPBbTE</p>","","","","","","","",""
"html-keyboard-response","356","430362","0.0-15.0-0.25","5e99d95e0f50aa04266ad4ad","64b003020eef62ee308107cc","64b108921d744788250c993e","null","null","<p style=""font-size: 60px; font-family: BACS"">YlCPBbTE</p>","","","","","","","",""
"html-keyboard-response","357","431379","0.0-15.0-0.26","5e99d95e0f50aa04266ad4ad","64b003020eef62ee308107cc","64b108921d744788250c993e","null","null","<p style=""font-size: 60px; font-family: BACS"">YlCPBbTE</p>","","","","","","","",""
"html-keyboard-response","358","432395","0.0-15.0-0.27","5e99d95e0f50aa04266ad4ad","64b003020eef62ee308107cc","64b108921d744788250c993e","null","null","<p style=""font-size: 60px; font-family: BACS"">YlCPBbTE</p>","","","","","","","",""
"html-keyboard-response","359","433412","0.0-15.0-0.28","5e99d95e0f50aa04266ad4ad","64b003020eef62ee308107cc","64b108921d744788250c993e","null","null","<p style=""font-size: 60px; font-family: BACS"">YlCPBbTE</p>","","","","","","","",""
"html-keyboard-response","360","434427","0.0-15.0-0.29","5e99d95e0f50aa04266ad4ad","64b003020eef62ee308107cc","64b108921d744788250c993e","null","null","<p style=""font-size: 60px; font-family: BACS"">YlCPBbTE</p>","","","","","","","",""
"html-keyboard-response","361","435429","0.0-15.0-0.30","5e99d95e0f50aa04266ad4ad","64b003020eef62ee308107cc","64b108921d744788250c993e","null","null","<p style=""font-size: 60px; font-family: BACS"">YlCPBbTE</p>","","","","","","","",""
"html-keyboard-response","362","436445","0.0-15.0-0.31","5e99d95e0f50aa04266ad4ad","64b003020eef62ee308107cc","64b108921d744788250c993e","null","null","<p style=""font-size: 60px; font-family: BACS"">YlCPBbTE</p>","","","","","","","",""
"html-keyboard-response","363","437462","0.0-15.0-0.32","5e99d95e0f50aa04266ad4ad","64b003020eef62ee308107cc","64b108921d744788250c993e","null","null","<p style=""font-size: 60px; font-family: BACS"">YlCPBbTE</p>","","","","","","","",""
"html-keyboard-response","364","438479","0.0-15.0-0.33","5e99d95e0f50aa04266ad4ad","64b003020eef62ee308107cc","64b108921d744788250c993e","null","null","<p style=""font-size: 60px; font-family: BACS"">YlCPBbTE</p>","","","","","","","",""
"html-keyboard-response","365","439496","0.0-15.0-0.34","5e99d95e0f50aa04266ad4ad","64b003020eef62ee308107cc","64b108921d744788250c993e","null","null","<p style=""font-size: 60px; font-family: BACS"">YlCPBbTE</p>","","","","","","","",""
"html-keyboard-response","366","440512","0.0-15.0-0.35","5e99d95e0f50aa04266ad4ad","64b003020eef62ee308107cc","64b108921d744788250c993e","null","null","<p style=""font-size: 60px; font-family: BACS"">YlCPBbTE</p>","","","","","","","",""
"html-keyboard-response","367","441529","0.0-15.0-0.36","5e99d95e0f50aa04266ad4ad","64b003020eef62ee308107cc","64b108921d744788250c993e","null","null","<p style=""font-size: 60px; font-family: BACS"">YlCPBbTE</p>","","","","","","","",""
"html-keyboard-response","368","442546","0.0-15.0-0.37","5e99d95e0f50aa04266ad4ad","64b003020eef62ee308107cc","64b108921d744788250c993e","null","null","<p style=""font-size: 60px; font-family: BACS"">YlCPBbTE</p>","","","","","","","",""
"html-keyboard-response","369","443562","0.0-15.0-0.38","5e99d95e0f50aa04266ad4ad","64b003020eef62ee308107cc","64b108921d744788250c993e","null","null","<p style=""font-size: 60px; font-family: BACS"">YlCPBbTE</p>","","","","","","","",""
"html-keyboard-response","370","444579","0.0-15.0-0.39","5e99d95e0f50aa04266ad4ad","64b003020eef62ee308107cc","64b108921d744788250c993e","null","null","<p style=""font-size: 60px; font-family: BACS"">YlCPBbTE</p>","","","","","","","",""
"html-keyboard-response","371","445596","0.0-15.0-0.40","5e99d95e0f50aa04266ad4ad","64b003020eef62ee308107cc","64b108921d744788250c993e","null","null","<p style=""font-size: 60px; font-family: BACS"">YlCPBbTE</p>","","","","","","","",""
"html-keyboard-response","372","446613","0.0-15.0-0.41","5e99d95e0f50aa04266ad4ad","64b003020eef62ee308107cc","64b108921d744788250c993e","null","null","<p style=""font-size: 60px; font-family: BACS"">YlCPBbTE</p>","","","","","","","",""
"html-keyboard-response","373","447629","0.0-15.0-0.42","5e99d95e0f50aa04266ad4ad","64b003020eef62ee308107cc","64b108921d744788250c993e","null","null","<p style=""font-size: 60px; font-family: BACS"">YlCPBbTE</p>","","","","","","","",""
"html-keyboard-response","374","448646","0.0-15.0-0.43","5e99d95e0f50aa04266ad4ad","64b003020eef62ee308107cc","64b108921d744788250c993e","null","null","<p style=""font-size: 60px; font-family: BACS"">YlCPBbTE</p>","","","","","","","",""
"html-keyboard-response","375","449647","0.0-15.0-0.44","5e99d95e0f50aa04266ad4ad","64b003020eef62ee308107cc","64b108921d744788250c993e","null","null","<p style=""font-size: 60px; font-family: BACS"">YlCPBbTE</p>","","","","","","","",""
"html-keyboard-response","376","450663","0.0-15.0-0.45","5e99d95e0f50aa04266ad4ad","64b003020eef62ee308107cc","64b108921d744788250c993e","null","null","<p style=""font-size: 60px; font-family: BACS"">YlCPBbTE</p>","","","","","","","",""
"html-keyboard-response","377","451679","0.0-15.0-0.46","5e99d95e0f50aa04266ad4ad","64b003020eef62ee308107cc","64b108921d744788250c993e","null","null","<p style=""font-size: 60px; font-family: BACS"">YlCPBbTE</p>","","","","","","","",""
"html-keyboard-response","378","452696","0.0-15.0-0.47","5e99d95e0f50aa04266ad4ad","64b003020eef62ee308107cc","64b108921d744788250c993e","null","null","<p style=""font-size: 60px; font-family: BACS"">YlCPBbTE</p>","","","","","","","",""
"html-keyboard-response","379","453713","0.0-15.0-0.48","5e99d95e0f50aa04266ad4ad","64b003020eef62ee308107cc","64b108921d744788250c993e","null","null","<p style=""font-size: 60px; font-family: BACS"">YlCPBbTE</p>","","","","","","","",""
"html-keyboard-response","380","454729","0.0-15.0-0.49","5e99d95e0f50aa04266ad4ad","64b003020eef62ee308107cc","64b108921d744788250c993e","null","null","<p style=""font-size: 60px; font-family: BACS"">YlCPBbTE</p>","","","","","","","",""
"html-keyboard-response","381","455746","0.0-15.0-0.50","5e99d95e0f50aa04266ad4ad","64b003020eef62ee308107cc","64b108921d744788250c993e","null","null","<p style=""font-size: 60px; font-family: BACS"">YlCPBbTE</p>","","","","","","","",""
"html-keyboard-response","382","456763","0.0-15.0-0.51","5e99d95e0f50aa04266ad4ad","64b003020eef62ee308107cc","64b108921d744788250c993e","null","null","<p style=""font-size: 60px; font-family: BACS"">YlCPBbTE</p>","","","","","","","",""
"html-keyboard-response","383","457779","0.0-15.0-0.52","5e99d95e0f50aa04266ad4ad","64b003020eef62ee308107cc","64b108921d744788250c993e","null","null","<p style=""font-size: 60px; font-family: BACS"">YlCPBbTE</p>","","","","","","","",""
"html-keyboard-response","384","458795","0.0-15.0-0.53","5e99d95e0f50aa04266ad4ad","64b003020eef62ee308107cc","64b108921d744788250c993e","null","null","<p style=""font-size: 60px; font-family: BACS"">YlCPBbTE</p>","","","","","","","",""
"html-keyboard-response","385","459812","0.0-15.0-0.54","5e99d95e0f50aa04266ad4ad","64b003020eef62ee308107cc","64b108921d744788250c993e","null","null","<p style=""font-size: 60px; font-family: BACS"">YlCPBbTE</p>","","","","","","","",""
"html-keyboard-response","386","460829","0.0-15.0-0.55","5e99d95e0f50aa04266ad4ad","64b003020eef62ee308107cc","64b108921d744788250c993e","null","null","<p style=""font-size: 60px; font-family: BACS"">YlCPBbTE</p>","","","","","","","",""
"html-keyboard-response","387","461842","0.0-15.0-0.56","5e99d95e0f50aa04266ad4ad","64b003020eef62ee308107cc","64b108921d744788250c993e","null","null","<p style=""font-size: 60px; font-family: BACS"">YlCPBbTE</p>","","","","","","","",""
"html-keyboard-response","388","462846","0.0-15.0-0.57","5e99d95e0f50aa04266ad4ad","64b003020eef62ee308107cc","64b108921d744788250c993e","null","null","<p style=""font-size: 60px; font-family: BACS"">YlCPBbTE</p>","","","","","","","",""
"html-keyboard-response","389","463862","0.0-15.0-0.58","5e99d95e0f50aa04266ad4ad","64b003020eef62ee308107cc","64b108921d744788250c993e","null","null","<p style=""font-size: 60px; font-family: BACS"">YlCPBbTE</p>","","","","","","","",""
"html-keyboard-response","390","464879","0.0-15.0-0.59","5e99d95e0f50aa04266ad4ad","64b003020eef62ee308107cc","64b108921d744788250c993e","null","null","<p style=""font-size: 60px; font-family: BACS"">YlCPBbTE</p>","","","","","","","",""
"html-keyboard-response","391","465896","0.0-15.0-0.60","5e99d95e0f50aa04266ad4ad","64b003020eef62ee308107cc","64b108921d744788250c993e","null","null","<p style=""font-size: 60px; font-family: BACS"">YlCPBbTE</p>","","","","","","","",""
"html-keyboard-response","392","466913","0.0-15.0-0.61","5e99d95e0f50aa04266ad4ad","64b003020eef62ee308107cc","64b108921d744788250c993e","null","null","<p style=""font-size: 60px; font-family: BACS"">YlCPBbTE</p>","","","","","","","",""
"html-keyboard-response","393","467929","0.0-15.0-0.62","5e99d95e0f50aa04266ad4ad","64b003020eef62ee308107cc","64b108921d744788250c993e","null","null","<p style=""font-size: 60px; font-family: BACS"">YlCPBbTE</p>","","","","","","","",""
"html-keyboard-response","394","468946","0.0-15.0-0.63","5e99d95e0f50aa04266ad4ad","64b003020eef62ee308107cc","64b108921d744788250c993e","null","null","<p style=""font-size: 60px; font-family: BACS"">YlCPBbTE</p>","","","","","","","",""
"html-keyboard-response","395","469963","0.0-15.0-0.64","5e99d95e0f50aa04266ad4ad","64b003020eef62ee308107cc","64b108921d744788250c993e","null","null","<p style=""font-size: 60px; font-family: BACS"">YlCPBbTE</p>","","","","","","","",""
"html-keyboard-response","396","470979","0.0-15.0-0.65","5e99d95e0f50aa04266ad4ad","64b003020eef62ee308107cc","64b108921d744788250c993e","null","null","<p style=""font-size: 60px; font-family: BACS"">YlCPBbTE</p>","","","","","","","",""
"html-keyboard-response","397","471996","0.0-15.0-0.66","5e99d95e0f50aa04266ad4ad","64b003020eef62ee308107cc","64b108921d744788250c993e","null","null","<p style=""font-size: 60px; font-family: BACS"">YlCPBbTE</p>","","","","","","","",""
"html-keyboard-response","398","473013","0.0-15.0-0.67","5e99d95e0f50aa04266ad4ad","64b003020eef62ee308107cc","64b108921d744788250c993e","null","null","<p style=""font-size: 60px; font-family: BACS"">YlCPBbTE</p>","","","","","","","",""
"html-keyboard-response","399","474029","0.0-15.0-0.68","5e99d95e0f50aa04266ad4ad","64b003020eef62ee308107cc","64b108921d744788250c993e","null","null","<p style=""font-size: 60px; font-family: BACS"">YlCPBbTE</p>","","","","","","","",""
"html-keyboard-response","400","475046","0.0-15.0-0.69","5e99d95e0f50aa04266ad4ad","64b003020eef62ee308107cc","64b108921d744788250c993e","null","null","<p style=""font-size: 60px; font-family: BACS"">YlCPBbTE</p>","","","","","","","",""
