"trial_type","trial_index","time_elapsed","internal_node_id","subject_id","study_id","session_id","rt","response","stimulus","success","item","task","correct_response","testing_condition","correct","target","confound","name"
"pavlovia","0","633","0.0-0.0","5b715800b31d480001eda165","64e77d7b61f440b60e28659d","64ec9487a1a8a4ad7cf5793b","","","","","","","","","","","",""
"survey-html-form","1","11189","0.0-1.0","5b715800b31d480001eda165","64e77d7b61f440b60e28659d","64ec9487a1a8a4ad7cf5793b","10555","{""ID"":""5b715800b31d480001eda165""}","","","","","","","","","",""
"html-keyboard-response","2","20467","0.0-2.0","5b715800b31d480001eda165","64e77d7b61f440b60e28659d","64ec9487a1a8a4ad7cf5793b","9277"," ","<p style=""font-size: 15px;"">Before beginning, we ask that you read the consent information and confirm your agreement to participate in the experiment.</p>
      <p style=""font-size: 15px;""> We ask that you remember that this is a research project and that your participation is entirely voluntary. You can stop your participation at any time, without needing to provide any explanation. The study we're asking you to participate in aims at examining how readers process written words. You will be engaged in a session of apprximately 20 minutes, followed by a brief questionnaire. You will have the opportunity to take a few breaks during the experiment. You will be paid £4 for your participation, corresponding to a rate of £8/hour. While this experiment looks at cognitive faculties, this experiment doesn't constitute clinical proof of eventual pathologies.</p>
      <p style=""font-size: 15px;"">All of the information collected thanks to yours and others' participation will be held in a secure password-protected server, and will not be shared with anyone not authorised to view it. Your personal information will be kept with an arbitrary participant ID. Thanks to this data anonymity process, any researcher analysing the data won't be able to track the information back to a specific participant. Therefore, this process will make identifying you impossibile, even when results from the study will be published in scientific reviews, presented at congresses, or at any other public forum. More generally, the collected data will be treated in accordance with the laws on privacy and conformity to the Legislative Degree n. 196 ""Code regarding the protection of personal data"" of the 30th of June 2003 and to the European Regulation 2016/670 (General Data Protection Regulation - GDPR). The Data Protection Officer is Avv. Valentina Carollo, who can be contacted at the following email addresses: <a href=""mailto:dpo@sissa.it"">dpo@sissa.it</a> or <a href=""mailto:rpd@sissa.it"">rpd@sissa.it</a> - PEC: <a href=""mailto:protocollo@pec.sissa.it"">protocollo@pec.sissa.it</a>.</p>
      <p style=""font-size: 15px;""> Before expressing your consent to participate, we would like to remind you again that in case you need explanations on any aspect of the experimental procedure, the researcher is at your disposition (<a href=""mailto:aliebelt@sissa.it"">aliebelt@sissa.it</a>, <a href=""mailto:davide.crepaldi@sissa.it"">davide.crepaldi@sissa.it</a>).</p>
      <p style=""font-size: 15px;"">If you would like to download the informed consent form, you can do so here: <a href=""BASL-Informed_Consent.pdf"" download>informed consent form</a>.</p>
      <p style=""font-size: 15px;"">We ask that you press the spacebar to proceed to the consent section.</p>","","","","","","","","",""
"survey-html-form","3","46099","0.0-3.0","5b715800b31d480001eda165","64e77d7b61f440b60e28659d","64ec9487a1a8a4ad7cf5793b","25630","{""consent1"":""YES"",""consent2"":""YES"",""consent3"":""YES"",""consent4"":""YES"",""consent5"":""YES"",""consent6"":""YES""}","","","","","","","","","",""
"fullscreen","4","51644","0.0-4.0","5b715800b31d480001eda165","64e77d7b61f440b60e28659d","64ec9487a1a8a4ad7cf5793b","","","","true","","","","","","","",""
"html-keyboard-response","5","67475","0.0-5.0","5b715800b31d480001eda165","64e77d7b61f440b60e28659d","64ec9487a1a8a4ad7cf5793b","15829"," ","<p>Welcome, and thank you very much for your time!</p>
      <p>In this experiment, you'll be a language expert who's been asked to take a look at words that Earth has received in its first communication with aliens. Your task, in this first part of the experiment, is to pay close attention to the words you'll be shown; later, world leaders will ask you questions on what you saw. The words will be shown to you quite quickly; it seems that the aliens were in a hurry :-)</p>
      <p>Press the spacebar to continue.<p>","","","","","","","","",""
"html-keyboard-response","6","78389","0.0-6.0","5b715800b31d480001eda165","64e77d7b61f440b60e28659d","64ec9487a1a8a4ad7cf5793b","10914"," ","<p>Here is an example of the words you'll see:</p>
      <img src='esempio.png' height='400px'>
      <p>When you're ready to begin, press the spacebar.</p></div>","","","","","","","","",""
"html-keyboard-response","7","79405","0.0-7.0-0.0","5b715800b31d480001eda165","64e77d7b61f440b60e28659d","64ec9487a1a8a4ad7cf5793b","null","null","<p style=""font-size: 60px; font-family: BACS"">lBlETAm</p>","","","","","","","","",""
"html-keyboard-response","8","80411","0.0-7.0-0.1","5b715800b31d480001eda165","64e77d7b61f440b60e28659d","64ec9487a1a8a4ad7cf5793b","null","null","<p style=""font-size: 60px; font-family: BACS"">vmuLlmLJ</p>","","","","","","","","",""
"html-keyboard-response","9","81413","0.0-7.0-0.2","5b715800b31d480001eda165","64e77d7b61f440b60e28659d","64ec9487a1a8a4ad7cf5793b","null","null","<p style=""font-size: 60px; font-family: BACS"">YmBdDbMR</p>","","","","","","","","",""
"html-keyboard-response","10","82417","0.0-7.0-0.3","5b715800b31d480001eda165","64e77d7b61f440b60e28659d","64ec9487a1a8a4ad7cf5793b","null","null","<p style=""font-size: 60px; font-family: BACS"">OEPkYKPB</p>","","","","","","","","",""
"html-keyboard-response","11","83428","0.0-7.0-0.4","5b715800b31d480001eda165","64e77d7b61f440b60e28659d","64ec9487a1a8a4ad7cf5793b","null","null","<p style=""font-size: 60px; font-family: BACS"">kGamNmkc</p>","","","","","","","","",""
"html-keyboard-response","12","84428","0.0-7.0-0.5","5b715800b31d480001eda165","64e77d7b61f440b60e28659d","64ec9487a1a8a4ad7cf5793b","null","null","<p style=""font-size: 60px; font-family: BACS"">kLvdNZAUu</p>","","","","","","","","",""
"html-keyboard-response","13","85438","0.0-7.0-0.6","5b715800b31d480001eda165","64e77d7b61f440b60e28659d","64ec9487a1a8a4ad7cf5793b","null","null","<p style=""font-size: 60px; font-family: BACS"">YmBdYKPB</p>","","","","","","","","",""
"html-keyboard-response","14","86439","0.0-7.0-0.7","5b715800b31d480001eda165","64e77d7b61f440b60e28659d","64ec9487a1a8a4ad7cf5793b","null","null","<p style=""font-size: 60px; font-family: BACS"">OAmAdYDE</p>","","","","","","","","",""
"html-keyboard-response","15","87445","0.0-7.0-0.8","5b715800b31d480001eda165","64e77d7b61f440b60e28659d","64ec9487a1a8a4ad7cf5793b","null","null","<p style=""font-size: 60px; font-family: BACS"">tcYbdTRkY</p>","","","","","","","","",""
"html-keyboard-response","16","88475","0.0-7.0-0.9","5b715800b31d480001eda165","64e77d7b61f440b60e28659d","64ec9487a1a8a4ad7cf5793b","null","null","<p style=""font-size: 60px; font-family: BACS"">LvuOGmkc</p>","","","","","","","","",""
"html-keyboard-response","17","89477","0.0-7.0-0.10","5b715800b31d480001eda165","64e77d7b61f440b60e28659d","64ec9487a1a8a4ad7cf5793b","null","null","<p style=""font-size: 60px; font-family: BACS"">hlbtbYDE</p>","","","","","","","","",""
"html-keyboard-response","18","90486","0.0-7.0-0.11","5b715800b31d480001eda165","64e77d7b61f440b60e28659d","64ec9487a1a8a4ad7cf5793b","null","null","<p style=""font-size: 60px; font-family: BACS"">OkGYZAUu</p>","","","","","","","","",""
"html-keyboard-response","19","91496","0.0-7.0-0.12","5b715800b31d480001eda165","64e77d7b61f440b60e28659d","64ec9487a1a8a4ad7cf5793b","null","null","<p style=""font-size: 60px; font-family: BACS"">OAmAdTAm</p>","","","","","","","","",""
"html-keyboard-response","20","92500","0.0-7.0-0.13","5b715800b31d480001eda165","64e77d7b61f440b60e28659d","64ec9487a1a8a4ad7cf5793b","null","null","<p style=""font-size: 60px; font-family: BACS"">EPERdDbMR</p>","","","","","","","","",""
"html-keyboard-response","21","93513","0.0-7.0-0.14","5b715800b31d480001eda165","64e77d7b61f440b60e28659d","64ec9487a1a8a4ad7cf5793b","null","null","<p style=""font-size: 60px; font-family: BACS"">YmBdYDE</p>","","","","","","","","",""
"html-keyboard-response","22","94519","0.0-7.0-0.15","5b715800b31d480001eda165","64e77d7b61f440b60e28659d","64ec9487a1a8a4ad7cf5793b","null","null","<p style=""font-size: 60px; font-family: BACS"">EPERdYKPB</p>","","","","","","","","",""
"html-keyboard-response","23","95529","0.0-7.0-0.16","5b715800b31d480001eda165","64e77d7b61f440b60e28659d","64ec9487a1a8a4ad7cf5793b","null","null","<p style=""font-size: 60px; font-family: BACS"">lBlEDbMR</p>","","","","","","","","",""
"html-keyboard-response","24","96534","0.0-7.0-0.17","5b715800b31d480001eda165","64e77d7b61f440b60e28659d","64ec9487a1a8a4ad7cf5793b","null","null","<p style=""font-size: 60px; font-family: BACS"">tcYbdYDE</p>","","","","","","","","",""
"html-keyboard-response","25","97540","0.0-7.0-0.18","5b715800b31d480001eda165","64e77d7b61f440b60e28659d","64ec9487a1a8a4ad7cf5793b","null","null","<p style=""font-size: 60px; font-family: BACS"">lBlETRkY</p>","","","","","","","","",""
"html-keyboard-response","26","98544","0.0-7.0-0.19","5b715800b31d480001eda165","64e77d7b61f440b60e28659d","64ec9487a1a8a4ad7cf5793b","null","null","<p style=""font-size: 60px; font-family: BACS"">LvuOGmLJ</p>","","","","","","","","",""
"html-keyboard-response","27","99560","0.0-7.0-0.20","5b715800b31d480001eda165","64e77d7b61f440b60e28659d","64ec9487a1a8a4ad7cf5793b","null","null","<p style=""font-size: 60px; font-family: BACS"">OkGYmkc</p>","","","","","","","","",""
"html-keyboard-response","28","100574","0.0-7.0-0.21","5b715800b31d480001eda165","64e77d7b61f440b60e28659d","64ec9487a1a8a4ad7cf5793b","null","null","<p style=""font-size: 60px; font-family: BACS"">uQkrdcUN</p>","","","","","","","","",""
"html-keyboard-response","29","101589","0.0-7.0-0.22","5b715800b31d480001eda165","64e77d7b61f440b60e28659d","64ec9487a1a8a4ad7cf5793b","null","null","<p style=""font-size: 60px; font-family: BACS"">ABPRBTRkY</p>","","","","","","","","",""
"html-keyboard-response","30","102595","0.0-7.0-0.23","5b715800b31d480001eda165","64e77d7b61f440b60e28659d","64ec9487a1a8a4ad7cf5793b","null","null","<p style=""font-size: 60px; font-family: BACS"">AbkacUN</p>","","","","","","","","",""
"html-keyboard-response","31","103596","0.0-7.0-0.24","5b715800b31d480001eda165","64e77d7b61f440b60e28659d","64ec9487a1a8a4ad7cf5793b","null","null","<p style=""font-size: 60px; font-family: BACS"">KABADbMR</p>","","","","","","","","",""
"html-keyboard-response","32","104605","0.0-7.0-0.25","5b715800b31d480001eda165","64e77d7b61f440b60e28659d","64ec9487a1a8a4ad7cf5793b","null","null","<p style=""font-size: 60px; font-family: BACS"">OkGYJQA</p>","","","","","","","","",""
"html-keyboard-response","33","105614","0.0-7.0-0.26","5b715800b31d480001eda165","64e77d7b61f440b60e28659d","64ec9487a1a8a4ad7cf5793b","null","null","<p style=""font-size: 60px; font-family: BACS"">kcdOtYDE</p>","","","","","","","","",""
"html-keyboard-response","34","106618","0.0-7.0-0.27","5b715800b31d480001eda165","64e77d7b61f440b60e28659d","64ec9487a1a8a4ad7cf5793b","null","null","<p style=""font-size: 60px; font-family: BACS"">lZcuZAUu</p>","","","","","","","","",""
"html-keyboard-response","35","107626","0.0-7.0-0.28","5b715800b31d480001eda165","64e77d7b61f440b60e28659d","64ec9487a1a8a4ad7cf5793b","null","null","<p style=""font-size: 60px; font-family: BACS"">uQkrdJQA</p>","","","","","","","","",""
"html-keyboard-response","36","108629","0.0-7.0-0.29","5b715800b31d480001eda165","64e77d7b61f440b60e28659d","64ec9487a1a8a4ad7cf5793b","null","null","<p style=""font-size: 60px; font-family: BACS"">lZcucUN</p>","","","","","","","","",""
"html-keyboard-response","37","109634","0.0-7.0-0.30","5b715800b31d480001eda165","64e77d7b61f440b60e28659d","64ec9487a1a8a4ad7cf5793b","null","null","<p style=""font-size: 60px; font-family: BACS"">tcYbdDbMR</p>","","","","","","","","",""
"html-keyboard-response","38","110640","0.0-7.0-0.31","5b715800b31d480001eda165","64e77d7b61f440b60e28659d","64ec9487a1a8a4ad7cf5793b","null","null","<p style=""font-size: 60px; font-family: BACS"">LvuOGJQA</p>","","","","","","","","",""
"html-keyboard-response","39","111648","0.0-7.0-0.32","5b715800b31d480001eda165","64e77d7b61f440b60e28659d","64ec9487a1a8a4ad7cf5793b","null","null","<p style=""font-size: 60px; font-family: BACS"">lZcumkc</p>","","","","","","","","",""
"html-keyboard-response","40","112656","0.0-7.0-0.33","5b715800b31d480001eda165","64e77d7b61f440b60e28659d","64ec9487a1a8a4ad7cf5793b","null","null","<p style=""font-size: 60px; font-family: BACS"">OAmAdTRkY</p>","","","","","","","","",""
"html-keyboard-response","41","113659","0.0-7.0-0.34","5b715800b31d480001eda165","64e77d7b61f440b60e28659d","64ec9487a1a8a4ad7cf5793b","null","null","<p style=""font-size: 60px; font-family: BACS"">AbkaJQA</p>","","","","","","","","",""
"html-keyboard-response","42","114667","0.0-7.0-0.35","5b715800b31d480001eda165","64e77d7b61f440b60e28659d","64ec9487a1a8a4ad7cf5793b","null","null","<p style=""font-size: 60px; font-family: BACS"">OEPkTAm</p>","","","","","","","","",""
"html-keyboard-response","43","115676","0.0-7.0-0.36","5b715800b31d480001eda165","64e77d7b61f440b60e28659d","64ec9487a1a8a4ad7cf5793b","null","null","<p style=""font-size: 60px; font-family: BACS"">kcdOtTRkY</p>","","","","","","","","",""
"html-keyboard-response","44","116684","0.0-7.0-0.37","5b715800b31d480001eda165","64e77d7b61f440b60e28659d","64ec9487a1a8a4ad7cf5793b","null","null","<p style=""font-size: 60px; font-family: BACS"">kLvdNmLJ</p>","","","","","","","","",""
"html-keyboard-response","45","117686","0.0-7.0-0.38","5b715800b31d480001eda165","64e77d7b61f440b60e28659d","64ec9487a1a8a4ad7cf5793b","null","null","<p style=""font-size: 60px; font-family: BACS"">KABATAm</p>","","","","","","","","",""
"html-keyboard-response","46","118694","0.0-7.0-0.39","5b715800b31d480001eda165","64e77d7b61f440b60e28659d","64ec9487a1a8a4ad7cf5793b","null","null","<p style=""font-size: 60px; font-family: BACS"">AbkaZAUu</p>","","","","","","","","",""
"html-keyboard-response","47","119701","0.0-7.0-0.40","5b715800b31d480001eda165","64e77d7b61f440b60e28659d","64ec9487a1a8a4ad7cf5793b","null","null","<p style=""font-size: 60px; font-family: BACS"">kLvdNmkc</p>","","","","","","","","",""
"html-keyboard-response","48","120710","0.0-7.0-0.41","5b715800b31d480001eda165","64e77d7b61f440b60e28659d","64ec9487a1a8a4ad7cf5793b","null","null","<p style=""font-size: 60px; font-family: BACS"">YmBdTRkY</p>","","","","","","","","",""
"html-keyboard-response","49","121714","0.0-7.0-0.42","5b715800b31d480001eda165","64e77d7b61f440b60e28659d","64ec9487a1a8a4ad7cf5793b","null","null","<p style=""font-size: 60px; font-family: BACS"">ABPRBYKPB</p>","","","","","","","","",""
"html-keyboard-response","50","122722","0.0-7.0-0.43","5b715800b31d480001eda165","64e77d7b61f440b60e28659d","64ec9487a1a8a4ad7cf5793b","null","null","<p style=""font-size: 60px; font-family: BACS"">mdlamLJ</p>","","","","","","","","",""
"html-keyboard-response","51","123723","0.0-7.0-0.44","5b715800b31d480001eda165","64e77d7b61f440b60e28659d","64ec9487a1a8a4ad7cf5793b","null","null","<p style=""font-size: 60px; font-family: BACS"">tcYbdYKPB</p>","","","","","","","","",""
"html-keyboard-response","52","124732","0.0-7.0-0.45","5b715800b31d480001eda165","64e77d7b61f440b60e28659d","64ec9487a1a8a4ad7cf5793b","null","null","<p style=""font-size: 60px; font-family: BACS"">uQkrdmkc</p>","","","","","","","","",""
"html-keyboard-response","53","125737","0.0-7.0-0.46","5b715800b31d480001eda165","64e77d7b61f440b60e28659d","64ec9487a1a8a4ad7cf5793b","null","null","<p style=""font-size: 60px; font-family: BACS"">OkGYcUN</p>","","","","","","","","",""
"html-keyboard-response","54","126745","0.0-7.0-0.47","5b715800b31d480001eda165","64e77d7b61f440b60e28659d","64ec9487a1a8a4ad7cf5793b","null","null","<p style=""font-size: 60px; font-family: BACS"">vmuLlJQA</p>","","","","","","","","",""
"html-keyboard-response","55","127771","0.0-7.0-0.48","5b715800b31d480001eda165","64e77d7b61f440b60e28659d","64ec9487a1a8a4ad7cf5793b","null","null","<p style=""font-size: 60px; font-family: BACS"">lBlEYKPB</p>","","","","","","","","",""
"html-keyboard-response","56","128780","0.0-7.0-0.49","5b715800b31d480001eda165","64e77d7b61f440b60e28659d","64ec9487a1a8a4ad7cf5793b","null","null","<p style=""font-size: 60px; font-family: BACS"">OEPkYDE</p>","","","","","","","","",""
"html-keyboard-response","57","129794","0.0-7.0-0.50","5b715800b31d480001eda165","64e77d7b61f440b60e28659d","64ec9487a1a8a4ad7cf5793b","null","null","<p style=""font-size: 60px; font-family: BACS"">kbmZOmLJ</p>","","","","","","","","",""
"html-keyboard-response","58","130801","0.0-7.0-0.51","5b715800b31d480001eda165","64e77d7b61f440b60e28659d","64ec9487a1a8a4ad7cf5793b","null","null","<p style=""font-size: 60px; font-family: BACS"">ABPRBYDE</p>","","","","","","","","",""
"html-keyboard-response","59","131806","0.0-7.0-0.52","5b715800b31d480001eda165","64e77d7b61f440b60e28659d","64ec9487a1a8a4ad7cf5793b","null","null","<p style=""font-size: 60px; font-family: BACS"">uQkrdmLJ</p>","","","","","","","","",""
"html-keyboard-response","60","132809","0.0-7.0-0.53","5b715800b31d480001eda165","64e77d7b61f440b60e28659d","64ec9487a1a8a4ad7cf5793b","null","null","<p style=""font-size: 60px; font-family: BACS"">EPERdTRkY</p>","","","","","","","","",""
"html-keyboard-response","61","133818","0.0-7.0-0.54","5b715800b31d480001eda165","64e77d7b61f440b60e28659d","64ec9487a1a8a4ad7cf5793b","null","null","<p style=""font-size: 60px; font-family: BACS"">kcdOtTAm</p>","","","","","","","","",""
"html-keyboard-response","62","134819","0.0-7.0-0.55","5b715800b31d480001eda165","64e77d7b61f440b60e28659d","64ec9487a1a8a4ad7cf5793b","null","null","<p style=""font-size: 60px; font-family: BACS"">kbmZOmkc</p>","","","","","","","","",""
"html-keyboard-response","63","135828","0.0-7.0-0.56","5b715800b31d480001eda165","64e77d7b61f440b60e28659d","64ec9487a1a8a4ad7cf5793b","null","null","<p style=""font-size: 60px; font-family: BACS"">vmuLlZAUu</p>","","","","","","","","",""
"html-keyboard-response","64","136837","0.0-7.0-0.57","5b715800b31d480001eda165","64e77d7b61f440b60e28659d","64ec9487a1a8a4ad7cf5793b","null","null","<p style=""font-size: 60px; font-family: BACS"">LvuOGcUN</p>","","","","","","","","",""
"html-keyboard-response","65","137846","0.0-7.0-0.58","5b715800b31d480001eda165","64e77d7b61f440b60e28659d","64ec9487a1a8a4ad7cf5793b","null","null","<p style=""font-size: 60px; font-family: BACS"">OAmAdDbMR</p>","","","","","","","","",""
"html-keyboard-response","66","138849","0.0-7.0-0.59","5b715800b31d480001eda165","64e77d7b61f440b60e28659d","64ec9487a1a8a4ad7cf5793b","null","null","<p style=""font-size: 60px; font-family: BACS"">hlbtbTAm</p>","","","","","","","","",""
"html-keyboard-response","67","139855","0.0-7.0-0.60","5b715800b31d480001eda165","64e77d7b61f440b60e28659d","64ec9487a1a8a4ad7cf5793b","null","null","<p style=""font-size: 60px; font-family: BACS"">kcdOtDbMR</p>","","","","","","","","",""
"html-keyboard-response","68","140860","0.0-7.0-0.61","5b715800b31d480001eda165","64e77d7b61f440b60e28659d","64ec9487a1a8a4ad7cf5793b","null","null","<p style=""font-size: 60px; font-family: BACS"">kGamNcUN</p>","","","","","","","","",""
"html-keyboard-response","69","141863","0.0-7.0-0.62","5b715800b31d480001eda165","64e77d7b61f440b60e28659d","64ec9487a1a8a4ad7cf5793b","null","null","<p style=""font-size: 60px; font-family: BACS"">AbkamLJ</p>","","","","","","","","",""
"html-keyboard-response","70","142870","0.0-7.0-0.63","5b715800b31d480001eda165","64e77d7b61f440b60e28659d","64ec9487a1a8a4ad7cf5793b","null","null","<p style=""font-size: 60px; font-family: BACS"">KABAYKPB</p>","","","","","","","","",""
"html-keyboard-response","71","143879","0.0-7.0-0.64","5b715800b31d480001eda165","64e77d7b61f440b60e28659d","64ec9487a1a8a4ad7cf5793b","null","null","<p style=""font-size: 60px; font-family: BACS"">kbmZOZAUu</p>","","","","","","","","",""
"html-keyboard-response","72","144887","0.0-7.0-0.65","5b715800b31d480001eda165","64e77d7b61f440b60e28659d","64ec9487a1a8a4ad7cf5793b","null","null","<p style=""font-size: 60px; font-family: BACS"">hlbtbDbMR</p>","","","","","","","","",""
"html-keyboard-response","73","145893","0.0-7.0-0.66","5b715800b31d480001eda165","64e77d7b61f440b60e28659d","64ec9487a1a8a4ad7cf5793b","null","null","<p style=""font-size: 60px; font-family: BACS"">EPERdTAm</p>","","","","","","","","",""
"html-keyboard-response","74","146902","0.0-7.0-0.67","5b715800b31d480001eda165","64e77d7b61f440b60e28659d","64ec9487a1a8a4ad7cf5793b","null","null","<p style=""font-size: 60px; font-family: BACS"">mdlaJQA</p>","","","","","","","","",""
"html-keyboard-response","75","147903","0.0-7.0-0.68","5b715800b31d480001eda165","64e77d7b61f440b60e28659d","64ec9487a1a8a4ad7cf5793b","null","null","<p style=""font-size: 60px; font-family: BACS"">ABPRBTAm</p>","","","","","","","","",""
"html-keyboard-response","76","148906","0.0-7.0-0.69","5b715800b31d480001eda165","64e77d7b61f440b60e28659d","64ec9487a1a8a4ad7cf5793b","null","null","<p style=""font-size: 60px; font-family: BACS"">KABAYDE</p>","","","","","","","","",""
"html-keyboard-response","77","149914","0.0-7.0-0.70","5b715800b31d480001eda165","64e77d7b61f440b60e28659d","64ec9487a1a8a4ad7cf5793b","null","null","<p style=""font-size: 60px; font-family: BACS"">mdlamkc</p>","","","","","","","","",""
"html-keyboard-response","78","150919","0.0-7.0-0.71","5b715800b31d480001eda165","64e77d7b61f440b60e28659d","64ec9487a1a8a4ad7cf5793b","null","null","<p style=""font-size: 60px; font-family: BACS"">kbmZOJQA</p>","","","","","","","","",""
"html-keyboard-response","79","151928","0.0-7.0-0.72","5b715800b31d480001eda165","64e77d7b61f440b60e28659d","64ec9487a1a8a4ad7cf5793b","null","null","<p style=""font-size: 60px; font-family: BACS"">kGamNZAUu</p>","","","","","","","","",""
"html-keyboard-response","80","152930","0.0-7.0-0.73","5b715800b31d480001eda165","64e77d7b61f440b60e28659d","64ec9487a1a8a4ad7cf5793b","null","null","<p style=""font-size: 60px; font-family: BACS"">hlbtbYKPB</p>","","","","","","","","",""
"html-keyboard-response","81","153931","0.0-7.0-0.74","5b715800b31d480001eda165","64e77d7b61f440b60e28659d","64ec9487a1a8a4ad7cf5793b","null","null","<p style=""font-size: 60px; font-family: BACS"">kGamNmLJ</p>","","","","","","","","",""
"html-keyboard-response","82","154961","0.0-7.0-0.75","5b715800b31d480001eda165","64e77d7b61f440b60e28659d","64ec9487a1a8a4ad7cf5793b","null","null","<p style=""font-size: 60px; font-family: BACS"">OEPkTRkY</p>","","","","","","","","",""
"html-keyboard-response","83","155971","0.0-7.0-0.76","5b715800b31d480001eda165","64e77d7b61f440b60e28659d","64ec9487a1a8a4ad7cf5793b","null","null","<p style=""font-size: 60px; font-family: BACS"">vmuLlcUN</p>","","","","","","","","",""
"html-keyboard-response","84","156982","0.0-7.0-0.77","5b715800b31d480001eda165","64e77d7b61f440b60e28659d","64ec9487a1a8a4ad7cf5793b","null","null","<p style=""font-size: 60px; font-family: BACS"">lZcuJQA</p>","","","","","","","","",""
"html-keyboard-response","85","157985","0.0-7.0-0.78","5b715800b31d480001eda165","64e77d7b61f440b60e28659d","64ec9487a1a8a4ad7cf5793b","null","null","<p style=""font-size: 60px; font-family: BACS"">mdlaZAUu</p>","","","","","","","","",""
"html-keyboard-response","86","159005","0.0-7.0-0.79","5b715800b31d480001eda165","64e77d7b61f440b60e28659d","64ec9487a1a8a4ad7cf5793b","null","null","<p style=""font-size: 60px; font-family: BACS"">kLvdNcUN</p>","","","","","","","","",""
"html-keyboard-response","87","161213","0.0-8.0","5b715800b31d480001eda165","64e77d7b61f440b60e28659d","64ec9487a1a8a4ad7cf5793b","2208"," ","<p>Great, you've seen the first block of words. You may now take a short break.</p>
      <p>Press the spacebar when you're ready to continue.</p>","","","","","","","","",""
"html-keyboard-response","88","162221","0.0-9.0-0.0","5b715800b31d480001eda165","64e77d7b61f440b60e28659d","64ec9487a1a8a4ad7cf5793b","null","null","<p style=""font-size: 60px; font-family: BACS"">LvuOGmLJ</p>","","","","","","","","",""
"html-keyboard-response","89","163226","0.0-9.0-0.1","5b715800b31d480001eda165","64e77d7b61f440b60e28659d","64ec9487a1a8a4ad7cf5793b","null","null","<p style=""font-size: 60px; font-family: BACS"">uQkrdJQA</p>","","","","","","","","",""
"html-keyboard-response","90","164231","0.0-9.0-0.2","5b715800b31d480001eda165","64e77d7b61f440b60e28659d","64ec9487a1a8a4ad7cf5793b","null","null","<p style=""font-size: 60px; font-family: BACS"">kLvdNcUN</p>","","","","","","","","",""
"html-keyboard-response","91","165236","0.0-9.0-0.3","5b715800b31d480001eda165","64e77d7b61f440b60e28659d","64ec9487a1a8a4ad7cf5793b","null","null","<p style=""font-size: 60px; font-family: BACS"">tcYbdTRkY</p>","","","","","","","","",""
"html-keyboard-response","92","166239","0.0-9.0-0.4","5b715800b31d480001eda165","64e77d7b61f440b60e28659d","64ec9487a1a8a4ad7cf5793b","null","null","<p style=""font-size: 60px; font-family: BACS"">OEPkYDE</p>","","","","","","","","",""
"html-keyboard-response","93","167248","0.0-9.0-0.5","5b715800b31d480001eda165","64e77d7b61f440b60e28659d","64ec9487a1a8a4ad7cf5793b","null","null","<p style=""font-size: 60px; font-family: BACS"">lBlEDbMR</p>","","","","","","","","",""
"html-keyboard-response","94","168258","0.0-9.0-0.6","5b715800b31d480001eda165","64e77d7b61f440b60e28659d","64ec9487a1a8a4ad7cf5793b","null","null","<p style=""font-size: 60px; font-family: BACS"">lZcuJQA</p>","","","","","","","","",""
"html-keyboard-response","95","169262","0.0-9.0-0.7","5b715800b31d480001eda165","64e77d7b61f440b60e28659d","64ec9487a1a8a4ad7cf5793b","null","null","<p style=""font-size: 60px; font-family: BACS"">uQkrdcUN</p>","","","","","","","","",""
"html-keyboard-response","96","170273","0.0-9.0-0.8","5b715800b31d480001eda165","64e77d7b61f440b60e28659d","64ec9487a1a8a4ad7cf5793b","null","null","<p style=""font-size: 60px; font-family: BACS"">tcYbdYDE</p>","","","","","","","","",""
"html-keyboard-response","97","171276","0.0-9.0-0.9","5b715800b31d480001eda165","64e77d7b61f440b60e28659d","64ec9487a1a8a4ad7cf5793b","null","null","<p style=""font-size: 60px; font-family: BACS"">KABADbMR</p>","","","","","","","","",""
"html-keyboard-response","98","172283","0.0-9.0-0.10","5b715800b31d480001eda165","64e77d7b61f440b60e28659d","64ec9487a1a8a4ad7cf5793b","null","null","<p style=""font-size: 60px; font-family: BACS"">kLvdNmkc</p>","","","","","","","","",""
"html-keyboard-response","99","173288","0.0-9.0-0.11","5b715800b31d480001eda165","64e77d7b61f440b60e28659d","64ec9487a1a8a4ad7cf5793b","null","null","<p style=""font-size: 60px; font-family: BACS"">kbmZOmLJ</p>","","","","","","","","",""
"html-keyboard-response","100","174292","0.0-9.0-0.12","5b715800b31d480001eda165","64e77d7b61f440b60e28659d","64ec9487a1a8a4ad7cf5793b","null","null","<p style=""font-size: 60px; font-family: BACS"">OkGYmkc</p>","","","","","","","","",""
"html-keyboard-response","101","175299","0.0-9.0-0.13","5b715800b31d480001eda165","64e77d7b61f440b60e28659d","64ec9487a1a8a4ad7cf5793b","null","null","<p style=""font-size: 60px; font-family: BACS"">YmBdDbMR</p>","","","","","","","","",""
"html-keyboard-response","102","176307","0.0-9.0-0.14","5b715800b31d480001eda165","64e77d7b61f440b60e28659d","64ec9487a1a8a4ad7cf5793b","null","null","<p style=""font-size: 60px; font-family: BACS"">vmuLlcUN</p>","","","","","","","","",""
"html-keyboard-response","103","177315","0.0-9.0-0.15","5b715800b31d480001eda165","64e77d7b61f440b60e28659d","64ec9487a1a8a4ad7cf5793b","null","null","<p style=""font-size: 60px; font-family: BACS"">mdlamLJ</p>","","","","","","","","",""
"html-keyboard-response","104","178321","0.0-9.0-0.16","5b715800b31d480001eda165","64e77d7b61f440b60e28659d","64ec9487a1a8a4ad7cf5793b","null","null","<p style=""font-size: 60px; font-family: BACS"">EPERdYKPB</p>","","","","","","","","",""
"html-keyboard-response","105","179327","0.0-9.0-0.17","5b715800b31d480001eda165","64e77d7b61f440b60e28659d","64ec9487a1a8a4ad7cf5793b","null","null","<p style=""font-size: 60px; font-family: BACS"">ABPRBYDE</p>","","","","","","","","",""
"html-keyboard-response","106","180336","0.0-9.0-0.18","5b715800b31d480001eda165","64e77d7b61f440b60e28659d","64ec9487a1a8a4ad7cf5793b","null","null","<p style=""font-size: 60px; font-family: BACS"">AbkacUN</p>","","","","","","","","",""
"html-keyboard-response","107","181343","0.0-9.0-0.19","5b715800b31d480001eda165","64e77d7b61f440b60e28659d","64ec9487a1a8a4ad7cf5793b","null","null","<p style=""font-size: 60px; font-family: BACS"">LvuOGmkc</p>","","","","","","","","",""
"html-keyboard-response","108","182349","0.0-9.0-0.20","5b715800b31d480001eda165","64e77d7b61f440b60e28659d","64ec9487a1a8a4ad7cf5793b","null","null","<p style=""font-size: 60px; font-family: BACS"">EPERdTRkY</p>","","","","","","","","",""
"html-keyboard-response","109","183358","0.0-9.0-0.21","5b715800b31d480001eda165","64e77d7b61f440b60e28659d","64ec9487a1a8a4ad7cf5793b","null","null","<p style=""font-size: 60px; font-family: BACS"">ABPRBYKPB</p>","","","","","","","","",""
"html-keyboard-response","110","184367","0.0-9.0-0.22","5b715800b31d480001eda165","64e77d7b61f440b60e28659d","64ec9487a1a8a4ad7cf5793b","null","null","<p style=""font-size: 60px; font-family: BACS"">OkGYZAUu</p>","","","","","","","","",""
"html-keyboard-response","111","185374","0.0-9.0-0.23","5b715800b31d480001eda165","64e77d7b61f440b60e28659d","64ec9487a1a8a4ad7cf5793b","null","null","<p style=""font-size: 60px; font-family: BACS"">hlbtbYDE</p>","","","","","","","","",""
"html-keyboard-response","112","186375","0.0-9.0-0.24","5b715800b31d480001eda165","64e77d7b61f440b60e28659d","64ec9487a1a8a4ad7cf5793b","null","null","<p style=""font-size: 60px; font-family: BACS"">uQkrdmkc</p>","","","","","","","","",""
"html-keyboard-response","113","187381","0.0-9.0-0.25","5b715800b31d480001eda165","64e77d7b61f440b60e28659d","64ec9487a1a8a4ad7cf5793b","null","null","<p style=""font-size: 60px; font-family: BACS"">OAmAdTRkY</p>","","","","","","","","",""
"html-keyboard-response","114","188385","0.0-9.0-0.26","5b715800b31d480001eda165","64e77d7b61f440b60e28659d","64ec9487a1a8a4ad7cf5793b","null","null","<p style=""font-size: 60px; font-family: BACS"">kGamNZAUu</p>","","","","","","","","",""
"html-keyboard-response","115","189396","0.0-9.0-0.27","5b715800b31d480001eda165","64e77d7b61f440b60e28659d","64ec9487a1a8a4ad7cf5793b","null","null","<p style=""font-size: 60px; font-family: BACS"">OEPkTRkY</p>","","","","","","","","",""
"html-keyboard-response","116","190401","0.0-9.0-0.28","5b715800b31d480001eda165","64e77d7b61f440b60e28659d","64ec9487a1a8a4ad7cf5793b","null","null","<p style=""font-size: 60px; font-family: BACS"">kLvdNZAUu</p>","","","","","","","","",""
"html-keyboard-response","117","191412","0.0-9.0-0.29","5b715800b31d480001eda165","64e77d7b61f440b60e28659d","64ec9487a1a8a4ad7cf5793b","null","null","<p style=""font-size: 60px; font-family: BACS"">ABPRBTAm</p>","","","","","","","","",""
"html-keyboard-response","118","192415","0.0-9.0-0.30","5b715800b31d480001eda165","64e77d7b61f440b60e28659d","64ec9487a1a8a4ad7cf5793b","null","null","<p style=""font-size: 60px; font-family: BACS"">mdlaJQA</p>","","","","","","","","",""
"html-keyboard-response","119","193422","0.0-9.0-0.31","5b715800b31d480001eda165","64e77d7b61f440b60e28659d","64ec9487a1a8a4ad7cf5793b","null","null","<p style=""font-size: 60px; font-family: BACS"">lBlEYKPB</p>","","","","","","","","",""
"html-keyboard-response","120","194426","0.0-9.0-0.32","5b715800b31d480001eda165","64e77d7b61f440b60e28659d","64ec9487a1a8a4ad7cf5793b","null","null","<p style=""font-size: 60px; font-family: BACS"">LvuOGcUN</p>","","","","","","","","",""
"html-keyboard-response","121","195431","0.0-9.0-0.33","5b715800b31d480001eda165","64e77d7b61f440b60e28659d","64ec9487a1a8a4ad7cf5793b","null","null","<p style=""font-size: 60px; font-family: BACS"">OAmAdDbMR</p>","","","","","","","","",""
"html-keyboard-response","122","196444","0.0-9.0-0.34","5b715800b31d480001eda165","64e77d7b61f440b60e28659d","64ec9487a1a8a4ad7cf5793b","null","null","<p style=""font-size: 60px; font-family: BACS"">KABATAm</p>","","","","","","","","",""
"html-keyboard-response","123","197452","0.0-9.0-0.35","5b715800b31d480001eda165","64e77d7b61f440b60e28659d","64ec9487a1a8a4ad7cf5793b","null","null","<p style=""font-size: 60px; font-family: BACS"">vmuLlJQA</p>","","","","","","","","",""
"html-keyboard-response","124","198459","0.0-9.0-0.36","5b715800b31d480001eda165","64e77d7b61f440b60e28659d","64ec9487a1a8a4ad7cf5793b","null","null","<p style=""font-size: 60px; font-family: BACS"">kLvdNmLJ</p>","","","","","","","","",""
"html-keyboard-response","125","199470","0.0-9.0-0.37","5b715800b31d480001eda165","64e77d7b61f440b60e28659d","64ec9487a1a8a4ad7cf5793b","null","null","<p style=""font-size: 60px; font-family: BACS"">OkGYcUN</p>","","","","","","","","",""
"html-keyboard-response","126","200475","0.0-9.0-0.38","5b715800b31d480001eda165","64e77d7b61f440b60e28659d","64ec9487a1a8a4ad7cf5793b","null","null","<p style=""font-size: 60px; font-family: BACS"">tcYbdDbMR</p>","","","","","","","","",""
"html-keyboard-response","127","201486","0.0-9.0-0.39","5b715800b31d480001eda165","64e77d7b61f440b60e28659d","64ec9487a1a8a4ad7cf5793b","null","null","<p style=""font-size: 60px; font-family: BACS"">OkGYJQA</p>","","","","","","","","",""
"html-keyboard-response","128","202491","0.0-9.0-0.40","5b715800b31d480001eda165","64e77d7b61f440b60e28659d","64ec9487a1a8a4ad7cf5793b","null","null","<p style=""font-size: 60px; font-family: BACS"">vmuLlZAUu</p>","","","","","","","","",""
"html-keyboard-response","129","203496","0.0-9.0-0.41","5b715800b31d480001eda165","64e77d7b61f440b60e28659d","64ec9487a1a8a4ad7cf5793b","null","null","<p style=""font-size: 60px; font-family: BACS"">kcdOtTRkY</p>","","","","","","","","",""
"html-keyboard-response","130","204503","0.0-9.0-0.42","5b715800b31d480001eda165","64e77d7b61f440b60e28659d","64ec9487a1a8a4ad7cf5793b","null","null","<p style=""font-size: 60px; font-family: BACS"">OEPkYKPB</p>","","","","","","","","",""
"html-keyboard-response","131","205511","0.0-9.0-0.43","5b715800b31d480001eda165","64e77d7b61f440b60e28659d","64ec9487a1a8a4ad7cf5793b","null","null","<p style=""font-size: 60px; font-family: BACS"">OAmAdYDE</p>","","","","","","","","",""
"html-keyboard-response","132","206517","0.0-9.0-0.44","5b715800b31d480001eda165","64e77d7b61f440b60e28659d","64ec9487a1a8a4ad7cf5793b","null","null","<p style=""font-size: 60px; font-family: BACS"">AbkaZAUu</p>","","","","","","","","",""
"html-keyboard-response","133","207517","0.0-9.0-0.45","5b715800b31d480001eda165","64e77d7b61f440b60e28659d","64ec9487a1a8a4ad7cf5793b","null","null","<p style=""font-size: 60px; font-family: BACS"">kGamNmLJ</p>","","","","","","","","",""
"html-keyboard-response","134","208525","0.0-9.0-0.46","5b715800b31d480001eda165","64e77d7b61f440b60e28659d","64ec9487a1a8a4ad7cf5793b","null","null","<p style=""font-size: 60px; font-family: BACS"">OAmAdTAm</p>","","","","","","","","",""
"html-keyboard-response","135","209530","0.0-9.0-0.47","5b715800b31d480001eda165","64e77d7b61f440b60e28659d","64ec9487a1a8a4ad7cf5793b","null","null","<p style=""font-size: 60px; font-family: BACS"">mdlaZAUu</p>","","","","","","","","",""
"html-keyboard-response","136","210540","0.0-9.0-0.48","5b715800b31d480001eda165","64e77d7b61f440b60e28659d","64ec9487a1a8a4ad7cf5793b","null","null","<p style=""font-size: 60px; font-family: BACS"">EPERdDbMR</p>","","","","","","","","",""
"html-keyboard-response","137","211558","0.0-9.0-0.49","5b715800b31d480001eda165","64e77d7b61f440b60e28659d","64ec9487a1a8a4ad7cf5793b","null","null","<p style=""font-size: 60px; font-family: BACS"">OEPkTAm</p>","","","","","","","","",""
"html-keyboard-response","138","212566","0.0-9.0-0.50","5b715800b31d480001eda165","64e77d7b61f440b60e28659d","64ec9487a1a8a4ad7cf5793b","null","null","<p style=""font-size: 60px; font-family: BACS"">vmuLlmLJ</p>","","","","","","","","",""
"html-keyboard-response","139","213567","0.0-9.0-0.51","5b715800b31d480001eda165","64e77d7b61f440b60e28659d","64ec9487a1a8a4ad7cf5793b","null","null","<p style=""font-size: 60px; font-family: BACS"">kbmZOZAUu</p>","","","","","","","","",""
"html-keyboard-response","140","214569","0.0-9.0-0.52","5b715800b31d480001eda165","64e77d7b61f440b60e28659d","64ec9487a1a8a4ad7cf5793b","null","null","<p style=""font-size: 60px; font-family: BACS"">lZcumkc</p>","","","","","","","","",""
"html-keyboard-response","141","215581","0.0-9.0-0.53","5b715800b31d480001eda165","64e77d7b61f440b60e28659d","64ec9487a1a8a4ad7cf5793b","null","null","<p style=""font-size: 60px; font-family: BACS"">YmBdTRkY</p>","","","","","","","","",""
"html-keyboard-response","142","216583","0.0-9.0-0.54","5b715800b31d480001eda165","64e77d7b61f440b60e28659d","64ec9487a1a8a4ad7cf5793b","null","null","<p style=""font-size: 60px; font-family: BACS"">kbmZOJQA</p>","","","","","","","","",""
"html-keyboard-response","143","217594","0.0-9.0-0.55","5b715800b31d480001eda165","64e77d7b61f440b60e28659d","64ec9487a1a8a4ad7cf5793b","null","null","<p style=""font-size: 60px; font-family: BACS"">YmBdYDE</p>","","","","","","","","",""
"html-keyboard-response","144","218604","0.0-9.0-0.56","5b715800b31d480001eda165","64e77d7b61f440b60e28659d","64ec9487a1a8a4ad7cf5793b","null","null","<p style=""font-size: 60px; font-family: BACS"">kcdOtTAm</p>","","","","","","","","",""
"html-keyboard-response","145","219617","0.0-9.0-0.57","5b715800b31d480001eda165","64e77d7b61f440b60e28659d","64ec9487a1a8a4ad7cf5793b","null","null","<p style=""font-size: 60px; font-family: BACS"">ABPRBTRkY</p>","","","","","","","","",""
"html-keyboard-response","146","220621","0.0-9.0-0.58","5b715800b31d480001eda165","64e77d7b61f440b60e28659d","64ec9487a1a8a4ad7cf5793b","null","null","<p style=""font-size: 60px; font-family: BACS"">lZcucUN</p>","","","","","","","","",""
"html-keyboard-response","147","221630","0.0-9.0-0.59","5b715800b31d480001eda165","64e77d7b61f440b60e28659d","64ec9487a1a8a4ad7cf5793b","null","null","<p style=""font-size: 60px; font-family: BACS"">hlbtbDbMR</p>","","","","","","","","",""
"html-keyboard-response","148","222636","0.0-9.0-0.60","5b715800b31d480001eda165","64e77d7b61f440b60e28659d","64ec9487a1a8a4ad7cf5793b","null","null","<p style=""font-size: 60px; font-family: BACS"">kbmZOmkc</p>","","","","","","","","",""
"html-keyboard-response","149","223645","0.0-9.0-0.61","5b715800b31d480001eda165","64e77d7b61f440b60e28659d","64ec9487a1a8a4ad7cf5793b","null","null","<p style=""font-size: 60px; font-family: BACS"">kGamNcUN</p>","","","","","","","","",""
"html-keyboard-response","150","224646","0.0-9.0-0.62","5b715800b31d480001eda165","64e77d7b61f440b60e28659d","64ec9487a1a8a4ad7cf5793b","null","null","<p style=""font-size: 60px; font-family: BACS"">mdlamkc</p>","","","","","","","","",""
"html-keyboard-response","151","225651","0.0-9.0-0.63","5b715800b31d480001eda165","64e77d7b61f440b60e28659d","64ec9487a1a8a4ad7cf5793b","null","null","<p style=""font-size: 60px; font-family: BACS"">lBlETRkY</p>","","","","","","","","",""
"html-keyboard-response","152","226654","0.0-9.0-0.64","5b715800b31d480001eda165","64e77d7b61f440b60e28659d","64ec9487a1a8a4ad7cf5793b","null","null","<p style=""font-size: 60px; font-family: BACS"">YmBdYKPB</p>","","","","","","","","",""
"html-keyboard-response","153","227666","0.0-9.0-0.65","5b715800b31d480001eda165","64e77d7b61f440b60e28659d","64ec9487a1a8a4ad7cf5793b","null","null","<p style=""font-size: 60px; font-family: BACS"">AbkamLJ</p>","","","","","","","","",""
"html-keyboard-response","154","228673","0.0-9.0-0.66","5b715800b31d480001eda165","64e77d7b61f440b60e28659d","64ec9487a1a8a4ad7cf5793b","null","null","<p style=""font-size: 60px; font-family: BACS"">tcYbdYKPB</p>","","","","","","","","",""
"html-keyboard-response","155","229682","0.0-9.0-0.67","5b715800b31d480001eda165","64e77d7b61f440b60e28659d","64ec9487a1a8a4ad7cf5793b","null","null","<p style=""font-size: 60px; font-family: BACS"">lBlETAm</p>","","","","","","","","",""
"html-keyboard-response","156","230683","0.0-9.0-0.68","5b715800b31d480001eda165","64e77d7b61f440b60e28659d","64ec9487a1a8a4ad7cf5793b","null","null","<p style=""font-size: 60px; font-family: BACS"">kcdOtYDE</p>","","","","","","","","",""
"html-keyboard-response","157","231695","0.0-9.0-0.69","5b715800b31d480001eda165","64e77d7b61f440b60e28659d","64ec9487a1a8a4ad7cf5793b","null","null","<p style=""font-size: 60px; font-family: BACS"">lZcuZAUu</p>","","","","","","","","",""
"html-keyboard-response","158","232699","0.0-9.0-0.70","5b715800b31d480001eda165","64e77d7b61f440b60e28659d","64ec9487a1a8a4ad7cf5793b","null","null","<p style=""font-size: 60px; font-family: BACS"">EPERdTAm</p>","","","","","","","","",""
"html-keyboard-response","159","233706","0.0-9.0-0.71","5b715800b31d480001eda165","64e77d7b61f440b60e28659d","64ec9487a1a8a4ad7cf5793b","null","null","<p style=""font-size: 60px; font-family: BACS"">uQkrdmLJ</p>","","","","","","","","",""
"html-keyboard-response","160","234715","0.0-9.0-0.72","5b715800b31d480001eda165","64e77d7b61f440b60e28659d","64ec9487a1a8a4ad7cf5793b","null","null","<p style=""font-size: 60px; font-family: BACS"">KABAYKPB</p>","","","","","","","","",""
"html-keyboard-response","161","235722","0.0-9.0-0.73","5b715800b31d480001eda165","64e77d7b61f440b60e28659d","64ec9487a1a8a4ad7cf5793b","null","null","<p style=""font-size: 60px; font-family: BACS"">kGamNmkc</p>","","","","","","","","",""
"html-keyboard-response","162","236725","0.0-9.0-0.74","5b715800b31d480001eda165","64e77d7b61f440b60e28659d","64ec9487a1a8a4ad7cf5793b","null","null","<p style=""font-size: 60px; font-family: BACS"">hlbtbYKPB</p>","","","","","","","","",""
"html-keyboard-response","163","237726","0.0-9.0-0.75","5b715800b31d480001eda165","64e77d7b61f440b60e28659d","64ec9487a1a8a4ad7cf5793b","null","null","<p style=""font-size: 60px; font-family: BACS"">AbkaJQA</p>","","","","","","","","",""
"html-keyboard-response","164","238730","0.0-9.0-0.76","5b715800b31d480001eda165","64e77d7b61f440b60e28659d","64ec9487a1a8a4ad7cf5793b","null","null","<p style=""font-size: 60px; font-family: BACS"">hlbtbTAm</p>","","","","","","","","",""
"html-keyboard-response","165","239738","0.0-9.0-0.77","5b715800b31d480001eda165","64e77d7b61f440b60e28659d","64ec9487a1a8a4ad7cf5793b","null","null","<p style=""font-size: 60px; font-family: BACS"">LvuOGJQA</p>","","","","","","","","",""
"html-keyboard-response","166","240752","0.0-9.0-0.78","5b715800b31d480001eda165","64e77d7b61f440b60e28659d","64ec9487a1a8a4ad7cf5793b","null","null","<p style=""font-size: 60px; font-family: BACS"">kcdOtDbMR</p>","","","","","","","","",""
"html-keyboard-response","167","241766","0.0-9.0-0.79","5b715800b31d480001eda165","64e77d7b61f440b60e28659d","64ec9487a1a8a4ad7cf5793b","null","null","<p style=""font-size: 60px; font-family: BACS"">KABAYDE</p>","","","","","","","","",""
"html-keyboard-response","168","268326","0.0-10.0","5b715800b31d480001eda165","64e77d7b61f440b60e28659d","64ec9487a1a8a4ad7cf5793b","26559"," ","<p>Great, you've seen the second block of words. You may now take a short break.</p>
      <p>Press the spacebar when you're ready to continue.</p>","","","","","","","","",""
"html-keyboard-response","169","269338","0.0-11.0-0.0","5b715800b31d480001eda165","64e77d7b61f440b60e28659d","64ec9487a1a8a4ad7cf5793b","null","null","<p style=""font-size: 60px; font-family: BACS"">kGamNmLJ</p>","","","","","","","","",""
"html-keyboard-response","170","270340","0.0-11.0-0.1","5b715800b31d480001eda165","64e77d7b61f440b60e28659d","64ec9487a1a8a4ad7cf5793b","null","null","<p style=""font-size: 60px; font-family: BACS"">kcdOtDbMR</p>","","","","","","","","",""
"html-keyboard-response","171","271341","0.0-11.0-0.2","5b715800b31d480001eda165","64e77d7b61f440b60e28659d","64ec9487a1a8a4ad7cf5793b","null","null","<p style=""font-size: 60px; font-family: BACS"">lBlEYKPB</p>","","","","","","","","",""
"html-keyboard-response","172","272350","0.0-11.0-0.3","5b715800b31d480001eda165","64e77d7b61f440b60e28659d","64ec9487a1a8a4ad7cf5793b","null","null","<p style=""font-size: 60px; font-family: BACS"">tcYbdDbMR</p>","","","","","","","","",""
"html-keyboard-response","173","273364","0.0-11.0-0.4","5b715800b31d480001eda165","64e77d7b61f440b60e28659d","64ec9487a1a8a4ad7cf5793b","null","null","<p style=""font-size: 60px; font-family: BACS"">lZcuZAUu</p>","","","","","","","","",""
"html-keyboard-response","174","274375","0.0-11.0-0.5","5b715800b31d480001eda165","64e77d7b61f440b60e28659d","64ec9487a1a8a4ad7cf5793b","null","null","<p style=""font-size: 60px; font-family: BACS"">OkGYmkc</p>","","","","","","","","",""
"html-keyboard-response","175","275389","0.0-11.0-0.6","5b715800b31d480001eda165","64e77d7b61f440b60e28659d","64ec9487a1a8a4ad7cf5793b","null","null","<p style=""font-size: 60px; font-family: BACS"">tcYbdYDE</p>","","","","","","","","",""
"html-keyboard-response","176","276394","0.0-11.0-0.7","5b715800b31d480001eda165","64e77d7b61f440b60e28659d","64ec9487a1a8a4ad7cf5793b","null","null","<p style=""font-size: 60px; font-family: BACS"">vmuLlmLJ</p>","","","","","","","","",""
"html-keyboard-response","177","277408","0.0-11.0-0.8","5b715800b31d480001eda165","64e77d7b61f440b60e28659d","64ec9487a1a8a4ad7cf5793b","null","null","<p style=""font-size: 60px; font-family: BACS"">mdlamkc</p>","","","","","","","","",""
"html-keyboard-response","178","278413","0.0-11.0-0.9","5b715800b31d480001eda165","64e77d7b61f440b60e28659d","64ec9487a1a8a4ad7cf5793b","null","null","<p style=""font-size: 60px; font-family: BACS"">vmuLlZAUu</p>","","","","","","","","",""
"html-keyboard-response","179","279415","0.0-11.0-0.10","5b715800b31d480001eda165","64e77d7b61f440b60e28659d","64ec9487a1a8a4ad7cf5793b","null","null","<p style=""font-size: 60px; font-family: BACS"">KABATAm</p>","","","","","","","","",""
"html-keyboard-response","180","280417","0.0-11.0-0.11","5b715800b31d480001eda165","64e77d7b61f440b60e28659d","64ec9487a1a8a4ad7cf5793b","null","null","<p style=""font-size: 60px; font-family: BACS"">EPERdYKPB</p>","","","","","","","","",""
"html-keyboard-response","181","281430","0.0-11.0-0.12","5b715800b31d480001eda165","64e77d7b61f440b60e28659d","64ec9487a1a8a4ad7cf5793b","null","null","<p style=""font-size: 60px; font-family: BACS"">LvuOGJQA</p>","","","","","","","","",""
"html-keyboard-response","182","282436","0.0-11.0-0.13","5b715800b31d480001eda165","64e77d7b61f440b60e28659d","64ec9487a1a8a4ad7cf5793b","null","null","<p style=""font-size: 60px; font-family: BACS"">OAmAdDbMR</p>","","","","","","","","",""
"html-keyboard-response","183","283444","0.0-11.0-0.14","5b715800b31d480001eda165","64e77d7b61f440b60e28659d","64ec9487a1a8a4ad7cf5793b","null","null","<p style=""font-size: 60px; font-family: BACS"">LvuOGcUN</p>","","","","","","","","",""
"html-keyboard-response","184","284475","0.0-11.0-0.15","5b715800b31d480001eda165","64e77d7b61f440b60e28659d","64ec9487a1a8a4ad7cf5793b","null","null","<p style=""font-size: 60px; font-family: BACS"">lBlETAm</p>","","","","","","","","",""
"html-keyboard-response","185","285476","0.0-11.0-0.16","5b715800b31d480001eda165","64e77d7b61f440b60e28659d","64ec9487a1a8a4ad7cf5793b","null","null","<p style=""font-size: 60px; font-family: BACS"">AbkacUN</p>","","","","","","","","",""
"html-keyboard-response","186","286490","0.0-11.0-0.17","5b715800b31d480001eda165","64e77d7b61f440b60e28659d","64ec9487a1a8a4ad7cf5793b","null","null","<p style=""font-size: 60px; font-family: BACS"">lZcuJQA</p>","","","","","","","","",""
"html-keyboard-response","187","287504","0.0-11.0-0.18","5b715800b31d480001eda165","64e77d7b61f440b60e28659d","64ec9487a1a8a4ad7cf5793b","null","null","<p style=""font-size: 60px; font-family: BACS"">OEPkYKPB</p>","","","","","","","","",""
"html-keyboard-response","188","288516","0.0-11.0-0.19","5b715800b31d480001eda165","64e77d7b61f440b60e28659d","64ec9487a1a8a4ad7cf5793b","null","null","<p style=""font-size: 60px; font-family: BACS"">hlbtbYDE</p>","","","","","","","","",""
"html-keyboard-response","189","289523","0.0-11.0-0.20","5b715800b31d480001eda165","64e77d7b61f440b60e28659d","64ec9487a1a8a4ad7cf5793b","null","null","<p style=""font-size: 60px; font-family: BACS"">mdlamLJ</p>","","","","","","","","",""
"html-keyboard-response","190","290536","0.0-11.0-0.21","5b715800b31d480001eda165","64e77d7b61f440b60e28659d","64ec9487a1a8a4ad7cf5793b","null","null","<p style=""font-size: 60px; font-family: BACS"">ABPRBTRkY</p>","","","","","","","","",""
"html-keyboard-response","191","291544","0.0-11.0-0.22","5b715800b31d480001eda165","64e77d7b61f440b60e28659d","64ec9487a1a8a4ad7cf5793b","null","null","<p style=""font-size: 60px; font-family: BACS"">kLvdNZAUu</p>","","","","","","","","",""
"html-keyboard-response","192","292557","0.0-11.0-0.23","5b715800b31d480001eda165","64e77d7b61f440b60e28659d","64ec9487a1a8a4ad7cf5793b","null","null","<p style=""font-size: 60px; font-family: BACS"">LvuOGmLJ</p>","","","","","","","","",""
"html-keyboard-response","193","293567","0.0-11.0-0.24","5b715800b31d480001eda165","64e77d7b61f440b60e28659d","64ec9487a1a8a4ad7cf5793b","null","null","<p style=""font-size: 60px; font-family: BACS"">uQkrdmkc</p>","","","","","","","","",""
"html-keyboard-response","194","294577","0.0-11.0-0.25","5b715800b31d480001eda165","64e77d7b61f440b60e28659d","64ec9487a1a8a4ad7cf5793b","null","null","<p style=""font-size: 60px; font-family: BACS"">ABPRBYKPB</p>","","","","","","","","",""
"html-keyboard-response","195","295577","0.0-11.0-0.26","5b715800b31d480001eda165","64e77d7b61f440b60e28659d","64ec9487a1a8a4ad7cf5793b","null","null","<p style=""font-size: 60px; font-family: BACS"">kLvdNcUN</p>","","","","","","","","",""
"html-keyboard-response","196","296581","0.0-11.0-0.27","5b715800b31d480001eda165","64e77d7b61f440b60e28659d","64ec9487a1a8a4ad7cf5793b","null","null","<p style=""font-size: 60px; font-family: BACS"">kbmZOZAUu</p>","","","","","","","","",""
"html-keyboard-response","197","297593","0.0-11.0-0.28","5b715800b31d480001eda165","64e77d7b61f440b60e28659d","64ec9487a1a8a4ad7cf5793b","null","null","<p style=""font-size: 60px; font-family: BACS"">vmuLlcUN</p>","","","","","","","","",""
"html-keyboard-response","198","298605","0.0-11.0-0.29","5b715800b31d480001eda165","64e77d7b61f440b60e28659d","64ec9487a1a8a4ad7cf5793b","null","null","<p style=""font-size: 60px; font-family: BACS"">kLvdNmLJ</p>","","","","","","","","",""
"html-keyboard-response","199","299608","0.0-11.0-0.30","5b715800b31d480001eda165","64e77d7b61f440b60e28659d","64ec9487a1a8a4ad7cf5793b","null","null","<p style=""font-size: 60px; font-family: BACS"">OAmAdTAm</p>","","","","","","","","",""
"html-keyboard-response","200","300613","0.0-11.0-0.31","5b715800b31d480001eda165","64e77d7b61f440b60e28659d","64ec9487a1a8a4ad7cf5793b","null","null","<p style=""font-size: 60px; font-family: BACS"">OkGYJQA</p>","","","","","","","","",""
"html-keyboard-response","201","301616","0.0-11.0-0.32","5b715800b31d480001eda165","64e77d7b61f440b60e28659d","64ec9487a1a8a4ad7cf5793b","null","null","<p style=""font-size: 60px; font-family: BACS"">ABPRBYDE</p>","","","","","","","","",""
"html-keyboard-response","202","302626","0.0-11.0-0.33","5b715800b31d480001eda165","64e77d7b61f440b60e28659d","64ec9487a1a8a4ad7cf5793b","null","null","<p style=""font-size: 60px; font-family: BACS"">kGamNcUN</p>","","","","","","","","",""
"html-keyboard-response","203","303631","0.0-11.0-0.34","5b715800b31d480001eda165","64e77d7b61f440b60e28659d","64ec9487a1a8a4ad7cf5793b","null","null","<p style=""font-size: 60px; font-family: BACS"">tcYbdTRkY</p>","","","","","","","","",""
"html-keyboard-response","204","304646","0.0-11.0-0.35","5b715800b31d480001eda165","64e77d7b61f440b60e28659d","64ec9487a1a8a4ad7cf5793b","null","null","<p style=""font-size: 60px; font-family: BACS"">kGamNZAUu</p>","","","","","","","","",""
"html-keyboard-response","205","305651","0.0-11.0-0.36","5b715800b31d480001eda165","64e77d7b61f440b60e28659d","64ec9487a1a8a4ad7cf5793b","null","null","<p style=""font-size: 60px; font-family: BACS"">OEPkTAm</p>","","","","","","","","",""
"html-keyboard-response","206","306654","0.0-11.0-0.37","5b715800b31d480001eda165","64e77d7b61f440b60e28659d","64ec9487a1a8a4ad7cf5793b","null","null","<p style=""font-size: 60px; font-family: BACS"">mdlaJQA</p>","","","","","","","","",""
"html-keyboard-response","207","307663","0.0-11.0-0.38","5b715800b31d480001eda165","64e77d7b61f440b60e28659d","64ec9487a1a8a4ad7cf5793b","null","null","<p style=""font-size: 60px; font-family: BACS"">LvuOGmkc</p>","","","","","","","","",""
"html-keyboard-response","208","308667","0.0-11.0-0.39","5b715800b31d480001eda165","64e77d7b61f440b60e28659d","64ec9487a1a8a4ad7cf5793b","null","null","<p style=""font-size: 60px; font-family: BACS"">uQkrdcUN</p>","","","","","","","","",""
"html-keyboard-response","209","309670","0.0-11.0-0.40","5b715800b31d480001eda165","64e77d7b61f440b60e28659d","64ec9487a1a8a4ad7cf5793b","null","null","<p style=""font-size: 60px; font-family: BACS"">kLvdNmkc</p>","","","","","","","","",""
"html-keyboard-response","210","310670","0.0-11.0-0.41","5b715800b31d480001eda165","64e77d7b61f440b60e28659d","64ec9487a1a8a4ad7cf5793b","null","null","<p style=""font-size: 60px; font-family: BACS"">OAmAdYDE</p>","","","","","","","","",""
"html-keyboard-response","211","311677","0.0-11.0-0.42","5b715800b31d480001eda165","64e77d7b61f440b60e28659d","64ec9487a1a8a4ad7cf5793b","null","null","<p style=""font-size: 60px; font-family: BACS"">EPERdTAm</p>","","","","","","","","",""
"html-keyboard-response","212","312686","0.0-11.0-0.43","5b715800b31d480001eda165","64e77d7b61f440b60e28659d","64ec9487a1a8a4ad7cf5793b","null","null","<p style=""font-size: 60px; font-family: BACS"">hlbtbDbMR</p>","","","","","","","","",""
"html-keyboard-response","213","313690","0.0-11.0-0.44","5b715800b31d480001eda165","64e77d7b61f440b60e28659d","64ec9487a1a8a4ad7cf5793b","null","null","<p style=""font-size: 60px; font-family: BACS"">KABAYDE</p>","","","","","","","","",""
"html-keyboard-response","214","314692","0.0-11.0-0.45","5b715800b31d480001eda165","64e77d7b61f440b60e28659d","64ec9487a1a8a4ad7cf5793b","null","null","<p style=""font-size: 60px; font-family: BACS"">kcdOtTAm</p>","","","","","","","","",""
"html-keyboard-response","215","315704","0.0-11.0-0.46","5b715800b31d480001eda165","64e77d7b61f440b60e28659d","64ec9487a1a8a4ad7cf5793b","null","null","<p style=""font-size: 60px; font-family: BACS"">mdlaZAUu</p>","","","","","","","","",""
"html-keyboard-response","216","316710","0.0-11.0-0.47","5b715800b31d480001eda165","64e77d7b61f440b60e28659d","64ec9487a1a8a4ad7cf5793b","null","null","<p style=""font-size: 60px; font-family: BACS"">kGamNmkc</p>","","","","","","","","",""
"html-keyboard-response","217","317720","0.0-11.0-0.48","5b715800b31d480001eda165","64e77d7b61f440b60e28659d","64ec9487a1a8a4ad7cf5793b","null","null","<p style=""font-size: 60px; font-family: BACS"">vmuLlJQA</p>","","","","","","","","",""
"html-keyboard-response","218","318731","0.0-11.0-0.49","5b715800b31d480001eda165","64e77d7b61f440b60e28659d","64ec9487a1a8a4ad7cf5793b","null","null","<p style=""font-size: 60px; font-family: BACS"">YmBdYDE</p>","","","","","","","","",""
"html-keyboard-response","219","319742","0.0-11.0-0.50","5b715800b31d480001eda165","64e77d7b61f440b60e28659d","64ec9487a1a8a4ad7cf5793b","null","null","<p style=""font-size: 60px; font-family: BACS"">OEPkTRkY</p>","","","","","","","","",""
"html-keyboard-response","220","320745","0.0-11.0-0.51","5b715800b31d480001eda165","64e77d7b61f440b60e28659d","64ec9487a1a8a4ad7cf5793b","null","null","<p style=""font-size: 60px; font-family: BACS"">YmBdDbMR</p>","","","","","","","","",""
"html-keyboard-response","221","321753","0.0-11.0-0.52","5b715800b31d480001eda165","64e77d7b61f440b60e28659d","64ec9487a1a8a4ad7cf5793b","null","null","<p style=""font-size: 60px; font-family: BACS"">OEPkYDE</p>","","","","","","","","",""
"html-keyboard-response","222","322762","0.0-11.0-0.53","5b715800b31d480001eda165","64e77d7b61f440b60e28659d","64ec9487a1a8a4ad7cf5793b","null","null","<p style=""font-size: 60px; font-family: BACS"">kbmZOmLJ</p>","","","","","","","","",""
"html-keyboard-response","223","323772","0.0-11.0-0.54","5b715800b31d480001eda165","64e77d7b61f440b60e28659d","64ec9487a1a8a4ad7cf5793b","null","null","<p style=""font-size: 60px; font-family: BACS"">lZcucUN</p>","","","","","","","","",""
"html-keyboard-response","224","324786","0.0-11.0-0.55","5b715800b31d480001eda165","64e77d7b61f440b60e28659d","64ec9487a1a8a4ad7cf5793b","null","null","<p style=""font-size: 60px; font-family: BACS"">AbkamLJ</p>","","","","","","","","",""
"html-keyboard-response","225","325792","0.0-11.0-0.56","5b715800b31d480001eda165","64e77d7b61f440b60e28659d","64ec9487a1a8a4ad7cf5793b","null","null","<p style=""font-size: 60px; font-family: BACS"">hlbtbYKPB</p>","","","","","","","","",""
"html-keyboard-response","226","326795","0.0-11.0-0.57","5b715800b31d480001eda165","64e77d7b61f440b60e28659d","64ec9487a1a8a4ad7cf5793b","null","null","<p style=""font-size: 60px; font-family: BACS"">OAmAdTRkY</p>","","","","","","","","",""
"html-keyboard-response","227","327812","0.0-11.0-0.58","5b715800b31d480001eda165","64e77d7b61f440b60e28659d","64ec9487a1a8a4ad7cf5793b","null","null","<p style=""font-size: 60px; font-family: BACS"">uQkrdmLJ</p>","","","","","","","","",""
"html-keyboard-response","228","328818","0.0-11.0-0.59","5b715800b31d480001eda165","64e77d7b61f440b60e28659d","64ec9487a1a8a4ad7cf5793b","null","null","<p style=""font-size: 60px; font-family: BACS"">lZcumkc</p>","","","","","","","","",""
"html-keyboard-response","229","329824","0.0-11.0-0.60","5b715800b31d480001eda165","64e77d7b61f440b60e28659d","64ec9487a1a8a4ad7cf5793b","null","null","<p style=""font-size: 60px; font-family: BACS"">uQkrdJQA</p>","","","","","","","","",""
"html-keyboard-response","230","330833","0.0-11.0-0.61","5b715800b31d480001eda165","64e77d7b61f440b60e28659d","64ec9487a1a8a4ad7cf5793b","null","null","<p style=""font-size: 60px; font-family: BACS"">kbmZOmkc</p>","","","","","","","","",""
"html-keyboard-response","231","331845","0.0-11.0-0.62","5b715800b31d480001eda165","64e77d7b61f440b60e28659d","64ec9487a1a8a4ad7cf5793b","null","null","<p style=""font-size: 60px; font-family: BACS"">YmBdYKPB</p>","","","","","","","","",""
"html-keyboard-response","232","332854","0.0-11.0-0.63","5b715800b31d480001eda165","64e77d7b61f440b60e28659d","64ec9487a1a8a4ad7cf5793b","null","null","<p style=""font-size: 60px; font-family: BACS"">hlbtbTAm</p>","","","","","","","","",""
"html-keyboard-response","233","333861","0.0-11.0-0.64","5b715800b31d480001eda165","64e77d7b61f440b60e28659d","64ec9487a1a8a4ad7cf5793b","null","null","<p style=""font-size: 60px; font-family: BACS"">EPERdTRkY</p>","","","","","","","","",""
"html-keyboard-response","234","334862","0.0-11.0-0.65","5b715800b31d480001eda165","64e77d7b61f440b60e28659d","64ec9487a1a8a4ad7cf5793b","null","null","<p style=""font-size: 60px; font-family: BACS"">kcdOtYDE</p>","","","","","","","","",""
"html-keyboard-response","235","335878","0.0-11.0-0.66","5b715800b31d480001eda165","64e77d7b61f440b60e28659d","64ec9487a1a8a4ad7cf5793b","null","null","<p style=""font-size: 60px; font-family: BACS"">AbkaZAUu</p>","","","","","","","","",""
"html-keyboard-response","236","336889","0.0-11.0-0.67","5b715800b31d480001eda165","64e77d7b61f440b60e28659d","64ec9487a1a8a4ad7cf5793b","null","null","<p style=""font-size: 60px; font-family: BACS"">YmBdTRkY</p>","","","","","","","","",""
"html-keyboard-response","237","337900","0.0-11.0-0.68","5b715800b31d480001eda165","64e77d7b61f440b60e28659d","64ec9487a1a8a4ad7cf5793b","null","null","<p style=""font-size: 60px; font-family: BACS"">OkGYZAUu</p>","","","","","","","","",""
"html-keyboard-response","238","338908","0.0-11.0-0.69","5b715800b31d480001eda165","64e77d7b61f440b60e28659d","64ec9487a1a8a4ad7cf5793b","null","null","<p style=""font-size: 60px; font-family: BACS"">KABADbMR</p>","","","","","","","","",""
"html-keyboard-response","239","339913","0.0-11.0-0.70","5b715800b31d480001eda165","64e77d7b61f440b60e28659d","64ec9487a1a8a4ad7cf5793b","null","null","<p style=""font-size: 60px; font-family: BACS"">ABPRBTAm</p>","","","","","","","","",""
"html-keyboard-response","240","340922","0.0-11.0-0.71","5b715800b31d480001eda165","64e77d7b61f440b60e28659d","64ec9487a1a8a4ad7cf5793b","null","null","<p style=""font-size: 60px; font-family: BACS"">tcYbdYKPB</p>","","","","","","","","",""
"html-keyboard-response","241","341932","0.0-11.0-0.72","5b715800b31d480001eda165","64e77d7b61f440b60e28659d","64ec9487a1a8a4ad7cf5793b","null","null","<p style=""font-size: 60px; font-family: BACS"">EPERdDbMR</p>","","","","","","","","",""
"html-keyboard-response","242","342939","0.0-11.0-0.73","5b715800b31d480001eda165","64e77d7b61f440b60e28659d","64ec9487a1a8a4ad7cf5793b","null","null","<p style=""font-size: 60px; font-family: BACS"">kcdOtTRkY</p>","","","","","","","","",""
"html-keyboard-response","243","343947","0.0-11.0-0.74","5b715800b31d480001eda165","64e77d7b61f440b60e28659d","64ec9487a1a8a4ad7cf5793b","null","null","<p style=""font-size: 60px; font-family: BACS"">OkGYcUN</p>","","","","","","","","",""
"html-keyboard-response","244","344957","0.0-11.0-0.75","5b715800b31d480001eda165","64e77d7b61f440b60e28659d","64ec9487a1a8a4ad7cf5793b","null","null","<p style=""font-size: 60px; font-family: BACS"">KABAYKPB</p>","","","","","","","","",""
"html-keyboard-response","245","345977","0.0-11.0-0.76","5b715800b31d480001eda165","64e77d7b61f440b60e28659d","64ec9487a1a8a4ad7cf5793b","null","null","<p style=""font-size: 60px; font-family: BACS"">kbmZOJQA</p>","","","","","","","","",""
"html-keyboard-response","246","346984","0.0-11.0-0.77","5b715800b31d480001eda165","64e77d7b61f440b60e28659d","64ec9487a1a8a4ad7cf5793b","null","null","<p style=""font-size: 60px; font-family: BACS"">lBlEDbMR</p>","","","","","","","","",""
"html-keyboard-response","247","347993","0.0-11.0-0.78","5b715800b31d480001eda165","64e77d7b61f440b60e28659d","64ec9487a1a8a4ad7cf5793b","null","null","<p style=""font-size: 60px; font-family: BACS"">AbkaJQA</p>","","","","","","","","",""
"html-keyboard-response","248","349002","0.0-11.0-0.79","5b715800b31d480001eda165","64e77d7b61f440b60e28659d","64ec9487a1a8a4ad7cf5793b","null","null","<p style=""font-size: 60px; font-family: BACS"">lBlETRkY</p>","","","","","","","","",""
"html-keyboard-response","249","350571","0.0-12.0","5b715800b31d480001eda165","64e77d7b61f440b60e28659d","64ec9487a1a8a4ad7cf5793b","1568"," ","<p>Great, you've seen the third block of words. You may now take a short break.</p>
      <p>Press the spacebar when you're ready to continue.</p>","","","","","","","","",""
"html-keyboard-response","250","351582","0.0-13.0-0.0","5b715800b31d480001eda165","64e77d7b61f440b60e28659d","64ec9487a1a8a4ad7cf5793b","null","null","<p style=""font-size: 60px; font-family: BACS"">lZcumkc</p>","","","","","","","","",""
"html-keyboard-response","251","352588","0.0-13.0-0.1","5b715800b31d480001eda165","64e77d7b61f440b60e28659d","64ec9487a1a8a4ad7cf5793b","null","null","<p style=""font-size: 60px; font-family: BACS"">KABADbMR</p>","","","","","","","","",""
"html-keyboard-response","252","353609","0.0-13.0-0.2","5b715800b31d480001eda165","64e77d7b61f440b60e28659d","64ec9487a1a8a4ad7cf5793b","null","null","<p style=""font-size: 60px; font-family: BACS"">uQkrdJQA</p>","","","","","","","","",""
"html-keyboard-response","253","354624","0.0-13.0-0.3","5b715800b31d480001eda165","64e77d7b61f440b60e28659d","64ec9487a1a8a4ad7cf5793b","null","null","<p style=""font-size: 60px; font-family: BACS"">kGamNmLJ</p>","","","","","","","","",""
"html-keyboard-response","254","355633","0.0-13.0-0.4","5b715800b31d480001eda165","64e77d7b61f440b60e28659d","64ec9487a1a8a4ad7cf5793b","null","null","<p style=""font-size: 60px; font-family: BACS"">OAmAdTRkY</p>","","","","","","","","",""
"html-keyboard-response","255","356637","0.0-13.0-0.5","5b715800b31d480001eda165","64e77d7b61f440b60e28659d","64ec9487a1a8a4ad7cf5793b","null","null","<p style=""font-size: 60px; font-family: BACS"">tcYbdYDE</p>","","","","","","","","",""
"html-keyboard-response","256","357646","0.0-13.0-0.6","5b715800b31d480001eda165","64e77d7b61f440b60e28659d","64ec9487a1a8a4ad7cf5793b","null","null","<p style=""font-size: 60px; font-family: BACS"">uQkrdcUN</p>","","","","","","","","",""
"html-keyboard-response","257","358649","0.0-13.0-0.7","5b715800b31d480001eda165","64e77d7b61f440b60e28659d","64ec9487a1a8a4ad7cf5793b","null","null","<p style=""font-size: 60px; font-family: BACS"">kGamNZAUu</p>","","","","","","","","",""
"html-keyboard-response","258","359652","0.0-13.0-0.8","5b715800b31d480001eda165","64e77d7b61f440b60e28659d","64ec9487a1a8a4ad7cf5793b","null","null","<p style=""font-size: 60px; font-family: BACS"">uQkrdmLJ</p>","","","","","","","","",""
"html-keyboard-response","259","360653","0.0-13.0-0.9","5b715800b31d480001eda165","64e77d7b61f440b60e28659d","64ec9487a1a8a4ad7cf5793b","null","null","<p style=""font-size: 60px; font-family: BACS"">kLvdNmkc</p>","","","","","","","","",""
"html-keyboard-response","260","361661","0.0-13.0-0.10","5b715800b31d480001eda165","64e77d7b61f440b60e28659d","64ec9487a1a8a4ad7cf5793b","null","null","<p style=""font-size: 60px; font-family: BACS"">OkGYcUN</p>","","","","","","","","",""
"html-keyboard-response","261","362667","0.0-13.0-0.11","5b715800b31d480001eda165","64e77d7b61f440b60e28659d","64ec9487a1a8a4ad7cf5793b","null","null","<p style=""font-size: 60px; font-family: BACS"">EPERdDbMR</p>","","","","","","","","",""
"html-keyboard-response","262","363672","0.0-13.0-0.12","5b715800b31d480001eda165","64e77d7b61f440b60e28659d","64ec9487a1a8a4ad7cf5793b","null","null","<p style=""font-size: 60px; font-family: BACS"">mdlamLJ</p>","","","","","","","","",""
"html-keyboard-response","263","364679","0.0-13.0-0.13","5b715800b31d480001eda165","64e77d7b61f440b60e28659d","64ec9487a1a8a4ad7cf5793b","null","null","<p style=""font-size: 60px; font-family: BACS"">KABAYDE</p>","","","","","","","","",""
"html-keyboard-response","264","365688","0.0-13.0-0.14","5b715800b31d480001eda165","64e77d7b61f440b60e28659d","64ec9487a1a8a4ad7cf5793b","null","null","<p style=""font-size: 60px; font-family: BACS"">ABPRBTAm</p>","","","","","","","","",""
"html-keyboard-response","265","366695","0.0-13.0-0.15","5b715800b31d480001eda165","64e77d7b61f440b60e28659d","64ec9487a1a8a4ad7cf5793b","null","null","<p style=""font-size: 60px; font-family: BACS"">vmuLlJQA</p>","","","","","","","","",""
"html-keyboard-response","266","367702","0.0-13.0-0.16","5b715800b31d480001eda165","64e77d7b61f440b60e28659d","64ec9487a1a8a4ad7cf5793b","null","null","<p style=""font-size: 60px; font-family: BACS"">KABAYKPB</p>","","","","","","","","",""
"html-keyboard-response","267","368711","0.0-13.0-0.17","5b715800b31d480001eda165","64e77d7b61f440b60e28659d","64ec9487a1a8a4ad7cf5793b","null","null","<p style=""font-size: 60px; font-family: BACS"">hlbtbTAm</p>","","","","","","","","",""
"html-keyboard-response","268","369715","0.0-13.0-0.18","5b715800b31d480001eda165","64e77d7b61f440b60e28659d","64ec9487a1a8a4ad7cf5793b","null","null","<p style=""font-size: 60px; font-family: BACS"">lBlETRkY</p>","","","","","","","","",""
"html-keyboard-response","269","370724","0.0-13.0-0.19","5b715800b31d480001eda165","64e77d7b61f440b60e28659d","64ec9487a1a8a4ad7cf5793b","null","null","<p style=""font-size: 60px; font-family: BACS"">AbkacUN</p>","","","","","","","","",""
"html-keyboard-response","270","371732","0.0-13.0-0.20","5b715800b31d480001eda165","64e77d7b61f440b60e28659d","64ec9487a1a8a4ad7cf5793b","null","null","<p style=""font-size: 60px; font-family: BACS"">OAmAdDbMR</p>","","","","","","","","",""
"html-keyboard-response","271","372742","0.0-13.0-0.21","5b715800b31d480001eda165","64e77d7b61f440b60e28659d","64ec9487a1a8a4ad7cf5793b","null","null","<p style=""font-size: 60px; font-family: BACS"">tcYbdTRkY</p>","","","","","","","","",""
"html-keyboard-response","272","373752","0.0-13.0-0.22","5b715800b31d480001eda165","64e77d7b61f440b60e28659d","64ec9487a1a8a4ad7cf5793b","null","null","<p style=""font-size: 60px; font-family: BACS"">LvuOGcUN</p>","","","","","","","","",""
"html-keyboard-response","273","374760","0.0-13.0-0.23","5b715800b31d480001eda165","64e77d7b61f440b60e28659d","64ec9487a1a8a4ad7cf5793b","null","null","<p style=""font-size: 60px; font-family: BACS"">kLvdNmLJ</p>","","","","","","","","",""
"html-keyboard-response","274","375770","0.0-13.0-0.24","5b715800b31d480001eda165","64e77d7b61f440b60e28659d","64ec9487a1a8a4ad7cf5793b","null","null","<p style=""font-size: 60px; font-family: BACS"">mdlaJQA</p>","","","","","","","","",""
"html-keyboard-response","275","376776","0.0-13.0-0.25","5b715800b31d480001eda165","64e77d7b61f440b60e28659d","64ec9487a1a8a4ad7cf5793b","null","null","<p style=""font-size: 60px; font-family: BACS"">EPERdTAm</p>","","","","","","","","",""
"html-keyboard-response","276","377779","0.0-13.0-0.26","5b715800b31d480001eda165","64e77d7b61f440b60e28659d","64ec9487a1a8a4ad7cf5793b","null","null","<p style=""font-size: 60px; font-family: BACS"">OkGYJQA</p>","","","","","","","","",""
"html-keyboard-response","277","378784","0.0-13.0-0.27","5b715800b31d480001eda165","64e77d7b61f440b60e28659d","64ec9487a1a8a4ad7cf5793b","null","null","<p style=""font-size: 60px; font-family: BACS"">AbkaZAUu</p>","","","","","","","","",""
"html-keyboard-response","278","379795","0.0-13.0-0.28","5b715800b31d480001eda165","64e77d7b61f440b60e28659d","64ec9487a1a8a4ad7cf5793b","null","null","<p style=""font-size: 60px; font-family: BACS"">lBlETAm</p>","","","","","","","","",""
"html-keyboard-response","279","380802","0.0-13.0-0.29","5b715800b31d480001eda165","64e77d7b61f440b60e28659d","64ec9487a1a8a4ad7cf5793b","null","null","<p style=""font-size: 60px; font-family: BACS"">OAmAdYDE</p>","","","","","","","","",""
"html-keyboard-response","280","381808","0.0-13.0-0.30","5b715800b31d480001eda165","64e77d7b61f440b60e28659d","64ec9487a1a8a4ad7cf5793b","null","null","<p style=""font-size: 60px; font-family: BACS"">LvuOGmkc</p>","","","","","","","","",""
"html-keyboard-response","281","382809","0.0-13.0-0.31","5b715800b31d480001eda165","64e77d7b61f440b60e28659d","64ec9487a1a8a4ad7cf5793b","null","null","<p style=""font-size: 60px; font-family: BACS"">lBlEDbMR</p>","","","","","","","","",""
"html-keyboard-response","282","383812","0.0-13.0-0.32","5b715800b31d480001eda165","64e77d7b61f440b60e28659d","64ec9487a1a8a4ad7cf5793b","null","null","<p style=""font-size: 60px; font-family: BACS"">kcdOtYDE</p>","","","","","","","","",""
"html-keyboard-response","283","384829","0.0-13.0-0.33","5b715800b31d480001eda165","64e77d7b61f440b60e28659d","64ec9487a1a8a4ad7cf5793b","null","null","<p style=""font-size: 60px; font-family: BACS"">tcYbdYKPB</p>","","","","","","","","",""
"html-keyboard-response","284","385835","0.0-13.0-0.34","5b715800b31d480001eda165","64e77d7b61f440b60e28659d","64ec9487a1a8a4ad7cf5793b","null","null","<p style=""font-size: 60px; font-family: BACS"">OkGYZAUu</p>","","","","","","","","",""
"html-keyboard-response","285","386836","0.0-13.0-0.35","5b715800b31d480001eda165","64e77d7b61f440b60e28659d","64ec9487a1a8a4ad7cf5793b","null","null","<p style=""font-size: 60px; font-family: BACS"">kcdOtTAm</p>","","","","","","","","",""
"html-keyboard-response","286","387843","0.0-13.0-0.36","5b715800b31d480001eda165","64e77d7b61f440b60e28659d","64ec9487a1a8a4ad7cf5793b","null","null","<p style=""font-size: 60px; font-family: BACS"">AbkaJQA</p>","","","","","","","","",""
"html-keyboard-response","287","388850","0.0-13.0-0.37","5b715800b31d480001eda165","64e77d7b61f440b60e28659d","64ec9487a1a8a4ad7cf5793b","null","null","<p style=""font-size: 60px; font-family: BACS"">kcdOtDbMR</p>","","","","","","","","",""
"html-keyboard-response","288","389854","0.0-13.0-0.38","5b715800b31d480001eda165","64e77d7b61f440b60e28659d","64ec9487a1a8a4ad7cf5793b","null","null","<p style=""font-size: 60px; font-family: BACS"">YmBdYKPB</p>","","","","","","","","",""
"html-keyboard-response","289","390856","0.0-13.0-0.39","5b715800b31d480001eda165","64e77d7b61f440b60e28659d","64ec9487a1a8a4ad7cf5793b","null","null","<p style=""font-size: 60px; font-family: BACS"">tcYbdDbMR</p>","","","","","","","","",""
"html-keyboard-response","290","391868","0.0-13.0-0.40","5b715800b31d480001eda165","64e77d7b61f440b60e28659d","64ec9487a1a8a4ad7cf5793b","null","null","<p style=""font-size: 60px; font-family: BACS"">mdlaZAUu</p>","","","","","","","","",""
"html-keyboard-response","291","392891","0.0-13.0-0.41","5b715800b31d480001eda165","64e77d7b61f440b60e28659d","64ec9487a1a8a4ad7cf5793b","null","null","<p style=""font-size: 60px; font-family: BACS"">vmuLlmLJ</p>","","","","","","","","",""
"html-keyboard-response","292","393898","0.0-13.0-0.42","5b715800b31d480001eda165","64e77d7b61f440b60e28659d","64ec9487a1a8a4ad7cf5793b","null","null","<p style=""font-size: 60px; font-family: BACS"">hlbtbDbMR</p>","","","","","","","","",""
"html-keyboard-response","293","394911","0.0-13.0-0.43","5b715800b31d480001eda165","64e77d7b61f440b60e28659d","64ec9487a1a8a4ad7cf5793b","null","null","<p style=""font-size: 60px; font-family: BACS"">OkGYmkc</p>","","","","","","","","",""
"html-keyboard-response","294","395920","0.0-13.0-0.44","5b715800b31d480001eda165","64e77d7b61f440b60e28659d","64ec9487a1a8a4ad7cf5793b","null","null","<p style=""font-size: 60px; font-family: BACS"">EPERdTRkY</p>","","","","","","","","",""
"html-keyboard-response","295","396924","0.0-13.0-0.45","5b715800b31d480001eda165","64e77d7b61f440b60e28659d","64ec9487a1a8a4ad7cf5793b","null","null","<p style=""font-size: 60px; font-family: BACS"">kbmZOmLJ</p>","","","","","","","","",""
"html-keyboard-response","296","397929","0.0-13.0-0.46","5b715800b31d480001eda165","64e77d7b61f440b60e28659d","64ec9487a1a8a4ad7cf5793b","null","null","<p style=""font-size: 60px; font-family: BACS"">OEPkTAm</p>","","","","","","","","",""
"html-keyboard-response","297","398937","0.0-13.0-0.47","5b715800b31d480001eda165","64e77d7b61f440b60e28659d","64ec9487a1a8a4ad7cf5793b","null","null","<p style=""font-size: 60px; font-family: BACS"">YmBdYDE</p>","","","","","","","","",""
"html-keyboard-response","298","399940","0.0-13.0-0.48","5b715800b31d480001eda165","64e77d7b61f440b60e28659d","64ec9487a1a8a4ad7cf5793b","null","null","<p style=""font-size: 60px; font-family: BACS"">lZcuJQA</p>","","","","","","","","",""
"html-keyboard-response","299","400943","0.0-13.0-0.49","5b715800b31d480001eda165","64e77d7b61f440b60e28659d","64ec9487a1a8a4ad7cf5793b","null","null","<p style=""font-size: 60px; font-family: BACS"">AbkamLJ</p>","","","","","","","","",""
"html-keyboard-response","300","401953","0.0-13.0-0.50","5b715800b31d480001eda165","64e77d7b61f440b60e28659d","64ec9487a1a8a4ad7cf5793b","null","null","<p style=""font-size: 60px; font-family: BACS"">YmBdTRkY</p>","","","","","","","","",""
"html-keyboard-response","301","402964","0.0-13.0-0.51","5b715800b31d480001eda165","64e77d7b61f440b60e28659d","64ec9487a1a8a4ad7cf5793b","null","null","<p style=""font-size: 60px; font-family: BACS"">OEPkYDE</p>","","","","","","","","",""
"html-keyboard-response","302","403968","0.0-13.0-0.52","5b715800b31d480001eda165","64e77d7b61f440b60e28659d","64ec9487a1a8a4ad7cf5793b","null","null","<p style=""font-size: 60px; font-family: BACS"">kLvdNcUN</p>","","","","","","","","",""
"html-keyboard-response","303","404980","0.0-13.0-0.53","5b715800b31d480001eda165","64e77d7b61f440b60e28659d","64ec9487a1a8a4ad7cf5793b","null","null","<p style=""font-size: 60px; font-family: BACS"">OEPkYKPB</p>","","","","","","","","",""
"html-keyboard-response","304","406002","0.0-13.0-0.54","5b715800b31d480001eda165","64e77d7b61f440b60e28659d","64ec9487a1a8a4ad7cf5793b","null","null","<p style=""font-size: 60px; font-family: BACS"">ABPRBTRkY</p>","","","","","","","","",""
"html-keyboard-response","305","407009","0.0-13.0-0.55","5b715800b31d480001eda165","64e77d7b61f440b60e28659d","64ec9487a1a8a4ad7cf5793b","null","null","<p style=""font-size: 60px; font-family: BACS"">LvuOGmLJ</p>","","","","","","","","",""
"html-keyboard-response","306","408013","0.0-13.0-0.56","5b715800b31d480001eda165","64e77d7b61f440b60e28659d","64ec9487a1a8a4ad7cf5793b","null","null","<p style=""font-size: 60px; font-family: BACS"">OEPkTRkY</p>","","","","","","","","",""
"html-keyboard-response","307","409026","0.0-13.0-0.57","5b715800b31d480001eda165","64e77d7b61f440b60e28659d","64ec9487a1a8a4ad7cf5793b","null","null","<p style=""font-size: 60px; font-family: BACS"">LvuOGJQA</p>","","","","","","","","",""
"html-keyboard-response","308","410046","0.0-13.0-0.58","5b715800b31d480001eda165","64e77d7b61f440b60e28659d","64ec9487a1a8a4ad7cf5793b","null","null","<p style=""font-size: 60px; font-family: BACS"">lZcuZAUu</p>","","","","","","","","",""
"html-keyboard-response","309","411054","0.0-13.0-0.59","5b715800b31d480001eda165","64e77d7b61f440b60e28659d","64ec9487a1a8a4ad7cf5793b","null","null","<p style=""font-size: 60px; font-family: BACS"">mdlamkc</p>","","","","","","","","",""
"html-keyboard-response","310","412064","0.0-13.0-0.60","5b715800b31d480001eda165","64e77d7b61f440b60e28659d","64ec9487a1a8a4ad7cf5793b","null","null","<p style=""font-size: 60px; font-family: BACS"">kbmZOJQA</p>","","","","","","","","",""
"html-keyboard-response","311","413071","0.0-13.0-0.61","5b715800b31d480001eda165","64e77d7b61f440b60e28659d","64ec9487a1a8a4ad7cf5793b","null","null","<p style=""font-size: 60px; font-family: BACS"">ABPRBYKPB</p>","","","","","","","","",""
"html-keyboard-response","312","414083","0.0-13.0-0.62","5b715800b31d480001eda165","64e77d7b61f440b60e28659d","64ec9487a1a8a4ad7cf5793b","null","null","<p style=""font-size: 60px; font-family: BACS"">kbmZOmkc</p>","","","","","","","","",""
"html-keyboard-response","313","415084","0.0-13.0-0.63","5b715800b31d480001eda165","64e77d7b61f440b60e28659d","64ec9487a1a8a4ad7cf5793b","null","null","<p style=""font-size: 60px; font-family: BACS"">lZcucUN</p>","","","","","","","","",""
"html-keyboard-response","314","416106","0.0-13.0-0.64","5b715800b31d480001eda165","64e77d7b61f440b60e28659d","64ec9487a1a8a4ad7cf5793b","null","null","<p style=""font-size: 60px; font-family: BACS"">kGamNmkc</p>","","","","","","","","",""
"html-keyboard-response","315","417111","0.0-13.0-0.65","5b715800b31d480001eda165","64e77d7b61f440b60e28659d","64ec9487a1a8a4ad7cf5793b","null","null","<p style=""font-size: 60px; font-family: BACS"">kbmZOZAUu</p>","","","","","","","","",""
"html-keyboard-response","316","418120","0.0-13.0-0.66","5b715800b31d480001eda165","64e77d7b61f440b60e28659d","64ec9487a1a8a4ad7cf5793b","null","null","<p style=""font-size: 60px; font-family: BACS"">hlbtbYDE</p>","","","","","","","","",""
"html-keyboard-response","317","419122","0.0-13.0-0.67","5b715800b31d480001eda165","64e77d7b61f440b60e28659d","64ec9487a1a8a4ad7cf5793b","null","null","<p style=""font-size: 60px; font-family: BACS"">uQkrdmkc</p>","","","","","","","","",""
"html-keyboard-response","318","420123","0.0-13.0-0.68","5b715800b31d480001eda165","64e77d7b61f440b60e28659d","64ec9487a1a8a4ad7cf5793b","null","null","<p style=""font-size: 60px; font-family: BACS"">YmBdDbMR</p>","","","","","","","","",""
"html-keyboard-response","319","421133","0.0-13.0-0.69","5b715800b31d480001eda165","64e77d7b61f440b60e28659d","64ec9487a1a8a4ad7cf5793b","null","null","<p style=""font-size: 60px; font-family: BACS"">EPERdYKPB</p>","","","","","","","","",""
"html-keyboard-response","320","422142","0.0-13.0-0.70","5b715800b31d480001eda165","64e77d7b61f440b60e28659d","64ec9487a1a8a4ad7cf5793b","null","null","<p style=""font-size: 60px; font-family: BACS"">ABPRBYDE</p>","","","","","","","","",""
"html-keyboard-response","321","423149","0.0-13.0-0.71","5b715800b31d480001eda165","64e77d7b61f440b60e28659d","64ec9487a1a8a4ad7cf5793b","null","null","<p style=""font-size: 60px; font-family: BACS"">kcdOtTRkY</p>","","","","","","","","",""
"html-keyboard-response","322","424153","0.0-13.0-0.72","5b715800b31d480001eda165","64e77d7b61f440b60e28659d","64ec9487a1a8a4ad7cf5793b","null","null","<p style=""font-size: 60px; font-family: BACS"">kLvdNZAUu</p>","","","","","","","","",""
"html-keyboard-response","323","425164","0.0-13.0-0.73","5b715800b31d480001eda165","64e77d7b61f440b60e28659d","64ec9487a1a8a4ad7cf5793b","null","null","<p style=""font-size: 60px; font-family: BACS"">vmuLlcUN</p>","","","","","","","","",""
"html-keyboard-response","324","426170","0.0-13.0-0.74","5b715800b31d480001eda165","64e77d7b61f440b60e28659d","64ec9487a1a8a4ad7cf5793b","null","null","<p style=""font-size: 60px; font-family: BACS"">hlbtbYKPB</p>","","","","","","","","",""
"html-keyboard-response","325","427180","0.0-13.0-0.75","5b715800b31d480001eda165","64e77d7b61f440b60e28659d","64ec9487a1a8a4ad7cf5793b","null","null","<p style=""font-size: 60px; font-family: BACS"">KABATAm</p>","","","","","","","","",""
"html-keyboard-response","326","428189","0.0-13.0-0.76","5b715800b31d480001eda165","64e77d7b61f440b60e28659d","64ec9487a1a8a4ad7cf5793b","null","null","<p style=""font-size: 60px; font-family: BACS"">lBlEYKPB</p>","","","","","","","","",""
"html-keyboard-response","327","429198","0.0-13.0-0.77","5b715800b31d480001eda165","64e77d7b61f440b60e28659d","64ec9487a1a8a4ad7cf5793b","null","null","<p style=""font-size: 60px; font-family: BACS"">vmuLlZAUu</p>","","","","","","","","",""
"html-keyboard-response","328","430207","0.0-13.0-0.78","5b715800b31d480001eda165","64e77d7b61f440b60e28659d","64ec9487a1a8a4ad7cf5793b","null","null","<p style=""font-size: 60px; font-family: BACS"">kGamNcUN</p>","","","","","","","","",""
"html-keyboard-response","329","431215","0.0-13.0-0.79","5b715800b31d480001eda165","64e77d7b61f440b60e28659d","64ec9487a1a8a4ad7cf5793b","null","null","<p style=""font-size: 60px; font-family: BACS"">OAmAdTAm</p>","","","","","","","","",""
"html-keyboard-response","330","433396","0.0-14.0","5b715800b31d480001eda165","64e77d7b61f440b60e28659d","64ec9487a1a8a4ad7cf5793b","2181"," ","<p>Great, you've seen the fourth block of words. You may now take a short break.</p>
      <p>Press the spacebar when you're ready to continue.</p>","","","","","","","","",""
"html-keyboard-response","331","434407","0.0-15.0-0.0","5b715800b31d480001eda165","64e77d7b61f440b60e28659d","64ec9487a1a8a4ad7cf5793b","null","null","<p style=""font-size: 60px; font-family: BACS"">kLvdNcUN</p>","","","","","","","","",""
"html-keyboard-response","332","435414","0.0-15.0-0.1","5b715800b31d480001eda165","64e77d7b61f440b60e28659d","64ec9487a1a8a4ad7cf5793b","null","null","<p style=""font-size: 60px; font-family: BACS"">kLvdNcUN</p>","","","","","","","","",""
"html-keyboard-response","333","436422","0.0-15.0-0.2","5b715800b31d480001eda165","64e77d7b61f440b60e28659d","64ec9487a1a8a4ad7cf5793b","null","null","<p style=""font-size: 60px; font-family: BACS"">kLvdNcUN</p>","","","","","","","","",""
"html-keyboard-response","334","437431","0.0-15.0-0.3","5b715800b31d480001eda165","64e77d7b61f440b60e28659d","64ec9487a1a8a4ad7cf5793b","null","null","<p style=""font-size: 60px; font-family: BACS"">kLvdNcUN</p>","","","","","","","","",""
"html-keyboard-response","335","438436","0.0-15.0-0.4","5b715800b31d480001eda165","64e77d7b61f440b60e28659d","64ec9487a1a8a4ad7cf5793b","null","null","<p style=""font-size: 60px; font-family: BACS"">kLvdNcUN</p>","","","","","","","","",""
"html-keyboard-response","336","439441","0.0-15.0-0.5","5b715800b31d480001eda165","64e77d7b61f440b60e28659d","64ec9487a1a8a4ad7cf5793b","null","null","<p style=""font-size: 60px; font-family: BACS"">kLvdNcUN</p>","","","","","","","","",""
"html-keyboard-response","337","440457","0.0-15.0-0.6","5b715800b31d480001eda165","64e77d7b61f440b60e28659d","64ec9487a1a8a4ad7cf5793b","null","null","<p style=""font-size: 60px; font-family: BACS"">kLvdNcUN</p>","","","","","","","","",""
"html-keyboard-response","338","441467","0.0-15.0-0.7","5b715800b31d480001eda165","64e77d7b61f440b60e28659d","64ec9487a1a8a4ad7cf5793b","null","null","<p style=""font-size: 60px; font-family: BACS"">kLvdNcUN</p>","","","","","","","","",""
"html-keyboard-response","339","442475","0.0-15.0-0.8","5b715800b31d480001eda165","64e77d7b61f440b60e28659d","64ec9487a1a8a4ad7cf5793b","null","null","<p style=""font-size: 60px; font-family: BACS"">kLvdNcUN</p>","","","","","","","","",""
"html-keyboard-response","340","443482","0.0-15.0-0.9","5b715800b31d480001eda165","64e77d7b61f440b60e28659d","64ec9487a1a8a4ad7cf5793b","null","null","<p style=""font-size: 60px; font-family: BACS"">kLvdNcUN</p>","","","","","","","","",""
"html-keyboard-response","341","444486","0.0-15.0-0.10","5b715800b31d480001eda165","64e77d7b61f440b60e28659d","64ec9487a1a8a4ad7cf5793b","null","null","<p style=""font-size: 60px; font-family: BACS"">kLvdNcUN</p>","","","","","","","","",""
"html-keyboard-response","342","445494","0.0-15.0-0.11","5b715800b31d480001eda165","64e77d7b61f440b60e28659d","64ec9487a1a8a4ad7cf5793b","null","null","<p style=""font-size: 60px; font-family: BACS"">kLvdNcUN</p>","","","","","","","","",""
"html-keyboard-response","343","446495","0.0-15.0-0.12","5b715800b31d480001eda165","64e77d7b61f440b60e28659d","64ec9487a1a8a4ad7cf5793b","null","null","<p style=""font-size: 60px; font-family: BACS"">kLvdNcUN</p>","","","","","","","","",""
"html-keyboard-response","344","447501","0.0-15.0-0.13","5b715800b31d480001eda165","64e77d7b61f440b60e28659d","64ec9487a1a8a4ad7cf5793b","null","null","<p style=""font-size: 60px; font-family: BACS"">kLvdNcUN</p>","","","","","","","","",""
"html-keyboard-response","345","448510","0.0-15.0-0.14","5b715800b31d480001eda165","64e77d7b61f440b60e28659d","64ec9487a1a8a4ad7cf5793b","null","null","<p style=""font-size: 60px; font-family: BACS"">kLvdNcUN</p>","","","","","","","","",""
"html-keyboard-response","346","449515","0.0-15.0-0.15","5b715800b31d480001eda165","64e77d7b61f440b60e28659d","64ec9487a1a8a4ad7cf5793b","null","null","<p style=""font-size: 60px; font-family: BACS"">kLvdNcUN</p>","","","","","","","","",""
"html-keyboard-response","347","450527","0.0-15.0-0.16","5b715800b31d480001eda165","64e77d7b61f440b60e28659d","64ec9487a1a8a4ad7cf5793b","null","null","<p style=""font-size: 60px; font-family: BACS"">kLvdNcUN</p>","","","","","","","","",""
"html-keyboard-response","348","451532","0.0-15.0-0.17","5b715800b31d480001eda165","64e77d7b61f440b60e28659d","64ec9487a1a8a4ad7cf5793b","null","null","<p style=""font-size: 60px; font-family: BACS"">kLvdNcUN</p>","","","","","","","","",""
"html-keyboard-response","349","452534","0.0-15.0-0.18","5b715800b31d480001eda165","64e77d7b61f440b60e28659d","64ec9487a1a8a4ad7cf5793b","null","null","<p style=""font-size: 60px; font-family: BACS"">kLvdNcUN</p>","","","","","","","","",""
"html-keyboard-response","350","453546","0.0-15.0-0.19","5b715800b31d480001eda165","64e77d7b61f440b60e28659d","64ec9487a1a8a4ad7cf5793b","null","null","<p style=""font-size: 60px; font-family: BACS"">kLvdNcUN</p>","","","","","","","","",""
"html-keyboard-response","351","454575","0.0-15.0-0.20","5b715800b31d480001eda165","64e77d7b61f440b60e28659d","64ec9487a1a8a4ad7cf5793b","null","null","<p style=""font-size: 60px; font-family: BACS"">kLvdNcUN</p>","","","","","","","","",""
"html-keyboard-response","352","455585","0.0-15.0-0.21","5b715800b31d480001eda165","64e77d7b61f440b60e28659d","64ec9487a1a8a4ad7cf5793b","null","null","<p style=""font-size: 60px; font-family: BACS"">kLvdNcUN</p>","","","","","","","","",""
"html-keyboard-response","353","456595","0.0-15.0-0.22","5b715800b31d480001eda165","64e77d7b61f440b60e28659d","64ec9487a1a8a4ad7cf5793b","null","null","<p style=""font-size: 60px; font-family: BACS"">kLvdNcUN</p>","","","","","","","","",""
"html-keyboard-response","354","457607","0.0-15.0-0.23","5b715800b31d480001eda165","64e77d7b61f440b60e28659d","64ec9487a1a8a4ad7cf5793b","null","null","<p style=""font-size: 60px; font-family: BACS"">kLvdNcUN</p>","","","","","","","","",""
"html-keyboard-response","355","458616","0.0-15.0-0.24","5b715800b31d480001eda165","64e77d7b61f440b60e28659d","64ec9487a1a8a4ad7cf5793b","null","null","<p style=""font-size: 60px; font-family: BACS"">kLvdNcUN</p>","","","","","","","","",""
"html-keyboard-response","356","459628","0.0-15.0-0.25","5b715800b31d480001eda165","64e77d7b61f440b60e28659d","64ec9487a1a8a4ad7cf5793b","null","null","<p style=""font-size: 60px; font-family: BACS"">kLvdNcUN</p>","","","","","","","","",""
"html-keyboard-response","357","460643","0.0-15.0-0.26","5b715800b31d480001eda165","64e77d7b61f440b60e28659d","64ec9487a1a8a4ad7cf5793b","null","null","<p style=""font-size: 60px; font-family: BACS"">kLvdNcUN</p>","","","","","","","","",""
"html-keyboard-response","358","461657","0.0-15.0-0.27","5b715800b31d480001eda165","64e77d7b61f440b60e28659d","64ec9487a1a8a4ad7cf5793b","null","null","<p style=""font-size: 60px; font-family: BACS"">kLvdNcUN</p>","","","","","","","","",""
"html-keyboard-response","359","462661","0.0-15.0-0.28","5b715800b31d480001eda165","64e77d7b61f440b60e28659d","64ec9487a1a8a4ad7cf5793b","null","null","<p style=""font-size: 60px; font-family: BACS"">kLvdNcUN</p>","","","","","","","","",""
"html-keyboard-response","360","463669","0.0-15.0-0.29","5b715800b31d480001eda165","64e77d7b61f440b60e28659d","64ec9487a1a8a4ad7cf5793b","null","null","<p style=""font-size: 60px; font-family: BACS"">kLvdNcUN</p>","","","","","","","","",""
"html-keyboard-response","361","464673","0.0-15.0-0.30","5b715800b31d480001eda165","64e77d7b61f440b60e28659d","64ec9487a1a8a4ad7cf5793b","null","null","<p style=""font-size: 60px; font-family: BACS"">kLvdNcUN</p>","","","","","","","","",""
"html-keyboard-response","362","465680","0.0-15.0-0.31","5b715800b31d480001eda165","64e77d7b61f440b60e28659d","64ec9487a1a8a4ad7cf5793b","null","null","<p style=""font-size: 60px; font-family: BACS"">kLvdNcUN</p>","","","","","","","","",""
"html-keyboard-response","363","466689","0.0-15.0-0.32","5b715800b31d480001eda165","64e77d7b61f440b60e28659d","64ec9487a1a8a4ad7cf5793b","null","null","<p style=""font-size: 60px; font-family: BACS"">kLvdNcUN</p>","","","","","","","","",""
"html-keyboard-response","364","467693","0.0-15.0-0.33","5b715800b31d480001eda165","64e77d7b61f440b60e28659d","64ec9487a1a8a4ad7cf5793b","null","null","<p style=""font-size: 60px; font-family: BACS"">kLvdNcUN</p>","","","","","","","","",""
"html-keyboard-response","365","468695","0.0-15.0-0.34","5b715800b31d480001eda165","64e77d7b61f440b60e28659d","64ec9487a1a8a4ad7cf5793b","null","null","<p style=""font-size: 60px; font-family: BACS"">kLvdNcUN</p>","","","","","","","","",""
"html-keyboard-response","366","469705","0.0-15.0-0.35","5b715800b31d480001eda165","64e77d7b61f440b60e28659d","64ec9487a1a8a4ad7cf5793b","null","null","<p style=""font-size: 60px; font-family: BACS"">kLvdNcUN</p>","","","","","","","","",""
"html-keyboard-response","367","470719","0.0-15.0-0.36","5b715800b31d480001eda165","64e77d7b61f440b60e28659d","64ec9487a1a8a4ad7cf5793b","null","null","<p style=""font-size: 60px; font-family: BACS"">kLvdNcUN</p>","","","","","","","","",""
"html-keyboard-response","368","471721","0.0-15.0-0.37","5b715800b31d480001eda165","64e77d7b61f440b60e28659d","64ec9487a1a8a4ad7cf5793b","null","null","<p style=""font-size: 60px; font-family: BACS"">kLvdNcUN</p>","","","","","","","","",""
"html-keyboard-response","369","472725","0.0-15.0-0.38","5b715800b31d480001eda165","64e77d7b61f440b60e28659d","64ec9487a1a8a4ad7cf5793b","null","null","<p style=""font-size: 60px; font-family: BACS"">kLvdNcUN</p>","","","","","","","","",""
"html-keyboard-response","370","473725","0.0-15.0-0.39","5b715800b31d480001eda165","64e77d7b61f440b60e28659d","64ec9487a1a8a4ad7cf5793b","null","null","<p style=""font-size: 60px; font-family: BACS"">kLvdNcUN</p>","","","","","","","","",""
"html-keyboard-response","371","474738","0.0-15.0-0.40","5b715800b31d480001eda165","64e77d7b61f440b60e28659d","64ec9487a1a8a4ad7cf5793b","null","null","<p style=""font-size: 60px; font-family: BACS"">kLvdNcUN</p>","","","","","","","","",""
"html-keyboard-response","372","475747","0.0-15.0-0.41","5b715800b31d480001eda165","64e77d7b61f440b60e28659d","64ec9487a1a8a4ad7cf5793b","null","null","<p style=""font-size: 60px; font-family: BACS"">kLvdNcUN</p>","","","","","","","","",""
"html-keyboard-response","373","476755","0.0-15.0-0.42","5b715800b31d480001eda165","64e77d7b61f440b60e28659d","64ec9487a1a8a4ad7cf5793b","null","null","<p style=""font-size: 60px; font-family: BACS"">kLvdNcUN</p>","","","","","","","","",""
"html-keyboard-response","374","477758","0.0-15.0-0.43","5b715800b31d480001eda165","64e77d7b61f440b60e28659d","64ec9487a1a8a4ad7cf5793b","null","null","<p style=""font-size: 60px; font-family: BACS"">kLvdNcUN</p>","","","","","","","","",""
"html-keyboard-response","375","478762","0.0-15.0-0.44","5b715800b31d480001eda165","64e77d7b61f440b60e28659d","64ec9487a1a8a4ad7cf5793b","null","null","<p style=""font-size: 60px; font-family: BACS"">kLvdNcUN</p>","","","","","","","","",""
"html-keyboard-response","376","479770","0.0-15.0-0.45","5b715800b31d480001eda165","64e77d7b61f440b60e28659d","64ec9487a1a8a4ad7cf5793b","null","null","<p style=""font-size: 60px; font-family: BACS"">kLvdNcUN</p>","","","","","","","","",""
"html-keyboard-response","377","480774","0.0-15.0-0.46","5b715800b31d480001eda165","64e77d7b61f440b60e28659d","64ec9487a1a8a4ad7cf5793b","null","null","<p style=""font-size: 60px; font-family: BACS"">kLvdNcUN</p>","","","","","","","","",""
"html-keyboard-response","378","481786","0.0-15.0-0.47","5b715800b31d480001eda165","64e77d7b61f440b60e28659d","64ec9487a1a8a4ad7cf5793b","null","null","<p style=""font-size: 60px; font-family: BACS"">kLvdNcUN</p>","","","","","","","","",""
"html-keyboard-response","379","482793","0.0-15.0-0.48","5b715800b31d480001eda165","64e77d7b61f440b60e28659d","64ec9487a1a8a4ad7cf5793b","null","null","<p style=""font-size: 60px; font-family: BACS"">kLvdNcUN</p>","","","","","","","","",""
"html-keyboard-response","380","483806","0.0-15.0-0.49","5b715800b31d480001eda165","64e77d7b61f440b60e28659d","64ec9487a1a8a4ad7cf5793b","null","null","<p style=""font-size: 60px; font-family: BACS"">kLvdNcUN</p>","","","","","","","","",""
"html-keyboard-response","381","484814","0.0-15.0-0.50","5b715800b31d480001eda165","64e77d7b61f440b60e28659d","64ec9487a1a8a4ad7cf5793b","null","null","<p style=""font-size: 60px; font-family: BACS"">kLvdNcUN</p>","","","","","","","","",""
"html-keyboard-response","382","485819","0.0-15.0-0.51","5b715800b31d480001eda165","64e77d7b61f440b60e28659d","64ec9487a1a8a4ad7cf5793b","null","null","<p style=""font-size: 60px; font-family: BACS"">kLvdNcUN</p>","","","","","","","","",""
"html-keyboard-response","383","486830","0.0-15.0-0.52","5b715800b31d480001eda165","64e77d7b61f440b60e28659d","64ec9487a1a8a4ad7cf5793b","null","null","<p style=""font-size: 60px; font-family: BACS"">kLvdNcUN</p>","","","","","","","","",""
"html-keyboard-response","384","487843","0.0-15.0-0.53","5b715800b31d480001eda165","64e77d7b61f440b60e28659d","64ec9487a1a8a4ad7cf5793b","null","null","<p style=""font-size: 60px; font-family: BACS"">kLvdNcUN</p>","","","","","","","","",""
"html-keyboard-response","385","488845","0.0-15.0-0.54","5b715800b31d480001eda165","64e77d7b61f440b60e28659d","64ec9487a1a8a4ad7cf5793b","null","null","<p style=""font-size: 60px; font-family: BACS"">kLvdNcUN</p>","","","","","","","","",""
"html-keyboard-response","386","489851","0.0-15.0-0.55","5b715800b31d480001eda165","64e77d7b61f440b60e28659d","64ec9487a1a8a4ad7cf5793b","null","null","<p style=""font-size: 60px; font-family: BACS"">kLvdNcUN</p>","","","","","","","","",""
"html-keyboard-response","387","490863","0.0-15.0-0.56","5b715800b31d480001eda165","64e77d7b61f440b60e28659d","64ec9487a1a8a4ad7cf5793b","null","null","<p style=""font-size: 60px; font-family: BACS"">kLvdNcUN</p>","","","","","","","","",""
"html-keyboard-response","388","491876","0.0-15.0-0.57","5b715800b31d480001eda165","64e77d7b61f440b60e28659d","64ec9487a1a8a4ad7cf5793b","null","null","<p style=""font-size: 60px; font-family: BACS"">kLvdNcUN</p>","","","","","","","","",""
"html-keyboard-response","389","492892","0.0-15.0-0.58","5b715800b31d480001eda165","64e77d7b61f440b60e28659d","64ec9487a1a8a4ad7cf5793b","null","null","<p style=""font-size: 60px; font-family: BACS"">kLvdNcUN</p>","","","","","","","","",""
"html-keyboard-response","390","493896","0.0-15.0-0.59","5b715800b31d480001eda165","64e77d7b61f440b60e28659d","64ec9487a1a8a4ad7cf5793b","null","null","<p style=""font-size: 60px; font-family: BACS"">kLvdNcUN</p>","","","","","","","","",""
"html-keyboard-response","391","494908","0.0-15.0-0.60","5b715800b31d480001eda165","64e77d7b61f440b60e28659d","64ec9487a1a8a4ad7cf5793b","null","null","<p style=""font-size: 60px; font-family: BACS"">kLvdNcUN</p>","","","","","","","","",""
"html-keyboard-response","392","495910","0.0-15.0-0.61","5b715800b31d480001eda165","64e77d7b61f440b60e28659d","64ec9487a1a8a4ad7cf5793b","null","null","<p style=""font-size: 60px; font-family: BACS"">kLvdNcUN</p>","","","","","","","","",""
"html-keyboard-response","393","496921","0.0-15.0-0.62","5b715800b31d480001eda165","64e77d7b61f440b60e28659d","64ec9487a1a8a4ad7cf5793b","null","null","<p style=""font-size: 60px; font-family: BACS"">kLvdNcUN</p>","","","","","","","","",""
"html-keyboard-response","394","497950","0.0-15.0-0.63","5b715800b31d480001eda165","64e77d7b61f440b60e28659d","64ec9487a1a8a4ad7cf5793b","null","null","<p style=""font-size: 60px; font-family: BACS"">kLvdNcUN</p>","","","","","","","","",""
"html-keyboard-response","395","498956","0.0-15.0-0.64","5b715800b31d480001eda165","64e77d7b61f440b60e28659d","64ec9487a1a8a4ad7cf5793b","null","null","<p style=""font-size: 60px; font-family: BACS"">kLvdNcUN</p>","","","","","","","","",""
"html-keyboard-response","396","499960","0.0-15.0-0.65","5b715800b31d480001eda165","64e77d7b61f440b60e28659d","64ec9487a1a8a4ad7cf5793b","null","null","<p style=""font-size: 60px; font-family: BACS"">kLvdNcUN</p>","","","","","","","","",""
"html-keyboard-response","397","500967","0.0-15.0-0.66","5b715800b31d480001eda165","64e77d7b61f440b60e28659d","64ec9487a1a8a4ad7cf5793b","null","null","<p style=""font-size: 60px; font-family: BACS"">kLvdNcUN</p>","","","","","","","","",""
"html-keyboard-response","398","501970","0.0-15.0-0.67","5b715800b31d480001eda165","64e77d7b61f440b60e28659d","64ec9487a1a8a4ad7cf5793b","null","null","<p style=""font-size: 60px; font-family: BACS"">kLvdNcUN</p>","","","","","","","","",""
"html-keyboard-response","399","502978","0.0-15.0-0.68","5b715800b31d480001eda165","64e77d7b61f440b60e28659d","64ec9487a1a8a4ad7cf5793b","null","null","<p style=""font-size: 60px; font-family: BACS"">kLvdNcUN</p>","","","","","","","","",""
"html-keyboard-response","400","503986","0.0-15.0-0.69","5b715800b31d480001eda165","64e77d7b61f440b60e28659d","64ec9487a1a8a4ad7cf5793b","null","null","<p style=""font-size: 60px; font-family: BACS"">kLvdNcUN</p>","","","","","","","","",""
