"trial_type","trial_index","time_elapsed","internal_node_id","subject_id","study_id","session_id","rt","response","stimulus","success","item","task","correct_response","testing_condition","correct","target","confound","name","view_history"
"pavlovia","0","760","0.0-0.0","6042a56575ab0c1ccffc3152","650c16f0f2faf8d7a0d14c09","651c1dd79a806b7d581df9a3","","","","","","","","","","","","",""
"survey-html-form","1","5412","0.0-1.0","6042a56575ab0c1ccffc3152","650c16f0f2faf8d7a0d14c09","651c1dd79a806b7d581df9a3","4651","{""ID"":""6042a56575ab0c1ccffc3152""}","","","","","","","","","","",""
"html-keyboard-response","2","26408","0.0-2.0","6042a56575ab0c1ccffc3152","650c16f0f2faf8d7a0d14c09","651c1dd79a806b7d581df9a3","20995"," ","<p style=""font-size: 15px;"">Before beginning, we ask that you read the consent information and confirm your agreement to participate in the experiment.</p>
      <p style=""font-size: 15px;""> We ask that you remember that this is a research project and that your participation is entirely voluntary. You can stop your participation at any time, without needing to provide any explanation. The study we're asking you to participate in aims at examining how readers process written words. You will be engaged in a session of apprximately 20 minutes, followed by a brief questionnaire. You will have the opportunity to take a few breaks during the experiment. You will be paid £4 for your participation, corresponding to a rate of £8/hour. While this experiment looks at cognitive faculties, this experiment doesn't constitute clinical proof of eventual pathologies.</p>
      <p style=""font-size: 15px;"">All of the information collected thanks to yours and others' participation will be held in a secure password-protected server, and will not be shared with anyone not authorised to view it. Your personal information will be kept with an arbitrary participant ID. Thanks to this data anonymity process, any researcher analysing the data won't be able to track the information back to a specific participant. Therefore, this process will make identifying you impossibile, even when results from the study will be published in scientific reviews, presented at congresses, or at any other public forum. More generally, the collected data will be treated in accordance with the laws on privacy and conformity to the Legislative Degree n. 196 ""Code regarding the protection of personal data"" of the 30th of June 2003 and to the European Regulation 2016/670 (General Data Protection Regulation - GDPR). The Data Protection Officer is Avv. Valentina Carollo, who can be contacted at the following email addresses: <a href=""mailto:dpo@sissa.it"">dpo@sissa.it</a> or <a href=""mailto:rpd@sissa.it"">rpd@sissa.it</a> - PEC: <a href=""mailto:protocollo@pec.sissa.it"">protocollo@pec.sissa.it</a>.</p>
      <p style=""font-size: 15px;""> Before expressing your consent to participate, we would like to remind you again that in case you need explanations on any aspect of the experimental procedure, the researcher is at your disposition (<a href=""mailto:aliebelt@sissa.it"">aliebelt@sissa.it</a>, <a href=""mailto:davide.crepaldi@sissa.it"">davide.crepaldi@sissa.it</a>).</p>
      <p style=""font-size: 15px;"">If you would like to download the informed consent form, you can do so here: <a href=""BASL-Informed_Consent.pdf"" download>informed consent form</a>.</p>
      <p style=""font-size: 15px;"">We ask that you press the spacebar to proceed to the consent section.</p>","","","","","","","","","",""
"survey-html-form","3","41306","0.0-3.0","6042a56575ab0c1ccffc3152","650c16f0f2faf8d7a0d14c09","651c1dd79a806b7d581df9a3","14897","{""consent1"":""YES"",""consent2"":""YES"",""consent3"":""YES"",""consent4"":""YES"",""consent5"":""YES"",""consent6"":""YES""}","","","","","","","","","","",""
"fullscreen","4","46620","0.0-4.0","6042a56575ab0c1ccffc3152","650c16f0f2faf8d7a0d14c09","651c1dd79a806b7d581df9a3","","","","true","","","","","","","","",""
"html-keyboard-response","5","58262","0.0-5.0","6042a56575ab0c1ccffc3152","650c16f0f2faf8d7a0d14c09","651c1dd79a806b7d581df9a3","11641"," ","<p>Welcome, and thank you very much for your time!</p>
      <p>In this experiment, you'll be a language expert who's been asked to take a look at words that Earth has received in its first communication with aliens. Your task, in this first part of the experiment, is to pay close attention to the words you'll be shown; later, world leaders will ask you questions on what you saw. The words will be shown to you quite quickly; it seems that the aliens were in a hurry :-)</p>
      <p>Press the spacebar to continue.<p>","","","","","","","","","",""
"html-keyboard-response","6","58312","0.0-6.0","6042a56575ab0c1ccffc3152","650c16f0f2faf8d7a0d14c09","651c1dd79a806b7d581df9a3","null","null","<p style=""font-size: 120px; font-family: BACS""> </p>","","","","","","","","","",""
"html-keyboard-response","7","63221","0.0-7.0","6042a56575ab0c1ccffc3152","650c16f0f2faf8d7a0d14c09","651c1dd79a806b7d581df9a3","4909"," ","<p>Here is an example of the words you'll see:</p>
      <img src='esempio.png' height='400px'>
      <p>When you're ready to begin, press the spacebar.</p></div>","","","","","","","","","",""
"html-keyboard-response","8","64224","0.0-8.0-0.0","6042a56575ab0c1ccffc3152","650c16f0f2faf8d7a0d14c09","651c1dd79a806b7d581df9a3","null","null","<p style=""font-size: 60px; font-family: BACS"">udkmGrbk</p>","","","","","","","","","",""
"html-keyboard-response","9","65225","0.0-8.0-0.1","6042a56575ab0c1ccffc3152","650c16f0f2faf8d7a0d14c09","651c1dd79a806b7d581df9a3","null","null","<p style=""font-size: 60px; font-family: BACS"">lYruaYArG</p>","","","","","","","","","",""
"html-keyboard-response","10","66227","0.0-8.0-0.2","6042a56575ab0c1ccffc3152","650c16f0f2faf8d7a0d14c09","651c1dd79a806b7d581df9a3","null","null","<p style=""font-size: 60px; font-family: BACS"">DmAMETRK</p>","","","","","","","","","",""
"html-keyboard-response","11","67228","0.0-8.0-0.3","6042a56575ab0c1ccffc3152","650c16f0f2faf8d7a0d14c09","651c1dd79a806b7d581df9a3","null","null","<p style=""font-size: 60px; font-family: BACS"">NJZlYNu</p>","","","","","","","","","",""
"html-keyboard-response","12","68230","0.0-8.0-0.4","6042a56575ab0c1ccffc3152","650c16f0f2faf8d7a0d14c09","651c1dd79a806b7d581df9a3","null","null","<p style=""font-size: 60px; font-family: BACS"">TCbDCOBT</p>","","","","","","","","","",""
"html-keyboard-response","13","69231","0.0-8.0-0.5","6042a56575ab0c1ccffc3152","650c16f0f2faf8d7a0d14c09","651c1dd79a806b7d581df9a3","null","null","<p style=""font-size: 60px; font-family: BACS"">dYdATRK</p>","","","","","","","","","",""
"html-keyboard-response","14","70233","0.0-8.0-0.6","6042a56575ab0c1ccffc3152","650c16f0f2faf8d7a0d14c09","651c1dd79a806b7d581df9a3","null","null","<p style=""font-size: 60px; font-family: BACS"">lYruaYkZ</p>","","","","","","","","","",""
"html-keyboard-response","15","71235","0.0-8.0-0.7","6042a56575ab0c1ccffc3152","650c16f0f2faf8d7a0d14c09","651c1dd79a806b7d581df9a3","null","null","<p style=""font-size: 60px; font-family: BACS"">adkrYArG</p>","","","","","","","","","",""
"html-keyboard-response","16","72237","0.0-8.0-0.8","6042a56575ab0c1ccffc3152","650c16f0f2faf8d7a0d14c09","651c1dd79a806b7d581df9a3","null","null","<p style=""font-size: 60px; font-family: BACS"">dYdAdBC</p>","","","","","","","","","",""
"html-keyboard-response","17","73239","0.0-8.0-0.9","6042a56575ab0c1ccffc3152","650c16f0f2faf8d7a0d14c09","651c1dd79a806b7d581df9a3","null","null","<p style=""font-size: 60px; font-family: BACS"">PMPtkTRK</p>","","","","","","","","","",""
"html-keyboard-response","18","74240","0.0-8.0-0.10","6042a56575ab0c1ccffc3152","650c16f0f2faf8d7a0d14c09","651c1dd79a806b7d581df9a3","null","null","<p style=""font-size: 60px; font-family: BACS"">lbBDEOBT</p>","","","","","","","","","",""
"html-keyboard-response","19","75241","0.0-8.0-0.11","6042a56575ab0c1ccffc3152","650c16f0f2faf8d7a0d14c09","651c1dd79a806b7d581df9a3","null","null","<p style=""font-size: 60px; font-family: BACS"">adkrdYAJ</p>","","","","","","","","","",""
"html-keyboard-response","20","76242","0.0-8.0-0.12","6042a56575ab0c1ccffc3152","650c16f0f2faf8d7a0d14c09","651c1dd79a806b7d581df9a3","null","null","<p style=""font-size: 60px; font-family: BACS"">DkTCPdBC</p>","","","","","","","","","",""
"html-keyboard-response","21","77244","0.0-8.0-0.13","6042a56575ab0c1ccffc3152","650c16f0f2faf8d7a0d14c09","651c1dd79a806b7d581df9a3","null","null","<p style=""font-size: 60px; font-family: BACS"">OmtlDTPOM</p>","","","","","","","","","",""
"html-keyboard-response","22","78246","0.0-8.0-0.14","6042a56575ab0c1ccffc3152","650c16f0f2faf8d7a0d14c09","651c1dd79a806b7d581df9a3","null","null","<p style=""font-size: 60px; font-family: BACS"">thbOMTRK</p>","","","","","","","","","",""
"html-keyboard-response","23","79246","0.0-8.0-0.15","6042a56575ab0c1ccffc3152","650c16f0f2faf8d7a0d14c09","651c1dd79a806b7d581df9a3","null","null","<p style=""font-size: 60px; font-family: BACS"">DmAMEdBC</p>","","","","","","","","","",""
"html-keyboard-response","24","80248","0.0-8.0-0.16","6042a56575ab0c1ccffc3152","650c16f0f2faf8d7a0d14c09","651c1dd79a806b7d581df9a3","null","null","<p style=""font-size: 60px; font-family: BACS"">rbYbuYArG</p>","","","","","","","","","",""
"html-keyboard-response","25","81249","0.0-8.0-0.17","6042a56575ab0c1ccffc3152","650c16f0f2faf8d7a0d14c09","651c1dd79a806b7d581df9a3","null","null","<p style=""font-size: 60px; font-family: BACS"">dYdAOBT</p>","","","","","","","","","",""
"html-keyboard-response","26","82250","0.0-8.0-0.18","6042a56575ab0c1ccffc3152","650c16f0f2faf8d7a0d14c09","651c1dd79a806b7d581df9a3","null","null","<p style=""font-size: 60px; font-family: BACS"">lYruaGrbk</p>","","","","","","","","","",""
"html-keyboard-response","27","83252","0.0-8.0-0.19","6042a56575ab0c1ccffc3152","650c16f0f2faf8d7a0d14c09","651c1dd79a806b7d581df9a3","null","null","<p style=""font-size: 60px; font-family: BACS"">TdTDOBT</p>","","","","","","","","","",""
"html-keyboard-response","28","84253","0.0-8.0-0.20","6042a56575ab0c1ccffc3152","650c16f0f2faf8d7a0d14c09","651c1dd79a806b7d581df9a3","null","null","<p style=""font-size: 60px; font-family: BACS"">NJZlGrbk</p>","","","","","","","","","",""
"html-keyboard-response","29","85255","0.0-8.0-0.21","6042a56575ab0c1ccffc3152","650c16f0f2faf8d7a0d14c09","651c1dd79a806b7d581df9a3","null","null","<p style=""font-size: 60px; font-family: BACS"">TCbDCTRK</p>","","","","","","","","","",""
"html-keyboard-response","30","86256","0.0-8.0-0.22","6042a56575ab0c1ccffc3152","650c16f0f2faf8d7a0d14c09","651c1dd79a806b7d581df9a3","null","null","<p style=""font-size: 60px; font-family: BACS"">LuNZYNu</p>","","","","","","","","","",""
"html-keyboard-response","31","87258","0.0-8.0-0.23","6042a56575ab0c1ccffc3152","650c16f0f2faf8d7a0d14c09","651c1dd79a806b7d581df9a3","null","null","<p style=""font-size: 60px; font-family: BACS"">OmtlDOBT</p>","","","","","","","","","",""
"html-keyboard-response","32","88260","0.0-8.0-0.24","6042a56575ab0c1ccffc3152","650c16f0f2faf8d7a0d14c09","651c1dd79a806b7d581df9a3","null","null","<p style=""font-size: 60px; font-family: BACS"">rckOYArG</p>","","","","","","","","","",""
"html-keyboard-response","33","89260","0.0-8.0-0.25","6042a56575ab0c1ccffc3152","650c16f0f2faf8d7a0d14c09","651c1dd79a806b7d581df9a3","null","null","<p style=""font-size: 60px; font-family: BACS"">rbYbudYAJ</p>","","","","","","","","","",""
"html-keyboard-response","34","90262","0.0-8.0-0.26","6042a56575ab0c1ccffc3152","650c16f0f2faf8d7a0d14c09","651c1dd79a806b7d581df9a3","null","null","<p style=""font-size: 60px; font-family: BACS"">dClOCOBT</p>","","","","","","","","","",""
"html-keyboard-response","35","91263","0.0-8.0-0.27","6042a56575ab0c1ccffc3152","650c16f0f2faf8d7a0d14c09","651c1dd79a806b7d581df9a3","null","null","<p style=""font-size: 60px; font-family: BACS"">rbYbuGrbk</p>","","","","","","","","","",""
"html-keyboard-response","36","92265","0.0-8.0-0.28","6042a56575ab0c1ccffc3152","650c16f0f2faf8d7a0d14c09","651c1dd79a806b7d581df9a3","null","null","<p style=""font-size: 60px; font-family: BACS"">TdTDOPE</p>","","","","","","","","","",""
"html-keyboard-response","37","93267","0.0-8.0-0.29","6042a56575ab0c1ccffc3152","650c16f0f2faf8d7a0d14c09","651c1dd79a806b7d581df9a3","null","null","<p style=""font-size: 60px; font-family: BACS"">lbBDETPOM</p>","","","","","","","","","",""
"html-keyboard-response","38","94269","0.0-8.0-0.30","6042a56575ab0c1ccffc3152","650c16f0f2faf8d7a0d14c09","651c1dd79a806b7d581df9a3","null","null","<p style=""font-size: 60px; font-family: BACS"">kabJbdYAJ</p>","","","","","","","","","",""
"html-keyboard-response","39","95271","0.0-8.0-0.31","6042a56575ab0c1ccffc3152","650c16f0f2faf8d7a0d14c09","651c1dd79a806b7d581df9a3","null","null","<p style=""font-size: 60px; font-family: BACS"">lbBDEdBC</p>","","","","","","","","","",""
"html-keyboard-response","40","96272","0.0-8.0-0.32","6042a56575ab0c1ccffc3152","650c16f0f2faf8d7a0d14c09","651c1dd79a806b7d581df9a3","null","null","<p style=""font-size: 60px; font-family: BACS"">udkmdYAJ</p>","","","","","","","","","",""
"html-keyboard-response","41","97273","0.0-8.0-0.33","6042a56575ab0c1ccffc3152","650c16f0f2faf8d7a0d14c09","651c1dd79a806b7d581df9a3","null","null","<p style=""font-size: 60px; font-family: BACS"">OmtlDOPE</p>","","","","","","","","","",""
"html-keyboard-response","42","98275","0.0-8.0-0.34","6042a56575ab0c1ccffc3152","650c16f0f2faf8d7a0d14c09","651c1dd79a806b7d581df9a3","null","null","<p style=""font-size: 60px; font-family: BACS"">bmbNYkZ</p>","","","","","","","","","",""
"html-keyboard-response","43","99283","0.0-8.0-0.35","6042a56575ab0c1ccffc3152","650c16f0f2faf8d7a0d14c09","651c1dd79a806b7d581df9a3","null","null","<p style=""font-size: 60px; font-family: BACS"">udkmYNu</p>","","","","","","","","","",""
"html-keyboard-response","44","100286","0.0-8.0-0.36","6042a56575ab0c1ccffc3152","650c16f0f2faf8d7a0d14c09","651c1dd79a806b7d581df9a3","null","null","<p style=""font-size: 60px; font-family: BACS"">YUNkZYkZ</p>","","","","","","","","","",""
"html-keyboard-response","45","101287","0.0-8.0-0.37","6042a56575ab0c1ccffc3152","650c16f0f2faf8d7a0d14c09","651c1dd79a806b7d581df9a3","null","null","<p style=""font-size: 60px; font-family: BACS"">dClOCTPOM</p>","","","","","","","","","",""
"html-keyboard-response","46","102288","0.0-8.0-0.38","6042a56575ab0c1ccffc3152","650c16f0f2faf8d7a0d14c09","651c1dd79a806b7d581df9a3","null","null","<p style=""font-size: 60px; font-family: BACS"">LuNZYkZ</p>","","","","","","","","","",""
"html-keyboard-response","47","103290","0.0-8.0-0.39","6042a56575ab0c1ccffc3152","650c16f0f2faf8d7a0d14c09","651c1dd79a806b7d581df9a3","null","null","<p style=""font-size: 60px; font-family: BACS"">kabJbYArG</p>","","","","","","","","","",""
"html-keyboard-response","48","104291","0.0-8.0-0.40","6042a56575ab0c1ccffc3152","650c16f0f2faf8d7a0d14c09","651c1dd79a806b7d581df9a3","null","null","<p style=""font-size: 60px; font-family: BACS"">lYruaYNu</p>","","","","","","","","","",""
"html-keyboard-response","49","105292","0.0-8.0-0.41","6042a56575ab0c1ccffc3152","650c16f0f2faf8d7a0d14c09","651c1dd79a806b7d581df9a3","null","null","<p style=""font-size: 60px; font-family: BACS"">TdTDTPOM</p>","","","","","","","","","",""
"html-keyboard-response","50","106293","0.0-8.0-0.42","6042a56575ab0c1ccffc3152","650c16f0f2faf8d7a0d14c09","651c1dd79a806b7d581df9a3","null","null","<p style=""font-size: 60px; font-family: BACS"">DkTCPOPE</p>","","","","","","","","","",""
"html-keyboard-response","51","107295","0.0-8.0-0.43","6042a56575ab0c1ccffc3152","650c16f0f2faf8d7a0d14c09","651c1dd79a806b7d581df9a3","null","null","<p style=""font-size: 60px; font-family: BACS"">adkrYkZ</p>","","","","","","","","","",""
"html-keyboard-response","52","108296","0.0-8.0-0.44","6042a56575ab0c1ccffc3152","650c16f0f2faf8d7a0d14c09","651c1dd79a806b7d581df9a3","null","null","<p style=""font-size: 60px; font-family: BACS"">PMPtkTPOM</p>","","","","","","","","","",""
"html-keyboard-response","53","109297","0.0-8.0-0.45","6042a56575ab0c1ccffc3152","650c16f0f2faf8d7a0d14c09","651c1dd79a806b7d581df9a3","null","null","<p style=""font-size: 60px; font-family: BACS"">YUNkZYArG</p>","","","","","","","","","",""
"html-keyboard-response","54","110298","0.0-8.0-0.46","6042a56575ab0c1ccffc3152","650c16f0f2faf8d7a0d14c09","651c1dd79a806b7d581df9a3","null","null","<p style=""font-size: 60px; font-family: BACS"">rckOdYAJ</p>","","","","","","","","","",""
"html-keyboard-response","55","111300","0.0-8.0-0.47","6042a56575ab0c1ccffc3152","650c16f0f2faf8d7a0d14c09","651c1dd79a806b7d581df9a3","null","null","<p style=""font-size: 60px; font-family: BACS"">thbOMdBC</p>","","","","","","","","","",""
"html-keyboard-response","56","112303","0.0-8.0-0.48","6042a56575ab0c1ccffc3152","650c16f0f2faf8d7a0d14c09","651c1dd79a806b7d581df9a3","null","null","<p style=""font-size: 60px; font-family: BACS"">DkTCPTRK</p>","","","","","","","","","",""
"html-keyboard-response","57","113305","0.0-8.0-0.49","6042a56575ab0c1ccffc3152","650c16f0f2faf8d7a0d14c09","651c1dd79a806b7d581df9a3","null","null","<p style=""font-size: 60px; font-family: BACS"">dClOCOPE</p>","","","","","","","","","",""
"html-keyboard-response","58","114306","0.0-8.0-0.50","6042a56575ab0c1ccffc3152","650c16f0f2faf8d7a0d14c09","651c1dd79a806b7d581df9a3","null","null","<p style=""font-size: 60px; font-family: BACS"">DkTCPTPOM</p>","","","","","","","","","",""
"html-keyboard-response","59","115307","0.0-8.0-0.51","6042a56575ab0c1ccffc3152","650c16f0f2faf8d7a0d14c09","651c1dd79a806b7d581df9a3","null","null","<p style=""font-size: 60px; font-family: BACS"">LuNZYArG</p>","","","","","","","","","",""
"html-keyboard-response","60","116308","0.0-8.0-0.52","6042a56575ab0c1ccffc3152","650c16f0f2faf8d7a0d14c09","651c1dd79a806b7d581df9a3","null","null","<p style=""font-size: 60px; font-family: BACS"">rckOGrbk</p>","","","","","","","","","",""
"html-keyboard-response","61","117309","0.0-8.0-0.53","6042a56575ab0c1ccffc3152","650c16f0f2faf8d7a0d14c09","651c1dd79a806b7d581df9a3","null","null","<p style=""font-size: 60px; font-family: BACS"">dClOCdBC</p>","","","","","","","","","",""
"html-keyboard-response","62","118310","0.0-8.0-0.54","6042a56575ab0c1ccffc3152","650c16f0f2faf8d7a0d14c09","651c1dd79a806b7d581df9a3","null","null","<p style=""font-size: 60px; font-family: BACS"">OmtlDTRK</p>","","","","","","","","","",""
"html-keyboard-response","63","119311","0.0-8.0-0.55","6042a56575ab0c1ccffc3152","650c16f0f2faf8d7a0d14c09","651c1dd79a806b7d581df9a3","null","null","<p style=""font-size: 60px; font-family: BACS"">NJZldYAJ</p>","","","","","","","","","",""
"html-keyboard-response","64","120312","0.0-8.0-0.56","6042a56575ab0c1ccffc3152","650c16f0f2faf8d7a0d14c09","651c1dd79a806b7d581df9a3","null","null","<p style=""font-size: 60px; font-family: BACS"">kabJbYNu</p>","","","","","","","","","",""
"html-keyboard-response","65","121314","0.0-8.0-0.57","6042a56575ab0c1ccffc3152","650c16f0f2faf8d7a0d14c09","651c1dd79a806b7d581df9a3","null","null","<p style=""font-size: 60px; font-family: BACS"">PMPtkOBT</p>","","","","","","","","","",""
"html-keyboard-response","66","122315","0.0-8.0-0.58","6042a56575ab0c1ccffc3152","650c16f0f2faf8d7a0d14c09","651c1dd79a806b7d581df9a3","null","null","<p style=""font-size: 60px; font-family: BACS"">rbYbuYkZ</p>","","","","","","","","","",""
"html-keyboard-response","67","123317","0.0-8.0-0.59","6042a56575ab0c1ccffc3152","650c16f0f2faf8d7a0d14c09","651c1dd79a806b7d581df9a3","null","null","<p style=""font-size: 60px; font-family: BACS"">dYdAOPE</p>","","","","","","","","","",""
"html-keyboard-response","68","124318","0.0-8.0-0.60","6042a56575ab0c1ccffc3152","650c16f0f2faf8d7a0d14c09","651c1dd79a806b7d581df9a3","null","null","<p style=""font-size: 60px; font-family: BACS"">TCbDCdBC</p>","","","","","","","","","",""
"html-keyboard-response","69","125320","0.0-8.0-0.61","6042a56575ab0c1ccffc3152","650c16f0f2faf8d7a0d14c09","651c1dd79a806b7d581df9a3","null","null","<p style=""font-size: 60px; font-family: BACS"">LuNZGrbk</p>","","","","","","","","","",""
"html-keyboard-response","70","126321","0.0-8.0-0.62","6042a56575ab0c1ccffc3152","650c16f0f2faf8d7a0d14c09","651c1dd79a806b7d581df9a3","null","null","<p style=""font-size: 60px; font-family: BACS"">PMPtkdBC</p>","","","","","","","","","",""
"html-keyboard-response","71","127322","0.0-8.0-0.63","6042a56575ab0c1ccffc3152","650c16f0f2faf8d7a0d14c09","651c1dd79a806b7d581df9a3","null","null","<p style=""font-size: 60px; font-family: BACS"">NJZlYkZ</p>","","","","","","","","","",""
"html-keyboard-response","72","128323","0.0-8.0-0.64","6042a56575ab0c1ccffc3152","650c16f0f2faf8d7a0d14c09","651c1dd79a806b7d581df9a3","null","null","<p style=""font-size: 60px; font-family: BACS"">adkrYNu</p>","","","","","","","","","",""
"html-keyboard-response","73","129325","0.0-8.0-0.65","6042a56575ab0c1ccffc3152","650c16f0f2faf8d7a0d14c09","651c1dd79a806b7d581df9a3","null","null","<p style=""font-size: 60px; font-family: BACS"">thbOMOPE</p>","","","","","","","","","",""
"html-keyboard-response","74","130326","0.0-8.0-0.66","6042a56575ab0c1ccffc3152","650c16f0f2faf8d7a0d14c09","651c1dd79a806b7d581df9a3","null","null","<p style=""font-size: 60px; font-family: BACS"">TdTDTRK</p>","","","","","","","","","",""
"html-keyboard-response","75","131326","0.0-8.0-0.67","6042a56575ab0c1ccffc3152","650c16f0f2faf8d7a0d14c09","651c1dd79a806b7d581df9a3","null","null","<p style=""font-size: 60px; font-family: BACS"">bmbNYArG</p>","","","","","","","","","",""
"html-keyboard-response","76","132327","0.0-8.0-0.68","6042a56575ab0c1ccffc3152","650c16f0f2faf8d7a0d14c09","651c1dd79a806b7d581df9a3","null","null","<p style=""font-size: 60px; font-family: BACS"">YUNkZGrbk</p>","","","","","","","","","",""
"html-keyboard-response","77","133329","0.0-8.0-0.69","6042a56575ab0c1ccffc3152","650c16f0f2faf8d7a0d14c09","651c1dd79a806b7d581df9a3","null","null","<p style=""font-size: 60px; font-family: BACS"">bmbNYNu</p>","","","","","","","","","",""
"html-keyboard-response","78","134330","0.0-8.0-0.70","6042a56575ab0c1ccffc3152","650c16f0f2faf8d7a0d14c09","651c1dd79a806b7d581df9a3","null","null","<p style=""font-size: 60px; font-family: BACS"">TCbDCTPOM</p>","","","","","","","","","",""
"html-keyboard-response","79","135331","0.0-8.0-0.71","6042a56575ab0c1ccffc3152","650c16f0f2faf8d7a0d14c09","651c1dd79a806b7d581df9a3","null","null","<p style=""font-size: 60px; font-family: BACS"">DmAMEOBT</p>","","","","","","","","","",""
"html-keyboard-response","80","136333","0.0-8.0-0.72","6042a56575ab0c1ccffc3152","650c16f0f2faf8d7a0d14c09","651c1dd79a806b7d581df9a3","null","null","<p style=""font-size: 60px; font-family: BACS"">lbBDEOPE</p>","","","","","","","","","",""
"html-keyboard-response","81","137334","0.0-8.0-0.73","6042a56575ab0c1ccffc3152","650c16f0f2faf8d7a0d14c09","651c1dd79a806b7d581df9a3","null","null","<p style=""font-size: 60px; font-family: BACS"">udkmYkZ</p>","","","","","","","","","",""
"html-keyboard-response","82","138336","0.0-8.0-0.74","6042a56575ab0c1ccffc3152","650c16f0f2faf8d7a0d14c09","651c1dd79a806b7d581df9a3","null","null","<p style=""font-size: 60px; font-family: BACS"">rckOYNu</p>","","","","","","","","","",""
"html-keyboard-response","83","139338","0.0-8.0-0.75","6042a56575ab0c1ccffc3152","650c16f0f2faf8d7a0d14c09","651c1dd79a806b7d581df9a3","null","null","<p style=""font-size: 60px; font-family: BACS"">YUNkZdYAJ</p>","","","","","","","","","",""
"html-keyboard-response","84","140339","0.0-8.0-0.76","6042a56575ab0c1ccffc3152","650c16f0f2faf8d7a0d14c09","651c1dd79a806b7d581df9a3","null","null","<p style=""font-size: 60px; font-family: BACS"">DmAMEOPE</p>","","","","","","","","","",""
"html-keyboard-response","85","141341","0.0-8.0-0.77","6042a56575ab0c1ccffc3152","650c16f0f2faf8d7a0d14c09","651c1dd79a806b7d581df9a3","null","null","<p style=""font-size: 60px; font-family: BACS"">bmbNdYAJ</p>","","","","","","","","","",""
"html-keyboard-response","86","142342","0.0-8.0-0.78","6042a56575ab0c1ccffc3152","650c16f0f2faf8d7a0d14c09","651c1dd79a806b7d581df9a3","null","null","<p style=""font-size: 60px; font-family: BACS"">thbOMTPOM</p>","","","","","","","","","",""
"html-keyboard-response","87","143344","0.0-8.0-0.79","6042a56575ab0c1ccffc3152","650c16f0f2faf8d7a0d14c09","651c1dd79a806b7d581df9a3","null","null","<p style=""font-size: 60px; font-family: BACS"">kabJbGrbk</p>","","","","","","","","","",""
"html-keyboard-response","88","146542","0.0-9.0","6042a56575ab0c1ccffc3152","650c16f0f2faf8d7a0d14c09","651c1dd79a806b7d581df9a3","3197"," ","<p>Great, you've seen the first block of words. You may now take a short break.</p>
      <p>Press the spacebar when you're ready to continue.</p>","","","","","","","","","",""
"html-keyboard-response","89","147542","0.0-10.0-0.0","6042a56575ab0c1ccffc3152","650c16f0f2faf8d7a0d14c09","651c1dd79a806b7d581df9a3","null","null","<p style=""font-size: 60px; font-family: BACS"">bmbNdYAJ</p>","","","","","","","","","",""
"html-keyboard-response","90","148543","0.0-10.0-0.1","6042a56575ab0c1ccffc3152","650c16f0f2faf8d7a0d14c09","651c1dd79a806b7d581df9a3","null","null","<p style=""font-size: 60px; font-family: BACS"">PMPtkdBC</p>","","","","","","","","","",""
"html-keyboard-response","91","149544","0.0-10.0-0.2","6042a56575ab0c1ccffc3152","650c16f0f2faf8d7a0d14c09","651c1dd79a806b7d581df9a3","null","null","<p style=""font-size: 60px; font-family: BACS"">DkTCPTPOM</p>","","","","","","","","","",""
"html-keyboard-response","92","150545","0.0-10.0-0.3","6042a56575ab0c1ccffc3152","650c16f0f2faf8d7a0d14c09","651c1dd79a806b7d581df9a3","null","null","<p style=""font-size: 60px; font-family: BACS"">adkrYArG</p>","","","","","","","","","",""
"html-keyboard-response","93","151547","0.0-10.0-0.4","6042a56575ab0c1ccffc3152","650c16f0f2faf8d7a0d14c09","651c1dd79a806b7d581df9a3","null","null","<p style=""font-size: 60px; font-family: BACS"">lbBDETPOM</p>","","","","","","","","","",""
"html-keyboard-response","94","152548","0.0-10.0-0.5","6042a56575ab0c1ccffc3152","650c16f0f2faf8d7a0d14c09","651c1dd79a806b7d581df9a3","null","null","<p style=""font-size: 60px; font-family: BACS"">rckOYNu</p>","","","","","","","","","",""
"html-keyboard-response","95","153550","0.0-10.0-0.6","6042a56575ab0c1ccffc3152","650c16f0f2faf8d7a0d14c09","651c1dd79a806b7d581df9a3","null","null","<p style=""font-size: 60px; font-family: BACS"">NJZlGrbk</p>","","","","","","","","","",""
"html-keyboard-response","96","154552","0.0-10.0-0.7","6042a56575ab0c1ccffc3152","650c16f0f2faf8d7a0d14c09","651c1dd79a806b7d581df9a3","null","null","<p style=""font-size: 60px; font-family: BACS"">adkrdYAJ</p>","","","","","","","","","",""
"html-keyboard-response","97","155553","0.0-10.0-0.8","6042a56575ab0c1ccffc3152","650c16f0f2faf8d7a0d14c09","651c1dd79a806b7d581df9a3","null","null","<p style=""font-size: 60px; font-family: BACS"">dYdAdBC</p>","","","","","","","","","",""
"html-keyboard-response","98","156554","0.0-10.0-0.9","6042a56575ab0c1ccffc3152","650c16f0f2faf8d7a0d14c09","651c1dd79a806b7d581df9a3","null","null","<p style=""font-size: 60px; font-family: BACS"">dClOCTPOM</p>","","","","","","","","","",""
"html-keyboard-response","99","157555","0.0-10.0-0.10","6042a56575ab0c1ccffc3152","650c16f0f2faf8d7a0d14c09","651c1dd79a806b7d581df9a3","null","null","<p style=""font-size: 60px; font-family: BACS"">TCbDCTRK</p>","","","","","","","","","",""
"html-keyboard-response","100","158557","0.0-10.0-0.11","6042a56575ab0c1ccffc3152","650c16f0f2faf8d7a0d14c09","651c1dd79a806b7d581df9a3","null","null","<p style=""font-size: 60px; font-family: BACS"">dClOCOPE</p>","","","","","","","","","",""
"html-keyboard-response","101","159559","0.0-10.0-0.12","6042a56575ab0c1ccffc3152","650c16f0f2faf8d7a0d14c09","651c1dd79a806b7d581df9a3","null","null","<p style=""font-size: 60px; font-family: BACS"">udkmdYAJ</p>","","","","","","","","","",""
"html-keyboard-response","102","160560","0.0-10.0-0.13","6042a56575ab0c1ccffc3152","650c16f0f2faf8d7a0d14c09","651c1dd79a806b7d581df9a3","null","null","<p style=""font-size: 60px; font-family: BACS"">DmAMEdBC</p>","","","","","","","","","",""
"html-keyboard-response","103","161562","0.0-10.0-0.14","6042a56575ab0c1ccffc3152","650c16f0f2faf8d7a0d14c09","651c1dd79a806b7d581df9a3","null","null","<p style=""font-size: 60px; font-family: BACS"">rckOdYAJ</p>","","","","","","","","","",""
"html-keyboard-response","104","162564","0.0-10.0-0.15","6042a56575ab0c1ccffc3152","650c16f0f2faf8d7a0d14c09","651c1dd79a806b7d581df9a3","null","null","<p style=""font-size: 60px; font-family: BACS"">dClOCdBC</p>","","","","","","","","","",""
"html-keyboard-response","105","163565","0.0-10.0-0.16","6042a56575ab0c1ccffc3152","650c16f0f2faf8d7a0d14c09","651c1dd79a806b7d581df9a3","null","null","<p style=""font-size: 60px; font-family: BACS"">NJZlYkZ</p>","","","","","","","","","",""
"html-keyboard-response","106","164568","0.0-10.0-0.17","6042a56575ab0c1ccffc3152","650c16f0f2faf8d7a0d14c09","651c1dd79a806b7d581df9a3","null","null","<p style=""font-size: 60px; font-family: BACS"">OmtlDOBT</p>","","","","","","","","","",""
"html-keyboard-response","107","165569","0.0-10.0-0.18","6042a56575ab0c1ccffc3152","650c16f0f2faf8d7a0d14c09","651c1dd79a806b7d581df9a3","null","null","<p style=""font-size: 60px; font-family: BACS"">YUNkZYArG</p>","","","","","","","","","",""
"html-keyboard-response","108","166571","0.0-10.0-0.19","6042a56575ab0c1ccffc3152","650c16f0f2faf8d7a0d14c09","651c1dd79a806b7d581df9a3","null","null","<p style=""font-size: 60px; font-family: BACS"">OmtlDOPE</p>","","","","","","","","","",""
"html-keyboard-response","109","167572","0.0-10.0-0.20","6042a56575ab0c1ccffc3152","650c16f0f2faf8d7a0d14c09","651c1dd79a806b7d581df9a3","null","null","<p style=""font-size: 60px; font-family: BACS"">rbYbudYAJ</p>","","","","","","","","","",""
"html-keyboard-response","110","168573","0.0-10.0-0.21","6042a56575ab0c1ccffc3152","650c16f0f2faf8d7a0d14c09","651c1dd79a806b7d581df9a3","null","null","<p style=""font-size: 60px; font-family: BACS"">bmbNYNu</p>","","","","","","","","","",""
"html-keyboard-response","111","169574","0.0-10.0-0.22","6042a56575ab0c1ccffc3152","650c16f0f2faf8d7a0d14c09","651c1dd79a806b7d581df9a3","null","null","<p style=""font-size: 60px; font-family: BACS"">TCbDCOBT</p>","","","","","","","","","",""
"html-keyboard-response","112","170576","0.0-10.0-0.23","6042a56575ab0c1ccffc3152","650c16f0f2faf8d7a0d14c09","651c1dd79a806b7d581df9a3","null","null","<p style=""font-size: 60px; font-family: BACS"">dYdATRK</p>","","","","","","","","","",""
"html-keyboard-response","113","171578","0.0-10.0-0.24","6042a56575ab0c1ccffc3152","650c16f0f2faf8d7a0d14c09","651c1dd79a806b7d581df9a3","null","null","<p style=""font-size: 60px; font-family: BACS"">lbBDEOPE</p>","","","","","","","","","",""
"html-keyboard-response","114","172579","0.0-10.0-0.25","6042a56575ab0c1ccffc3152","650c16f0f2faf8d7a0d14c09","651c1dd79a806b7d581df9a3","null","null","<p style=""font-size: 60px; font-family: BACS"">LuNZGrbk</p>","","","","","","","","","",""
"html-keyboard-response","115","173581","0.0-10.0-0.26","6042a56575ab0c1ccffc3152","650c16f0f2faf8d7a0d14c09","651c1dd79a806b7d581df9a3","null","null","<p style=""font-size: 60px; font-family: BACS"">lbBDEdBC</p>","","","","","","","","","",""
"html-keyboard-response","116","174582","0.0-10.0-0.27","6042a56575ab0c1ccffc3152","650c16f0f2faf8d7a0d14c09","651c1dd79a806b7d581df9a3","null","null","<p style=""font-size: 60px; font-family: BACS"">YUNkZdYAJ</p>","","","","","","","","","",""
"html-keyboard-response","117","175584","0.0-10.0-0.28","6042a56575ab0c1ccffc3152","650c16f0f2faf8d7a0d14c09","651c1dd79a806b7d581df9a3","null","null","<p style=""font-size: 60px; font-family: BACS"">PMPtkTRK</p>","","","","","","","","","",""
"html-keyboard-response","118","176586","0.0-10.0-0.29","6042a56575ab0c1ccffc3152","650c16f0f2faf8d7a0d14c09","651c1dd79a806b7d581df9a3","null","null","<p style=""font-size: 60px; font-family: BACS"">TdTDTPOM</p>","","","","","","","","","",""
"html-keyboard-response","119","177587","0.0-10.0-0.30","6042a56575ab0c1ccffc3152","650c16f0f2faf8d7a0d14c09","651c1dd79a806b7d581df9a3","null","null","<p style=""font-size: 60px; font-family: BACS"">lYruaGrbk</p>","","","","","","","","","",""
"html-keyboard-response","120","178589","0.0-10.0-0.31","6042a56575ab0c1ccffc3152","650c16f0f2faf8d7a0d14c09","651c1dd79a806b7d581df9a3","null","null","<p style=""font-size: 60px; font-family: BACS"">LuNZYArG</p>","","","","","","","","","",""
"html-keyboard-response","121","179591","0.0-10.0-0.32","6042a56575ab0c1ccffc3152","650c16f0f2faf8d7a0d14c09","651c1dd79a806b7d581df9a3","null","null","<p style=""font-size: 60px; font-family: BACS"">PMPtkTPOM</p>","","","","","","","","","",""
"html-keyboard-response","122","180592","0.0-10.0-0.33","6042a56575ab0c1ccffc3152","650c16f0f2faf8d7a0d14c09","651c1dd79a806b7d581df9a3","null","null","<p style=""font-size: 60px; font-family: BACS"">OmtlDTRK</p>","","","","","","","","","",""
"html-keyboard-response","123","181594","0.0-10.0-0.34","6042a56575ab0c1ccffc3152","650c16f0f2faf8d7a0d14c09","651c1dd79a806b7d581df9a3","null","null","<p style=""font-size: 60px; font-family: BACS"">YUNkZYkZ</p>","","","","","","","","","",""
"html-keyboard-response","124","182595","0.0-10.0-0.35","6042a56575ab0c1ccffc3152","650c16f0f2faf8d7a0d14c09","651c1dd79a806b7d581df9a3","null","null","<p style=""font-size: 60px; font-family: BACS"">udkmGrbk</p>","","","","","","","","","",""
"html-keyboard-response","125","183597","0.0-10.0-0.36","6042a56575ab0c1ccffc3152","650c16f0f2faf8d7a0d14c09","651c1dd79a806b7d581df9a3","null","null","<p style=""font-size: 60px; font-family: BACS"">TdTDOBT</p>","","","","","","","","","",""
"html-keyboard-response","126","184598","0.0-10.0-0.37","6042a56575ab0c1ccffc3152","650c16f0f2faf8d7a0d14c09","651c1dd79a806b7d581df9a3","null","null","<p style=""font-size: 60px; font-family: BACS"">YUNkZGrbk</p>","","","","","","","","","",""
"html-keyboard-response","127","185599","0.0-10.0-0.38","6042a56575ab0c1ccffc3152","650c16f0f2faf8d7a0d14c09","651c1dd79a806b7d581df9a3","null","null","<p style=""font-size: 60px; font-family: BACS"">NJZlYNu</p>","","","","","","","","","",""
"html-keyboard-response","128","186601","0.0-10.0-0.39","6042a56575ab0c1ccffc3152","650c16f0f2faf8d7a0d14c09","651c1dd79a806b7d581df9a3","null","null","<p style=""font-size: 60px; font-family: BACS"">lYruaYkZ</p>","","","","","","","","","",""
"html-keyboard-response","129","187603","0.0-10.0-0.40","6042a56575ab0c1ccffc3152","650c16f0f2faf8d7a0d14c09","651c1dd79a806b7d581df9a3","null","null","<p style=""font-size: 60px; font-family: BACS"">rbYbuGrbk</p>","","","","","","","","","",""
"html-keyboard-response","130","188605","0.0-10.0-0.41","6042a56575ab0c1ccffc3152","650c16f0f2faf8d7a0d14c09","651c1dd79a806b7d581df9a3","null","null","<p style=""font-size: 60px; font-family: BACS"">adkrYkZ</p>","","","","","","","","","",""
"html-keyboard-response","131","189606","0.0-10.0-0.42","6042a56575ab0c1ccffc3152","650c16f0f2faf8d7a0d14c09","651c1dd79a806b7d581df9a3","null","null","<p style=""font-size: 60px; font-family: BACS"">TdTDOPE</p>","","","","","","","","","",""
"html-keyboard-response","132","190607","0.0-10.0-0.43","6042a56575ab0c1ccffc3152","650c16f0f2faf8d7a0d14c09","651c1dd79a806b7d581df9a3","null","null","<p style=""font-size: 60px; font-family: BACS"">adkrYNu</p>","","","","","","","","","",""
"html-keyboard-response","133","191609","0.0-10.0-0.44","6042a56575ab0c1ccffc3152","650c16f0f2faf8d7a0d14c09","651c1dd79a806b7d581df9a3","null","null","<p style=""font-size: 60px; font-family: BACS"">bmbNYArG</p>","","","","","","","","","",""
"html-keyboard-response","134","192611","0.0-10.0-0.45","6042a56575ab0c1ccffc3152","650c16f0f2faf8d7a0d14c09","651c1dd79a806b7d581df9a3","null","null","<p style=""font-size: 60px; font-family: BACS"">thbOMTPOM</p>","","","","","","","","","",""
"html-keyboard-response","135","193614","0.0-10.0-0.46","6042a56575ab0c1ccffc3152","650c16f0f2faf8d7a0d14c09","651c1dd79a806b7d581df9a3","null","null","<p style=""font-size: 60px; font-family: BACS"">dYdAOBT</p>","","","","","","","","","",""
"html-keyboard-response","136","194614","0.0-10.0-0.47","6042a56575ab0c1ccffc3152","650c16f0f2faf8d7a0d14c09","651c1dd79a806b7d581df9a3","null","null","<p style=""font-size: 60px; font-family: BACS"">thbOMdBC</p>","","","","","","","","","",""
"html-keyboard-response","137","195616","0.0-10.0-0.48","6042a56575ab0c1ccffc3152","650c16f0f2faf8d7a0d14c09","651c1dd79a806b7d581df9a3","null","null","<p style=""font-size: 60px; font-family: BACS"">dYdAOPE</p>","","","","","","","","","",""
"html-keyboard-response","138","196617","0.0-10.0-0.49","6042a56575ab0c1ccffc3152","650c16f0f2faf8d7a0d14c09","651c1dd79a806b7d581df9a3","null","null","<p style=""font-size: 60px; font-family: BACS"">dClOCOBT</p>","","","","","","","","","",""
"html-keyboard-response","139","197618","0.0-10.0-0.50","6042a56575ab0c1ccffc3152","650c16f0f2faf8d7a0d14c09","651c1dd79a806b7d581df9a3","null","null","<p style=""font-size: 60px; font-family: BACS"">DkTCPdBC</p>","","","","","","","","","",""
"html-keyboard-response","140","198619","0.0-10.0-0.51","6042a56575ab0c1ccffc3152","650c16f0f2faf8d7a0d14c09","651c1dd79a806b7d581df9a3","null","null","<p style=""font-size: 60px; font-family: BACS"">kabJbYNu</p>","","","","","","","","","",""
"html-keyboard-response","141","199621","0.0-10.0-0.52","6042a56575ab0c1ccffc3152","650c16f0f2faf8d7a0d14c09","651c1dd79a806b7d581df9a3","null","null","<p style=""font-size: 60px; font-family: BACS"">rckOGrbk</p>","","","","","","","","","",""
"html-keyboard-response","142","200622","0.0-10.0-0.53","6042a56575ab0c1ccffc3152","650c16f0f2faf8d7a0d14c09","651c1dd79a806b7d581df9a3","null","null","<p style=""font-size: 60px; font-family: BACS"">rbYbuYArG</p>","","","","","","","","","",""
"html-keyboard-response","143","201623","0.0-10.0-0.54","6042a56575ab0c1ccffc3152","650c16f0f2faf8d7a0d14c09","651c1dd79a806b7d581df9a3","null","null","<p style=""font-size: 60px; font-family: BACS"">PMPtkOBT</p>","","","","","","","","","",""
"html-keyboard-response","144","202625","0.0-10.0-0.55","6042a56575ab0c1ccffc3152","650c16f0f2faf8d7a0d14c09","651c1dd79a806b7d581df9a3","null","null","<p style=""font-size: 60px; font-family: BACS"">TCbDCTPOM</p>","","","","","","","","","",""
"html-keyboard-response","145","203626","0.0-10.0-0.56","6042a56575ab0c1ccffc3152","650c16f0f2faf8d7a0d14c09","651c1dd79a806b7d581df9a3","null","null","<p style=""font-size: 60px; font-family: BACS"">DkTCPTRK</p>","","","","","","","","","",""
"html-keyboard-response","146","204627","0.0-10.0-0.57","6042a56575ab0c1ccffc3152","650c16f0f2faf8d7a0d14c09","651c1dd79a806b7d581df9a3","null","null","<p style=""font-size: 60px; font-family: BACS"">LuNZYNu</p>","","","","","","","","","",""
"html-keyboard-response","147","205629","0.0-10.0-0.58","6042a56575ab0c1ccffc3152","650c16f0f2faf8d7a0d14c09","651c1dd79a806b7d581df9a3","null","null","<p style=""font-size: 60px; font-family: BACS"">TCbDCdBC</p>","","","","","","","","","",""
"html-keyboard-response","148","206630","0.0-10.0-0.59","6042a56575ab0c1ccffc3152","650c16f0f2faf8d7a0d14c09","651c1dd79a806b7d581df9a3","null","null","<p style=""font-size: 60px; font-family: BACS"">kabJbGrbk</p>","","","","","","","","","",""
"html-keyboard-response","149","207631","0.0-10.0-0.60","6042a56575ab0c1ccffc3152","650c16f0f2faf8d7a0d14c09","651c1dd79a806b7d581df9a3","null","null","<p style=""font-size: 60px; font-family: BACS"">TdTDTRK</p>","","","","","","","","","",""
"html-keyboard-response","150","208634","0.0-10.0-0.61","6042a56575ab0c1ccffc3152","650c16f0f2faf8d7a0d14c09","651c1dd79a806b7d581df9a3","null","null","<p style=""font-size: 60px; font-family: BACS"">DkTCPOPE</p>","","","","","","","","","",""
"html-keyboard-response","151","209635","0.0-10.0-0.62","6042a56575ab0c1ccffc3152","650c16f0f2faf8d7a0d14c09","651c1dd79a806b7d581df9a3","null","null","<p style=""font-size: 60px; font-family: BACS"">rbYbuYkZ</p>","","","","","","","","","",""
"html-keyboard-response","152","210636","0.0-10.0-0.63","6042a56575ab0c1ccffc3152","650c16f0f2faf8d7a0d14c09","651c1dd79a806b7d581df9a3","null","null","<p style=""font-size: 60px; font-family: BACS"">kabJbYArG</p>","","","","","","","","","",""
"html-keyboard-response","153","211638","0.0-10.0-0.64","6042a56575ab0c1ccffc3152","650c16f0f2faf8d7a0d14c09","651c1dd79a806b7d581df9a3","null","null","<p style=""font-size: 60px; font-family: BACS"">udkmYkZ</p>","","","","","","","","","",""
"html-keyboard-response","154","212640","0.0-10.0-0.65","6042a56575ab0c1ccffc3152","650c16f0f2faf8d7a0d14c09","651c1dd79a806b7d581df9a3","null","null","<p style=""font-size: 60px; font-family: BACS"">lYruaYArG</p>","","","","","","","","","",""
"html-keyboard-response","155","213642","0.0-10.0-0.66","6042a56575ab0c1ccffc3152","650c16f0f2faf8d7a0d14c09","651c1dd79a806b7d581df9a3","null","null","<p style=""font-size: 60px; font-family: BACS"">DmAMEOBT</p>","","","","","","","","","",""
"html-keyboard-response","156","214645","0.0-10.0-0.67","6042a56575ab0c1ccffc3152","650c16f0f2faf8d7a0d14c09","651c1dd79a806b7d581df9a3","null","null","<p style=""font-size: 60px; font-family: BACS"">kabJbdYAJ</p>","","","","","","","","","",""
"html-keyboard-response","157","215646","0.0-10.0-0.68","6042a56575ab0c1ccffc3152","650c16f0f2faf8d7a0d14c09","651c1dd79a806b7d581df9a3","null","null","<p style=""font-size: 60px; font-family: BACS"">thbOMOPE</p>","","","","","","","","","",""
"html-keyboard-response","158","216647","0.0-10.0-0.69","6042a56575ab0c1ccffc3152","650c16f0f2faf8d7a0d14c09","651c1dd79a806b7d581df9a3","null","null","<p style=""font-size: 60px; font-family: BACS"">lbBDEOBT</p>","","","","","","","","","",""
"html-keyboard-response","159","217649","0.0-10.0-0.70","6042a56575ab0c1ccffc3152","650c16f0f2faf8d7a0d14c09","651c1dd79a806b7d581df9a3","null","null","<p style=""font-size: 60px; font-family: BACS"">udkmYNu</p>","","","","","","","","","",""
"html-keyboard-response","160","218651","0.0-10.0-0.71","6042a56575ab0c1ccffc3152","650c16f0f2faf8d7a0d14c09","651c1dd79a806b7d581df9a3","null","null","<p style=""font-size: 60px; font-family: BACS"">DmAMEOPE</p>","","","","","","","","","",""
"html-keyboard-response","161","219651","0.0-10.0-0.72","6042a56575ab0c1ccffc3152","650c16f0f2faf8d7a0d14c09","651c1dd79a806b7d581df9a3","null","null","<p style=""font-size: 60px; font-family: BACS"">OmtlDTPOM</p>","","","","","","","","","",""
"html-keyboard-response","162","220652","0.0-10.0-0.73","6042a56575ab0c1ccffc3152","650c16f0f2faf8d7a0d14c09","651c1dd79a806b7d581df9a3","null","null","<p style=""font-size: 60px; font-family: BACS"">thbOMTRK</p>","","","","","","","","","",""
"html-keyboard-response","163","221655","0.0-10.0-0.74","6042a56575ab0c1ccffc3152","650c16f0f2faf8d7a0d14c09","651c1dd79a806b7d581df9a3","null","null","<p style=""font-size: 60px; font-family: BACS"">NJZldYAJ</p>","","","","","","","","","",""
"html-keyboard-response","164","222657","0.0-10.0-0.75","6042a56575ab0c1ccffc3152","650c16f0f2faf8d7a0d14c09","651c1dd79a806b7d581df9a3","null","null","<p style=""font-size: 60px; font-family: BACS"">bmbNYkZ</p>","","","","","","","","","",""
"html-keyboard-response","165","223658","0.0-10.0-0.76","6042a56575ab0c1ccffc3152","650c16f0f2faf8d7a0d14c09","651c1dd79a806b7d581df9a3","null","null","<p style=""font-size: 60px; font-family: BACS"">rckOYArG</p>","","","","","","","","","",""
"html-keyboard-response","166","224659","0.0-10.0-0.77","6042a56575ab0c1ccffc3152","650c16f0f2faf8d7a0d14c09","651c1dd79a806b7d581df9a3","null","null","<p style=""font-size: 60px; font-family: BACS"">lYruaYNu</p>","","","","","","","","","",""
"html-keyboard-response","167","225660","0.0-10.0-0.78","6042a56575ab0c1ccffc3152","650c16f0f2faf8d7a0d14c09","651c1dd79a806b7d581df9a3","null","null","<p style=""font-size: 60px; font-family: BACS"">LuNZYkZ</p>","","","","","","","","","",""
"html-keyboard-response","168","226662","0.0-10.0-0.79","6042a56575ab0c1ccffc3152","650c16f0f2faf8d7a0d14c09","651c1dd79a806b7d581df9a3","null","null","<p style=""font-size: 60px; font-family: BACS"">DmAMETRK</p>","","","","","","","","","",""
"html-keyboard-response","169","230296","0.0-11.0","6042a56575ab0c1ccffc3152","650c16f0f2faf8d7a0d14c09","651c1dd79a806b7d581df9a3","3634"," ","<p>Great, you've seen the second block of words. You may now take a short break.</p>
      <p>Press the spacebar when you're ready to continue.</p>","","","","","","","","","",""
"html-keyboard-response","170","231297","0.0-12.0-0.0","6042a56575ab0c1ccffc3152","650c16f0f2faf8d7a0d14c09","651c1dd79a806b7d581df9a3","null","null","<p style=""font-size: 60px; font-family: BACS"">DkTCPdBC</p>","","","","","","","","","",""
"html-keyboard-response","171","232299","0.0-12.0-0.1","6042a56575ab0c1ccffc3152","650c16f0f2faf8d7a0d14c09","651c1dd79a806b7d581df9a3","null","null","<p style=""font-size: 60px; font-family: BACS"">PMPtkTPOM</p>","","","","","","","","","",""
"html-keyboard-response","172","233300","0.0-12.0-0.2","6042a56575ab0c1ccffc3152","650c16f0f2faf8d7a0d14c09","651c1dd79a806b7d581df9a3","null","null","<p style=""font-size: 60px; font-family: BACS"">DmAMETRK</p>","","","","","","","","","",""
"html-keyboard-response","173","234302","0.0-12.0-0.3","6042a56575ab0c1ccffc3152","650c16f0f2faf8d7a0d14c09","651c1dd79a806b7d581df9a3","null","null","<p style=""font-size: 60px; font-family: BACS"">OmtlDOPE</p>","","","","","","","","","",""
"html-keyboard-response","174","235303","0.0-12.0-0.4","6042a56575ab0c1ccffc3152","650c16f0f2faf8d7a0d14c09","651c1dd79a806b7d581df9a3","null","null","<p style=""font-size: 60px; font-family: BACS"">lbBDETPOM</p>","","","","","","","","","",""
"html-keyboard-response","175","236304","0.0-12.0-0.5","6042a56575ab0c1ccffc3152","650c16f0f2faf8d7a0d14c09","651c1dd79a806b7d581df9a3","null","null","<p style=""font-size: 60px; font-family: BACS"">TCbDCdBC</p>","","","","","","","","","",""
"html-keyboard-response","176","237305","0.0-12.0-0.6","6042a56575ab0c1ccffc3152","650c16f0f2faf8d7a0d14c09","651c1dd79a806b7d581df9a3","null","null","<p style=""font-size: 60px; font-family: BACS"">bmbNdYAJ</p>","","","","","","","","","",""
"html-keyboard-response","177","238306","0.0-12.0-0.7","6042a56575ab0c1ccffc3152","650c16f0f2faf8d7a0d14c09","651c1dd79a806b7d581df9a3","null","null","<p style=""font-size: 60px; font-family: BACS"">kabJbYNu</p>","","","","","","","","","",""
"html-keyboard-response","178","239308","0.0-12.0-0.8","6042a56575ab0c1ccffc3152","650c16f0f2faf8d7a0d14c09","651c1dd79a806b7d581df9a3","null","null","<p style=""font-size: 60px; font-family: BACS"">adkrYkZ</p>","","","","","","","","","",""
"html-keyboard-response","179","240309","0.0-12.0-0.9","6042a56575ab0c1ccffc3152","650c16f0f2faf8d7a0d14c09","651c1dd79a806b7d581df9a3","null","null","<p style=""font-size: 60px; font-family: BACS"">dYdAdBC</p>","","","","","","","","","",""
"html-keyboard-response","180","241310","0.0-12.0-0.10","6042a56575ab0c1ccffc3152","650c16f0f2faf8d7a0d14c09","651c1dd79a806b7d581df9a3","null","null","<p style=""font-size: 60px; font-family: BACS"">dClOCOBT</p>","","","","","","","","","",""
"html-keyboard-response","181","242311","0.0-12.0-0.11","6042a56575ab0c1ccffc3152","650c16f0f2faf8d7a0d14c09","651c1dd79a806b7d581df9a3","null","null","<p style=""font-size: 60px; font-family: BACS"">rckOYNu</p>","","","","","","","","","",""
"html-keyboard-response","182","243312","0.0-12.0-0.12","6042a56575ab0c1ccffc3152","650c16f0f2faf8d7a0d14c09","651c1dd79a806b7d581df9a3","null","null","<p style=""font-size: 60px; font-family: BACS"">NJZldYAJ</p>","","","","","","","","","",""
"html-keyboard-response","183","244312","0.0-12.0-0.13","6042a56575ab0c1ccffc3152","650c16f0f2faf8d7a0d14c09","651c1dd79a806b7d581df9a3","null","null","<p style=""font-size: 60px; font-family: BACS"">TCbDCTPOM</p>","","","","","","","","","",""
"html-keyboard-response","184","245314","0.0-12.0-0.14","6042a56575ab0c1ccffc3152","650c16f0f2faf8d7a0d14c09","651c1dd79a806b7d581df9a3","null","null","<p style=""font-size: 60px; font-family: BACS"">TdTDOBT</p>","","","","","","","","","",""
"html-keyboard-response","185","246316","0.0-12.0-0.15","6042a56575ab0c1ccffc3152","650c16f0f2faf8d7a0d14c09","651c1dd79a806b7d581df9a3","null","null","<p style=""font-size: 60px; font-family: BACS"">LuNZYkZ</p>","","","","","","","","","",""
"html-keyboard-response","186","247318","0.0-12.0-0.16","6042a56575ab0c1ccffc3152","650c16f0f2faf8d7a0d14c09","651c1dd79a806b7d581df9a3","null","null","<p style=""font-size: 60px; font-family: BACS"">dClOCOPE</p>","","","","","","","","","",""
"html-keyboard-response","187","248320","0.0-12.0-0.17","6042a56575ab0c1ccffc3152","650c16f0f2faf8d7a0d14c09","651c1dd79a806b7d581df9a3","null","null","<p style=""font-size: 60px; font-family: BACS"">thbOMTRK</p>","","","","","","","","","",""
"html-keyboard-response","188","249321","0.0-12.0-0.18","6042a56575ab0c1ccffc3152","650c16f0f2faf8d7a0d14c09","651c1dd79a806b7d581df9a3","null","null","<p style=""font-size: 60px; font-family: BACS"">NJZlGrbk</p>","","","","","","","","","",""
"html-keyboard-response","189","250322","0.0-12.0-0.19","6042a56575ab0c1ccffc3152","650c16f0f2faf8d7a0d14c09","651c1dd79a806b7d581df9a3","null","null","<p style=""font-size: 60px; font-family: BACS"">lbBDEOPE</p>","","","","","","","","","",""
"html-keyboard-response","190","251324","0.0-12.0-0.20","6042a56575ab0c1ccffc3152","650c16f0f2faf8d7a0d14c09","651c1dd79a806b7d581df9a3","null","null","<p style=""font-size: 60px; font-family: BACS"">dYdAOBT</p>","","","","","","","","","",""
"html-keyboard-response","191","252325","0.0-12.0-0.21","6042a56575ab0c1ccffc3152","650c16f0f2faf8d7a0d14c09","651c1dd79a806b7d581df9a3","null","null","<p style=""font-size: 60px; font-family: BACS"">kabJbYArG</p>","","","","","","","","","",""
"html-keyboard-response","192","253327","0.0-12.0-0.22","6042a56575ab0c1ccffc3152","650c16f0f2faf8d7a0d14c09","651c1dd79a806b7d581df9a3","null","null","<p style=""font-size: 60px; font-family: BACS"">rbYbuGrbk</p>","","","","","","","","","",""
"html-keyboard-response","193","254328","0.0-12.0-0.23","6042a56575ab0c1ccffc3152","650c16f0f2faf8d7a0d14c09","651c1dd79a806b7d581df9a3","null","null","<p style=""font-size: 60px; font-family: BACS"">bmbNYkZ</p>","","","","","","","","","",""
"html-keyboard-response","194","255330","0.0-12.0-0.24","6042a56575ab0c1ccffc3152","650c16f0f2faf8d7a0d14c09","651c1dd79a806b7d581df9a3","null","null","<p style=""font-size: 60px; font-family: BACS"">PMPtkTRK</p>","","","","","","","","","",""
"html-keyboard-response","195","256330","0.0-12.0-0.25","6042a56575ab0c1ccffc3152","650c16f0f2faf8d7a0d14c09","651c1dd79a806b7d581df9a3","null","null","<p style=""font-size: 60px; font-family: BACS"">LuNZYArG</p>","","","","","","","","","",""
"html-keyboard-response","196","257331","0.0-12.0-0.26","6042a56575ab0c1ccffc3152","650c16f0f2faf8d7a0d14c09","651c1dd79a806b7d581df9a3","null","null","<p style=""font-size: 60px; font-family: BACS"">DkTCPTPOM</p>","","","","","","","","","",""
"html-keyboard-response","197","258333","0.0-12.0-0.27","6042a56575ab0c1ccffc3152","650c16f0f2faf8d7a0d14c09","651c1dd79a806b7d581df9a3","null","null","<p style=""font-size: 60px; font-family: BACS"">dClOCdBC</p>","","","","","","","","","",""
"html-keyboard-response","198","259333","0.0-12.0-0.28","6042a56575ab0c1ccffc3152","650c16f0f2faf8d7a0d14c09","651c1dd79a806b7d581df9a3","null","null","<p style=""font-size: 60px; font-family: BACS"">DkTCPTRK</p>","","","","","","","","","",""
"html-keyboard-response","199","260335","0.0-12.0-0.29","6042a56575ab0c1ccffc3152","650c16f0f2faf8d7a0d14c09","651c1dd79a806b7d581df9a3","null","null","<p style=""font-size: 60px; font-family: BACS"">OmtlDTPOM</p>","","","","","","","","","",""
"html-keyboard-response","200","261337","0.0-12.0-0.30","6042a56575ab0c1ccffc3152","650c16f0f2faf8d7a0d14c09","651c1dd79a806b7d581df9a3","null","null","<p style=""font-size: 60px; font-family: BACS"">lbBDEOBT</p>","","","","","","","","","",""
"html-keyboard-response","201","262339","0.0-12.0-0.31","6042a56575ab0c1ccffc3152","650c16f0f2faf8d7a0d14c09","651c1dd79a806b7d581df9a3","null","null","<p style=""font-size: 60px; font-family: BACS"">YUNkZYkZ</p>","","","","","","","","","",""
"html-keyboard-response","202","263340","0.0-12.0-0.32","6042a56575ab0c1ccffc3152","650c16f0f2faf8d7a0d14c09","651c1dd79a806b7d581df9a3","null","null","<p style=""font-size: 60px; font-family: BACS"">udkmYNu</p>","","","","","","","","","",""
"html-keyboard-response","203","264341","0.0-12.0-0.33","6042a56575ab0c1ccffc3152","650c16f0f2faf8d7a0d14c09","651c1dd79a806b7d581df9a3","null","null","<p style=""font-size: 60px; font-family: BACS"">PMPtkOBT</p>","","","","","","","","","",""
"html-keyboard-response","204","265343","0.0-12.0-0.34","6042a56575ab0c1ccffc3152","650c16f0f2faf8d7a0d14c09","651c1dd79a806b7d581df9a3","null","null","<p style=""font-size: 60px; font-family: BACS"">kabJbdYAJ</p>","","","","","","","","","",""
"html-keyboard-response","205","266345","0.0-12.0-0.35","6042a56575ab0c1ccffc3152","650c16f0f2faf8d7a0d14c09","651c1dd79a806b7d581df9a3","null","null","<p style=""font-size: 60px; font-family: BACS"">dYdAOPE</p>","","","","","","","","","",""
"html-keyboard-response","206","267346","0.0-12.0-0.36","6042a56575ab0c1ccffc3152","650c16f0f2faf8d7a0d14c09","651c1dd79a806b7d581df9a3","null","null","<p style=""font-size: 60px; font-family: BACS"">YUNkZGrbk</p>","","","","","","","","","",""
"html-keyboard-response","207","268347","0.0-12.0-0.37","6042a56575ab0c1ccffc3152","650c16f0f2faf8d7a0d14c09","651c1dd79a806b7d581df9a3","null","null","<p style=""font-size: 60px; font-family: BACS"">lYruaYkZ</p>","","","","","","","","","",""
"html-keyboard-response","208","269349","0.0-12.0-0.38","6042a56575ab0c1ccffc3152","650c16f0f2faf8d7a0d14c09","651c1dd79a806b7d581df9a3","null","null","<p style=""font-size: 60px; font-family: BACS"">thbOMOPE</p>","","","","","","","","","",""
"html-keyboard-response","209","270351","0.0-12.0-0.39","6042a56575ab0c1ccffc3152","650c16f0f2faf8d7a0d14c09","651c1dd79a806b7d581df9a3","null","null","<p style=""font-size: 60px; font-family: BACS"">TdTDTPOM</p>","","","","","","","","","",""
"html-keyboard-response","210","271352","0.0-12.0-0.40","6042a56575ab0c1ccffc3152","650c16f0f2faf8d7a0d14c09","651c1dd79a806b7d581df9a3","null","null","<p style=""font-size: 60px; font-family: BACS"">adkrYNu</p>","","","","","","","","","",""
"html-keyboard-response","211","272353","0.0-12.0-0.41","6042a56575ab0c1ccffc3152","650c16f0f2faf8d7a0d14c09","651c1dd79a806b7d581df9a3","null","null","<p style=""font-size: 60px; font-family: BACS"">bmbNYArG</p>","","","","","","","","","",""
"html-keyboard-response","212","273355","0.0-12.0-0.42","6042a56575ab0c1ccffc3152","650c16f0f2faf8d7a0d14c09","651c1dd79a806b7d581df9a3","null","null","<p style=""font-size: 60px; font-family: BACS"">LuNZGrbk</p>","","","","","","","","","",""
"html-keyboard-response","213","274356","0.0-12.0-0.43","6042a56575ab0c1ccffc3152","650c16f0f2faf8d7a0d14c09","651c1dd79a806b7d581df9a3","null","null","<p style=""font-size: 60px; font-family: BACS"">dClOCTPOM</p>","","","","","","","","","",""
"html-keyboard-response","214","275365","0.0-12.0-0.44","6042a56575ab0c1ccffc3152","650c16f0f2faf8d7a0d14c09","651c1dd79a806b7d581df9a3","null","null","<p style=""font-size: 60px; font-family: BACS"">LuNZYNu</p>","","","","","","","","","",""
"html-keyboard-response","215","276367","0.0-12.0-0.45","6042a56575ab0c1ccffc3152","650c16f0f2faf8d7a0d14c09","651c1dd79a806b7d581df9a3","null","null","<p style=""font-size: 60px; font-family: BACS"">lYruaYArG</p>","","","","","","","","","",""
"html-keyboard-response","216","277369","0.0-12.0-0.46","6042a56575ab0c1ccffc3152","650c16f0f2faf8d7a0d14c09","651c1dd79a806b7d581df9a3","null","null","<p style=""font-size: 60px; font-family: BACS"">thbOMdBC</p>","","","","","","","","","",""
"html-keyboard-response","217","278371","0.0-12.0-0.47","6042a56575ab0c1ccffc3152","650c16f0f2faf8d7a0d14c09","651c1dd79a806b7d581df9a3","null","null","<p style=""font-size: 60px; font-family: BACS"">rbYbuYkZ</p>","","","","","","","","","",""
"html-keyboard-response","218","279372","0.0-12.0-0.48","6042a56575ab0c1ccffc3152","650c16f0f2faf8d7a0d14c09","651c1dd79a806b7d581df9a3","null","null","<p style=""font-size: 60px; font-family: BACS"">TdTDOPE</p>","","","","","","","","","",""
"html-keyboard-response","219","280374","0.0-12.0-0.49","6042a56575ab0c1ccffc3152","650c16f0f2faf8d7a0d14c09","651c1dd79a806b7d581df9a3","null","null","<p style=""font-size: 60px; font-family: BACS"">NJZlYNu</p>","","","","","","","","","",""
"html-keyboard-response","220","281375","0.0-12.0-0.50","6042a56575ab0c1ccffc3152","650c16f0f2faf8d7a0d14c09","651c1dd79a806b7d581df9a3","null","null","<p style=""font-size: 60px; font-family: BACS"">TdTDTRK</p>","","","","","","","","","",""
"html-keyboard-response","221","282376","0.0-12.0-0.51","6042a56575ab0c1ccffc3152","650c16f0f2faf8d7a0d14c09","651c1dd79a806b7d581df9a3","null","null","<p style=""font-size: 60px; font-family: BACS"">YUNkZdYAJ</p>","","","","","","","","","",""
"html-keyboard-response","222","283377","0.0-12.0-0.52","6042a56575ab0c1ccffc3152","650c16f0f2faf8d7a0d14c09","651c1dd79a806b7d581df9a3","null","null","<p style=""font-size: 60px; font-family: BACS"">kabJbGrbk</p>","","","","","","","","","",""
"html-keyboard-response","223","284378","0.0-12.0-0.53","6042a56575ab0c1ccffc3152","650c16f0f2faf8d7a0d14c09","651c1dd79a806b7d581df9a3","null","null","<p style=""font-size: 60px; font-family: BACS"">rckOdYAJ</p>","","","","","","","","","",""
"html-keyboard-response","224","285379","0.0-12.0-0.54","6042a56575ab0c1ccffc3152","650c16f0f2faf8d7a0d14c09","651c1dd79a806b7d581df9a3","null","null","<p style=""font-size: 60px; font-family: BACS"">adkrYArG</p>","","","","","","","","","",""
"html-keyboard-response","225","286381","0.0-12.0-0.55","6042a56575ab0c1ccffc3152","650c16f0f2faf8d7a0d14c09","651c1dd79a806b7d581df9a3","null","null","<p style=""font-size: 60px; font-family: BACS"">rckOGrbk</p>","","","","","","","","","",""
"html-keyboard-response","226","287382","0.0-12.0-0.56","6042a56575ab0c1ccffc3152","650c16f0f2faf8d7a0d14c09","651c1dd79a806b7d581df9a3","null","null","<p style=""font-size: 60px; font-family: BACS"">TCbDCTRK</p>","","","","","","","","","",""
"html-keyboard-response","227","288383","0.0-12.0-0.57","6042a56575ab0c1ccffc3152","650c16f0f2faf8d7a0d14c09","651c1dd79a806b7d581df9a3","null","null","<p style=""font-size: 60px; font-family: BACS"">bmbNYNu</p>","","","","","","","","","",""
"html-keyboard-response","228","289385","0.0-12.0-0.58","6042a56575ab0c1ccffc3152","650c16f0f2faf8d7a0d14c09","651c1dd79a806b7d581df9a3","null","null","<p style=""font-size: 60px; font-family: BACS"">DmAMEOBT</p>","","","","","","","","","",""
"html-keyboard-response","229","290386","0.0-12.0-0.59","6042a56575ab0c1ccffc3152","650c16f0f2faf8d7a0d14c09","651c1dd79a806b7d581df9a3","null","null","<p style=""font-size: 60px; font-family: BACS"">udkmdYAJ</p>","","","","","","","","","",""
"html-keyboard-response","230","291399","0.0-12.0-0.60","6042a56575ab0c1ccffc3152","650c16f0f2faf8d7a0d14c09","651c1dd79a806b7d581df9a3","null","null","<p style=""font-size: 60px; font-family: BACS"">OmtlDTRK</p>","","","","","","","","","",""
"html-keyboard-response","231","292401","0.0-12.0-0.61","6042a56575ab0c1ccffc3152","650c16f0f2faf8d7a0d14c09","651c1dd79a806b7d581df9a3","null","null","<p style=""font-size: 60px; font-family: BACS"">adkrdYAJ</p>","","","","","","","","","",""
"html-keyboard-response","232","293402","0.0-12.0-0.62","6042a56575ab0c1ccffc3152","650c16f0f2faf8d7a0d14c09","651c1dd79a806b7d581df9a3","null","null","<p style=""font-size: 60px; font-family: BACS"">rckOYArG</p>","","","","","","","","","",""
"html-keyboard-response","233","294404","0.0-12.0-0.63","6042a56575ab0c1ccffc3152","650c16f0f2faf8d7a0d14c09","651c1dd79a806b7d581df9a3","null","null","<p style=""font-size: 60px; font-family: BACS"">lYruaYNu</p>","","","","","","","","","",""
"html-keyboard-response","234","295406","0.0-12.0-0.64","6042a56575ab0c1ccffc3152","650c16f0f2faf8d7a0d14c09","651c1dd79a806b7d581df9a3","null","null","<p style=""font-size: 60px; font-family: BACS"">thbOMTPOM</p>","","","","","","","","","",""
"html-keyboard-response","235","296407","0.0-12.0-0.65","6042a56575ab0c1ccffc3152","650c16f0f2faf8d7a0d14c09","651c1dd79a806b7d581df9a3","null","null","<p style=""font-size: 60px; font-family: BACS"">TCbDCOBT</p>","","","","","","","","","",""
"html-keyboard-response","236","297409","0.0-12.0-0.66","6042a56575ab0c1ccffc3152","650c16f0f2faf8d7a0d14c09","651c1dd79a806b7d581df9a3","null","null","<p style=""font-size: 60px; font-family: BACS"">rbYbuYArG</p>","","","","","","","","","",""
"html-keyboard-response","237","298413","0.0-12.0-0.67","6042a56575ab0c1ccffc3152","650c16f0f2faf8d7a0d14c09","651c1dd79a806b7d581df9a3","null","null","<p style=""font-size: 60px; font-family: BACS"">DkTCPOPE</p>","","","","","","","","","",""
"html-keyboard-response","238","299414","0.0-12.0-0.68","6042a56575ab0c1ccffc3152","650c16f0f2faf8d7a0d14c09","651c1dd79a806b7d581df9a3","null","null","<p style=""font-size: 60px; font-family: BACS"">DmAMEdBC</p>","","","","","","","","","",""
"html-keyboard-response","239","300415","0.0-12.0-0.69","6042a56575ab0c1ccffc3152","650c16f0f2faf8d7a0d14c09","651c1dd79a806b7d581df9a3","null","null","<p style=""font-size: 60px; font-family: BACS"">dYdATRK</p>","","","","","","","","","",""
"html-keyboard-response","240","301417","0.0-12.0-0.70","6042a56575ab0c1ccffc3152","650c16f0f2faf8d7a0d14c09","651c1dd79a806b7d581df9a3","null","null","<p style=""font-size: 60px; font-family: BACS"">udkmYkZ</p>","","","","","","","","","",""
"html-keyboard-response","241","302417","0.0-12.0-0.71","6042a56575ab0c1ccffc3152","650c16f0f2faf8d7a0d14c09","651c1dd79a806b7d581df9a3","null","null","<p style=""font-size: 60px; font-family: BACS"">DmAMEOPE</p>","","","","","","","","","",""
"html-keyboard-response","242","303418","0.0-12.0-0.72","6042a56575ab0c1ccffc3152","650c16f0f2faf8d7a0d14c09","651c1dd79a806b7d581df9a3","null","null","<p style=""font-size: 60px; font-family: BACS"">OmtlDOBT</p>","","","","","","","","","",""
"html-keyboard-response","243","304420","0.0-12.0-0.73","6042a56575ab0c1ccffc3152","650c16f0f2faf8d7a0d14c09","651c1dd79a806b7d581df9a3","null","null","<p style=""font-size: 60px; font-family: BACS"">lbBDEdBC</p>","","","","","","","","","",""
"html-keyboard-response","244","305421","0.0-12.0-0.74","6042a56575ab0c1ccffc3152","650c16f0f2faf8d7a0d14c09","651c1dd79a806b7d581df9a3","null","null","<p style=""font-size: 60px; font-family: BACS"">lYruaGrbk</p>","","","","","","","","","",""
"html-keyboard-response","245","306422","0.0-12.0-0.75","6042a56575ab0c1ccffc3152","650c16f0f2faf8d7a0d14c09","651c1dd79a806b7d581df9a3","null","null","<p style=""font-size: 60px; font-family: BACS"">NJZlYkZ</p>","","","","","","","","","",""
"html-keyboard-response","246","307424","0.0-12.0-0.76","6042a56575ab0c1ccffc3152","650c16f0f2faf8d7a0d14c09","651c1dd79a806b7d581df9a3","null","null","<p style=""font-size: 60px; font-family: BACS"">YUNkZYArG</p>","","","","","","","","","",""
"html-keyboard-response","247","308425","0.0-12.0-0.77","6042a56575ab0c1ccffc3152","650c16f0f2faf8d7a0d14c09","651c1dd79a806b7d581df9a3","null","null","<p style=""font-size: 60px; font-family: BACS"">udkmGrbk</p>","","","","","","","","","",""
"html-keyboard-response","248","309426","0.0-12.0-0.78","6042a56575ab0c1ccffc3152","650c16f0f2faf8d7a0d14c09","651c1dd79a806b7d581df9a3","null","null","<p style=""font-size: 60px; font-family: BACS"">PMPtkdBC</p>","","","","","","","","","",""
"html-keyboard-response","249","310427","0.0-12.0-0.79","6042a56575ab0c1ccffc3152","650c16f0f2faf8d7a0d14c09","651c1dd79a806b7d581df9a3","null","null","<p style=""font-size: 60px; font-family: BACS"">rbYbudYAJ</p>","","","","","","","","","",""
"html-keyboard-response","250","316721","0.0-13.0","6042a56575ab0c1ccffc3152","650c16f0f2faf8d7a0d14c09","651c1dd79a806b7d581df9a3","6294"," ","<p>Great, you've seen the third block of words. You may now take a short break.</p>
      <p>Press the spacebar when you're ready to continue.</p>","","","","","","","","","",""
"html-keyboard-response","251","317723","0.0-14.0-0.0","6042a56575ab0c1ccffc3152","650c16f0f2faf8d7a0d14c09","651c1dd79a806b7d581df9a3","null","null","<p style=""font-size: 60px; font-family: BACS"">thbOMTPOM</p>","","","","","","","","","",""
"html-keyboard-response","252","318725","0.0-14.0-0.1","6042a56575ab0c1ccffc3152","650c16f0f2faf8d7a0d14c09","651c1dd79a806b7d581df9a3","null","null","<p style=""font-size: 60px; font-family: BACS"">bmbNYArG</p>","","","","","","","","","",""
"html-keyboard-response","253","319726","0.0-14.0-0.2","6042a56575ab0c1ccffc3152","650c16f0f2faf8d7a0d14c09","651c1dd79a806b7d581df9a3","null","null","<p style=""font-size: 60px; font-family: BACS"">OmtlDOBT</p>","","","","","","","","","",""
"html-keyboard-response","254","320727","0.0-14.0-0.3","6042a56575ab0c1ccffc3152","650c16f0f2faf8d7a0d14c09","651c1dd79a806b7d581df9a3","null","null","<p style=""font-size: 60px; font-family: BACS"">lYruaYArG</p>","","","","","","","","","",""
"html-keyboard-response","255","321728","0.0-14.0-0.4","6042a56575ab0c1ccffc3152","650c16f0f2faf8d7a0d14c09","651c1dd79a806b7d581df9a3","null","null","<p style=""font-size: 60px; font-family: BACS"">kabJbYNu</p>","","","","","","","","","",""
"html-keyboard-response","256","322729","0.0-14.0-0.5","6042a56575ab0c1ccffc3152","650c16f0f2faf8d7a0d14c09","651c1dd79a806b7d581df9a3","null","null","<p style=""font-size: 60px; font-family: BACS"">OmtlDOPE</p>","","","","","","","","","",""
"html-keyboard-response","257","323731","0.0-14.0-0.6","6042a56575ab0c1ccffc3152","650c16f0f2faf8d7a0d14c09","651c1dd79a806b7d581df9a3","null","null","<p style=""font-size: 60px; font-family: BACS"">TCbDCTRK</p>","","","","","","","","","",""
"html-keyboard-response","258","324732","0.0-14.0-0.7","6042a56575ab0c1ccffc3152","650c16f0f2faf8d7a0d14c09","651c1dd79a806b7d581df9a3","null","null","<p style=""font-size: 60px; font-family: BACS"">NJZldYAJ</p>","","","","","","","","","",""
"html-keyboard-response","259","325734","0.0-14.0-0.8","6042a56575ab0c1ccffc3152","650c16f0f2faf8d7a0d14c09","651c1dd79a806b7d581df9a3","null","null","<p style=""font-size: 60px; font-family: BACS"">TCbDCdBC</p>","","","","","","","","","",""
"html-keyboard-response","260","326736","0.0-14.0-0.9","6042a56575ab0c1ccffc3152","650c16f0f2faf8d7a0d14c09","651c1dd79a806b7d581df9a3","null","null","<p style=""font-size: 60px; font-family: BACS"">DmAMETRK</p>","","","","","","","","","",""
"html-keyboard-response","261","327738","0.0-14.0-0.10","6042a56575ab0c1ccffc3152","650c16f0f2faf8d7a0d14c09","651c1dd79a806b7d581df9a3","null","null","<p style=""font-size: 60px; font-family: BACS"">rbYbudYAJ</p>","","","","","","","","","",""
"html-keyboard-response","262","328739","0.0-14.0-0.11","6042a56575ab0c1ccffc3152","650c16f0f2faf8d7a0d14c09","651c1dd79a806b7d581df9a3","null","null","<p style=""font-size: 60px; font-family: BACS"">NJZlYkZ</p>","","","","","","","","","",""
"html-keyboard-response","263","329740","0.0-14.0-0.12","6042a56575ab0c1ccffc3152","650c16f0f2faf8d7a0d14c09","651c1dd79a806b7d581df9a3","null","null","<p style=""font-size: 60px; font-family: BACS"">thbOMOPE</p>","","","","","","","","","",""
"html-keyboard-response","264","330742","0.0-14.0-0.13","6042a56575ab0c1ccffc3152","650c16f0f2faf8d7a0d14c09","651c1dd79a806b7d581df9a3","null","null","<p style=""font-size: 60px; font-family: BACS"">TdTDTPOM</p>","","","","","","","","","",""
"html-keyboard-response","265","331744","0.0-14.0-0.14","6042a56575ab0c1ccffc3152","650c16f0f2faf8d7a0d14c09","651c1dd79a806b7d581df9a3","null","null","<p style=""font-size: 60px; font-family: BACS"">PMPtkOBT</p>","","","","","","","","","",""
"html-keyboard-response","266","332746","0.0-14.0-0.15","6042a56575ab0c1ccffc3152","650c16f0f2faf8d7a0d14c09","651c1dd79a806b7d581df9a3","null","null","<p style=""font-size: 60px; font-family: BACS"">rbYbuYkZ</p>","","","","","","","","","",""
"html-keyboard-response","267","333748","0.0-14.0-0.16","6042a56575ab0c1ccffc3152","650c16f0f2faf8d7a0d14c09","651c1dd79a806b7d581df9a3","null","null","<p style=""font-size: 60px; font-family: BACS"">OmtlDTPOM</p>","","","","","","","","","",""
"html-keyboard-response","268","334749","0.0-14.0-0.17","6042a56575ab0c1ccffc3152","650c16f0f2faf8d7a0d14c09","651c1dd79a806b7d581df9a3","null","null","<p style=""font-size: 60px; font-family: BACS"">udkmYNu</p>","","","","","","","","","",""
"html-keyboard-response","269","335751","0.0-14.0-0.18","6042a56575ab0c1ccffc3152","650c16f0f2faf8d7a0d14c09","651c1dd79a806b7d581df9a3","null","null","<p style=""font-size: 60px; font-family: BACS"">thbOMTRK</p>","","","","","","","","","",""
"html-keyboard-response","270","336752","0.0-14.0-0.19","6042a56575ab0c1ccffc3152","650c16f0f2faf8d7a0d14c09","651c1dd79a806b7d581df9a3","null","null","<p style=""font-size: 60px; font-family: BACS"">DkTCPdBC</p>","","","","","","","","","",""
"html-keyboard-response","271","337754","0.0-14.0-0.20","6042a56575ab0c1ccffc3152","650c16f0f2faf8d7a0d14c09","651c1dd79a806b7d581df9a3","null","null","<p style=""font-size: 60px; font-family: BACS"">udkmYkZ</p>","","","","","","","","","",""
"html-keyboard-response","272","338756","0.0-14.0-0.21","6042a56575ab0c1ccffc3152","650c16f0f2faf8d7a0d14c09","651c1dd79a806b7d581df9a3","null","null","<p style=""font-size: 60px; font-family: BACS"">LuNZGrbk</p>","","","","","","","","","",""
"html-keyboard-response","273","339757","0.0-14.0-0.22","6042a56575ab0c1ccffc3152","650c16f0f2faf8d7a0d14c09","651c1dd79a806b7d581df9a3","null","null","<p style=""font-size: 60px; font-family: BACS"">TdTDTRK</p>","","","","","","","","","",""
"html-keyboard-response","274","340758","0.0-14.0-0.23","6042a56575ab0c1ccffc3152","650c16f0f2faf8d7a0d14c09","651c1dd79a806b7d581df9a3","null","null","<p style=""font-size: 60px; font-family: BACS"">kabJbdYAJ</p>","","","","","","","","","",""
"html-keyboard-response","275","341760","0.0-14.0-0.24","6042a56575ab0c1ccffc3152","650c16f0f2faf8d7a0d14c09","651c1dd79a806b7d581df9a3","null","null","<p style=""font-size: 60px; font-family: BACS"">dClOCOPE</p>","","","","","","","","","",""
"html-keyboard-response","276","342761","0.0-14.0-0.25","6042a56575ab0c1ccffc3152","650c16f0f2faf8d7a0d14c09","651c1dd79a806b7d581df9a3","null","null","<p style=""font-size: 60px; font-family: BACS"">lYruaYkZ</p>","","","","","","","","","",""
"html-keyboard-response","277","343762","0.0-14.0-0.26","6042a56575ab0c1ccffc3152","650c16f0f2faf8d7a0d14c09","651c1dd79a806b7d581df9a3","null","null","<p style=""font-size: 60px; font-family: BACS"">NJZlYNu</p>","","","","","","","","","",""
"html-keyboard-response","278","344763","0.0-14.0-0.27","6042a56575ab0c1ccffc3152","650c16f0f2faf8d7a0d14c09","651c1dd79a806b7d581df9a3","null","null","<p style=""font-size: 60px; font-family: BACS"">TdTDOBT</p>","","","","","","","","","",""
"html-keyboard-response","279","345764","0.0-14.0-0.28","6042a56575ab0c1ccffc3152","650c16f0f2faf8d7a0d14c09","651c1dd79a806b7d581df9a3","null","null","<p style=""font-size: 60px; font-family: BACS"">NJZlGrbk</p>","","","","","","","","","",""
"html-keyboard-response","280","346766","0.0-14.0-0.29","6042a56575ab0c1ccffc3152","650c16f0f2faf8d7a0d14c09","651c1dd79a806b7d581df9a3","null","null","<p style=""font-size: 60px; font-family: BACS"">adkrYNu</p>","","","","","","","","","",""
"html-keyboard-response","281","347767","0.0-14.0-0.30","6042a56575ab0c1ccffc3152","650c16f0f2faf8d7a0d14c09","651c1dd79a806b7d581df9a3","null","null","<p style=""font-size: 60px; font-family: BACS"">rckOdYAJ</p>","","","","","","","","","",""
"html-keyboard-response","282","348768","0.0-14.0-0.31","6042a56575ab0c1ccffc3152","650c16f0f2faf8d7a0d14c09","651c1dd79a806b7d581df9a3","null","null","<p style=""font-size: 60px; font-family: BACS"">PMPtkdBC</p>","","","","","","","","","",""
"html-keyboard-response","283","349770","0.0-14.0-0.32","6042a56575ab0c1ccffc3152","650c16f0f2faf8d7a0d14c09","651c1dd79a806b7d581df9a3","null","null","<p style=""font-size: 60px; font-family: BACS"">udkmGrbk</p>","","","","","","","","","",""
"html-keyboard-response","284","350772","0.0-14.0-0.33","6042a56575ab0c1ccffc3152","650c16f0f2faf8d7a0d14c09","651c1dd79a806b7d581df9a3","null","null","<p style=""font-size: 60px; font-family: BACS"">TdTDOPE</p>","","","","","","","","","",""
"html-keyboard-response","285","351773","0.0-14.0-0.34","6042a56575ab0c1ccffc3152","650c16f0f2faf8d7a0d14c09","651c1dd79a806b7d581df9a3","null","null","<p style=""font-size: 60px; font-family: BACS"">rbYbuGrbk</p>","","","","","","","","","",""
"html-keyboard-response","286","352774","0.0-14.0-0.35","6042a56575ab0c1ccffc3152","650c16f0f2faf8d7a0d14c09","651c1dd79a806b7d581df9a3","null","null","<p style=""font-size: 60px; font-family: BACS"">dClOCdBC</p>","","","","","","","","","",""
"html-keyboard-response","287","353775","0.0-14.0-0.36","6042a56575ab0c1ccffc3152","650c16f0f2faf8d7a0d14c09","651c1dd79a806b7d581df9a3","null","null","<p style=""font-size: 60px; font-family: BACS"">rckOYNu</p>","","","","","","","","","",""
"html-keyboard-response","288","354778","0.0-14.0-0.37","6042a56575ab0c1ccffc3152","650c16f0f2faf8d7a0d14c09","651c1dd79a806b7d581df9a3","null","null","<p style=""font-size: 60px; font-family: BACS"">DkTCPOPE</p>","","","","","","","","","",""
"html-keyboard-response","289","355780","0.0-14.0-0.38","6042a56575ab0c1ccffc3152","650c16f0f2faf8d7a0d14c09","651c1dd79a806b7d581df9a3","null","null","<p style=""font-size: 60px; font-family: BACS"">PMPtkTRK</p>","","","","","","","","","",""
"html-keyboard-response","290","356786","0.0-14.0-0.39","6042a56575ab0c1ccffc3152","650c16f0f2faf8d7a0d14c09","651c1dd79a806b7d581df9a3","null","null","<p style=""font-size: 60px; font-family: BACS"">bmbNYNu</p>","","","","","","","","","",""
"html-keyboard-response","291","357787","0.0-14.0-0.40","6042a56575ab0c1ccffc3152","650c16f0f2faf8d7a0d14c09","651c1dd79a806b7d581df9a3","null","null","<p style=""font-size: 60px; font-family: BACS"">adkrYkZ</p>","","","","","","","","","",""
"html-keyboard-response","292","358789","0.0-14.0-0.41","6042a56575ab0c1ccffc3152","650c16f0f2faf8d7a0d14c09","651c1dd79a806b7d581df9a3","null","null","<p style=""font-size: 60px; font-family: BACS"">lbBDEdBC</p>","","","","","","","","","",""
"html-keyboard-response","293","359791","0.0-14.0-0.42","6042a56575ab0c1ccffc3152","650c16f0f2faf8d7a0d14c09","651c1dd79a806b7d581df9a3","null","null","<p style=""font-size: 60px; font-family: BACS"">YUNkZGrbk</p>","","","","","","","","","",""
"html-keyboard-response","294","360792","0.0-14.0-0.43","6042a56575ab0c1ccffc3152","650c16f0f2faf8d7a0d14c09","651c1dd79a806b7d581df9a3","null","null","<p style=""font-size: 60px; font-family: BACS"">TCbDCOBT</p>","","","","","","","","","",""
"html-keyboard-response","295","361794","0.0-14.0-0.44","6042a56575ab0c1ccffc3152","650c16f0f2faf8d7a0d14c09","651c1dd79a806b7d581df9a3","null","null","<p style=""font-size: 60px; font-family: BACS"">thbOMdBC</p>","","","","","","","","","",""
"html-keyboard-response","296","362795","0.0-14.0-0.45","6042a56575ab0c1ccffc3152","650c16f0f2faf8d7a0d14c09","651c1dd79a806b7d581df9a3","null","null","<p style=""font-size: 60px; font-family: BACS"">LuNZYArG</p>","","","","","","","","","",""
"html-keyboard-response","297","363796","0.0-14.0-0.46","6042a56575ab0c1ccffc3152","650c16f0f2faf8d7a0d14c09","651c1dd79a806b7d581df9a3","null","null","<p style=""font-size: 60px; font-family: BACS"">dYdATRK</p>","","","","","","","","","",""
"html-keyboard-response","298","364797","0.0-14.0-0.47","6042a56575ab0c1ccffc3152","650c16f0f2faf8d7a0d14c09","651c1dd79a806b7d581df9a3","null","null","<p style=""font-size: 60px; font-family: BACS"">lbBDEOBT</p>","","","","","","","","","",""
"html-keyboard-response","299","365799","0.0-14.0-0.48","6042a56575ab0c1ccffc3152","650c16f0f2faf8d7a0d14c09","651c1dd79a806b7d581df9a3","null","null","<p style=""font-size: 60px; font-family: BACS"">OmtlDTRK</p>","","","","","","","","","",""
"html-keyboard-response","300","366801","0.0-14.0-0.49","6042a56575ab0c1ccffc3152","650c16f0f2faf8d7a0d14c09","651c1dd79a806b7d581df9a3","null","null","<p style=""font-size: 60px; font-family: BACS"">lbBDEOPE</p>","","","","","","","","","",""
"html-keyboard-response","301","367802","0.0-14.0-0.50","6042a56575ab0c1ccffc3152","650c16f0f2faf8d7a0d14c09","651c1dd79a806b7d581df9a3","null","null","<p style=""font-size: 60px; font-family: BACS"">udkmdYAJ</p>","","","","","","","","","",""
"html-keyboard-response","302","368804","0.0-14.0-0.51","6042a56575ab0c1ccffc3152","650c16f0f2faf8d7a0d14c09","651c1dd79a806b7d581df9a3","null","null","<p style=""font-size: 60px; font-family: BACS"">DmAMEOBT</p>","","","","","","","","","",""
"html-keyboard-response","303","369805","0.0-14.0-0.52","6042a56575ab0c1ccffc3152","650c16f0f2faf8d7a0d14c09","651c1dd79a806b7d581df9a3","null","null","<p style=""font-size: 60px; font-family: BACS"">dYdAOPE</p>","","","","","","","","","",""
"html-keyboard-response","304","370806","0.0-14.0-0.53","6042a56575ab0c1ccffc3152","650c16f0f2faf8d7a0d14c09","651c1dd79a806b7d581df9a3","null","null","<p style=""font-size: 60px; font-family: BACS"">PMPtkTPOM</p>","","","","","","","","","",""
"html-keyboard-response","305","371807","0.0-14.0-0.54","6042a56575ab0c1ccffc3152","650c16f0f2faf8d7a0d14c09","651c1dd79a806b7d581df9a3","null","null","<p style=""font-size: 60px; font-family: BACS"">LuNZYNu</p>","","","","","","","","","",""
"html-keyboard-response","306","372809","0.0-14.0-0.55","6042a56575ab0c1ccffc3152","650c16f0f2faf8d7a0d14c09","651c1dd79a806b7d581df9a3","null","null","<p style=""font-size: 60px; font-family: BACS"">DmAMEdBC</p>","","","","","","","","","",""
"html-keyboard-response","307","373811","0.0-14.0-0.56","6042a56575ab0c1ccffc3152","650c16f0f2faf8d7a0d14c09","651c1dd79a806b7d581df9a3","null","null","<p style=""font-size: 60px; font-family: BACS"">adkrYArG</p>","","","","","","","","","",""
"html-keyboard-response","308","374813","0.0-14.0-0.57","6042a56575ab0c1ccffc3152","650c16f0f2faf8d7a0d14c09","651c1dd79a806b7d581df9a3","null","null","<p style=""font-size: 60px; font-family: BACS"">kabJbGrbk</p>","","","","","","","","","",""
"html-keyboard-response","309","375814","0.0-14.0-0.58","6042a56575ab0c1ccffc3152","650c16f0f2faf8d7a0d14c09","651c1dd79a806b7d581df9a3","null","null","<p style=""font-size: 60px; font-family: BACS"">rbYbuYArG</p>","","","","","","","","","",""
"html-keyboard-response","310","376816","0.0-14.0-0.59","6042a56575ab0c1ccffc3152","650c16f0f2faf8d7a0d14c09","651c1dd79a806b7d581df9a3","null","null","<p style=""font-size: 60px; font-family: BACS"">rckOGrbk</p>","","","","","","","","","",""
"html-keyboard-response","311","377817","0.0-14.0-0.60","6042a56575ab0c1ccffc3152","650c16f0f2faf8d7a0d14c09","651c1dd79a806b7d581df9a3","null","null","<p style=""font-size: 60px; font-family: BACS"">YUNkZYArG</p>","","","","","","","","","",""
"html-keyboard-response","312","378818","0.0-14.0-0.61","6042a56575ab0c1ccffc3152","650c16f0f2faf8d7a0d14c09","651c1dd79a806b7d581df9a3","null","null","<p style=""font-size: 60px; font-family: BACS"">LuNZYkZ</p>","","","","","","","","","",""
"html-keyboard-response","313","379819","0.0-14.0-0.62","6042a56575ab0c1ccffc3152","650c16f0f2faf8d7a0d14c09","651c1dd79a806b7d581df9a3","null","null","<p style=""font-size: 60px; font-family: BACS"">dYdAOBT</p>","","","","","","","","","",""
"html-keyboard-response","314","380821","0.0-14.0-0.63","6042a56575ab0c1ccffc3152","650c16f0f2faf8d7a0d14c09","651c1dd79a806b7d581df9a3","null","null","<p style=""font-size: 60px; font-family: BACS"">adkrdYAJ</p>","","","","","","","","","",""
"html-keyboard-response","315","381823","0.0-14.0-0.64","6042a56575ab0c1ccffc3152","650c16f0f2faf8d7a0d14c09","651c1dd79a806b7d581df9a3","null","null","<p style=""font-size: 60px; font-family: BACS"">bmbNYkZ</p>","","","","","","","","","",""
"html-keyboard-response","316","382824","0.0-14.0-0.65","6042a56575ab0c1ccffc3152","650c16f0f2faf8d7a0d14c09","651c1dd79a806b7d581df9a3","null","null","<p style=""font-size: 60px; font-family: BACS"">lYruaGrbk</p>","","","","","","","","","",""
"html-keyboard-response","317","383825","0.0-14.0-0.66","6042a56575ab0c1ccffc3152","650c16f0f2faf8d7a0d14c09","651c1dd79a806b7d581df9a3","null","null","<p style=""font-size: 60px; font-family: BACS"">YUNkZdYAJ</p>","","","","","","","","","",""
"html-keyboard-response","318","384827","0.0-14.0-0.67","6042a56575ab0c1ccffc3152","650c16f0f2faf8d7a0d14c09","651c1dd79a806b7d581df9a3","null","null","<p style=""font-size: 60px; font-family: BACS"">DkTCPTPOM</p>","","","","","","","","","",""
"html-keyboard-response","319","385828","0.0-14.0-0.68","6042a56575ab0c1ccffc3152","650c16f0f2faf8d7a0d14c09","651c1dd79a806b7d581df9a3","null","null","<p style=""font-size: 60px; font-family: BACS"">lYruaYNu</p>","","","","","","","","","",""
"html-keyboard-response","320","386830","0.0-14.0-0.69","6042a56575ab0c1ccffc3152","650c16f0f2faf8d7a0d14c09","651c1dd79a806b7d581df9a3","null","null","<p style=""font-size: 60px; font-family: BACS"">YUNkZYkZ</p>","","","","","","","","","",""
"html-keyboard-response","321","387831","0.0-14.0-0.70","6042a56575ab0c1ccffc3152","650c16f0f2faf8d7a0d14c09","651c1dd79a806b7d581df9a3","null","null","<p style=""font-size: 60px; font-family: BACS"">bmbNdYAJ</p>","","","","","","","","","",""
"html-keyboard-response","322","388833","0.0-14.0-0.71","6042a56575ab0c1ccffc3152","650c16f0f2faf8d7a0d14c09","651c1dd79a806b7d581df9a3","null","null","<p style=""font-size: 60px; font-family: BACS"">rckOYArG</p>","","","","","","","","","",""
"html-keyboard-response","323","389834","0.0-14.0-0.72","6042a56575ab0c1ccffc3152","650c16f0f2faf8d7a0d14c09","651c1dd79a806b7d581df9a3","null","null","<p style=""font-size: 60px; font-family: BACS"">dClOCTPOM</p>","","","","","","","","","",""
"html-keyboard-response","324","390835","0.0-14.0-0.73","6042a56575ab0c1ccffc3152","650c16f0f2faf8d7a0d14c09","651c1dd79a806b7d581df9a3","null","null","<p style=""font-size: 60px; font-family: BACS"">DkTCPTRK</p>","","","","","","","","","",""
"html-keyboard-response","325","391837","0.0-14.0-0.74","6042a56575ab0c1ccffc3152","650c16f0f2faf8d7a0d14c09","651c1dd79a806b7d581df9a3","null","null","<p style=""font-size: 60px; font-family: BACS"">dYdAdBC</p>","","","","","","","","","",""
"html-keyboard-response","326","392838","0.0-14.0-0.75","6042a56575ab0c1ccffc3152","650c16f0f2faf8d7a0d14c09","651c1dd79a806b7d581df9a3","null","null","<p style=""font-size: 60px; font-family: BACS"">DmAMEOPE</p>","","","","","","","","","",""
"html-keyboard-response","327","393840","0.0-14.0-0.76","6042a56575ab0c1ccffc3152","650c16f0f2faf8d7a0d14c09","651c1dd79a806b7d581df9a3","null","null","<p style=""font-size: 60px; font-family: BACS"">kabJbYArG</p>","","","","","","","","","",""
"html-keyboard-response","328","394841","0.0-14.0-0.77","6042a56575ab0c1ccffc3152","650c16f0f2faf8d7a0d14c09","651c1dd79a806b7d581df9a3","null","null","<p style=""font-size: 60px; font-family: BACS"">TCbDCTPOM</p>","","","","","","","","","",""
"html-keyboard-response","329","395843","0.0-14.0-0.78","6042a56575ab0c1ccffc3152","650c16f0f2faf8d7a0d14c09","651c1dd79a806b7d581df9a3","null","null","<p style=""font-size: 60px; font-family: BACS"">dClOCOBT</p>","","","","","","","","","",""
"html-keyboard-response","330","396845","0.0-14.0-0.79","6042a56575ab0c1ccffc3152","650c16f0f2faf8d7a0d14c09","651c1dd79a806b7d581df9a3","null","null","<p style=""font-size: 60px; font-family: BACS"">lbBDETPOM</p>","","","","","","","","","",""
"html-keyboard-response","331","399505","0.0-15.0","6042a56575ab0c1ccffc3152","650c16f0f2faf8d7a0d14c09","651c1dd79a806b7d581df9a3","2660"," ","<p>Great, you've seen the fourth block of words. You may now take a short break.</p>
      <p>Press the spacebar when you're ready to continue.</p>","","","","","","","","","",""
"html-keyboard-response","332","400507","0.0-16.0-0.0","6042a56575ab0c1ccffc3152","650c16f0f2faf8d7a0d14c09","651c1dd79a806b7d581df9a3","null","null","<p style=""font-size: 60px; font-family: BACS"">kabJbGrbk</p>","","","","","","","","","",""
"html-keyboard-response","333","401508","0.0-16.0-0.1","6042a56575ab0c1ccffc3152","650c16f0f2faf8d7a0d14c09","651c1dd79a806b7d581df9a3","null","null","<p style=""font-size: 60px; font-family: BACS"">kabJbGrbk</p>","","","","","","","","","",""
"html-keyboard-response","334","402509","0.0-16.0-0.2","6042a56575ab0c1ccffc3152","650c16f0f2faf8d7a0d14c09","651c1dd79a806b7d581df9a3","null","null","<p style=""font-size: 60px; font-family: BACS"">kabJbGrbk</p>","","","","","","","","","",""
"html-keyboard-response","335","403510","0.0-16.0-0.3","6042a56575ab0c1ccffc3152","650c16f0f2faf8d7a0d14c09","651c1dd79a806b7d581df9a3","null","null","<p style=""font-size: 60px; font-family: BACS"">kabJbGrbk</p>","","","","","","","","","",""
"html-keyboard-response","336","404510","0.0-16.0-0.4","6042a56575ab0c1ccffc3152","650c16f0f2faf8d7a0d14c09","651c1dd79a806b7d581df9a3","null","null","<p style=""font-size: 60px; font-family: BACS"">kabJbGrbk</p>","","","","","","","","","",""
"html-keyboard-response","337","405512","0.0-16.0-0.5","6042a56575ab0c1ccffc3152","650c16f0f2faf8d7a0d14c09","651c1dd79a806b7d581df9a3","null","null","<p style=""font-size: 60px; font-family: BACS"">kabJbGrbk</p>","","","","","","","","","",""
"html-keyboard-response","338","406514","0.0-16.0-0.6","6042a56575ab0c1ccffc3152","650c16f0f2faf8d7a0d14c09","651c1dd79a806b7d581df9a3","null","null","<p style=""font-size: 60px; font-family: BACS"">kabJbGrbk</p>","","","","","","","","","",""
"html-keyboard-response","339","407515","0.0-16.0-0.7","6042a56575ab0c1ccffc3152","650c16f0f2faf8d7a0d14c09","651c1dd79a806b7d581df9a3","null","null","<p style=""font-size: 60px; font-family: BACS"">kabJbGrbk</p>","","","","","","","","","",""
"html-keyboard-response","340","408517","0.0-16.0-0.8","6042a56575ab0c1ccffc3152","650c16f0f2faf8d7a0d14c09","651c1dd79a806b7d581df9a3","null","null","<p style=""font-size: 60px; font-family: BACS"">kabJbGrbk</p>","","","","","","","","","",""
"html-keyboard-response","341","409518","0.0-16.0-0.9","6042a56575ab0c1ccffc3152","650c16f0f2faf8d7a0d14c09","651c1dd79a806b7d581df9a3","null","null","<p style=""font-size: 60px; font-family: BACS"">kabJbGrbk</p>","","","","","","","","","",""
"html-keyboard-response","342","410520","0.0-16.0-0.10","6042a56575ab0c1ccffc3152","650c16f0f2faf8d7a0d14c09","651c1dd79a806b7d581df9a3","null","null","<p style=""font-size: 60px; font-family: BACS"">kabJbGrbk</p>","","","","","","","","","",""
"html-keyboard-response","343","411522","0.0-16.0-0.11","6042a56575ab0c1ccffc3152","650c16f0f2faf8d7a0d14c09","651c1dd79a806b7d581df9a3","null","null","<p style=""font-size: 60px; font-family: BACS"">kabJbGrbk</p>","","","","","","","","","",""
"html-keyboard-response","344","412523","0.0-16.0-0.12","6042a56575ab0c1ccffc3152","650c16f0f2faf8d7a0d14c09","651c1dd79a806b7d581df9a3","null","null","<p style=""font-size: 60px; font-family: BACS"">kabJbGrbk</p>","","","","","","","","","",""
"html-keyboard-response","345","413525","0.0-16.0-0.13","6042a56575ab0c1ccffc3152","650c16f0f2faf8d7a0d14c09","651c1dd79a806b7d581df9a3","null","null","<p style=""font-size: 60px; font-family: BACS"">kabJbGrbk</p>","","","","","","","","","",""
"html-keyboard-response","346","414526","0.0-16.0-0.14","6042a56575ab0c1ccffc3152","650c16f0f2faf8d7a0d14c09","651c1dd79a806b7d581df9a3","null","null","<p style=""font-size: 60px; font-family: BACS"">kabJbGrbk</p>","","","","","","","","","",""
"html-keyboard-response","347","415527","0.0-16.0-0.15","6042a56575ab0c1ccffc3152","650c16f0f2faf8d7a0d14c09","651c1dd79a806b7d581df9a3","null","null","<p style=""font-size: 60px; font-family: BACS"">kabJbGrbk</p>","","","","","","","","","",""
"html-keyboard-response","348","416527","0.0-16.0-0.16","6042a56575ab0c1ccffc3152","650c16f0f2faf8d7a0d14c09","651c1dd79a806b7d581df9a3","null","null","<p style=""font-size: 60px; font-family: BACS"">kabJbGrbk</p>","","","","","","","","","",""
"html-keyboard-response","349","417530","0.0-16.0-0.17","6042a56575ab0c1ccffc3152","650c16f0f2faf8d7a0d14c09","651c1dd79a806b7d581df9a3","null","null","<p style=""font-size: 60px; font-family: BACS"">kabJbGrbk</p>","","","","","","","","","",""
"html-keyboard-response","350","418532","0.0-16.0-0.18","6042a56575ab0c1ccffc3152","650c16f0f2faf8d7a0d14c09","651c1dd79a806b7d581df9a3","null","null","<p style=""font-size: 60px; font-family: BACS"">kabJbGrbk</p>","","","","","","","","","",""
"html-keyboard-response","351","419532","0.0-16.0-0.19","6042a56575ab0c1ccffc3152","650c16f0f2faf8d7a0d14c09","651c1dd79a806b7d581df9a3","null","null","<p style=""font-size: 60px; font-family: BACS"">kabJbGrbk</p>","","","","","","","","","",""
"html-keyboard-response","352","420533","0.0-16.0-0.20","6042a56575ab0c1ccffc3152","650c16f0f2faf8d7a0d14c09","651c1dd79a806b7d581df9a3","null","null","<p style=""font-size: 60px; font-family: BACS"">kabJbGrbk</p>","","","","","","","","","",""
"html-keyboard-response","353","421534","0.0-16.0-0.21","6042a56575ab0c1ccffc3152","650c16f0f2faf8d7a0d14c09","651c1dd79a806b7d581df9a3","null","null","<p style=""font-size: 60px; font-family: BACS"">kabJbGrbk</p>","","","","","","","","","",""
"html-keyboard-response","354","422535","0.0-16.0-0.22","6042a56575ab0c1ccffc3152","650c16f0f2faf8d7a0d14c09","651c1dd79a806b7d581df9a3","null","null","<p style=""font-size: 60px; font-family: BACS"">kabJbGrbk</p>","","","","","","","","","",""
"html-keyboard-response","355","423536","0.0-16.0-0.23","6042a56575ab0c1ccffc3152","650c16f0f2faf8d7a0d14c09","651c1dd79a806b7d581df9a3","null","null","<p style=""font-size: 60px; font-family: BACS"">kabJbGrbk</p>","","","","","","","","","",""
"html-keyboard-response","356","424538","0.0-16.0-0.24","6042a56575ab0c1ccffc3152","650c16f0f2faf8d7a0d14c09","651c1dd79a806b7d581df9a3","null","null","<p style=""font-size: 60px; font-family: BACS"">kabJbGrbk</p>","","","","","","","","","",""
"html-keyboard-response","357","425539","0.0-16.0-0.25","6042a56575ab0c1ccffc3152","650c16f0f2faf8d7a0d14c09","651c1dd79a806b7d581df9a3","null","null","<p style=""font-size: 60px; font-family: BACS"">kabJbGrbk</p>","","","","","","","","","",""
"html-keyboard-response","358","426541","0.0-16.0-0.26","6042a56575ab0c1ccffc3152","650c16f0f2faf8d7a0d14c09","651c1dd79a806b7d581df9a3","null","null","<p style=""font-size: 60px; font-family: BACS"">kabJbGrbk</p>","","","","","","","","","",""
"html-keyboard-response","359","427542","0.0-16.0-0.27","6042a56575ab0c1ccffc3152","650c16f0f2faf8d7a0d14c09","651c1dd79a806b7d581df9a3","null","null","<p style=""font-size: 60px; font-family: BACS"">kabJbGrbk</p>","","","","","","","","","",""
"html-keyboard-response","360","428542","0.0-16.0-0.28","6042a56575ab0c1ccffc3152","650c16f0f2faf8d7a0d14c09","651c1dd79a806b7d581df9a3","null","null","<p style=""font-size: 60px; font-family: BACS"">kabJbGrbk</p>","","","","","","","","","",""
"html-keyboard-response","361","429544","0.0-16.0-0.29","6042a56575ab0c1ccffc3152","650c16f0f2faf8d7a0d14c09","651c1dd79a806b7d581df9a3","null","null","<p style=""font-size: 60px; font-family: BACS"">kabJbGrbk</p>","","","","","","","","","",""
"html-keyboard-response","362","430544","0.0-16.0-0.30","6042a56575ab0c1ccffc3152","650c16f0f2faf8d7a0d14c09","651c1dd79a806b7d581df9a3","null","null","<p style=""font-size: 60px; font-family: BACS"">kabJbGrbk</p>","","","","","","","","","",""
"html-keyboard-response","363","431547","0.0-16.0-0.31","6042a56575ab0c1ccffc3152","650c16f0f2faf8d7a0d14c09","651c1dd79a806b7d581df9a3","null","null","<p style=""font-size: 60px; font-family: BACS"">kabJbGrbk</p>","","","","","","","","","",""
"html-keyboard-response","364","432548","0.0-16.0-0.32","6042a56575ab0c1ccffc3152","650c16f0f2faf8d7a0d14c09","651c1dd79a806b7d581df9a3","null","null","<p style=""font-size: 60px; font-family: BACS"">kabJbGrbk</p>","","","","","","","","","",""
"html-keyboard-response","365","433549","0.0-16.0-0.33","6042a56575ab0c1ccffc3152","650c16f0f2faf8d7a0d14c09","651c1dd79a806b7d581df9a3","null","null","<p style=""font-size: 60px; font-family: BACS"">kabJbGrbk</p>","","","","","","","","","",""
"html-keyboard-response","366","434551","0.0-16.0-0.34","6042a56575ab0c1ccffc3152","650c16f0f2faf8d7a0d14c09","651c1dd79a806b7d581df9a3","null","null","<p style=""font-size: 60px; font-family: BACS"">kabJbGrbk</p>","","","","","","","","","",""
"html-keyboard-response","367","435553","0.0-16.0-0.35","6042a56575ab0c1ccffc3152","650c16f0f2faf8d7a0d14c09","651c1dd79a806b7d581df9a3","null","null","<p style=""font-size: 60px; font-family: BACS"">kabJbGrbk</p>","","","","","","","","","",""
"html-keyboard-response","368","436554","0.0-16.0-0.36","6042a56575ab0c1ccffc3152","650c16f0f2faf8d7a0d14c09","651c1dd79a806b7d581df9a3","null","null","<p style=""font-size: 60px; font-family: BACS"">kabJbGrbk</p>","","","","","","","","","",""
"html-keyboard-response","369","437555","0.0-16.0-0.37","6042a56575ab0c1ccffc3152","650c16f0f2faf8d7a0d14c09","651c1dd79a806b7d581df9a3","null","null","<p style=""font-size: 60px; font-family: BACS"">kabJbGrbk</p>","","","","","","","","","",""
"html-keyboard-response","370","438557","0.0-16.0-0.38","6042a56575ab0c1ccffc3152","650c16f0f2faf8d7a0d14c09","651c1dd79a806b7d581df9a3","null","null","<p style=""font-size: 60px; font-family: BACS"">kabJbGrbk</p>","","","","","","","","","",""
"html-keyboard-response","371","439558","0.0-16.0-0.39","6042a56575ab0c1ccffc3152","650c16f0f2faf8d7a0d14c09","651c1dd79a806b7d581df9a3","null","null","<p style=""font-size: 60px; font-family: BACS"">kabJbGrbk</p>","","","","","","","","","",""
"html-keyboard-response","372","440558","0.0-16.0-0.40","6042a56575ab0c1ccffc3152","650c16f0f2faf8d7a0d14c09","651c1dd79a806b7d581df9a3","null","null","<p style=""font-size: 60px; font-family: BACS"">kabJbGrbk</p>","","","","","","","","","",""
"html-keyboard-response","373","441561","0.0-16.0-0.41","6042a56575ab0c1ccffc3152","650c16f0f2faf8d7a0d14c09","651c1dd79a806b7d581df9a3","null","null","<p style=""font-size: 60px; font-family: BACS"">kabJbGrbk</p>","","","","","","","","","",""
"html-keyboard-response","374","442562","0.0-16.0-0.42","6042a56575ab0c1ccffc3152","650c16f0f2faf8d7a0d14c09","651c1dd79a806b7d581df9a3","null","null","<p style=""font-size: 60px; font-family: BACS"">kabJbGrbk</p>","","","","","","","","","",""
"html-keyboard-response","375","443564","0.0-16.0-0.43","6042a56575ab0c1ccffc3152","650c16f0f2faf8d7a0d14c09","651c1dd79a806b7d581df9a3","null","null","<p style=""font-size: 60px; font-family: BACS"">kabJbGrbk</p>","","","","","","","","","",""
"html-keyboard-response","376","444565","0.0-16.0-0.44","6042a56575ab0c1ccffc3152","650c16f0f2faf8d7a0d14c09","651c1dd79a806b7d581df9a3","null","null","<p style=""font-size: 60px; font-family: BACS"">kabJbGrbk</p>","","","","","","","","","",""
"html-keyboard-response","377","445566","0.0-16.0-0.45","6042a56575ab0c1ccffc3152","650c16f0f2faf8d7a0d14c09","651c1dd79a806b7d581df9a3","null","null","<p style=""font-size: 60px; font-family: BACS"">kabJbGrbk</p>","","","","","","","","","",""
"html-keyboard-response","378","446566","0.0-16.0-0.46","6042a56575ab0c1ccffc3152","650c16f0f2faf8d7a0d14c09","651c1dd79a806b7d581df9a3","null","null","<p style=""font-size: 60px; font-family: BACS"">kabJbGrbk</p>","","","","","","","","","",""
"html-keyboard-response","379","447567","0.0-16.0-0.47","6042a56575ab0c1ccffc3152","650c16f0f2faf8d7a0d14c09","651c1dd79a806b7d581df9a3","null","null","<p style=""font-size: 60px; font-family: BACS"">kabJbGrbk</p>","","","","","","","","","",""
"html-keyboard-response","380","448569","0.0-16.0-0.48","6042a56575ab0c1ccffc3152","650c16f0f2faf8d7a0d14c09","651c1dd79a806b7d581df9a3","null","null","<p style=""font-size: 60px; font-family: BACS"">kabJbGrbk</p>","","","","","","","","","",""
"html-keyboard-response","381","449571","0.0-16.0-0.49","6042a56575ab0c1ccffc3152","650c16f0f2faf8d7a0d14c09","651c1dd79a806b7d581df9a3","null","null","<p style=""font-size: 60px; font-family: BACS"">kabJbGrbk</p>","","","","","","","","","",""
"html-keyboard-response","382","450572","0.0-16.0-0.50","6042a56575ab0c1ccffc3152","650c16f0f2faf8d7a0d14c09","651c1dd79a806b7d581df9a3","null","null","<p style=""font-size: 60px; font-family: BACS"">kabJbGrbk</p>","","","","","","","","","",""
"html-keyboard-response","383","451574","0.0-16.0-0.51","6042a56575ab0c1ccffc3152","650c16f0f2faf8d7a0d14c09","651c1dd79a806b7d581df9a3","null","null","<p style=""font-size: 60px; font-family: BACS"">kabJbGrbk</p>","","","","","","","","","",""
"html-keyboard-response","384","452574","0.0-16.0-0.52","6042a56575ab0c1ccffc3152","650c16f0f2faf8d7a0d14c09","651c1dd79a806b7d581df9a3","null","null","<p style=""font-size: 60px; font-family: BACS"">kabJbGrbk</p>","","","","","","","","","",""
"html-keyboard-response","385","453576","0.0-16.0-0.53","6042a56575ab0c1ccffc3152","650c16f0f2faf8d7a0d14c09","651c1dd79a806b7d581df9a3","null","null","<p style=""font-size: 60px; font-family: BACS"">kabJbGrbk</p>","","","","","","","","","",""
"html-keyboard-response","386","454577","0.0-16.0-0.54","6042a56575ab0c1ccffc3152","650c16f0f2faf8d7a0d14c09","651c1dd79a806b7d581df9a3","null","null","<p style=""font-size: 60px; font-family: BACS"">kabJbGrbk</p>","","","","","","","","","",""
"html-keyboard-response","387","455578","0.0-16.0-0.55","6042a56575ab0c1ccffc3152","650c16f0f2faf8d7a0d14c09","651c1dd79a806b7d581df9a3","null","null","<p style=""font-size: 60px; font-family: BACS"">kabJbGrbk</p>","","","","","","","","","",""
"html-keyboard-response","388","456580","0.0-16.0-0.56","6042a56575ab0c1ccffc3152","650c16f0f2faf8d7a0d14c09","651c1dd79a806b7d581df9a3","null","null","<p style=""font-size: 60px; font-family: BACS"">kabJbGrbk</p>","","","","","","","","","",""
"html-keyboard-response","389","457582","0.0-16.0-0.57","6042a56575ab0c1ccffc3152","650c16f0f2faf8d7a0d14c09","651c1dd79a806b7d581df9a3","null","null","<p style=""font-size: 60px; font-family: BACS"">kabJbGrbk</p>","","","","","","","","","",""
"html-keyboard-response","390","458584","0.0-16.0-0.58","6042a56575ab0c1ccffc3152","650c16f0f2faf8d7a0d14c09","651c1dd79a806b7d581df9a3","null","null","<p style=""font-size: 60px; font-family: BACS"">kabJbGrbk</p>","","","","","","","","","",""
"html-keyboard-response","391","459585","0.0-16.0-0.59","6042a56575ab0c1ccffc3152","650c16f0f2faf8d7a0d14c09","651c1dd79a806b7d581df9a3","null","null","<p style=""font-size: 60px; font-family: BACS"">kabJbGrbk</p>","","","","","","","","","",""
"html-keyboard-response","392","460587","0.0-16.0-0.60","6042a56575ab0c1ccffc3152","650c16f0f2faf8d7a0d14c09","651c1dd79a806b7d581df9a3","null","null","<p style=""font-size: 60px; font-family: BACS"">kabJbGrbk</p>","","","","","","","","","",""
"html-keyboard-response","393","461589","0.0-16.0-0.61","6042a56575ab0c1ccffc3152","650c16f0f2faf8d7a0d14c09","651c1dd79a806b7d581df9a3","null","null","<p style=""font-size: 60px; font-family: BACS"">kabJbGrbk</p>","","","","","","","","","",""
