"trial_type","trial_index","time_elapsed","internal_node_id","subject_id","study_id","session_id","rt","response","stimulus","success","item","task","correct_response","testing_condition","correct","target","confound","name","view_history"
"pavlovia","0","1841","0.0-0.0","61275a3158c67415afb971ff","650c16f0f2faf8d7a0d14c09","651c1b7ff05d9dfa800068d0","","","","","","","","","","","","",""
"survey-html-form","1","25116","0.0-1.0","61275a3158c67415afb971ff","650c16f0f2faf8d7a0d14c09","651c1b7ff05d9dfa800068d0","23270","{""ID"":""61275a3158c67415afb971ff""}","","","","","","","","","","",""
"html-keyboard-response","2","44672","0.0-2.0","61275a3158c67415afb971ff","650c16f0f2faf8d7a0d14c09","651c1b7ff05d9dfa800068d0","19549"," ","<p style=""font-size: 15px;"">Before beginning, we ask that you read the consent information and confirm your agreement to participate in the experiment.</p>
      <p style=""font-size: 15px;""> We ask that you remember that this is a research project and that your participation is entirely voluntary. You can stop your participation at any time, without needing to provide any explanation. The study we're asking you to participate in aims at examining how readers process written words. You will be engaged in a session of apprximately 20 minutes, followed by a brief questionnaire. You will have the opportunity to take a few breaks during the experiment. You will be paid £4 for your participation, corresponding to a rate of £8/hour. While this experiment looks at cognitive faculties, this experiment doesn't constitute clinical proof of eventual pathologies.</p>
      <p style=""font-size: 15px;"">All of the information collected thanks to yours and others' participation will be held in a secure password-protected server, and will not be shared with anyone not authorised to view it. Your personal information will be kept with an arbitrary participant ID. Thanks to this data anonymity process, any researcher analysing the data won't be able to track the information back to a specific participant. Therefore, this process will make identifying you impossibile, even when results from the study will be published in scientific reviews, presented at congresses, or at any other public forum. More generally, the collected data will be treated in accordance with the laws on privacy and conformity to the Legislative Degree n. 196 ""Code regarding the protection of personal data"" of the 30th of June 2003 and to the European Regulation 2016/670 (General Data Protection Regulation - GDPR). The Data Protection Officer is Avv. Valentina Carollo, who can be contacted at the following email addresses: <a href=""mailto:dpo@sissa.it"">dpo@sissa.it</a> or <a href=""mailto:rpd@sissa.it"">rpd@sissa.it</a> - PEC: <a href=""mailto:protocollo@pec.sissa.it"">protocollo@pec.sissa.it</a>.</p>
      <p style=""font-size: 15px;""> Before expressing your consent to participate, we would like to remind you again that in case you need explanations on any aspect of the experimental procedure, the researcher is at your disposition (<a href=""mailto:aliebelt@sissa.it"">aliebelt@sissa.it</a>, <a href=""mailto:davide.crepaldi@sissa.it"">davide.crepaldi@sissa.it</a>).</p>
      <p style=""font-size: 15px;"">If you would like to download the informed consent form, you can do so here: <a href=""BASL-Informed_Consent.pdf"" download>informed consent form</a>.</p>
      <p style=""font-size: 15px;"">We ask that you press the spacebar to proceed to the consent section.</p>","","","","","","","","","",""
"survey-html-form","3","62375","0.0-3.0","61275a3158c67415afb971ff","650c16f0f2faf8d7a0d14c09","651c1b7ff05d9dfa800068d0","17698","{""consent1"":""YES"",""consent2"":""YES"",""consent3"":""YES"",""consent4"":""YES"",""consent5"":""YES"",""consent6"":""YES""}","","","","","","","","","","",""
"fullscreen","4","65862","0.0-4.0","61275a3158c67415afb971ff","650c16f0f2faf8d7a0d14c09","651c1b7ff05d9dfa800068d0","","","","true","","","","","","","","",""
"html-keyboard-response","5","85148","0.0-5.0","61275a3158c67415afb971ff","650c16f0f2faf8d7a0d14c09","651c1b7ff05d9dfa800068d0","19281"," ","<p>Welcome, and thank you very much for your time!</p>
      <p>In this experiment, you'll be a language expert who's been asked to take a look at words that Earth has received in its first communication with aliens. Your task, in this first part of the experiment, is to pay close attention to the words you'll be shown; later, world leaders will ask you questions on what you saw. The words will be shown to you quite quickly; it seems that the aliens were in a hurry :-)</p>
      <p>Press the spacebar to continue.<p>","","","","","","","","","",""
"html-keyboard-response","6","85202","0.0-6.0","61275a3158c67415afb971ff","650c16f0f2faf8d7a0d14c09","651c1b7ff05d9dfa800068d0","null","null","<p style=""font-size: 120px; font-family: BACS""> </p>","","","","","","","","","",""
"html-keyboard-response","7","134933","0.0-7.0","61275a3158c67415afb971ff","650c16f0f2faf8d7a0d14c09","651c1b7ff05d9dfa800068d0","49729"," ","<p>Here is an example of the words you'll see:</p>
      <img src='esempio.png' height='400px'>
      <p>When you're ready to begin, press the spacebar.</p></div>","","","","","","","","","",""
"html-keyboard-response","8","135952","0.0-8.0-0.0","61275a3158c67415afb971ff","650c16f0f2faf8d7a0d14c09","651c1b7ff05d9dfa800068d0","null","null","<p style=""font-size: 60px; font-family: BACS"">JNkaJUNa</p>","","","","","","","","","",""
"html-keyboard-response","9","136975","0.0-8.0-0.1","61275a3158c67415afb971ff","650c16f0f2faf8d7a0d14c09","651c1b7ff05d9dfa800068d0","null","null","<p style=""font-size: 60px; font-family: BACS"">TEBKYcM</p>","","","","","","","","","",""
"html-keyboard-response","10","137991","0.0-8.0-0.2","61275a3158c67415afb971ff","650c16f0f2faf8d7a0d14c09","651c1b7ff05d9dfa800068d0","null","null","<p style=""font-size: 60px; font-family: BACS"">DhMtPED</p>","","","","","","","","","",""
"html-keyboard-response","11","139009","0.0-8.0-0.3","61275a3158c67415afb971ff","650c16f0f2faf8d7a0d14c09","651c1b7ff05d9dfa800068d0","null","null","<p style=""font-size: 60px; font-family: BACS"">htmhCkKE</p>","","","","","","","","","",""
"html-keyboard-response","12","140028","0.0-8.0-0.4","61275a3158c67415afb971ff","650c16f0f2faf8d7a0d14c09","651c1b7ff05d9dfa800068d0","null","null","<p style=""font-size: 60px; font-family: BACS"">UdumdcYUv</p>","","","","","","","","","",""
"html-keyboard-response","13","141048","0.0-8.0-0.5","61275a3158c67415afb971ff","650c16f0f2faf8d7a0d14c09","651c1b7ff05d9dfa800068d0","null","null","<p style=""font-size: 60px; font-family: BACS"">mkmJNJUNa</p>","","","","","","","","","",""
"html-keyboard-response","14","142064","0.0-8.0-0.6","61275a3158c67415afb971ff","650c16f0f2faf8d7a0d14c09","651c1b7ff05d9dfa800068d0","null","null","<p style=""font-size: 60px; font-family: BACS"">DhMtkKE</p>","","","","","","","","","",""
"html-keyboard-response","15","143081","0.0-8.0-0.7","61275a3158c67415afb971ff","650c16f0f2faf8d7a0d14c09","651c1b7ff05d9dfa800068d0","null","null","<p style=""font-size: 60px; font-family: BACS"">ABPRBOBT</p>","","","","","","","","","",""
"html-keyboard-response","16","144100","0.0-8.0-0.8","61275a3158c67415afb971ff","650c16f0f2faf8d7a0d14c09","651c1b7ff05d9dfa800068d0","null","null","<p style=""font-size: 60px; font-family: BACS"">hTDdkKE</p>","","","","","","","","","",""
"html-keyboard-response","17","145119","0.0-8.0-0.9","61275a3158c67415afb971ff","650c16f0f2faf8d7a0d14c09","651c1b7ff05d9dfa800068d0","null","null","<p style=""font-size: 60px; font-family: BACS"">bcOROBT</p>","","","","","","","","","",""
"html-keyboard-response","18","146121","0.0-8.0-0.10","61275a3158c67415afb971ff","650c16f0f2faf8d7a0d14c09","651c1b7ff05d9dfa800068d0","null","null","<p style=""font-size: 60px; font-family: BACS"">bYuQcYUv</p>","","","","","","","","","",""
"html-keyboard-response","19","147133","0.0-8.0-0.11","61275a3158c67415afb971ff","650c16f0f2faf8d7a0d14c09","651c1b7ff05d9dfa800068d0","null","null","<p style=""font-size: 60px; font-family: BACS"">hlkTkKE</p>","","","","","","","","","",""
"html-keyboard-response","20","148145","0.0-8.0-0.12","61275a3158c67415afb971ff","650c16f0f2faf8d7a0d14c09","651c1b7ff05d9dfa800068d0","null","null","<p style=""font-size: 60px; font-family: BACS"">aYaNJUNa</p>","","","","","","","","","",""
"html-keyboard-response","21","149156","0.0-8.0-0.13","61275a3158c67415afb971ff","650c16f0f2faf8d7a0d14c09","651c1b7ff05d9dfa800068d0","null","null","<p style=""font-size: 60px; font-family: BACS"">aUZAcYUv</p>","","","","","","","","","",""
"html-keyboard-response","22","150169","0.0-8.0-0.14","61275a3158c67415afb971ff","650c16f0f2faf8d7a0d14c09","651c1b7ff05d9dfa800068d0","null","null","<p style=""font-size: 60px; font-family: BACS"">UdumdJZr</p>","","","","","","","","","",""
"html-keyboard-response","23","151186","0.0-8.0-0.15","61275a3158c67415afb971ff","650c16f0f2faf8d7a0d14c09","651c1b7ff05d9dfa800068d0","null","null","<p style=""font-size: 60px; font-family: BACS"">KBKBEYcM</p>","","","","","","","","","",""
"html-keyboard-response","24","152200","0.0-8.0-0.16","61275a3158c67415afb971ff","650c16f0f2faf8d7a0d14c09","651c1b7ff05d9dfa800068d0","null","null","<p style=""font-size: 60px; font-family: BACS"">mkmJNGUOA</p>","","","","","","","","","",""
"html-keyboard-response","25","153217","0.0-8.0-0.17","61275a3158c67415afb971ff","650c16f0f2faf8d7a0d14c09","651c1b7ff05d9dfa800068d0","null","null","<p style=""font-size: 60px; font-family: BACS"">hlkTPED</p>","","","","","","","","","",""
"html-keyboard-response","26","154231","0.0-8.0-0.18","61275a3158c67415afb971ff","650c16f0f2faf8d7a0d14c09","651c1b7ff05d9dfa800068d0","null","null","<p style=""font-size: 60px; font-family: BACS"">hAROKOBT</p>","","","","","","","","","",""
"html-keyboard-response","27","155252","0.0-8.0-0.19","61275a3158c67415afb971ff","650c16f0f2faf8d7a0d14c09","651c1b7ff05d9dfa800068d0","null","null","<p style=""font-size: 60px; font-family: BACS"">hTDdmAM</p>","","","","","","","","","",""
"html-keyboard-response","28","156268","0.0-8.0-0.20","61275a3158c67415afb971ff","650c16f0f2faf8d7a0d14c09","651c1b7ff05d9dfa800068d0","null","null","<p style=""font-size: 60px; font-family: BACS"">kZUbJZr</p>","","","","","","","","","",""
"html-keyboard-response","29","157281","0.0-8.0-0.21","61275a3158c67415afb971ff","650c16f0f2faf8d7a0d14c09","651c1b7ff05d9dfa800068d0","null","null","<p style=""font-size: 60px; font-family: BACS"">hlkTYcM</p>","","","","","","","","","",""
"html-keyboard-response","30","158298","0.0-8.0-0.22","61275a3158c67415afb971ff","650c16f0f2faf8d7a0d14c09","651c1b7ff05d9dfa800068d0","null","null","<p style=""font-size: 60px; font-family: BACS"">bYuQGUOA</p>","","","","","","","","","",""
"html-keyboard-response","31","159318","0.0-8.0-0.23","61275a3158c67415afb971ff","650c16f0f2faf8d7a0d14c09","651c1b7ff05d9dfa800068d0","null","null","<p style=""font-size: 60px; font-family: BACS"">cuOJbJUNa</p>","","","","","","","","","",""
"html-keyboard-response","32","160333","0.0-8.0-0.24","61275a3158c67415afb971ff","650c16f0f2faf8d7a0d14c09","651c1b7ff05d9dfa800068d0","null","null","<p style=""font-size: 60px; font-family: BACS"">bYuQGUa</p>","","","","","","","","","",""
"html-keyboard-response","33","161348","0.0-8.0-0.25","61275a3158c67415afb971ff","650c16f0f2faf8d7a0d14c09","651c1b7ff05d9dfa800068d0","null","null","<p style=""font-size: 60px; font-family: BACS"">kZUbcYUv</p>","","","","","","","","","",""
"html-keyboard-response","34","162366","0.0-8.0-0.26","61275a3158c67415afb971ff","650c16f0f2faf8d7a0d14c09","651c1b7ff05d9dfa800068d0","null","null","<p style=""font-size: 60px; font-family: BACS"">hlkTOBT</p>","","","","","","","","","",""
"html-keyboard-response","35","163371","0.0-8.0-0.27","61275a3158c67415afb971ff","650c16f0f2faf8d7a0d14c09","651c1b7ff05d9dfa800068d0","null","null","<p style=""font-size: 60px; font-family: BACS"">bcORPED</p>","","","","","","","","","",""
"html-keyboard-response","36","164386","0.0-8.0-0.28","61275a3158c67415afb971ff","650c16f0f2faf8d7a0d14c09","651c1b7ff05d9dfa800068d0","null","null","<p style=""font-size: 60px; font-family: BACS"">bYGOZcYUv</p>","","","","","","","","","",""
"html-keyboard-response","37","165403","0.0-8.0-0.29","61275a3158c67415afb971ff","650c16f0f2faf8d7a0d14c09","651c1b7ff05d9dfa800068d0","null","null","<p style=""font-size: 60px; font-family: BACS"">hAROKYcM</p>","","","","","","","","","",""
"html-keyboard-response","38","166417","0.0-8.0-0.30","61275a3158c67415afb971ff","650c16f0f2faf8d7a0d14c09","651c1b7ff05d9dfa800068d0","null","null","<p style=""font-size: 60px; font-family: BACS"">cuOJbGUa</p>","","","","","","","","","",""
"html-keyboard-response","39","167435","0.0-8.0-0.31","61275a3158c67415afb971ff","650c16f0f2faf8d7a0d14c09","651c1b7ff05d9dfa800068d0","null","null","<p style=""font-size: 60px; font-family: BACS"">TEBKPED</p>","","","","","","","","","",""
"html-keyboard-response","40","168442","0.0-8.0-0.32","61275a3158c67415afb971ff","650c16f0f2faf8d7a0d14c09","651c1b7ff05d9dfa800068d0","null","null","<p style=""font-size: 60px; font-family: BACS"">ABPRBkKE</p>","","","","","","","","","",""
"html-keyboard-response","41","169454","0.0-8.0-0.33","61275a3158c67415afb971ff","650c16f0f2faf8d7a0d14c09","651c1b7ff05d9dfa800068d0","null","null","<p style=""font-size: 60px; font-family: BACS"">DhMtmAM</p>","","","","","","","","","",""
"html-keyboard-response","42","170473","0.0-8.0-0.34","61275a3158c67415afb971ff","650c16f0f2faf8d7a0d14c09","651c1b7ff05d9dfa800068d0","null","null","<p style=""font-size: 60px; font-family: BACS"">KBKBEOBT</p>","","","","","","","","","",""
"html-keyboard-response","43","171491","0.0-8.0-0.35","61275a3158c67415afb971ff","650c16f0f2faf8d7a0d14c09","651c1b7ff05d9dfa800068d0","null","null","<p style=""font-size: 60px; font-family: BACS"">kZUbJUNa</p>","","","","","","","","","",""
"html-keyboard-response","44","172494","0.0-8.0-0.36","61275a3158c67415afb971ff","650c16f0f2faf8d7a0d14c09","651c1b7ff05d9dfa800068d0","null","null","<p style=""font-size: 60px; font-family: BACS"">cuOJbGUOA</p>","","","","","","","","","",""
"html-keyboard-response","45","173510","0.0-8.0-0.37","61275a3158c67415afb971ff","650c16f0f2faf8d7a0d14c09","651c1b7ff05d9dfa800068d0","null","null","<p style=""font-size: 60px; font-family: BACS"">bcORYcM</p>","","","","","","","","","",""
"html-keyboard-response","46","174524","0.0-8.0-0.38","61275a3158c67415afb971ff","650c16f0f2faf8d7a0d14c09","651c1b7ff05d9dfa800068d0","null","null","<p style=""font-size: 60px; font-family: BACS"">bYGOZGUa</p>","","","","","","","","","",""
"html-keyboard-response","47","175533","0.0-8.0-0.39","61275a3158c67415afb971ff","650c16f0f2faf8d7a0d14c09","651c1b7ff05d9dfa800068d0","null","null","<p style=""font-size: 60px; font-family: BACS"">TPCbPED</p>","","","","","","","","","",""
"html-keyboard-response","48","176547","0.0-8.0-0.40","61275a3158c67415afb971ff","650c16f0f2faf8d7a0d14c09","651c1b7ff05d9dfa800068d0","null","null","<p style=""font-size: 60px; font-family: BACS"">TEBKOBT</p>","","","","","","","","","",""
"html-keyboard-response","49","177571","0.0-8.0-0.41","61275a3158c67415afb971ff","650c16f0f2faf8d7a0d14c09","651c1b7ff05d9dfa800068d0","null","null","<p style=""font-size: 60px; font-family: BACS"">UdumdGUa</p>","","","","","","","","","",""
"html-keyboard-response","50","178583","0.0-8.0-0.42","61275a3158c67415afb971ff","650c16f0f2faf8d7a0d14c09","651c1b7ff05d9dfa800068d0","null","null","<p style=""font-size: 60px; font-family: BACS"">ABPRBYcM</p>","","","","","","","","","",""
"html-keyboard-response","51","179598","0.0-8.0-0.43","61275a3158c67415afb971ff","650c16f0f2faf8d7a0d14c09","651c1b7ff05d9dfa800068d0","null","null","<p style=""font-size: 60px; font-family: BACS"">aYaNGUOA</p>","","","","","","","","","",""
"html-keyboard-response","52","180614","0.0-8.0-0.44","61275a3158c67415afb971ff","650c16f0f2faf8d7a0d14c09","651c1b7ff05d9dfa800068d0","null","null","<p style=""font-size: 60px; font-family: BACS"">GJGcZJUNa</p>","","","","","","","","","",""
"html-keyboard-response","53","181630","0.0-8.0-0.45","61275a3158c67415afb971ff","650c16f0f2faf8d7a0d14c09","651c1b7ff05d9dfa800068d0","null","null","<p style=""font-size: 60px; font-family: BACS"">DhMtOBT</p>","","","","","","","","","",""
"html-keyboard-response","54","182648","0.0-8.0-0.46","61275a3158c67415afb971ff","650c16f0f2faf8d7a0d14c09","651c1b7ff05d9dfa800068d0","null","null","<p style=""font-size: 60px; font-family: BACS"">TEBKmAM</p>","","","","","","","","","",""
"html-keyboard-response","55","183662","0.0-8.0-0.47","61275a3158c67415afb971ff","650c16f0f2faf8d7a0d14c09","651c1b7ff05d9dfa800068d0","null","null","<p style=""font-size: 60px; font-family: BACS"">htmhCYcM</p>","","","","","","","","","",""
"html-keyboard-response","56","184666","0.0-8.0-0.48","61275a3158c67415afb971ff","650c16f0f2faf8d7a0d14c09","651c1b7ff05d9dfa800068d0","null","null","<p style=""font-size: 60px; font-family: BACS"">aYaNcYUv</p>","","","","","","","","","",""
"html-keyboard-response","57","185684","0.0-8.0-0.49","61275a3158c67415afb971ff","650c16f0f2faf8d7a0d14c09","651c1b7ff05d9dfa800068d0","null","null","<p style=""font-size: 60px; font-family: BACS"">GJGcZJZr</p>","","","","","","","","","",""
"html-keyboard-response","58","186691","0.0-8.0-0.50","61275a3158c67415afb971ff","650c16f0f2faf8d7a0d14c09","651c1b7ff05d9dfa800068d0","null","null","<p style=""font-size: 60px; font-family: BACS"">JNkaGUOA</p>","","","","","","","","","",""
"html-keyboard-response","59","187695","0.0-8.0-0.51","61275a3158c67415afb971ff","650c16f0f2faf8d7a0d14c09","651c1b7ff05d9dfa800068d0","null","null","<p style=""font-size: 60px; font-family: BACS"">TPCbYcM</p>","","","","","","","","","",""
"html-keyboard-response","60","188712","0.0-8.0-0.52","61275a3158c67415afb971ff","650c16f0f2faf8d7a0d14c09","651c1b7ff05d9dfa800068d0","null","null","<p style=""font-size: 60px; font-family: BACS"">hTDdOBT</p>","","","","","","","","","",""
"html-keyboard-response","61","189730","0.0-8.0-0.53","61275a3158c67415afb971ff","650c16f0f2faf8d7a0d14c09","651c1b7ff05d9dfa800068d0","null","null","<p style=""font-size: 60px; font-family: BACS"">bYuQJZr</p>","","","","","","","","","",""
"html-keyboard-response","62","190745","0.0-8.0-0.54","61275a3158c67415afb971ff","650c16f0f2faf8d7a0d14c09","651c1b7ff05d9dfa800068d0","null","null","<p style=""font-size: 60px; font-family: BACS"">hAROKmAM</p>","","","","","","","","","",""
"html-keyboard-response","63","191751","0.0-8.0-0.55","61275a3158c67415afb971ff","650c16f0f2faf8d7a0d14c09","651c1b7ff05d9dfa800068d0","null","null","<p style=""font-size: 60px; font-family: BACS"">UdumdGUOA</p>","","","","","","","","","",""
"html-keyboard-response","64","192769","0.0-8.0-0.56","61275a3158c67415afb971ff","650c16f0f2faf8d7a0d14c09","651c1b7ff05d9dfa800068d0","null","null","<p style=""font-size: 60px; font-family: BACS"">bYGOZJZr</p>","","","","","","","","","",""
"html-keyboard-response","65","193787","0.0-8.0-0.57","61275a3158c67415afb971ff","650c16f0f2faf8d7a0d14c09","651c1b7ff05d9dfa800068d0","null","null","<p style=""font-size: 60px; font-family: BACS"">TPCbkKE</p>","","","","","","","","","",""
"html-keyboard-response","66","194804","0.0-8.0-0.58","61275a3158c67415afb971ff","650c16f0f2faf8d7a0d14c09","651c1b7ff05d9dfa800068d0","null","null","<p style=""font-size: 60px; font-family: BACS"">ABPRBmAM</p>","","","","","","","","","",""
"html-keyboard-response","67","195812","0.0-8.0-0.59","61275a3158c67415afb971ff","650c16f0f2faf8d7a0d14c09","651c1b7ff05d9dfa800068d0","null","null","<p style=""font-size: 60px; font-family: BACS"">bYGOZJUNa</p>","","","","","","","","","",""
"html-keyboard-response","68","196824","0.0-8.0-0.60","61275a3158c67415afb971ff","650c16f0f2faf8d7a0d14c09","651c1b7ff05d9dfa800068d0","null","null","<p style=""font-size: 60px; font-family: BACS"">aYaNGUa</p>","","","","","","","","","",""
"html-keyboard-response","69","197840","0.0-8.0-0.61","61275a3158c67415afb971ff","650c16f0f2faf8d7a0d14c09","651c1b7ff05d9dfa800068d0","null","null","<p style=""font-size: 60px; font-family: BACS"">hAROKkKE</p>","","","","","","","","","",""
"html-keyboard-response","70","198858","0.0-8.0-0.62","61275a3158c67415afb971ff","650c16f0f2faf8d7a0d14c09","651c1b7ff05d9dfa800068d0","null","null","<p style=""font-size: 60px; font-family: BACS"">aUZAJUNa</p>","","","","","","","","","",""
"html-keyboard-response","71","199877","0.0-8.0-0.63","61275a3158c67415afb971ff","650c16f0f2faf8d7a0d14c09","651c1b7ff05d9dfa800068d0","null","null","<p style=""font-size: 60px; font-family: BACS"">mkmJNGUa</p>","","","","","","","","","",""
"html-keyboard-response","72","200893","0.0-8.0-0.64","61275a3158c67415afb971ff","650c16f0f2faf8d7a0d14c09","651c1b7ff05d9dfa800068d0","null","null","<p style=""font-size: 60px; font-family: BACS"">cuOJbJZr</p>","","","","","","","","","",""
"html-keyboard-response","73","201914","0.0-8.0-0.65","61275a3158c67415afb971ff","650c16f0f2faf8d7a0d14c09","651c1b7ff05d9dfa800068d0","null","null","<p style=""font-size: 60px; font-family: BACS"">KBKBEmAM</p>","","","","","","","","","",""
"html-keyboard-response","74","202927","0.0-8.0-0.66","61275a3158c67415afb971ff","650c16f0f2faf8d7a0d14c09","651c1b7ff05d9dfa800068d0","null","null","<p style=""font-size: 60px; font-family: BACS"">GJGcZGUOA</p>","","","","","","","","","",""
"html-keyboard-response","75","203945","0.0-8.0-0.67","61275a3158c67415afb971ff","650c16f0f2faf8d7a0d14c09","651c1b7ff05d9dfa800068d0","null","null","<p style=""font-size: 60px; font-family: BACS"">TPCbmAM</p>","","","","","","","","","",""
"html-keyboard-response","76","204958","0.0-8.0-0.68","61275a3158c67415afb971ff","650c16f0f2faf8d7a0d14c09","651c1b7ff05d9dfa800068d0","null","null","<p style=""font-size: 60px; font-family: BACS"">aUZAGUOA</p>","","","","","","","","","",""
"html-keyboard-response","77","205973","0.0-8.0-0.69","61275a3158c67415afb971ff","650c16f0f2faf8d7a0d14c09","651c1b7ff05d9dfa800068d0","null","null","<p style=""font-size: 60px; font-family: BACS"">KBKBEPED</p>","","","","","","","","","",""
"html-keyboard-response","78","206988","0.0-8.0-0.70","61275a3158c67415afb971ff","650c16f0f2faf8d7a0d14c09","651c1b7ff05d9dfa800068d0","null","null","<p style=""font-size: 60px; font-family: BACS"">bcORkKE</p>","","","","","","","","","",""
"html-keyboard-response","79","208000","0.0-8.0-0.71","61275a3158c67415afb971ff","650c16f0f2faf8d7a0d14c09","651c1b7ff05d9dfa800068d0","null","null","<p style=""font-size: 60px; font-family: BACS"">GJGcZGUa</p>","","","","","","","","","",""
"html-keyboard-response","80","209022","0.0-8.0-0.72","61275a3158c67415afb971ff","650c16f0f2faf8d7a0d14c09","651c1b7ff05d9dfa800068d0","null","null","<p style=""font-size: 60px; font-family: BACS"">htmhCmAM</p>","","","","","","","","","",""
"html-keyboard-response","81","210032","0.0-8.0-0.73","61275a3158c67415afb971ff","650c16f0f2faf8d7a0d14c09","651c1b7ff05d9dfa800068d0","null","null","<p style=""font-size: 60px; font-family: BACS"">mkmJNcYUv</p>","","","","","","","","","",""
"html-keyboard-response","82","211055","0.0-8.0-0.74","61275a3158c67415afb971ff","650c16f0f2faf8d7a0d14c09","651c1b7ff05d9dfa800068d0","null","null","<p style=""font-size: 60px; font-family: BACS"">htmhCPED</p>","","","","","","","","","",""
"html-keyboard-response","83","212074","0.0-8.0-0.75","61275a3158c67415afb971ff","650c16f0f2faf8d7a0d14c09","651c1b7ff05d9dfa800068d0","null","null","<p style=""font-size: 60px; font-family: BACS"">JNkaJZr</p>","","","","","","","","","",""
"html-keyboard-response","84","213088","0.0-8.0-0.76","61275a3158c67415afb971ff","650c16f0f2faf8d7a0d14c09","651c1b7ff05d9dfa800068d0","null","null","<p style=""font-size: 60px; font-family: BACS"">kZUbGUa</p>","","","","","","","","","",""
"html-keyboard-response","85","214103","0.0-8.0-0.77","61275a3158c67415afb971ff","650c16f0f2faf8d7a0d14c09","651c1b7ff05d9dfa800068d0","null","null","<p style=""font-size: 60px; font-family: BACS"">aUZAJZr</p>","","","","","","","","","",""
"html-keyboard-response","86","215120","0.0-8.0-0.78","61275a3158c67415afb971ff","650c16f0f2faf8d7a0d14c09","651c1b7ff05d9dfa800068d0","null","null","<p style=""font-size: 60px; font-family: BACS"">JNkacYUv</p>","","","","","","","","","",""
"html-keyboard-response","87","216124","0.0-8.0-0.79","61275a3158c67415afb971ff","650c16f0f2faf8d7a0d14c09","651c1b7ff05d9dfa800068d0","null","null","<p style=""font-size: 60px; font-family: BACS"">hTDdPED</p>","","","","","","","","","",""
"html-keyboard-response","88","224186","0.0-9.0","61275a3158c67415afb971ff","650c16f0f2faf8d7a0d14c09","651c1b7ff05d9dfa800068d0","8060"," ","<p>Great, you've seen the first block of words. You may now take a short break.</p>
      <p>Press the spacebar when you're ready to continue.</p>","","","","","","","","","",""
"html-keyboard-response","89","225193","0.0-10.0-0.0","61275a3158c67415afb971ff","650c16f0f2faf8d7a0d14c09","651c1b7ff05d9dfa800068d0","null","null","<p style=""font-size: 60px; font-family: BACS"">bYuQGUOA</p>","","","","","","","","","",""
"html-keyboard-response","90","226210","0.0-10.0-0.1","61275a3158c67415afb971ff","650c16f0f2faf8d7a0d14c09","651c1b7ff05d9dfa800068d0","null","null","<p style=""font-size: 60px; font-family: BACS"">JNkacYUv</p>","","","","","","","","","",""
"html-keyboard-response","91","227230","0.0-10.0-0.2","61275a3158c67415afb971ff","650c16f0f2faf8d7a0d14c09","651c1b7ff05d9dfa800068d0","null","null","<p style=""font-size: 60px; font-family: BACS"">DhMtPED</p>","","","","","","","","","",""
"html-keyboard-response","92","228246","0.0-10.0-0.3","61275a3158c67415afb971ff","650c16f0f2faf8d7a0d14c09","651c1b7ff05d9dfa800068d0","null","null","<p style=""font-size: 60px; font-family: BACS"">mkmJNGUOA</p>","","","","","","","","","",""
"html-keyboard-response","93","229267","0.0-10.0-0.4","61275a3158c67415afb971ff","650c16f0f2faf8d7a0d14c09","651c1b7ff05d9dfa800068d0","null","null","<p style=""font-size: 60px; font-family: BACS"">cuOJbJUNa</p>","","","","","","","","","",""
"html-keyboard-response","94","230286","0.0-10.0-0.5","61275a3158c67415afb971ff","650c16f0f2faf8d7a0d14c09","651c1b7ff05d9dfa800068d0","null","null","<p style=""font-size: 60px; font-family: BACS"">KBKBEmAM</p>","","","","","","","","","",""
"html-keyboard-response","95","231307","0.0-10.0-0.6","61275a3158c67415afb971ff","650c16f0f2faf8d7a0d14c09","651c1b7ff05d9dfa800068d0","null","null","<p style=""font-size: 60px; font-family: BACS"">htmhCPED</p>","","","","","","","","","",""
"html-keyboard-response","96","232325","0.0-10.0-0.7","61275a3158c67415afb971ff","650c16f0f2faf8d7a0d14c09","651c1b7ff05d9dfa800068d0","null","null","<p style=""font-size: 60px; font-family: BACS"">TEBKOBT</p>","","","","","","","","","",""
"html-keyboard-response","97","233333","0.0-10.0-0.8","61275a3158c67415afb971ff","650c16f0f2faf8d7a0d14c09","651c1b7ff05d9dfa800068d0","null","null","<p style=""font-size: 60px; font-family: BACS"">bYGOZGUa</p>","","","","","","","","","",""
"html-keyboard-response","98","234349","0.0-10.0-0.9","61275a3158c67415afb971ff","650c16f0f2faf8d7a0d14c09","651c1b7ff05d9dfa800068d0","null","null","<p style=""font-size: 60px; font-family: BACS"">mkmJNcYUv</p>","","","","","","","","","",""
"html-keyboard-response","99","235366","0.0-10.0-0.10","61275a3158c67415afb971ff","650c16f0f2faf8d7a0d14c09","651c1b7ff05d9dfa800068d0","null","null","<p style=""font-size: 60px; font-family: BACS"">hAROKYcM</p>","","","","","","","","","",""
"html-keyboard-response","100","236374","0.0-10.0-0.11","61275a3158c67415afb971ff","650c16f0f2faf8d7a0d14c09","651c1b7ff05d9dfa800068d0","null","null","<p style=""font-size: 60px; font-family: BACS"">GJGcZJZr</p>","","","","","","","","","",""
"html-keyboard-response","101","237392","0.0-10.0-0.12","61275a3158c67415afb971ff","650c16f0f2faf8d7a0d14c09","651c1b7ff05d9dfa800068d0","null","null","<p style=""font-size: 60px; font-family: BACS"">KBKBEYcM</p>","","","","","","","","","",""
"html-keyboard-response","102","238407","0.0-10.0-0.13","61275a3158c67415afb971ff","650c16f0f2faf8d7a0d14c09","651c1b7ff05d9dfa800068d0","null","null","<p style=""font-size: 60px; font-family: BACS"">htmhCmAM</p>","","","","","","","","","",""
"html-keyboard-response","103","239423","0.0-10.0-0.14","61275a3158c67415afb971ff","650c16f0f2faf8d7a0d14c09","651c1b7ff05d9dfa800068d0","null","null","<p style=""font-size: 60px; font-family: BACS"">hlkTOBT</p>","","","","","","","","","",""
"html-keyboard-response","104","240442","0.0-10.0-0.15","61275a3158c67415afb971ff","650c16f0f2faf8d7a0d14c09","651c1b7ff05d9dfa800068d0","null","null","<p style=""font-size: 60px; font-family: BACS"">kZUbGUa</p>","","","","","","","","","",""
"html-keyboard-response","105","241459","0.0-10.0-0.16","61275a3158c67415afb971ff","650c16f0f2faf8d7a0d14c09","651c1b7ff05d9dfa800068d0","null","null","<p style=""font-size: 60px; font-family: BACS"">KBKBEOBT</p>","","","","","","","","","",""
"html-keyboard-response","106","242466","0.0-10.0-0.17","61275a3158c67415afb971ff","650c16f0f2faf8d7a0d14c09","651c1b7ff05d9dfa800068d0","null","null","<p style=""font-size: 60px; font-family: BACS"">hlkTPED</p>","","","","","","","","","",""
"html-keyboard-response","107","243481","0.0-10.0-0.18","61275a3158c67415afb971ff","650c16f0f2faf8d7a0d14c09","651c1b7ff05d9dfa800068d0","null","null","<p style=""font-size: 60px; font-family: BACS"">JNkaGUOA</p>","","","","","","","","","",""
"html-keyboard-response","108","244494","0.0-10.0-0.19","61275a3158c67415afb971ff","650c16f0f2faf8d7a0d14c09","651c1b7ff05d9dfa800068d0","null","null","<p style=""font-size: 60px; font-family: BACS"">TEBKPED</p>","","","","","","","","","",""
"html-keyboard-response","109","245514","0.0-10.0-0.20","61275a3158c67415afb971ff","650c16f0f2faf8d7a0d14c09","651c1b7ff05d9dfa800068d0","null","null","<p style=""font-size: 60px; font-family: BACS"">cuOJbGUa</p>","","","","","","","","","",""
"html-keyboard-response","110","246532","0.0-10.0-0.21","61275a3158c67415afb971ff","650c16f0f2faf8d7a0d14c09","651c1b7ff05d9dfa800068d0","null","null","<p style=""font-size: 60px; font-family: BACS"">bcORYcM</p>","","","","","","","","","",""
"html-keyboard-response","111","247537","0.0-10.0-0.22","61275a3158c67415afb971ff","650c16f0f2faf8d7a0d14c09","651c1b7ff05d9dfa800068d0","null","null","<p style=""font-size: 60px; font-family: BACS"">aUZAJUNa</p>","","","","","","","","","",""
"html-keyboard-response","112","248550","0.0-10.0-0.23","61275a3158c67415afb971ff","650c16f0f2faf8d7a0d14c09","651c1b7ff05d9dfa800068d0","null","null","<p style=""font-size: 60px; font-family: BACS"">hTDdkKE</p>","","","","","","","","","",""
"html-keyboard-response","113","249566","0.0-10.0-0.24","61275a3158c67415afb971ff","650c16f0f2faf8d7a0d14c09","651c1b7ff05d9dfa800068d0","null","null","<p style=""font-size: 60px; font-family: BACS"">TEBKmAM</p>","","","","","","","","","",""
"html-keyboard-response","114","250582","0.0-10.0-0.25","61275a3158c67415afb971ff","650c16f0f2faf8d7a0d14c09","651c1b7ff05d9dfa800068d0","null","null","<p style=""font-size: 60px; font-family: BACS"">ABPRBkKE</p>","","","","","","","","","",""
"html-keyboard-response","115","251584","0.0-10.0-0.26","61275a3158c67415afb971ff","650c16f0f2faf8d7a0d14c09","651c1b7ff05d9dfa800068d0","null","null","<p style=""font-size: 60px; font-family: BACS"">GJGcZGUOA</p>","","","","","","","","","",""
"html-keyboard-response","116","252601","0.0-10.0-0.27","61275a3158c67415afb971ff","650c16f0f2faf8d7a0d14c09","651c1b7ff05d9dfa800068d0","null","null","<p style=""font-size: 60px; font-family: BACS"">htmhCkKE</p>","","","","","","","","","",""
"html-keyboard-response","117","253617","0.0-10.0-0.28","61275a3158c67415afb971ff","650c16f0f2faf8d7a0d14c09","651c1b7ff05d9dfa800068d0","null","null","<p style=""font-size: 60px; font-family: BACS"">DhMtmAM</p>","","","","","","","","","",""
"html-keyboard-response","118","254633","0.0-10.0-0.29","61275a3158c67415afb971ff","650c16f0f2faf8d7a0d14c09","651c1b7ff05d9dfa800068d0","null","null","<p style=""font-size: 60px; font-family: BACS"">UdumdGUOA</p>","","","","","","","","","",""
"html-keyboard-response","119","255648","0.0-10.0-0.30","61275a3158c67415afb971ff","650c16f0f2faf8d7a0d14c09","651c1b7ff05d9dfa800068d0","null","null","<p style=""font-size: 60px; font-family: BACS"">mkmJNJUNa</p>","","","","","","","","","",""
"html-keyboard-response","120","256665","0.0-10.0-0.31","61275a3158c67415afb971ff","650c16f0f2faf8d7a0d14c09","651c1b7ff05d9dfa800068d0","null","null","<p style=""font-size: 60px; font-family: BACS"">hlkTkKE</p>","","","","","","","","","",""
"html-keyboard-response","121","257677","0.0-10.0-0.32","61275a3158c67415afb971ff","650c16f0f2faf8d7a0d14c09","651c1b7ff05d9dfa800068d0","null","null","<p style=""font-size: 60px; font-family: BACS"">cuOJbGUOA</p>","","","","","","","","","",""
"html-keyboard-response","122","258695","0.0-10.0-0.33","61275a3158c67415afb971ff","650c16f0f2faf8d7a0d14c09","651c1b7ff05d9dfa800068d0","null","null","<p style=""font-size: 60px; font-family: BACS"">aYaNcYUv</p>","","","","","","","","","",""
"html-keyboard-response","123","259711","0.0-10.0-0.34","61275a3158c67415afb971ff","650c16f0f2faf8d7a0d14c09","651c1b7ff05d9dfa800068d0","null","null","<p style=""font-size: 60px; font-family: BACS"">TPCbYcM</p>","","","","","","","","","",""
"html-keyboard-response","124","260724","0.0-10.0-0.35","61275a3158c67415afb971ff","650c16f0f2faf8d7a0d14c09","651c1b7ff05d9dfa800068d0","null","null","<p style=""font-size: 60px; font-family: BACS"">aYaNGUa</p>","","","","","","","","","",""
"html-keyboard-response","125","261745","0.0-10.0-0.36","61275a3158c67415afb971ff","650c16f0f2faf8d7a0d14c09","651c1b7ff05d9dfa800068d0","null","null","<p style=""font-size: 60px; font-family: BACS"">hAROKmAM</p>","","","","","","","","","",""
"html-keyboard-response","126","262759","0.0-10.0-0.37","61275a3158c67415afb971ff","650c16f0f2faf8d7a0d14c09","651c1b7ff05d9dfa800068d0","null","null","<p style=""font-size: 60px; font-family: BACS"">bcORkKE</p>","","","","","","","","","",""
"html-keyboard-response","127","263774","0.0-10.0-0.38","61275a3158c67415afb971ff","650c16f0f2faf8d7a0d14c09","651c1b7ff05d9dfa800068d0","null","null","<p style=""font-size: 60px; font-family: BACS"">GJGcZGUa</p>","","","","","","","","","",""
"html-keyboard-response","128","264788","0.0-10.0-0.39","61275a3158c67415afb971ff","650c16f0f2faf8d7a0d14c09","651c1b7ff05d9dfa800068d0","null","null","<p style=""font-size: 60px; font-family: BACS"">hTDdOBT</p>","","","","","","","","","",""
"html-keyboard-response","129","265808","0.0-10.0-0.40","61275a3158c67415afb971ff","650c16f0f2faf8d7a0d14c09","651c1b7ff05d9dfa800068d0","null","null","<p style=""font-size: 60px; font-family: BACS"">aYaNJUNa</p>","","","","","","","","","",""
"html-keyboard-response","130","266821","0.0-10.0-0.41","61275a3158c67415afb971ff","650c16f0f2faf8d7a0d14c09","651c1b7ff05d9dfa800068d0","null","null","<p style=""font-size: 60px; font-family: BACS"">cuOJbJZr</p>","","","","","","","","","",""
"html-keyboard-response","131","267837","0.0-10.0-0.42","61275a3158c67415afb971ff","650c16f0f2faf8d7a0d14c09","651c1b7ff05d9dfa800068d0","null","null","<p style=""font-size: 60px; font-family: BACS"">UdumdGUa</p>","","","","","","","","","",""
"html-keyboard-response","132","268850","0.0-10.0-0.43","61275a3158c67415afb971ff","650c16f0f2faf8d7a0d14c09","651c1b7ff05d9dfa800068d0","null","null","<p style=""font-size: 60px; font-family: BACS"">htmhCYcM</p>","","","","","","","","","",""
"html-keyboard-response","133","269853","0.0-10.0-0.44","61275a3158c67415afb971ff","650c16f0f2faf8d7a0d14c09","651c1b7ff05d9dfa800068d0","null","null","<p style=""font-size: 60px; font-family: BACS"">mkmJNGUa</p>","","","","","","","","","",""
"html-keyboard-response","134","270871","0.0-10.0-0.45","61275a3158c67415afb971ff","650c16f0f2faf8d7a0d14c09","651c1b7ff05d9dfa800068d0","null","null","<p style=""font-size: 60px; font-family: BACS"">ABPRBOBT</p>","","","","","","","","","",""
"html-keyboard-response","135","271876","0.0-10.0-0.46","61275a3158c67415afb971ff","650c16f0f2faf8d7a0d14c09","651c1b7ff05d9dfa800068d0","null","null","<p style=""font-size: 60px; font-family: BACS"">bYuQGUa</p>","","","","","","","","","",""
"html-keyboard-response","136","272889","0.0-10.0-0.47","61275a3158c67415afb971ff","650c16f0f2faf8d7a0d14c09","651c1b7ff05d9dfa800068d0","null","null","<p style=""font-size: 60px; font-family: BACS"">KBKBEPED</p>","","","","","","","","","",""
"html-keyboard-response","137","273907","0.0-10.0-0.48","61275a3158c67415afb971ff","650c16f0f2faf8d7a0d14c09","651c1b7ff05d9dfa800068d0","null","null","<p style=""font-size: 60px; font-family: BACS"">GJGcZJUNa</p>","","","","","","","","","",""
"html-keyboard-response","138","274926","0.0-10.0-0.49","61275a3158c67415afb971ff","650c16f0f2faf8d7a0d14c09","651c1b7ff05d9dfa800068d0","null","null","<p style=""font-size: 60px; font-family: BACS"">TEBKYcM</p>","","","","","","","","","",""
"html-keyboard-response","139","275941","0.0-10.0-0.50","61275a3158c67415afb971ff","650c16f0f2faf8d7a0d14c09","651c1b7ff05d9dfa800068d0","null","null","<p style=""font-size: 60px; font-family: BACS"">kZUbJZr</p>","","","","","","","","","",""
"html-keyboard-response","140","276962","0.0-10.0-0.51","61275a3158c67415afb971ff","650c16f0f2faf8d7a0d14c09","651c1b7ff05d9dfa800068d0","null","null","<p style=""font-size: 60px; font-family: BACS"">hTDdmAM</p>","","","","","","","","","",""
"html-keyboard-response","141","277979","0.0-10.0-0.52","61275a3158c67415afb971ff","650c16f0f2faf8d7a0d14c09","651c1b7ff05d9dfa800068d0","null","null","<p style=""font-size: 60px; font-family: BACS"">bcORPED</p>","","","","","","","","","",""
"html-keyboard-response","142","278994","0.0-10.0-0.53","61275a3158c67415afb971ff","650c16f0f2faf8d7a0d14c09","651c1b7ff05d9dfa800068d0","null","null","<p style=""font-size: 60px; font-family: BACS"">JNkaJZr</p>","","","","","","","","","",""
"html-keyboard-response","143","280011","0.0-10.0-0.54","61275a3158c67415afb971ff","650c16f0f2faf8d7a0d14c09","651c1b7ff05d9dfa800068d0","null","null","<p style=""font-size: 60px; font-family: BACS"">aUZAGUOA</p>","","","","","","","","","",""
"html-keyboard-response","144","281027","0.0-10.0-0.55","61275a3158c67415afb971ff","650c16f0f2faf8d7a0d14c09","651c1b7ff05d9dfa800068d0","null","null","<p style=""font-size: 60px; font-family: BACS"">kZUbcYUv</p>","","","","","","","","","",""
"html-keyboard-response","145","282040","0.0-10.0-0.56","61275a3158c67415afb971ff","650c16f0f2faf8d7a0d14c09","651c1b7ff05d9dfa800068d0","null","null","<p style=""font-size: 60px; font-family: BACS"">ABPRBmAM</p>","","","","","","","","","",""
"html-keyboard-response","146","283052","0.0-10.0-0.57","61275a3158c67415afb971ff","650c16f0f2faf8d7a0d14c09","651c1b7ff05d9dfa800068d0","null","null","<p style=""font-size: 60px; font-family: BACS"">hAROKOBT</p>","","","","","","","","","",""
"html-keyboard-response","147","284065","0.0-10.0-0.58","61275a3158c67415afb971ff","650c16f0f2faf8d7a0d14c09","651c1b7ff05d9dfa800068d0","null","null","<p style=""font-size: 60px; font-family: BACS"">hTDdPED</p>","","","","","","","","","",""
"html-keyboard-response","148","285078","0.0-10.0-0.59","61275a3158c67415afb971ff","650c16f0f2faf8d7a0d14c09","651c1b7ff05d9dfa800068d0","null","null","<p style=""font-size: 60px; font-family: BACS"">TPCbmAM</p>","","","","","","","","","",""
"html-keyboard-response","149","286100","0.0-10.0-0.60","61275a3158c67415afb971ff","650c16f0f2faf8d7a0d14c09","651c1b7ff05d9dfa800068d0","null","null","<p style=""font-size: 60px; font-family: BACS"">aUZAJZr</p>","","","","","","","","","",""
"html-keyboard-response","150","287116","0.0-10.0-0.61","61275a3158c67415afb971ff","650c16f0f2faf8d7a0d14c09","651c1b7ff05d9dfa800068d0","null","null","<p style=""font-size: 60px; font-family: BACS"">bYGOZJUNa</p>","","","","","","","","","",""
"html-keyboard-response","151","288129","0.0-10.0-0.62","61275a3158c67415afb971ff","650c16f0f2faf8d7a0d14c09","651c1b7ff05d9dfa800068d0","null","null","<p style=""font-size: 60px; font-family: BACS"">UdumdcYUv</p>","","","","","","","","","",""
"html-keyboard-response","152","289151","0.0-10.0-0.63","61275a3158c67415afb971ff","650c16f0f2faf8d7a0d14c09","651c1b7ff05d9dfa800068d0","null","null","<p style=""font-size: 60px; font-family: BACS"">TPCbPED</p>","","","","","","","","","",""
"html-keyboard-response","153","290168","0.0-10.0-0.64","61275a3158c67415afb971ff","650c16f0f2faf8d7a0d14c09","651c1b7ff05d9dfa800068d0","null","null","<p style=""font-size: 60px; font-family: BACS"">JNkaJUNa</p>","","","","","","","","","",""
"html-keyboard-response","154","291175","0.0-10.0-0.65","61275a3158c67415afb971ff","650c16f0f2faf8d7a0d14c09","651c1b7ff05d9dfa800068d0","null","null","<p style=""font-size: 60px; font-family: BACS"">ABPRBYcM</p>","","","","","","","","","",""
"html-keyboard-response","155","292190","0.0-10.0-0.66","61275a3158c67415afb971ff","650c16f0f2faf8d7a0d14c09","651c1b7ff05d9dfa800068d0","null","null","<p style=""font-size: 60px; font-family: BACS"">bYGOZcYUv</p>","","","","","","","","","",""
"html-keyboard-response","156","293208","0.0-10.0-0.67","61275a3158c67415afb971ff","650c16f0f2faf8d7a0d14c09","651c1b7ff05d9dfa800068d0","null","null","<p style=""font-size: 60px; font-family: BACS"">DhMtOBT</p>","","","","","","","","","",""
"html-keyboard-response","157","294226","0.0-10.0-0.68","61275a3158c67415afb971ff","650c16f0f2faf8d7a0d14c09","651c1b7ff05d9dfa800068d0","null","null","<p style=""font-size: 60px; font-family: BACS"">bYuQJZr</p>","","","","","","","","","",""
"html-keyboard-response","158","295237","0.0-10.0-0.69","61275a3158c67415afb971ff","650c16f0f2faf8d7a0d14c09","651c1b7ff05d9dfa800068d0","null","null","<p style=""font-size: 60px; font-family: BACS"">hAROKkKE</p>","","","","","","","","","",""
"html-keyboard-response","159","296258","0.0-10.0-0.70","61275a3158c67415afb971ff","650c16f0f2faf8d7a0d14c09","651c1b7ff05d9dfa800068d0","null","null","<p style=""font-size: 60px; font-family: BACS"">hlkTYcM</p>","","","","","","","","","",""
"html-keyboard-response","160","297271","0.0-10.0-0.71","61275a3158c67415afb971ff","650c16f0f2faf8d7a0d14c09","651c1b7ff05d9dfa800068d0","null","null","<p style=""font-size: 60px; font-family: BACS"">kZUbJUNa</p>","","","","","","","","","",""
"html-keyboard-response","161","298287","0.0-10.0-0.72","61275a3158c67415afb971ff","650c16f0f2faf8d7a0d14c09","651c1b7ff05d9dfa800068d0","null","null","<p style=""font-size: 60px; font-family: BACS"">bYGOZJZr</p>","","","","","","","","","",""
"html-keyboard-response","162","299302","0.0-10.0-0.73","61275a3158c67415afb971ff","650c16f0f2faf8d7a0d14c09","651c1b7ff05d9dfa800068d0","null","null","<p style=""font-size: 60px; font-family: BACS"">TPCbkKE</p>","","","","","","","","","",""
"html-keyboard-response","163","300321","0.0-10.0-0.74","61275a3158c67415afb971ff","650c16f0f2faf8d7a0d14c09","651c1b7ff05d9dfa800068d0","null","null","<p style=""font-size: 60px; font-family: BACS"">aYaNGUOA</p>","","","","","","","","","",""
"html-keyboard-response","164","301325","0.0-10.0-0.75","61275a3158c67415afb971ff","650c16f0f2faf8d7a0d14c09","651c1b7ff05d9dfa800068d0","null","null","<p style=""font-size: 60px; font-family: BACS"">aUZAcYUv</p>","","","","","","","","","",""
"html-keyboard-response","165","302343","0.0-10.0-0.76","61275a3158c67415afb971ff","650c16f0f2faf8d7a0d14c09","651c1b7ff05d9dfa800068d0","null","null","<p style=""font-size: 60px; font-family: BACS"">DhMtkKE</p>","","","","","","","","","",""
"html-keyboard-response","166","303361","0.0-10.0-0.77","61275a3158c67415afb971ff","650c16f0f2faf8d7a0d14c09","651c1b7ff05d9dfa800068d0","null","null","<p style=""font-size: 60px; font-family: BACS"">bYuQcYUv</p>","","","","","","","","","",""
"html-keyboard-response","167","304379","0.0-10.0-0.78","61275a3158c67415afb971ff","650c16f0f2faf8d7a0d14c09","651c1b7ff05d9dfa800068d0","null","null","<p style=""font-size: 60px; font-family: BACS"">bcOROBT</p>","","","","","","","","","",""
"html-keyboard-response","168","305398","0.0-10.0-0.79","61275a3158c67415afb971ff","650c16f0f2faf8d7a0d14c09","651c1b7ff05d9dfa800068d0","null","null","<p style=""font-size: 60px; font-family: BACS"">UdumdJZr</p>","","","","","","","","","",""
"html-keyboard-response","169","332393","0.0-11.0","61275a3158c67415afb971ff","650c16f0f2faf8d7a0d14c09","651c1b7ff05d9dfa800068d0","26989"," ","<p>Great, you've seen the second block of words. You may now take a short break.</p>
      <p>Press the spacebar when you're ready to continue.</p>","","","","","","","","","",""
"html-keyboard-response","170","333400","0.0-12.0-0.0","61275a3158c67415afb971ff","650c16f0f2faf8d7a0d14c09","651c1b7ff05d9dfa800068d0","null","null","<p style=""font-size: 60px; font-family: BACS"">aYaNJUNa</p>","","","","","","","","","",""
"html-keyboard-response","171","334417","0.0-12.0-0.1","61275a3158c67415afb971ff","650c16f0f2faf8d7a0d14c09","651c1b7ff05d9dfa800068d0","null","null","<p style=""font-size: 60px; font-family: BACS"">bYGOZGUa</p>","","","","","","","","","",""
"html-keyboard-response","172","335433","0.0-12.0-0.2","61275a3158c67415afb971ff","650c16f0f2faf8d7a0d14c09","651c1b7ff05d9dfa800068d0","null","null","<p style=""font-size: 60px; font-family: BACS"">GJGcZGUOA</p>","","","","","","","","","",""
"html-keyboard-response","173","336451","0.0-12.0-0.3","61275a3158c67415afb971ff","650c16f0f2faf8d7a0d14c09","651c1b7ff05d9dfa800068d0","null","null","<p style=""font-size: 60px; font-family: BACS"">aUZAJZr</p>","","","","","","","","","",""
"html-keyboard-response","174","337464","0.0-12.0-0.4","61275a3158c67415afb971ff","650c16f0f2faf8d7a0d14c09","651c1b7ff05d9dfa800068d0","null","null","<p style=""font-size: 60px; font-family: BACS"">htmhCmAM</p>","","","","","","","","","",""
"html-keyboard-response","175","338480","0.0-12.0-0.5","61275a3158c67415afb971ff","650c16f0f2faf8d7a0d14c09","651c1b7ff05d9dfa800068d0","null","null","<p style=""font-size: 60px; font-family: BACS"">mkmJNJUNa</p>","","","","","","","","","",""
"html-keyboard-response","176","339501","0.0-12.0-0.6","61275a3158c67415afb971ff","650c16f0f2faf8d7a0d14c09","651c1b7ff05d9dfa800068d0","null","null","<p style=""font-size: 60px; font-family: BACS"">hAROKYcM</p>","","","","","","","","","",""
"html-keyboard-response","177","340515","0.0-12.0-0.7","61275a3158c67415afb971ff","650c16f0f2faf8d7a0d14c09","651c1b7ff05d9dfa800068d0","null","null","<p style=""font-size: 60px; font-family: BACS"">ABPRBkKE</p>","","","","","","","","","",""
"html-keyboard-response","178","341530","0.0-12.0-0.8","61275a3158c67415afb971ff","650c16f0f2faf8d7a0d14c09","651c1b7ff05d9dfa800068d0","null","null","<p style=""font-size: 60px; font-family: BACS"">JNkaJZr</p>","","","","","","","","","",""
"html-keyboard-response","179","342550","0.0-12.0-0.9","61275a3158c67415afb971ff","650c16f0f2faf8d7a0d14c09","651c1b7ff05d9dfa800068d0","null","null","<p style=""font-size: 60px; font-family: BACS"">hlkTkKE</p>","","","","","","","","","",""
"html-keyboard-response","180","343566","0.0-12.0-0.10","61275a3158c67415afb971ff","650c16f0f2faf8d7a0d14c09","651c1b7ff05d9dfa800068d0","null","null","<p style=""font-size: 60px; font-family: BACS"">bcORPED</p>","","","","","","","","","",""
"html-keyboard-response","181","344570","0.0-12.0-0.11","61275a3158c67415afb971ff","650c16f0f2faf8d7a0d14c09","651c1b7ff05d9dfa800068d0","null","null","<p style=""font-size: 60px; font-family: BACS"">GJGcZGUa</p>","","","","","","","","","",""
"html-keyboard-response","182","345585","0.0-12.0-0.12","61275a3158c67415afb971ff","650c16f0f2faf8d7a0d14c09","651c1b7ff05d9dfa800068d0","null","null","<p style=""font-size: 60px; font-family: BACS"">bYuQJZr</p>","","","","","","","","","",""
"html-keyboard-response","183","346600","0.0-12.0-0.13","61275a3158c67415afb971ff","650c16f0f2faf8d7a0d14c09","651c1b7ff05d9dfa800068d0","null","null","<p style=""font-size: 60px; font-family: BACS"">DhMtPED</p>","","","","","","","","","",""
"html-keyboard-response","184","347615","0.0-12.0-0.14","61275a3158c67415afb971ff","650c16f0f2faf8d7a0d14c09","651c1b7ff05d9dfa800068d0","null","null","<p style=""font-size: 60px; font-family: BACS"">aUZAGUOA</p>","","","","","","","","","",""
"html-keyboard-response","185","348633","0.0-12.0-0.15","61275a3158c67415afb971ff","650c16f0f2faf8d7a0d14c09","651c1b7ff05d9dfa800068d0","null","null","<p style=""font-size: 60px; font-family: BACS"">TEBKPED</p>","","","","","","","","","",""
"html-keyboard-response","186","349649","0.0-12.0-0.16","61275a3158c67415afb971ff","650c16f0f2faf8d7a0d14c09","651c1b7ff05d9dfa800068d0","null","null","<p style=""font-size: 60px; font-family: BACS"">bYuQcYUv</p>","","","","","","","","","",""
"html-keyboard-response","187","350662","0.0-12.0-0.17","61275a3158c67415afb971ff","650c16f0f2faf8d7a0d14c09","651c1b7ff05d9dfa800068d0","null","null","<p style=""font-size: 60px; font-family: BACS"">ABPRBYcM</p>","","","","","","","","","",""
"html-keyboard-response","188","351678","0.0-12.0-0.18","61275a3158c67415afb971ff","650c16f0f2faf8d7a0d14c09","651c1b7ff05d9dfa800068d0","null","null","<p style=""font-size: 60px; font-family: BACS"">hlkTOBT</p>","","","","","","","","","",""
"html-keyboard-response","189","352693","0.0-12.0-0.19","61275a3158c67415afb971ff","650c16f0f2faf8d7a0d14c09","651c1b7ff05d9dfa800068d0","null","null","<p style=""font-size: 60px; font-family: BACS"">kZUbGUa</p>","","","","","","","","","",""
"html-keyboard-response","190","353711","0.0-12.0-0.20","61275a3158c67415afb971ff","650c16f0f2faf8d7a0d14c09","651c1b7ff05d9dfa800068d0","null","null","<p style=""font-size: 60px; font-family: BACS"">aUZAcYUv</p>","","","","","","","","","",""
"html-keyboard-response","191","354726","0.0-12.0-0.21","61275a3158c67415afb971ff","650c16f0f2faf8d7a0d14c09","651c1b7ff05d9dfa800068d0","null","null","<p style=""font-size: 60px; font-family: BACS"">bYuQGUOA</p>","","","","","","","","","",""
"html-keyboard-response","192","355740","0.0-12.0-0.22","61275a3158c67415afb971ff","650c16f0f2faf8d7a0d14c09","651c1b7ff05d9dfa800068d0","null","null","<p style=""font-size: 60px; font-family: BACS"">DhMtmAM</p>","","","","","","","","","",""
"html-keyboard-response","193","356754","0.0-12.0-0.23","61275a3158c67415afb971ff","650c16f0f2faf8d7a0d14c09","651c1b7ff05d9dfa800068d0","null","null","<p style=""font-size: 60px; font-family: BACS"">aYaNGUOA</p>","","","","","","","","","",""
"html-keyboard-response","194","357773","0.0-12.0-0.24","61275a3158c67415afb971ff","650c16f0f2faf8d7a0d14c09","651c1b7ff05d9dfa800068d0","null","null","<p style=""font-size: 60px; font-family: BACS"">GJGcZJZr</p>","","","","","","","","","",""
"html-keyboard-response","195","358786","0.0-12.0-0.25","61275a3158c67415afb971ff","650c16f0f2faf8d7a0d14c09","651c1b7ff05d9dfa800068d0","null","null","<p style=""font-size: 60px; font-family: BACS"">TEBKmAM</p>","","","","","","","","","",""
"html-keyboard-response","196","359792","0.0-12.0-0.26","61275a3158c67415afb971ff","650c16f0f2faf8d7a0d14c09","651c1b7ff05d9dfa800068d0","null","null","<p style=""font-size: 60px; font-family: BACS"">bcORkKE</p>","","","","","","","","","",""
"html-keyboard-response","197","360811","0.0-12.0-0.27","61275a3158c67415afb971ff","650c16f0f2faf8d7a0d14c09","651c1b7ff05d9dfa800068d0","null","null","<p style=""font-size: 60px; font-family: BACS"">aUZAJUNa</p>","","","","","","","","","",""
"html-keyboard-response","198","361826","0.0-12.0-0.28","61275a3158c67415afb971ff","650c16f0f2faf8d7a0d14c09","651c1b7ff05d9dfa800068d0","null","null","<p style=""font-size: 60px; font-family: BACS"">ABPRBOBT</p>","","","","","","","","","",""
"html-keyboard-response","199","362847","0.0-12.0-0.29","61275a3158c67415afb971ff","650c16f0f2faf8d7a0d14c09","651c1b7ff05d9dfa800068d0","null","null","<p style=""font-size: 60px; font-family: BACS"">GJGcZJUNa</p>","","","","","","","","","",""
"html-keyboard-response","200","363865","0.0-12.0-0.30","61275a3158c67415afb971ff","650c16f0f2faf8d7a0d14c09","651c1b7ff05d9dfa800068d0","null","null","<p style=""font-size: 60px; font-family: BACS"">JNkacYUv</p>","","","","","","","","","",""
"html-keyboard-response","201","364884","0.0-12.0-0.31","61275a3158c67415afb971ff","650c16f0f2faf8d7a0d14c09","651c1b7ff05d9dfa800068d0","null","null","<p style=""font-size: 60px; font-family: BACS"">hlkTPED</p>","","","","","","","","","",""
"html-keyboard-response","202","365898","0.0-12.0-0.32","61275a3158c67415afb971ff","650c16f0f2faf8d7a0d14c09","651c1b7ff05d9dfa800068d0","null","null","<p style=""font-size: 60px; font-family: BACS"">mkmJNcYUv</p>","","","","","","","","","",""
"html-keyboard-response","203","366917","0.0-12.0-0.33","61275a3158c67415afb971ff","650c16f0f2faf8d7a0d14c09","651c1b7ff05d9dfa800068d0","null","null","<p style=""font-size: 60px; font-family: BACS"">kZUbJUNa</p>","","","","","","","","","",""
"html-keyboard-response","204","367936","0.0-12.0-0.34","61275a3158c67415afb971ff","650c16f0f2faf8d7a0d14c09","651c1b7ff05d9dfa800068d0","null","null","<p style=""font-size: 60px; font-family: BACS"">hAROKkKE</p>","","","","","","","","","",""
"html-keyboard-response","205","368952","0.0-12.0-0.35","61275a3158c67415afb971ff","650c16f0f2faf8d7a0d14c09","651c1b7ff05d9dfa800068d0","null","null","<p style=""font-size: 60px; font-family: BACS"">JNkaJUNa</p>","","","","","","","","","",""
"html-keyboard-response","206","369968","0.0-12.0-0.36","61275a3158c67415afb971ff","650c16f0f2faf8d7a0d14c09","651c1b7ff05d9dfa800068d0","null","null","<p style=""font-size: 60px; font-family: BACS"">TEBKYcM</p>","","","","","","","","","",""
"html-keyboard-response","207","370986","0.0-12.0-0.37","61275a3158c67415afb971ff","650c16f0f2faf8d7a0d14c09","651c1b7ff05d9dfa800068d0","null","null","<p style=""font-size: 60px; font-family: BACS"">DhMtkKE</p>","","","","","","","","","",""
"html-keyboard-response","208","371999","0.0-12.0-0.38","61275a3158c67415afb971ff","650c16f0f2faf8d7a0d14c09","651c1b7ff05d9dfa800068d0","null","null","<p style=""font-size: 60px; font-family: BACS"">bYGOZcYUv</p>","","","","","","","","","",""
"html-keyboard-response","209","373021","0.0-12.0-0.39","61275a3158c67415afb971ff","650c16f0f2faf8d7a0d14c09","651c1b7ff05d9dfa800068d0","null","null","<p style=""font-size: 60px; font-family: BACS"">UdumdJZr</p>","","","","","","","","","",""
"html-keyboard-response","210","374029","0.0-12.0-0.40","61275a3158c67415afb971ff","650c16f0f2faf8d7a0d14c09","651c1b7ff05d9dfa800068d0","null","null","<p style=""font-size: 60px; font-family: BACS"">htmhCYcM</p>","","","","","","","","","",""
"html-keyboard-response","211","375046","0.0-12.0-0.41","61275a3158c67415afb971ff","650c16f0f2faf8d7a0d14c09","651c1b7ff05d9dfa800068d0","null","null","<p style=""font-size: 60px; font-family: BACS"">bYGOZJUNa</p>","","","","","","","","","",""
"html-keyboard-response","212","376061","0.0-12.0-0.42","61275a3158c67415afb971ff","650c16f0f2faf8d7a0d14c09","651c1b7ff05d9dfa800068d0","null","null","<p style=""font-size: 60px; font-family: BACS"">KBKBEYcM</p>","","","","","","","","","",""
"html-keyboard-response","213","377077","0.0-12.0-0.43","61275a3158c67415afb971ff","650c16f0f2faf8d7a0d14c09","651c1b7ff05d9dfa800068d0","null","null","<p style=""font-size: 60px; font-family: BACS"">TPCbkKE</p>","","","","","","","","","",""
"html-keyboard-response","214","378092","0.0-12.0-0.44","61275a3158c67415afb971ff","650c16f0f2faf8d7a0d14c09","651c1b7ff05d9dfa800068d0","null","null","<p style=""font-size: 60px; font-family: BACS"">KBKBEOBT</p>","","","","","","","","","",""
"html-keyboard-response","215","379111","0.0-12.0-0.45","61275a3158c67415afb971ff","650c16f0f2faf8d7a0d14c09","651c1b7ff05d9dfa800068d0","null","null","<p style=""font-size: 60px; font-family: BACS"">hTDdmAM</p>","","","","","","","","","",""
"html-keyboard-response","216","380124","0.0-12.0-0.46","61275a3158c67415afb971ff","650c16f0f2faf8d7a0d14c09","651c1b7ff05d9dfa800068d0","null","null","<p style=""font-size: 60px; font-family: BACS"">kZUbJZr</p>","","","","","","","","","",""
"html-keyboard-response","217","381130","0.0-12.0-0.47","61275a3158c67415afb971ff","650c16f0f2faf8d7a0d14c09","651c1b7ff05d9dfa800068d0","null","null","<p style=""font-size: 60px; font-family: BACS"">cuOJbGUa</p>","","","","","","","","","",""
"html-keyboard-response","218","382150","0.0-12.0-0.48","61275a3158c67415afb971ff","650c16f0f2faf8d7a0d14c09","651c1b7ff05d9dfa800068d0","null","null","<p style=""font-size: 60px; font-family: BACS"">JNkaGUOA</p>","","","","","","","","","",""
"html-keyboard-response","219","383168","0.0-12.0-0.49","61275a3158c67415afb971ff","650c16f0f2faf8d7a0d14c09","651c1b7ff05d9dfa800068d0","null","null","<p style=""font-size: 60px; font-family: BACS"">TPCbPED</p>","","","","","","","","","",""
"html-keyboard-response","220","384186","0.0-12.0-0.50","61275a3158c67415afb971ff","650c16f0f2faf8d7a0d14c09","651c1b7ff05d9dfa800068d0","null","null","<p style=""font-size: 60px; font-family: BACS"">cuOJbJUNa</p>","","","","","","","","","",""
"html-keyboard-response","221","385204","0.0-12.0-0.51","61275a3158c67415afb971ff","650c16f0f2faf8d7a0d14c09","651c1b7ff05d9dfa800068d0","null","null","<p style=""font-size: 60px; font-family: BACS"">hTDdOBT</p>","","","","","","","","","",""
"html-keyboard-response","222","386211","0.0-12.0-0.52","61275a3158c67415afb971ff","650c16f0f2faf8d7a0d14c09","651c1b7ff05d9dfa800068d0","null","null","<p style=""font-size: 60px; font-family: BACS"">ABPRBmAM</p>","","","","","","","","","",""
"html-keyboard-response","223","387233","0.0-12.0-0.53","61275a3158c67415afb971ff","650c16f0f2faf8d7a0d14c09","651c1b7ff05d9dfa800068d0","null","null","<p style=""font-size: 60px; font-family: BACS"">hAROKOBT</p>","","","","","","","","","",""
"html-keyboard-response","224","388247","0.0-12.0-0.54","61275a3158c67415afb971ff","650c16f0f2faf8d7a0d14c09","651c1b7ff05d9dfa800068d0","null","null","<p style=""font-size: 60px; font-family: BACS"">UdumdGUa</p>","","","","","","","","","",""
"html-keyboard-response","225","389265","0.0-12.0-0.55","61275a3158c67415afb971ff","650c16f0f2faf8d7a0d14c09","651c1b7ff05d9dfa800068d0","null","null","<p style=""font-size: 60px; font-family: BACS"">DhMtOBT</p>","","","","","","","","","",""
"html-keyboard-response","226","390280","0.0-12.0-0.56","61275a3158c67415afb971ff","650c16f0f2faf8d7a0d14c09","651c1b7ff05d9dfa800068d0","null","null","<p style=""font-size: 60px; font-family: BACS"">bYGOZJZr</p>","","","","","","","","","",""
"html-keyboard-response","227","391296","0.0-12.0-0.57","61275a3158c67415afb971ff","650c16f0f2faf8d7a0d14c09","651c1b7ff05d9dfa800068d0","null","null","<p style=""font-size: 60px; font-family: BACS"">UdumdGUOA</p>","","","","","","","","","",""
"html-keyboard-response","228","392312","0.0-12.0-0.58","61275a3158c67415afb971ff","650c16f0f2faf8d7a0d14c09","651c1b7ff05d9dfa800068d0","null","null","<p style=""font-size: 60px; font-family: BACS"">htmhCPED</p>","","","","","","","","","",""
"html-keyboard-response","229","393325","0.0-12.0-0.59","61275a3158c67415afb971ff","650c16f0f2faf8d7a0d14c09","651c1b7ff05d9dfa800068d0","null","null","<p style=""font-size: 60px; font-family: BACS"">aYaNGUa</p>","","","","","","","","","",""
"html-keyboard-response","230","394343","0.0-12.0-0.60","61275a3158c67415afb971ff","650c16f0f2faf8d7a0d14c09","651c1b7ff05d9dfa800068d0","null","null","<p style=""font-size: 60px; font-family: BACS"">KBKBEPED</p>","","","","","","","","","",""
"html-keyboard-response","231","395358","0.0-12.0-0.61","61275a3158c67415afb971ff","650c16f0f2faf8d7a0d14c09","651c1b7ff05d9dfa800068d0","null","null","<p style=""font-size: 60px; font-family: BACS"">TEBKOBT</p>","","","","","","","","","",""
"html-keyboard-response","232","396377","0.0-12.0-0.62","61275a3158c67415afb971ff","650c16f0f2faf8d7a0d14c09","651c1b7ff05d9dfa800068d0","null","null","<p style=""font-size: 60px; font-family: BACS"">KBKBEmAM</p>","","","","","","","","","",""
"html-keyboard-response","233","397391","0.0-12.0-0.63","61275a3158c67415afb971ff","650c16f0f2faf8d7a0d14c09","651c1b7ff05d9dfa800068d0","null","null","<p style=""font-size: 60px; font-family: BACS"">hTDdPED</p>","","","","","","","","","",""
"html-keyboard-response","234","398401","0.0-12.0-0.64","61275a3158c67415afb971ff","650c16f0f2faf8d7a0d14c09","651c1b7ff05d9dfa800068d0","null","null","<p style=""font-size: 60px; font-family: BACS"">bYuQGUa</p>","","","","","","","","","",""
"html-keyboard-response","235","399417","0.0-12.0-0.65","61275a3158c67415afb971ff","650c16f0f2faf8d7a0d14c09","651c1b7ff05d9dfa800068d0","null","null","<p style=""font-size: 60px; font-family: BACS"">UdumdcYUv</p>","","","","","","","","","",""
"html-keyboard-response","236","400431","0.0-12.0-0.66","61275a3158c67415afb971ff","650c16f0f2faf8d7a0d14c09","651c1b7ff05d9dfa800068d0","null","null","<p style=""font-size: 60px; font-family: BACS"">mkmJNGUOA</p>","","","","","","","","","",""
"html-keyboard-response","237","401448","0.0-12.0-0.67","61275a3158c67415afb971ff","650c16f0f2faf8d7a0d14c09","651c1b7ff05d9dfa800068d0","null","null","<p style=""font-size: 60px; font-family: BACS"">hTDdkKE</p>","","","","","","","","","",""
"html-keyboard-response","238","402467","0.0-12.0-0.68","61275a3158c67415afb971ff","650c16f0f2faf8d7a0d14c09","651c1b7ff05d9dfa800068d0","null","null","<p style=""font-size: 60px; font-family: BACS"">kZUbcYUv</p>","","","","","","","","","",""
"html-keyboard-response","239","403488","0.0-12.0-0.69","61275a3158c67415afb971ff","650c16f0f2faf8d7a0d14c09","651c1b7ff05d9dfa800068d0","null","null","<p style=""font-size: 60px; font-family: BACS"">hlkTYcM</p>","","","","","","","","","",""
"html-keyboard-response","240","404508","0.0-12.0-0.70","61275a3158c67415afb971ff","650c16f0f2faf8d7a0d14c09","651c1b7ff05d9dfa800068d0","null","null","<p style=""font-size: 60px; font-family: BACS"">TPCbmAM</p>","","","","","","","","","",""
"html-keyboard-response","241","405525","0.0-12.0-0.71","61275a3158c67415afb971ff","650c16f0f2faf8d7a0d14c09","651c1b7ff05d9dfa800068d0","null","null","<p style=""font-size: 60px; font-family: BACS"">aYaNcYUv</p>","","","","","","","","","",""
"html-keyboard-response","242","406542","0.0-12.0-0.72","61275a3158c67415afb971ff","650c16f0f2faf8d7a0d14c09","651c1b7ff05d9dfa800068d0","null","null","<p style=""font-size: 60px; font-family: BACS"">cuOJbGUOA</p>","","","","","","","","","",""
"html-keyboard-response","243","407561","0.0-12.0-0.73","61275a3158c67415afb971ff","650c16f0f2faf8d7a0d14c09","651c1b7ff05d9dfa800068d0","null","null","<p style=""font-size: 60px; font-family: BACS"">htmhCkKE</p>","","","","","","","","","",""
"html-keyboard-response","244","408575","0.0-12.0-0.74","61275a3158c67415afb971ff","650c16f0f2faf8d7a0d14c09","651c1b7ff05d9dfa800068d0","null","null","<p style=""font-size: 60px; font-family: BACS"">cuOJbJZr</p>","","","","","","","","","",""
"html-keyboard-response","245","409600","0.0-12.0-0.75","61275a3158c67415afb971ff","650c16f0f2faf8d7a0d14c09","651c1b7ff05d9dfa800068d0","null","null","<p style=""font-size: 60px; font-family: BACS"">bcORYcM</p>","","","","","","","","","",""
"html-keyboard-response","246","410611","0.0-12.0-0.76","61275a3158c67415afb971ff","650c16f0f2faf8d7a0d14c09","651c1b7ff05d9dfa800068d0","null","null","<p style=""font-size: 60px; font-family: BACS"">mkmJNGUa</p>","","","","","","","","","",""
"html-keyboard-response","247","411627","0.0-12.0-0.77","61275a3158c67415afb971ff","650c16f0f2faf8d7a0d14c09","651c1b7ff05d9dfa800068d0","null","null","<p style=""font-size: 60px; font-family: BACS"">bcOROBT</p>","","","","","","","","","",""
"html-keyboard-response","248","412649","0.0-12.0-0.78","61275a3158c67415afb971ff","650c16f0f2faf8d7a0d14c09","651c1b7ff05d9dfa800068d0","null","null","<p style=""font-size: 60px; font-family: BACS"">hAROKmAM</p>","","","","","","","","","",""
"html-keyboard-response","249","413669","0.0-12.0-0.79","61275a3158c67415afb971ff","650c16f0f2faf8d7a0d14c09","651c1b7ff05d9dfa800068d0","null","null","<p style=""font-size: 60px; font-family: BACS"">TPCbYcM</p>","","","","","","","","","",""
"html-keyboard-response","250","479524","0.0-13.0","61275a3158c67415afb971ff","650c16f0f2faf8d7a0d14c09","651c1b7ff05d9dfa800068d0","65852"," ","<p>Great, you've seen the third block of words. You may now take a short break.</p>
      <p>Press the spacebar when you're ready to continue.</p>","","","","","","","","","",""
"html-keyboard-response","251","480544","0.0-14.0-0.0","61275a3158c67415afb971ff","650c16f0f2faf8d7a0d14c09","651c1b7ff05d9dfa800068d0","null","null","<p style=""font-size: 60px; font-family: BACS"">bYuQGUOA</p>","","","","","","","","","",""
"html-keyboard-response","252","481556","0.0-14.0-0.1","61275a3158c67415afb971ff","650c16f0f2faf8d7a0d14c09","651c1b7ff05d9dfa800068d0","null","null","<p style=""font-size: 60px; font-family: BACS"">hAROKYcM</p>","","","","","","","","","",""
"html-keyboard-response","253","482572","0.0-14.0-0.2","61275a3158c67415afb971ff","650c16f0f2faf8d7a0d14c09","651c1b7ff05d9dfa800068d0","null","null","<p style=""font-size: 60px; font-family: BACS"">hlkTPED</p>","","","","","","","","","",""
"html-keyboard-response","254","483592","0.0-14.0-0.3","61275a3158c67415afb971ff","650c16f0f2faf8d7a0d14c09","651c1b7ff05d9dfa800068d0","null","null","<p style=""font-size: 60px; font-family: BACS"">JNkacYUv</p>","","","","","","","","","",""
"html-keyboard-response","255","484606","0.0-14.0-0.4","61275a3158c67415afb971ff","650c16f0f2faf8d7a0d14c09","651c1b7ff05d9dfa800068d0","null","null","<p style=""font-size: 60px; font-family: BACS"">cuOJbGUOA</p>","","","","","","","","","",""
"html-keyboard-response","256","485622","0.0-14.0-0.5","61275a3158c67415afb971ff","650c16f0f2faf8d7a0d14c09","651c1b7ff05d9dfa800068d0","null","null","<p style=""font-size: 60px; font-family: BACS"">aUZAcYUv</p>","","","","","","","","","",""
"html-keyboard-response","257","486642","0.0-14.0-0.6","61275a3158c67415afb971ff","650c16f0f2faf8d7a0d14c09","651c1b7ff05d9dfa800068d0","null","null","<p style=""font-size: 60px; font-family: BACS"">JNkaGUOA</p>","","","","","","","","","",""
"html-keyboard-response","258","487655","0.0-14.0-0.7","61275a3158c67415afb971ff","650c16f0f2faf8d7a0d14c09","651c1b7ff05d9dfa800068d0","null","null","<p style=""font-size: 60px; font-family: BACS"">hAROKmAM</p>","","","","","","","","","",""
"html-keyboard-response","259","488671","0.0-14.0-0.8","61275a3158c67415afb971ff","650c16f0f2faf8d7a0d14c09","651c1b7ff05d9dfa800068d0","null","null","<p style=""font-size: 60px; font-family: BACS"">htmhCkKE</p>","","","","","","","","","",""
"html-keyboard-response","260","489686","0.0-14.0-0.9","61275a3158c67415afb971ff","650c16f0f2faf8d7a0d14c09","651c1b7ff05d9dfa800068d0","null","null","<p style=""font-size: 60px; font-family: BACS"">GJGcZGUOA</p>","","","","","","","","","",""
"html-keyboard-response","261","490704","0.0-14.0-0.10","61275a3158c67415afb971ff","650c16f0f2faf8d7a0d14c09","651c1b7ff05d9dfa800068d0","null","null","<p style=""font-size: 60px; font-family: BACS"">kZUbGUa</p>","","","","","","","","","",""
"html-keyboard-response","262","491721","0.0-14.0-0.11","61275a3158c67415afb971ff","650c16f0f2faf8d7a0d14c09","651c1b7ff05d9dfa800068d0","null","null","<p style=""font-size: 60px; font-family: BACS"">bcOROBT</p>","","","","","","","","","",""
"html-keyboard-response","263","492726","0.0-14.0-0.12","61275a3158c67415afb971ff","650c16f0f2faf8d7a0d14c09","651c1b7ff05d9dfa800068d0","null","null","<p style=""font-size: 60px; font-family: BACS"">hlkTYcM</p>","","","","","","","","","",""
"html-keyboard-response","264","493742","0.0-14.0-0.13","61275a3158c67415afb971ff","650c16f0f2faf8d7a0d14c09","651c1b7ff05d9dfa800068d0","null","null","<p style=""font-size: 60px; font-family: BACS"">bcORkKE</p>","","","","","","","","","",""
"html-keyboard-response","265","494756","0.0-14.0-0.14","61275a3158c67415afb971ff","650c16f0f2faf8d7a0d14c09","651c1b7ff05d9dfa800068d0","null","null","<p style=""font-size: 60px; font-family: BACS"">bYGOZcYUv</p>","","","","","","","","","",""
"html-keyboard-response","266","495772","0.0-14.0-0.15","61275a3158c67415afb971ff","650c16f0f2faf8d7a0d14c09","651c1b7ff05d9dfa800068d0","null","null","<p style=""font-size: 60px; font-family: BACS"">hlkTOBT</p>","","","","","","","","","",""
"html-keyboard-response","267","496777","0.0-14.0-0.16","61275a3158c67415afb971ff","650c16f0f2faf8d7a0d14c09","651c1b7ff05d9dfa800068d0","null","null","<p style=""font-size: 60px; font-family: BACS"">cuOJbGUa</p>","","","","","","","","","",""
"html-keyboard-response","268","497794","0.0-14.0-0.17","61275a3158c67415afb971ff","650c16f0f2faf8d7a0d14c09","651c1b7ff05d9dfa800068d0","null","null","<p style=""font-size: 60px; font-family: BACS"">KBKBEmAM</p>","","","","","","","","","",""
"html-keyboard-response","269","498801","0.0-14.0-0.18","61275a3158c67415afb971ff","650c16f0f2faf8d7a0d14c09","651c1b7ff05d9dfa800068d0","null","null","<p style=""font-size: 60px; font-family: BACS"">TPCbPED</p>","","","","","","","","","",""
"html-keyboard-response","270","499812","0.0-14.0-0.19","61275a3158c67415afb971ff","650c16f0f2faf8d7a0d14c09","651c1b7ff05d9dfa800068d0","null","null","<p style=""font-size: 60px; font-family: BACS"">bYGOZGUa</p>","","","","","","","","","",""
"html-keyboard-response","271","500829","0.0-14.0-0.20","61275a3158c67415afb971ff","650c16f0f2faf8d7a0d14c09","651c1b7ff05d9dfa800068d0","null","null","<p style=""font-size: 60px; font-family: BACS"">TEBKPED</p>","","","","","","","","","",""
"html-keyboard-response","272","501846","0.0-14.0-0.21","61275a3158c67415afb971ff","650c16f0f2faf8d7a0d14c09","651c1b7ff05d9dfa800068d0","null","null","<p style=""font-size: 60px; font-family: BACS"">kZUbcYUv</p>","","","","","","","","","",""
"html-keyboard-response","273","502858","0.0-14.0-0.22","61275a3158c67415afb971ff","650c16f0f2faf8d7a0d14c09","651c1b7ff05d9dfa800068d0","null","null","<p style=""font-size: 60px; font-family: BACS"">DhMtPED</p>","","","","","","","","","",""
"html-keyboard-response","274","503874","0.0-14.0-0.23","61275a3158c67415afb971ff","650c16f0f2faf8d7a0d14c09","651c1b7ff05d9dfa800068d0","null","null","<p style=""font-size: 60px; font-family: BACS"">aUZAJZr</p>","","","","","","","","","",""
"html-keyboard-response","275","504888","0.0-14.0-0.24","61275a3158c67415afb971ff","650c16f0f2faf8d7a0d14c09","651c1b7ff05d9dfa800068d0","null","null","<p style=""font-size: 60px; font-family: BACS"">htmhCYcM</p>","","","","","","","","","",""
"html-keyboard-response","276","505909","0.0-14.0-0.25","61275a3158c67415afb971ff","650c16f0f2faf8d7a0d14c09","651c1b7ff05d9dfa800068d0","null","null","<p style=""font-size: 60px; font-family: BACS"">KBKBEPED</p>","","","","","","","","","",""
"html-keyboard-response","277","506928","0.0-14.0-0.26","61275a3158c67415afb971ff","650c16f0f2faf8d7a0d14c09","651c1b7ff05d9dfa800068d0","null","null","<p style=""font-size: 60px; font-family: BACS"">bYGOZJZr</p>","","","","","","","","","",""
"html-keyboard-response","278","507948","0.0-14.0-0.27","61275a3158c67415afb971ff","650c16f0f2faf8d7a0d14c09","651c1b7ff05d9dfa800068d0","null","null","<p style=""font-size: 60px; font-family: BACS"">bcORYcM</p>","","","","","","","","","",""
"html-keyboard-response","279","508966","0.0-14.0-0.28","61275a3158c67415afb971ff","650c16f0f2faf8d7a0d14c09","651c1b7ff05d9dfa800068d0","null","null","<p style=""font-size: 60px; font-family: BACS"">mkmJNGUa</p>","","","","","","","","","",""
"html-keyboard-response","280","509980","0.0-14.0-0.29","61275a3158c67415afb971ff","650c16f0f2faf8d7a0d14c09","651c1b7ff05d9dfa800068d0","null","null","<p style=""font-size: 60px; font-family: BACS"">aYaNGUOA</p>","","","","","","","","","",""
"html-keyboard-response","281","510998","0.0-14.0-0.30","61275a3158c67415afb971ff","650c16f0f2faf8d7a0d14c09","651c1b7ff05d9dfa800068d0","null","null","<p style=""font-size: 60px; font-family: BACS"">TPCbkKE</p>","","","","","","","","","",""
"html-keyboard-response","282","512012","0.0-14.0-0.31","61275a3158c67415afb971ff","650c16f0f2faf8d7a0d14c09","651c1b7ff05d9dfa800068d0","null","null","<p style=""font-size: 60px; font-family: BACS"">kZUbJUNa</p>","","","","","","","","","",""
"html-keyboard-response","283","513031","0.0-14.0-0.32","61275a3158c67415afb971ff","650c16f0f2faf8d7a0d14c09","651c1b7ff05d9dfa800068d0","null","null","<p style=""font-size: 60px; font-family: BACS"">aUZAGUOA</p>","","","","","","","","","",""
"html-keyboard-response","284","514050","0.0-14.0-0.33","61275a3158c67415afb971ff","650c16f0f2faf8d7a0d14c09","651c1b7ff05d9dfa800068d0","null","null","<p style=""font-size: 60px; font-family: BACS"">bYGOZJUNa</p>","","","","","","","","","",""
"html-keyboard-response","285","515065","0.0-14.0-0.34","61275a3158c67415afb971ff","650c16f0f2faf8d7a0d14c09","651c1b7ff05d9dfa800068d0","null","null","<p style=""font-size: 60px; font-family: BACS"">hTDdOBT</p>","","","","","","","","","",""
"html-keyboard-response","286","516082","0.0-14.0-0.35","61275a3158c67415afb971ff","650c16f0f2faf8d7a0d14c09","651c1b7ff05d9dfa800068d0","null","null","<p style=""font-size: 60px; font-family: BACS"">GJGcZJZr</p>","","","","","","","","","",""
"html-keyboard-response","287","517098","0.0-14.0-0.36","61275a3158c67415afb971ff","650c16f0f2faf8d7a0d14c09","651c1b7ff05d9dfa800068d0","null","null","<p style=""font-size: 60px; font-family: BACS"">htmhCmAM</p>","","","","","","","","","",""
"html-keyboard-response","288","518111","0.0-14.0-0.37","61275a3158c67415afb971ff","650c16f0f2faf8d7a0d14c09","651c1b7ff05d9dfa800068d0","null","null","<p style=""font-size: 60px; font-family: BACS"">cuOJbJUNa</p>","","","","","","","","","",""
"html-keyboard-response","289","519127","0.0-14.0-0.38","61275a3158c67415afb971ff","650c16f0f2faf8d7a0d14c09","651c1b7ff05d9dfa800068d0","null","null","<p style=""font-size: 60px; font-family: BACS"">ABPRBkKE</p>","","","","","","","","","",""
"html-keyboard-response","290","520141","0.0-14.0-0.39","61275a3158c67415afb971ff","650c16f0f2faf8d7a0d14c09","651c1b7ff05d9dfa800068d0","null","null","<p style=""font-size: 60px; font-family: BACS"">bYuQcYUv</p>","","","","","","","","","",""
"html-keyboard-response","291","521157","0.0-14.0-0.40","61275a3158c67415afb971ff","650c16f0f2faf8d7a0d14c09","651c1b7ff05d9dfa800068d0","null","null","<p style=""font-size: 60px; font-family: BACS"">DhMtkKE</p>","","","","","","","","","",""
"html-keyboard-response","292","522161","0.0-14.0-0.41","61275a3158c67415afb971ff","650c16f0f2faf8d7a0d14c09","651c1b7ff05d9dfa800068d0","null","null","<p style=""font-size: 60px; font-family: BACS"">UdumdGUa</p>","","","","","","","","","",""
"html-keyboard-response","293","523177","0.0-14.0-0.42","61275a3158c67415afb971ff","650c16f0f2faf8d7a0d14c09","651c1b7ff05d9dfa800068d0","null","null","<p style=""font-size: 60px; font-family: BACS"">KBKBEYcM</p>","","","","","","","","","",""
"html-keyboard-response","294","524194","0.0-14.0-0.43","61275a3158c67415afb971ff","650c16f0f2faf8d7a0d14c09","651c1b7ff05d9dfa800068d0","null","null","<p style=""font-size: 60px; font-family: BACS"">GJGcZGUa</p>","","","","","","","","","",""
"html-keyboard-response","295","525209","0.0-14.0-0.44","61275a3158c67415afb971ff","650c16f0f2faf8d7a0d14c09","651c1b7ff05d9dfa800068d0","null","null","<p style=""font-size: 60px; font-family: BACS"">hTDdmAM</p>","","","","","","","","","",""
"html-keyboard-response","296","526228","0.0-14.0-0.45","61275a3158c67415afb971ff","650c16f0f2faf8d7a0d14c09","651c1b7ff05d9dfa800068d0","null","null","<p style=""font-size: 60px; font-family: BACS"">kZUbJZr</p>","","","","","","","","","",""
"html-keyboard-response","297","527246","0.0-14.0-0.46","61275a3158c67415afb971ff","650c16f0f2faf8d7a0d14c09","651c1b7ff05d9dfa800068d0","null","null","<p style=""font-size: 60px; font-family: BACS"">mkmJNGUOA</p>","","","","","","","","","",""
"html-keyboard-response","298","528261","0.0-14.0-0.47","61275a3158c67415afb971ff","650c16f0f2faf8d7a0d14c09","651c1b7ff05d9dfa800068d0","null","null","<p style=""font-size: 60px; font-family: BACS"">hAROKOBT</p>","","","","","","","","","",""
"html-keyboard-response","299","529277","0.0-14.0-0.48","61275a3158c67415afb971ff","650c16f0f2faf8d7a0d14c09","651c1b7ff05d9dfa800068d0","null","null","<p style=""font-size: 60px; font-family: BACS"">ABPRBmAM</p>","","","","","","","","","",""
"html-keyboard-response","300","530291","0.0-14.0-0.49","61275a3158c67415afb971ff","650c16f0f2faf8d7a0d14c09","651c1b7ff05d9dfa800068d0","null","null","<p style=""font-size: 60px; font-family: BACS"">DhMtOBT</p>","","","","","","","","","",""
"html-keyboard-response","301","531311","0.0-14.0-0.50","61275a3158c67415afb971ff","650c16f0f2faf8d7a0d14c09","651c1b7ff05d9dfa800068d0","null","null","<p style=""font-size: 60px; font-family: BACS"">mkmJNcYUv</p>","","","","","","","","","",""
"html-keyboard-response","302","532327","0.0-14.0-0.51","61275a3158c67415afb971ff","650c16f0f2faf8d7a0d14c09","651c1b7ff05d9dfa800068d0","null","null","<p style=""font-size: 60px; font-family: BACS"">htmhCPED</p>","","","","","","","","","",""
"html-keyboard-response","303","533346","0.0-14.0-0.52","61275a3158c67415afb971ff","650c16f0f2faf8d7a0d14c09","651c1b7ff05d9dfa800068d0","null","null","<p style=""font-size: 60px; font-family: BACS"">hAROKkKE</p>","","","","","","","","","",""
"html-keyboard-response","304","534363","0.0-14.0-0.53","61275a3158c67415afb971ff","650c16f0f2faf8d7a0d14c09","651c1b7ff05d9dfa800068d0","null","null","<p style=""font-size: 60px; font-family: BACS"">bYuQGUa</p>","","","","","","","","","",""
"html-keyboard-response","305","535379","0.0-14.0-0.54","61275a3158c67415afb971ff","650c16f0f2faf8d7a0d14c09","651c1b7ff05d9dfa800068d0","null","null","<p style=""font-size: 60px; font-family: BACS"">hTDdPED</p>","","","","","","","","","",""
"html-keyboard-response","306","536397","0.0-14.0-0.55","61275a3158c67415afb971ff","650c16f0f2faf8d7a0d14c09","651c1b7ff05d9dfa800068d0","null","null","<p style=""font-size: 60px; font-family: BACS"">UdumdJZr</p>","","","","","","","","","",""
"html-keyboard-response","307","537416","0.0-14.0-0.56","61275a3158c67415afb971ff","650c16f0f2faf8d7a0d14c09","651c1b7ff05d9dfa800068d0","null","null","<p style=""font-size: 60px; font-family: BACS"">aYaNJUNa</p>","","","","","","","","","",""
"html-keyboard-response","308","538433","0.0-14.0-0.57","61275a3158c67415afb971ff","650c16f0f2faf8d7a0d14c09","651c1b7ff05d9dfa800068d0","null","null","<p style=""font-size: 60px; font-family: BACS"">ABPRBOBT</p>","","","","","","","","","",""
"html-keyboard-response","309","539447","0.0-14.0-0.58","61275a3158c67415afb971ff","650c16f0f2faf8d7a0d14c09","651c1b7ff05d9dfa800068d0","null","null","<p style=""font-size: 60px; font-family: BACS"">bcORPED</p>","","","","","","","","","",""
"html-keyboard-response","310","540465","0.0-14.0-0.59","61275a3158c67415afb971ff","650c16f0f2faf8d7a0d14c09","651c1b7ff05d9dfa800068d0","null","null","<p style=""font-size: 60px; font-family: BACS"">aUZAJUNa</p>","","","","","","","","","",""
"html-keyboard-response","311","541480","0.0-14.0-0.60","61275a3158c67415afb971ff","650c16f0f2faf8d7a0d14c09","651c1b7ff05d9dfa800068d0","null","null","<p style=""font-size: 60px; font-family: BACS"">ABPRBYcM</p>","","","","","","","","","",""
"html-keyboard-response","312","542499","0.0-14.0-0.61","61275a3158c67415afb971ff","650c16f0f2faf8d7a0d14c09","651c1b7ff05d9dfa800068d0","null","null","<p style=""font-size: 60px; font-family: BACS"">hlkTkKE</p>","","","","","","","","","",""
"html-keyboard-response","313","543513","0.0-14.0-0.62","61275a3158c67415afb971ff","650c16f0f2faf8d7a0d14c09","651c1b7ff05d9dfa800068d0","null","null","<p style=""font-size: 60px; font-family: BACS"">aYaNcYUv</p>","","","","","","","","","",""
"html-keyboard-response","314","544531","0.0-14.0-0.63","61275a3158c67415afb971ff","650c16f0f2faf8d7a0d14c09","651c1b7ff05d9dfa800068d0","null","null","<p style=""font-size: 60px; font-family: BACS"">cuOJbJZr</p>","","","","","","","","","",""
"html-keyboard-response","315","545549","0.0-14.0-0.64","61275a3158c67415afb971ff","650c16f0f2faf8d7a0d14c09","651c1b7ff05d9dfa800068d0","null","null","<p style=""font-size: 60px; font-family: BACS"">UdumdcYUv</p>","","","","","","","","","",""
"html-keyboard-response","316","546565","0.0-14.0-0.65","61275a3158c67415afb971ff","650c16f0f2faf8d7a0d14c09","651c1b7ff05d9dfa800068d0","null","null","<p style=""font-size: 60px; font-family: BACS"">mkmJNJUNa</p>","","","","","","","","","",""
"html-keyboard-response","317","547585","0.0-14.0-0.66","61275a3158c67415afb971ff","650c16f0f2faf8d7a0d14c09","651c1b7ff05d9dfa800068d0","null","null","<p style=""font-size: 60px; font-family: BACS"">DhMtmAM</p>","","","","","","","","","",""
"html-keyboard-response","318","548602","0.0-14.0-0.67","61275a3158c67415afb971ff","650c16f0f2faf8d7a0d14c09","651c1b7ff05d9dfa800068d0","null","null","<p style=""font-size: 60px; font-family: BACS"">aYaNGUa</p>","","","","","","","","","",""
"html-keyboard-response","319","549622","0.0-14.0-0.68","61275a3158c67415afb971ff","650c16f0f2faf8d7a0d14c09","651c1b7ff05d9dfa800068d0","null","null","<p style=""font-size: 60px; font-family: BACS"">GJGcZJUNa</p>","","","","","","","","","",""
"html-keyboard-response","320","550635","0.0-14.0-0.69","61275a3158c67415afb971ff","650c16f0f2faf8d7a0d14c09","651c1b7ff05d9dfa800068d0","null","null","<p style=""font-size: 60px; font-family: BACS"">JNkaJZr</p>","","","","","","","","","",""
"html-keyboard-response","321","551651","0.0-14.0-0.70","61275a3158c67415afb971ff","650c16f0f2faf8d7a0d14c09","651c1b7ff05d9dfa800068d0","null","null","<p style=""font-size: 60px; font-family: BACS"">TEBKYcM</p>","","","","","","","","","",""
"html-keyboard-response","322","552670","0.0-14.0-0.71","61275a3158c67415afb971ff","650c16f0f2faf8d7a0d14c09","651c1b7ff05d9dfa800068d0","null","null","<p style=""font-size: 60px; font-family: BACS"">KBKBEOBT</p>","","","","","","","","","",""
"html-keyboard-response","323","553690","0.0-14.0-0.72","61275a3158c67415afb971ff","650c16f0f2faf8d7a0d14c09","651c1b7ff05d9dfa800068d0","null","null","<p style=""font-size: 60px; font-family: BACS"">TPCbmAM</p>","","","","","","","","","",""
"html-keyboard-response","324","554704","0.0-14.0-0.73","61275a3158c67415afb971ff","650c16f0f2faf8d7a0d14c09","651c1b7ff05d9dfa800068d0","null","null","<p style=""font-size: 60px; font-family: BACS"">TEBKOBT</p>","","","","","","","","","",""
"html-keyboard-response","325","555722","0.0-14.0-0.74","61275a3158c67415afb971ff","650c16f0f2faf8d7a0d14c09","651c1b7ff05d9dfa800068d0","null","null","<p style=""font-size: 60px; font-family: BACS"">JNkaJUNa</p>","","","","","","","","","",""
"html-keyboard-response","326","556741","0.0-14.0-0.75","61275a3158c67415afb971ff","650c16f0f2faf8d7a0d14c09","651c1b7ff05d9dfa800068d0","null","null","<p style=""font-size: 60px; font-family: BACS"">hTDdkKE</p>","","","","","","","","","",""
"html-keyboard-response","327","557757","0.0-14.0-0.76","61275a3158c67415afb971ff","650c16f0f2faf8d7a0d14c09","651c1b7ff05d9dfa800068d0","null","null","<p style=""font-size: 60px; font-family: BACS"">TEBKmAM</p>","","","","","","","","","",""
"html-keyboard-response","328","558774","0.0-14.0-0.77","61275a3158c67415afb971ff","650c16f0f2faf8d7a0d14c09","651c1b7ff05d9dfa800068d0","null","null","<p style=""font-size: 60px; font-family: BACS"">bYuQJZr</p>","","","","","","","","","",""
"html-keyboard-response","329","559791","0.0-14.0-0.78","61275a3158c67415afb971ff","650c16f0f2faf8d7a0d14c09","651c1b7ff05d9dfa800068d0","null","null","<p style=""font-size: 60px; font-family: BACS"">TPCbYcM</p>","","","","","","","","","",""
"html-keyboard-response","330","560807","0.0-14.0-0.79","61275a3158c67415afb971ff","650c16f0f2faf8d7a0d14c09","651c1b7ff05d9dfa800068d0","null","null","<p style=""font-size: 60px; font-family: BACS"">UdumdGUOA</p>","","","","","","","","","",""
"html-keyboard-response","331","595272","0.0-15.0","61275a3158c67415afb971ff","650c16f0f2faf8d7a0d14c09","651c1b7ff05d9dfa800068d0","34460"," ","<p>Great, you've seen the fourth block of words. You may now take a short break.</p>
      <p>Press the spacebar when you're ready to continue.</p>","","","","","","","","","",""
"html-keyboard-response","332","596282","0.0-16.0-0.0","61275a3158c67415afb971ff","650c16f0f2faf8d7a0d14c09","651c1b7ff05d9dfa800068d0","null","null","<p style=""font-size: 60px; font-family: BACS"">hTDdPED</p>","","","","","","","","","",""
"html-keyboard-response","333","597295","0.0-16.0-0.1","61275a3158c67415afb971ff","650c16f0f2faf8d7a0d14c09","651c1b7ff05d9dfa800068d0","null","null","<p style=""font-size: 60px; font-family: BACS"">hTDdPED</p>","","","","","","","","","",""
"html-keyboard-response","334","598310","0.0-16.0-0.2","61275a3158c67415afb971ff","650c16f0f2faf8d7a0d14c09","651c1b7ff05d9dfa800068d0","null","null","<p style=""font-size: 60px; font-family: BACS"">hTDdPED</p>","","","","","","","","","",""
"html-keyboard-response","335","599325","0.0-16.0-0.3","61275a3158c67415afb971ff","650c16f0f2faf8d7a0d14c09","651c1b7ff05d9dfa800068d0","null","null","<p style=""font-size: 60px; font-family: BACS"">hTDdPED</p>","","","","","","","","","",""
"html-keyboard-response","336","600330","0.0-16.0-0.4","61275a3158c67415afb971ff","650c16f0f2faf8d7a0d14c09","651c1b7ff05d9dfa800068d0","null","null","<p style=""font-size: 60px; font-family: BACS"">hTDdPED</p>","","","","","","","","","",""
"html-keyboard-response","337","601347","0.0-16.0-0.5","61275a3158c67415afb971ff","650c16f0f2faf8d7a0d14c09","651c1b7ff05d9dfa800068d0","null","null","<p style=""font-size: 60px; font-family: BACS"">hTDdPED</p>","","","","","","","","","",""
"html-keyboard-response","338","602368","0.0-16.0-0.6","61275a3158c67415afb971ff","650c16f0f2faf8d7a0d14c09","651c1b7ff05d9dfa800068d0","null","null","<p style=""font-size: 60px; font-family: BACS"">hTDdPED</p>","","","","","","","","","",""
"html-keyboard-response","339","603387","0.0-16.0-0.7","61275a3158c67415afb971ff","650c16f0f2faf8d7a0d14c09","651c1b7ff05d9dfa800068d0","null","null","<p style=""font-size: 60px; font-family: BACS"">hTDdPED</p>","","","","","","","","","",""
"html-keyboard-response","340","604399","0.0-16.0-0.8","61275a3158c67415afb971ff","650c16f0f2faf8d7a0d14c09","651c1b7ff05d9dfa800068d0","null","null","<p style=""font-size: 60px; font-family: BACS"">hTDdPED</p>","","","","","","","","","",""
"html-keyboard-response","341","605418","0.0-16.0-0.9","61275a3158c67415afb971ff","650c16f0f2faf8d7a0d14c09","651c1b7ff05d9dfa800068d0","null","null","<p style=""font-size: 60px; font-family: BACS"">hTDdPED</p>","","","","","","","","","",""
"html-keyboard-response","342","606436","0.0-16.0-0.10","61275a3158c67415afb971ff","650c16f0f2faf8d7a0d14c09","651c1b7ff05d9dfa800068d0","null","null","<p style=""font-size: 60px; font-family: BACS"">hTDdPED</p>","","","","","","","","","",""
"html-keyboard-response","343","607456","0.0-16.0-0.11","61275a3158c67415afb971ff","650c16f0f2faf8d7a0d14c09","651c1b7ff05d9dfa800068d0","null","null","<p style=""font-size: 60px; font-family: BACS"">hTDdPED</p>","","","","","","","","","",""
"html-keyboard-response","344","608469","0.0-16.0-0.12","61275a3158c67415afb971ff","650c16f0f2faf8d7a0d14c09","651c1b7ff05d9dfa800068d0","null","null","<p style=""font-size: 60px; font-family: BACS"">hTDdPED</p>","","","","","","","","","",""
"html-keyboard-response","345","609475","0.0-16.0-0.13","61275a3158c67415afb971ff","650c16f0f2faf8d7a0d14c09","651c1b7ff05d9dfa800068d0","null","null","<p style=""font-size: 60px; font-family: BACS"">hTDdPED</p>","","","","","","","","","",""
"html-keyboard-response","346","610493","0.0-16.0-0.14","61275a3158c67415afb971ff","650c16f0f2faf8d7a0d14c09","651c1b7ff05d9dfa800068d0","null","null","<p style=""font-size: 60px; font-family: BACS"">hTDdPED</p>","","","","","","","","","",""
"html-keyboard-response","347","611511","0.0-16.0-0.15","61275a3158c67415afb971ff","650c16f0f2faf8d7a0d14c09","651c1b7ff05d9dfa800068d0","null","null","<p style=""font-size: 60px; font-family: BACS"">hTDdPED</p>","","","","","","","","","",""
"html-keyboard-response","348","612518","0.0-16.0-0.16","61275a3158c67415afb971ff","650c16f0f2faf8d7a0d14c09","651c1b7ff05d9dfa800068d0","null","null","<p style=""font-size: 60px; font-family: BACS"">hTDdPED</p>","","","","","","","","","",""
"html-keyboard-response","349","613536","0.0-16.0-0.17","61275a3158c67415afb971ff","650c16f0f2faf8d7a0d14c09","651c1b7ff05d9dfa800068d0","null","null","<p style=""font-size: 60px; font-family: BACS"">hTDdPED</p>","","","","","","","","","",""
"html-keyboard-response","350","614554","0.0-16.0-0.18","61275a3158c67415afb971ff","650c16f0f2faf8d7a0d14c09","651c1b7ff05d9dfa800068d0","null","null","<p style=""font-size: 60px; font-family: BACS"">hTDdPED</p>","","","","","","","","","",""
"html-keyboard-response","351","615570","0.0-16.0-0.19","61275a3158c67415afb971ff","650c16f0f2faf8d7a0d14c09","651c1b7ff05d9dfa800068d0","null","null","<p style=""font-size: 60px; font-family: BACS"">hTDdPED</p>","","","","","","","","","",""
"html-keyboard-response","352","616588","0.0-16.0-0.20","61275a3158c67415afb971ff","650c16f0f2faf8d7a0d14c09","651c1b7ff05d9dfa800068d0","null","null","<p style=""font-size: 60px; font-family: BACS"">hTDdPED</p>","","","","","","","","","",""
"html-keyboard-response","353","617604","0.0-16.0-0.21","61275a3158c67415afb971ff","650c16f0f2faf8d7a0d14c09","651c1b7ff05d9dfa800068d0","null","null","<p style=""font-size: 60px; font-family: BACS"">hTDdPED</p>","","","","","","","","","",""
"html-keyboard-response","354","618623","0.0-16.0-0.22","61275a3158c67415afb971ff","650c16f0f2faf8d7a0d14c09","651c1b7ff05d9dfa800068d0","null","null","<p style=""font-size: 60px; font-family: BACS"">hTDdPED</p>","","","","","","","","","",""
"html-keyboard-response","355","619642","0.0-16.0-0.23","61275a3158c67415afb971ff","650c16f0f2faf8d7a0d14c09","651c1b7ff05d9dfa800068d0","null","null","<p style=""font-size: 60px; font-family: BACS"">hTDdPED</p>","","","","","","","","","",""
"html-keyboard-response","356","620657","0.0-16.0-0.24","61275a3158c67415afb971ff","650c16f0f2faf8d7a0d14c09","651c1b7ff05d9dfa800068d0","null","null","<p style=""font-size: 60px; font-family: BACS"">hTDdPED</p>","","","","","","","","","",""
"html-keyboard-response","357","621677","0.0-16.0-0.25","61275a3158c67415afb971ff","650c16f0f2faf8d7a0d14c09","651c1b7ff05d9dfa800068d0","null","null","<p style=""font-size: 60px; font-family: BACS"">hTDdPED</p>","","","","","","","","","",""
"html-keyboard-response","358","622698","0.0-16.0-0.26","61275a3158c67415afb971ff","650c16f0f2faf8d7a0d14c09","651c1b7ff05d9dfa800068d0","null","null","<p style=""font-size: 60px; font-family: BACS"">hTDdPED</p>","","","","","","","","","",""
"html-keyboard-response","359","623704","0.0-16.0-0.27","61275a3158c67415afb971ff","650c16f0f2faf8d7a0d14c09","651c1b7ff05d9dfa800068d0","null","null","<p style=""font-size: 60px; font-family: BACS"">hTDdPED</p>","","","","","","","","","",""
"html-keyboard-response","360","624708","0.0-16.0-0.28","61275a3158c67415afb971ff","650c16f0f2faf8d7a0d14c09","651c1b7ff05d9dfa800068d0","null","null","<p style=""font-size: 60px; font-family: BACS"">hTDdPED</p>","","","","","","","","","",""
"html-keyboard-response","361","625728","0.0-16.0-0.29","61275a3158c67415afb971ff","650c16f0f2faf8d7a0d14c09","651c1b7ff05d9dfa800068d0","null","null","<p style=""font-size: 60px; font-family: BACS"">hTDdPED</p>","","","","","","","","","",""
"html-keyboard-response","362","626744","0.0-16.0-0.30","61275a3158c67415afb971ff","650c16f0f2faf8d7a0d14c09","651c1b7ff05d9dfa800068d0","null","null","<p style=""font-size: 60px; font-family: BACS"">hTDdPED</p>","","","","","","","","","",""
"html-keyboard-response","363","627762","0.0-16.0-0.31","61275a3158c67415afb971ff","650c16f0f2faf8d7a0d14c09","651c1b7ff05d9dfa800068d0","null","null","<p style=""font-size: 60px; font-family: BACS"">hTDdPED</p>","","","","","","","","","",""
"html-keyboard-response","364","628779","0.0-16.0-0.32","61275a3158c67415afb971ff","650c16f0f2faf8d7a0d14c09","651c1b7ff05d9dfa800068d0","null","null","<p style=""font-size: 60px; font-family: BACS"">hTDdPED</p>","","","","","","","","","",""
"html-keyboard-response","365","629795","0.0-16.0-0.33","61275a3158c67415afb971ff","650c16f0f2faf8d7a0d14c09","651c1b7ff05d9dfa800068d0","null","null","<p style=""font-size: 60px; font-family: BACS"">hTDdPED</p>","","","","","","","","","",""
"html-keyboard-response","366","630810","0.0-16.0-0.34","61275a3158c67415afb971ff","650c16f0f2faf8d7a0d14c09","651c1b7ff05d9dfa800068d0","null","null","<p style=""font-size: 60px; font-family: BACS"">hTDdPED</p>","","","","","","","","","",""
"html-keyboard-response","367","631830","0.0-16.0-0.35","61275a3158c67415afb971ff","650c16f0f2faf8d7a0d14c09","651c1b7ff05d9dfa800068d0","null","null","<p style=""font-size: 60px; font-family: BACS"">hTDdPED</p>","","","","","","","","","",""
"html-keyboard-response","368","632848","0.0-16.0-0.36","61275a3158c67415afb971ff","650c16f0f2faf8d7a0d14c09","651c1b7ff05d9dfa800068d0","null","null","<p style=""font-size: 60px; font-family: BACS"">hTDdPED</p>","","","","","","","","","",""
"html-keyboard-response","369","633868","0.0-16.0-0.37","61275a3158c67415afb971ff","650c16f0f2faf8d7a0d14c09","651c1b7ff05d9dfa800068d0","null","null","<p style=""font-size: 60px; font-family: BACS"">hTDdPED</p>","","","","","","","","","",""
"html-keyboard-response","370","634884","0.0-16.0-0.38","61275a3158c67415afb971ff","650c16f0f2faf8d7a0d14c09","651c1b7ff05d9dfa800068d0","null","null","<p style=""font-size: 60px; font-family: BACS"">hTDdPED</p>","","","","","","","","","",""
"html-keyboard-response","371","635900","0.0-16.0-0.39","61275a3158c67415afb971ff","650c16f0f2faf8d7a0d14c09","651c1b7ff05d9dfa800068d0","null","null","<p style=""font-size: 60px; font-family: BACS"">hTDdPED</p>","","","","","","","","","",""
"html-keyboard-response","372","636919","0.0-16.0-0.40","61275a3158c67415afb971ff","650c16f0f2faf8d7a0d14c09","651c1b7ff05d9dfa800068d0","null","null","<p style=""font-size: 60px; font-family: BACS"">hTDdPED</p>","","","","","","","","","",""
"html-keyboard-response","373","637937","0.0-16.0-0.41","61275a3158c67415afb971ff","650c16f0f2faf8d7a0d14c09","651c1b7ff05d9dfa800068d0","null","null","<p style=""font-size: 60px; font-family: BACS"">hTDdPED</p>","","","","","","","","","",""
"html-keyboard-response","374","638950","0.0-16.0-0.42","61275a3158c67415afb971ff","650c16f0f2faf8d7a0d14c09","651c1b7ff05d9dfa800068d0","null","null","<p style=""font-size: 60px; font-family: BACS"">hTDdPED</p>","","","","","","","","","",""
"html-keyboard-response","375","639970","0.0-16.0-0.43","61275a3158c67415afb971ff","650c16f0f2faf8d7a0d14c09","651c1b7ff05d9dfa800068d0","null","null","<p style=""font-size: 60px; font-family: BACS"">hTDdPED</p>","","","","","","","","","",""
"html-keyboard-response","376","640982","0.0-16.0-0.44","61275a3158c67415afb971ff","650c16f0f2faf8d7a0d14c09","651c1b7ff05d9dfa800068d0","null","null","<p style=""font-size: 60px; font-family: BACS"">hTDdPED</p>","","","","","","","","","",""
"html-keyboard-response","377","642000","0.0-16.0-0.45","61275a3158c67415afb971ff","650c16f0f2faf8d7a0d14c09","651c1b7ff05d9dfa800068d0","null","null","<p style=""font-size: 60px; font-family: BACS"">hTDdPED</p>","","","","","","","","","",""
"html-keyboard-response","378","643019","0.0-16.0-0.46","61275a3158c67415afb971ff","650c16f0f2faf8d7a0d14c09","651c1b7ff05d9dfa800068d0","null","null","<p style=""font-size: 60px; font-family: BACS"">hTDdPED</p>","","","","","","","","","",""
"html-keyboard-response","379","644035","0.0-16.0-0.47","61275a3158c67415afb971ff","650c16f0f2faf8d7a0d14c09","651c1b7ff05d9dfa800068d0","null","null","<p style=""font-size: 60px; font-family: BACS"">hTDdPED</p>","","","","","","","","","",""
"html-keyboard-response","380","645053","0.0-16.0-0.48","61275a3158c67415afb971ff","650c16f0f2faf8d7a0d14c09","651c1b7ff05d9dfa800068d0","null","null","<p style=""font-size: 60px; font-family: BACS"">hTDdPED</p>","","","","","","","","","",""
"html-keyboard-response","381","646069","0.0-16.0-0.49","61275a3158c67415afb971ff","650c16f0f2faf8d7a0d14c09","651c1b7ff05d9dfa800068d0","null","null","<p style=""font-size: 60px; font-family: BACS"">hTDdPED</p>","","","","","","","","","",""
"html-keyboard-response","382","647089","0.0-16.0-0.50","61275a3158c67415afb971ff","650c16f0f2faf8d7a0d14c09","651c1b7ff05d9dfa800068d0","null","null","<p style=""font-size: 60px; font-family: BACS"">hTDdPED</p>","","","","","","","","","",""
"html-keyboard-response","383","648105","0.0-16.0-0.51","61275a3158c67415afb971ff","650c16f0f2faf8d7a0d14c09","651c1b7ff05d9dfa800068d0","null","null","<p style=""font-size: 60px; font-family: BACS"">hTDdPED</p>","","","","","","","","","",""
"html-keyboard-response","384","649123","0.0-16.0-0.52","61275a3158c67415afb971ff","650c16f0f2faf8d7a0d14c09","651c1b7ff05d9dfa800068d0","null","null","<p style=""font-size: 60px; font-family: BACS"">hTDdPED</p>","","","","","","","","","",""
"html-keyboard-response","385","650140","0.0-16.0-0.53","61275a3158c67415afb971ff","650c16f0f2faf8d7a0d14c09","651c1b7ff05d9dfa800068d0","null","null","<p style=""font-size: 60px; font-family: BACS"">hTDdPED</p>","","","","","","","","","",""
"html-keyboard-response","386","651160","0.0-16.0-0.54","61275a3158c67415afb971ff","650c16f0f2faf8d7a0d14c09","651c1b7ff05d9dfa800068d0","null","null","<p style=""font-size: 60px; font-family: BACS"">hTDdPED</p>","","","","","","","","","",""
"html-keyboard-response","387","652178","0.0-16.0-0.55","61275a3158c67415afb971ff","650c16f0f2faf8d7a0d14c09","651c1b7ff05d9dfa800068d0","null","null","<p style=""font-size: 60px; font-family: BACS"">hTDdPED</p>","","","","","","","","","",""
"html-keyboard-response","388","653196","0.0-16.0-0.56","61275a3158c67415afb971ff","650c16f0f2faf8d7a0d14c09","651c1b7ff05d9dfa800068d0","null","null","<p style=""font-size: 60px; font-family: BACS"">hTDdPED</p>","","","","","","","","","",""
"html-keyboard-response","389","654209","0.0-16.0-0.57","61275a3158c67415afb971ff","650c16f0f2faf8d7a0d14c09","651c1b7ff05d9dfa800068d0","null","null","<p style=""font-size: 60px; font-family: BACS"">hTDdPED</p>","","","","","","","","","",""
"html-keyboard-response","390","655226","0.0-16.0-0.58","61275a3158c67415afb971ff","650c16f0f2faf8d7a0d14c09","651c1b7ff05d9dfa800068d0","null","null","<p style=""font-size: 60px; font-family: BACS"">hTDdPED</p>","","","","","","","","","",""
"html-keyboard-response","391","656245","0.0-16.0-0.59","61275a3158c67415afb971ff","650c16f0f2faf8d7a0d14c09","651c1b7ff05d9dfa800068d0","null","null","<p style=""font-size: 60px; font-family: BACS"">hTDdPED</p>","","","","","","","","","",""
"html-keyboard-response","392","657261","0.0-16.0-0.60","61275a3158c67415afb971ff","650c16f0f2faf8d7a0d14c09","651c1b7ff05d9dfa800068d0","null","null","<p style=""font-size: 60px; font-family: BACS"">hTDdPED</p>","","","","","","","","","",""
"html-keyboard-response","393","658280","0.0-16.0-0.61","61275a3158c67415afb971ff","650c16f0f2faf8d7a0d14c09","651c1b7ff05d9dfa800068d0","null","null","<p style=""font-size: 60px; font-family: BACS"">hTDdPED</p>","","","","","","","","","",""
