"trial_type","trial_index","time_elapsed","internal_node_id","subject_id","study_id","session_id","rt","response","stimulus","success","item","task","correct_response","testing_condition","correct","target","confound","name","view_history"
"pavlovia","0","1118","0.0-0.0","648b962b8fdb1fa686213ac1","64e77d7b61f440b60e28659d","64ecad81b8f7e141b27cbb2d","","","","","","","","","","","","",""
"survey-html-form","1","8910","0.0-1.0","648b962b8fdb1fa686213ac1","64e77d7b61f440b60e28659d","64ecad81b8f7e141b27cbb2d","7791","{""ID"":""648b962b8fdb1fa686213ac1""}","","","","","","","","","","",""
"html-keyboard-response","2","11799","0.0-2.0","648b962b8fdb1fa686213ac1","64e77d7b61f440b60e28659d","64ecad81b8f7e141b27cbb2d","2888"," ","<p style=""font-size: 15px;"">Before beginning, we ask that you read the consent information and confirm your agreement to participate in the experiment.</p>
      <p style=""font-size: 15px;""> We ask that you remember that this is a research project and that your participation is entirely voluntary. You can stop your participation at any time, without needing to provide any explanation. The study we're asking you to participate in aims at examining how readers process written words. You will be engaged in a session of apprximately 20 minutes, followed by a brief questionnaire. You will have the opportunity to take a few breaks during the experiment. You will be paid £4 for your participation, corresponding to a rate of £8/hour. While this experiment looks at cognitive faculties, this experiment doesn't constitute clinical proof of eventual pathologies.</p>
      <p style=""font-size: 15px;"">All of the information collected thanks to yours and others' participation will be held in a secure password-protected server, and will not be shared with anyone not authorised to view it. Your personal information will be kept with an arbitrary participant ID. Thanks to this data anonymity process, any researcher analysing the data won't be able to track the information back to a specific participant. Therefore, this process will make identifying you impossibile, even when results from the study will be published in scientific reviews, presented at congresses, or at any other public forum. More generally, the collected data will be treated in accordance with the laws on privacy and conformity to the Legislative Degree n. 196 ""Code regarding the protection of personal data"" of the 30th of June 2003 and to the European Regulation 2016/670 (General Data Protection Regulation - GDPR). The Data Protection Officer is Avv. Valentina Carollo, who can be contacted at the following email addresses: <a href=""mailto:dpo@sissa.it"">dpo@sissa.it</a> or <a href=""mailto:rpd@sissa.it"">rpd@sissa.it</a> - PEC: <a href=""mailto:protocollo@pec.sissa.it"">protocollo@pec.sissa.it</a>.</p>
      <p style=""font-size: 15px;""> Before expressing your consent to participate, we would like to remind you again that in case you need explanations on any aspect of the experimental procedure, the researcher is at your disposition (<a href=""mailto:aliebelt@sissa.it"">aliebelt@sissa.it</a>, <a href=""mailto:davide.crepaldi@sissa.it"">davide.crepaldi@sissa.it</a>).</p>
      <p style=""font-size: 15px;"">If you would like to download the informed consent form, you can do so here: <a href=""BASL-Informed_Consent.pdf"" download>informed consent form</a>.</p>
      <p style=""font-size: 15px;"">We ask that you press the spacebar to proceed to the consent section.</p>","","","","","","","","","",""
"survey-html-form","3","17020","0.0-3.0","648b962b8fdb1fa686213ac1","64e77d7b61f440b60e28659d","64ecad81b8f7e141b27cbb2d","5220","{""consent1"":""YES"",""consent2"":""YES"",""consent3"":""YES"",""consent4"":""YES"",""consent5"":""YES"",""consent6"":""YES""}","","","","","","","","","","",""
"fullscreen","4","19053","0.0-4.0","648b962b8fdb1fa686213ac1","64e77d7b61f440b60e28659d","64ecad81b8f7e141b27cbb2d","","","","true","","","","","","","","",""
"html-keyboard-response","5","19491","0.0-5.0","648b962b8fdb1fa686213ac1","64e77d7b61f440b60e28659d","64ecad81b8f7e141b27cbb2d","437"," ","<p>Welcome, and thank you very much for your time!</p>
      <p>In this experiment, you'll be a language expert who's been asked to take a look at words that Earth has received in its first communication with aliens. Your task, in this first part of the experiment, is to pay close attention to the words you'll be shown; later, world leaders will ask you questions on what you saw. The words will be shown to you quite quickly; it seems that the aliens were in a hurry :-)</p>
      <p>Press the spacebar to continue.<p>","","","","","","","","","",""
"html-keyboard-response","6","20707","0.0-6.0","648b962b8fdb1fa686213ac1","64e77d7b61f440b60e28659d","64ecad81b8f7e141b27cbb2d","1215"," ","<p>Here is an example of the words you'll see:</p>
      <img src='esempio.png' height='400px'>
      <p>When you're ready to begin, press the spacebar.</p></div>","","","","","","","","","",""
"html-keyboard-response","7","21712","0.0-7.0-0.0","648b962b8fdb1fa686213ac1","64e77d7b61f440b60e28659d","64ecad81b8f7e141b27cbb2d","null","null","<p style=""font-size: 60px; font-family: BACS"">dOYmlRdCc</p>","","","","","","","","","",""
"html-keyboard-response","8","22720","0.0-7.0-0.1","648b962b8fdb1fa686213ac1","64e77d7b61f440b60e28659d","64ecad81b8f7e141b27cbb2d","null","null","<p style=""font-size: 60px; font-family: BACS"">LdrbvrAJu</p>","","","","","","","","","",""
"html-keyboard-response","9","23735","0.0-7.0-0.2","648b962b8fdb1fa686213ac1","64e77d7b61f440b60e28659d","64ecad81b8f7e141b27cbb2d","null","null","<p style=""font-size: 60px; font-family: BACS"">aLNlkLaA</p>","","","","","","","","","",""
"html-keyboard-response","10","24736","0.0-7.0-0.3","648b962b8fdb1fa686213ac1","64e77d7b61f440b60e28659d","64ecad81b8f7e141b27cbb2d","null","null","<p style=""font-size: 60px; font-family: BACS"">aNYmbrZYd</p>","","","","","","","","","",""
"html-keyboard-response","11","25749","0.0-7.0-0.4","648b962b8fdb1fa686213ac1","64e77d7b61f440b60e28659d","64ecad81b8f7e141b27cbb2d","null","null","<p style=""font-size: 60px; font-family: BACS"">BlmclCkbd</p>","","","","","","","","","",""
"html-keyboard-response","12","26752","0.0-7.0-0.5","648b962b8fdb1fa686213ac1","64e77d7b61f440b60e28659d","64ecad81b8f7e141b27cbb2d","null","null","<p style=""font-size: 60px; font-family: BACS"">dTmEDRdCc</p>","","","","","","","","","",""
"html-keyboard-response","13","27769","0.0-7.0-0.6","648b962b8fdb1fa686213ac1","64e77d7b61f440b60e28659d","64ecad81b8f7e141b27cbb2d","null","null","<p style=""font-size: 60px; font-family: BACS"">BECkMAB</p>","","","","","","","","","",""
"html-keyboard-response","14","28785","0.0-7.0-0.7","648b962b8fdb1fa686213ac1","64e77d7b61f440b60e28659d","64ecad81b8f7e141b27cbb2d","null","null","<p style=""font-size: 60px; font-family: BACS"">damYbJUNa</p>","","","","","","","","","",""
"html-keyboard-response","15","29786","0.0-7.0-0.8","648b962b8fdb1fa686213ac1","64e77d7b61f440b60e28659d","64ecad81b8f7e141b27cbb2d","null","null","<p style=""font-size: 60px; font-family: BACS"">dOYmlOBT</p>","","","","","","","","","",""
"html-keyboard-response","16","30802","0.0-7.0-0.9","648b962b8fdb1fa686213ac1","64e77d7b61f440b60e28659d","64ecad81b8f7e141b27cbb2d","null","null","<p style=""font-size: 60px; font-family: BACS"">OmtlDCkbd</p>","","","","","","","","","",""
"html-keyboard-response","17","31818","0.0-7.0-0.10","648b962b8fdb1fa686213ac1","64e77d7b61f440b60e28659d","64ecad81b8f7e141b27cbb2d","null","null","<p style=""font-size: 60px; font-family: BACS"">BECktRb</p>","","","","","","","","","",""
"html-keyboard-response","18","32819","0.0-7.0-0.11","648b962b8fdb1fa686213ac1","64e77d7b61f440b60e28659d","64ecad81b8f7e141b27cbb2d","null","null","<p style=""font-size: 60px; font-family: BACS"">YOaAbrAJu</p>","","","","","","","","","",""
"html-keyboard-response","19","33835","0.0-7.0-0.12","648b962b8fdb1fa686213ac1","64e77d7b61f440b60e28659d","64ecad81b8f7e141b27cbb2d","null","null","<p style=""font-size: 60px; font-family: BACS"">dOYmlMAB</p>","","","","","","","","","",""
"html-keyboard-response","20","34852","0.0-7.0-0.13","648b962b8fdb1fa686213ac1","64e77d7b61f440b60e28659d","64ecad81b8f7e141b27cbb2d","null","null","<p style=""font-size: 60px; font-family: BACS"">mUOcOLaA</p>","","","","","","","","","",""
"html-keyboard-response","21","35869","0.0-7.0-0.14","648b962b8fdb1fa686213ac1","64e77d7b61f440b60e28659d","64ecad81b8f7e141b27cbb2d","null","null","<p style=""font-size: 60px; font-family: BACS"">TDKhtRb</p>","","","","","","","","","",""
"html-keyboard-response","22","36886","0.0-7.0-0.15","648b962b8fdb1fa686213ac1","64e77d7b61f440b60e28659d","64ecad81b8f7e141b27cbb2d","null","null","<p style=""font-size: 60px; font-family: BACS"">OmtlDOBT</p>","","","","","","","","","",""
"html-keyboard-response","23","37903","0.0-7.0-0.16","648b962b8fdb1fa686213ac1","64e77d7b61f440b60e28659d","64ecad81b8f7e141b27cbb2d","null","null","<p style=""font-size: 60px; font-family: BACS"">ubALmrAJu</p>","","","","","","","","","",""
"html-keyboard-response","24","38918","0.0-7.0-0.17","648b962b8fdb1fa686213ac1","64e77d7b61f440b60e28659d","64ecad81b8f7e141b27cbb2d","null","null","<p style=""font-size: 60px; font-family: BACS"">damYbYaOk</p>","","","","","","","","","",""
"html-keyboard-response","25","39919","0.0-7.0-0.18","648b962b8fdb1fa686213ac1","64e77d7b61f440b60e28659d","64ecad81b8f7e141b27cbb2d","null","null","<p style=""font-size: 60px; font-family: BACS"">GJGcZJUNa</p>","","","","","","","","","",""
"html-keyboard-response","26","40920","0.0-7.0-0.19","648b962b8fdb1fa686213ac1","64e77d7b61f440b60e28659d","64ecad81b8f7e141b27cbb2d","null","null","<p style=""font-size: 60px; font-family: BACS"">BECkOBT</p>","","","","","","","","","",""
"html-keyboard-response","27","41951","0.0-7.0-0.20","648b962b8fdb1fa686213ac1","64e77d7b61f440b60e28659d","64ecad81b8f7e141b27cbb2d","null","null","<p style=""font-size: 60px; font-family: BACS"">YOaAbLaA</p>","","","","","","","","","",""
"html-keyboard-response","28","42953","0.0-7.0-0.21","648b962b8fdb1fa686213ac1","64e77d7b61f440b60e28659d","64ecad81b8f7e141b27cbb2d","null","null","<p style=""font-size: 60px; font-family: BACS"">TDKhMAB</p>","","","","","","","","","",""
"html-keyboard-response","29","43969","0.0-7.0-0.22","648b962b8fdb1fa686213ac1","64e77d7b61f440b60e28659d","64ecad81b8f7e141b27cbb2d","null","null","<p style=""font-size: 60px; font-family: BACS"">vJabrZYd</p>","","","","","","","","","",""
"html-keyboard-response","30","44982","0.0-7.0-0.23","648b962b8fdb1fa686213ac1","64e77d7b61f440b60e28659d","64ecad81b8f7e141b27cbb2d","null","null","<p style=""font-size: 60px; font-family: BACS"">LdrbvLaA</p>","","","","","","","","","",""
"html-keyboard-response","31","45987","0.0-7.0-0.24","648b962b8fdb1fa686213ac1","64e77d7b61f440b60e28659d","64ecad81b8f7e141b27cbb2d","null","null","<p style=""font-size: 60px; font-family: BACS"">OmtlDMAB</p>","","","","","","","","","",""
"html-keyboard-response","32","47002","0.0-7.0-0.25","648b962b8fdb1fa686213ac1","64e77d7b61f440b60e28659d","64ecad81b8f7e141b27cbb2d","null","null","<p style=""font-size: 60px; font-family: BACS"">mUOcOJUNa</p>","","","","","","","","","",""
"html-keyboard-response","33","48003","0.0-7.0-0.26","648b962b8fdb1fa686213ac1","64e77d7b61f440b60e28659d","64ecad81b8f7e141b27cbb2d","null","null","<p style=""font-size: 60px; font-family: BACS"">BECkRdCc</p>","","","","","","","","","",""
"html-keyboard-response","34","49004","0.0-7.0-0.27","648b962b8fdb1fa686213ac1","64e77d7b61f440b60e28659d","64ecad81b8f7e141b27cbb2d","null","null","<p style=""font-size: 60px; font-family: BACS"">BlmclOBT</p>","","","","","","","","","",""
"html-keyboard-response","35","50020","0.0-7.0-0.28","648b962b8fdb1fa686213ac1","64e77d7b61f440b60e28659d","64ecad81b8f7e141b27cbb2d","null","null","<p style=""font-size: 60px; font-family: BACS"">dOYmltRb</p>","","","","","","","","","",""
"html-keyboard-response","36","51021","0.0-7.0-0.29","648b962b8fdb1fa686213ac1","64e77d7b61f440b60e28659d","64ecad81b8f7e141b27cbb2d","null","null","<p style=""font-size: 60px; font-family: BACS"">aLNlkYaOk</p>","","","","","","","","","",""
"html-keyboard-response","37","52035","0.0-7.0-0.30","648b962b8fdb1fa686213ac1","64e77d7b61f440b60e28659d","64ecad81b8f7e141b27cbb2d","null","null","<p style=""font-size: 60px; font-family: BACS"">dTmEDOBT</p>","","","","","","","","","",""
"html-keyboard-response","38","53036","0.0-7.0-0.31","648b962b8fdb1fa686213ac1","64e77d7b61f440b60e28659d","64ecad81b8f7e141b27cbb2d","null","null","<p style=""font-size: 60px; font-family: BACS"">BlmclMAB</p>","","","","","","","","","",""
"html-keyboard-response","39","54051","0.0-7.0-0.32","648b962b8fdb1fa686213ac1","64e77d7b61f440b60e28659d","64ecad81b8f7e141b27cbb2d","null","null","<p style=""font-size: 60px; font-family: BACS"">aNYmbrAJu</p>","","","","","","","","","",""
"html-keyboard-response","40","55053","0.0-7.0-0.33","648b962b8fdb1fa686213ac1","64e77d7b61f440b60e28659d","64ecad81b8f7e141b27cbb2d","null","null","<p style=""font-size: 60px; font-family: BACS"">dTmEDtRb</p>","","","","","","","","","",""
"html-keyboard-response","41","56070","0.0-7.0-0.34","648b962b8fdb1fa686213ac1","64e77d7b61f440b60e28659d","64ecad81b8f7e141b27cbb2d","null","null","<p style=""font-size: 60px; font-family: BACS"">mUOcOrZYd</p>","","","","","","","","","",""
"html-keyboard-response","42","57085","0.0-7.0-0.35","648b962b8fdb1fa686213ac1","64e77d7b61f440b60e28659d","64ecad81b8f7e141b27cbb2d","null","null","<p style=""font-size: 60px; font-family: BACS"">aNYmbJUNa</p>","","","","","","","","","",""
"html-keyboard-response","43","58087","0.0-7.0-0.36","648b962b8fdb1fa686213ac1","64e77d7b61f440b60e28659d","64ecad81b8f7e141b27cbb2d","null","null","<p style=""font-size: 60px; font-family: BACS"">YKRkCkbd</p>","","","","","","","","","",""
"html-keyboard-response","44","59103","0.0-7.0-0.37","648b962b8fdb1fa686213ac1","64e77d7b61f440b60e28659d","64ecad81b8f7e141b27cbb2d","null","null","<p style=""font-size: 60px; font-family: BACS"">PMPtkMAB</p>","","","","","","","","","",""
"html-keyboard-response","45","60118","0.0-7.0-0.38","648b962b8fdb1fa686213ac1","64e77d7b61f440b60e28659d","64ecad81b8f7e141b27cbb2d","null","null","<p style=""font-size: 60px; font-family: BACS"">TDKhRdCc</p>","","","","","","","","","",""
"html-keyboard-response","46","61120","0.0-7.0-0.39","648b962b8fdb1fa686213ac1","64e77d7b61f440b60e28659d","64ecad81b8f7e141b27cbb2d","null","null","<p style=""font-size: 60px; font-family: BACS"">ubALmYaOk</p>","","","","","","","","","",""
"html-keyboard-response","47","62135","0.0-7.0-0.40","648b962b8fdb1fa686213ac1","64e77d7b61f440b60e28659d","64ecad81b8f7e141b27cbb2d","null","null","<p style=""font-size: 60px; font-family: BACS"">ktBdMAB</p>","","","","","","","","","",""
"html-keyboard-response","48","63138","0.0-7.0-0.41","648b962b8fdb1fa686213ac1","64e77d7b61f440b60e28659d","64ecad81b8f7e141b27cbb2d","null","null","<p style=""font-size: 60px; font-family: BACS"">GJGcZYaOk</p>","","","","","","","","","",""
"html-keyboard-response","49","64152","0.0-7.0-0.42","648b962b8fdb1fa686213ac1","64e77d7b61f440b60e28659d","64ecad81b8f7e141b27cbb2d","null","null","<p style=""font-size: 60px; font-family: BACS"">aLNlkrAJu</p>","","","","","","","","","",""
"html-keyboard-response","50","65168","0.0-7.0-0.43","648b962b8fdb1fa686213ac1","64e77d7b61f440b60e28659d","64ecad81b8f7e141b27cbb2d","null","null","<p style=""font-size: 60px; font-family: BACS"">PMPtkRdCc</p>","","","","","","","","","",""
"html-keyboard-response","51","66169","0.0-7.0-0.44","648b962b8fdb1fa686213ac1","64e77d7b61f440b60e28659d","64ecad81b8f7e141b27cbb2d","null","null","<p style=""font-size: 60px; font-family: BACS"">vJabJUNa</p>","","","","","","","","","",""
"html-keyboard-response","52","67186","0.0-7.0-0.45","648b962b8fdb1fa686213ac1","64e77d7b61f440b60e28659d","64ecad81b8f7e141b27cbb2d","null","null","<p style=""font-size: 60px; font-family: BACS"">YOaAbrZYd</p>","","","","","","","","","",""
"html-keyboard-response","53","68187","0.0-7.0-0.46","648b962b8fdb1fa686213ac1","64e77d7b61f440b60e28659d","64ecad81b8f7e141b27cbb2d","null","null","<p style=""font-size: 60px; font-family: BACS"">PMPtkOBT</p>","","","","","","","","","",""
"html-keyboard-response","54","69201","0.0-7.0-0.47","648b962b8fdb1fa686213ac1","64e77d7b61f440b60e28659d","64ecad81b8f7e141b27cbb2d","null","null","<p style=""font-size: 60px; font-family: BACS"">LdrbvYaOk</p>","","","","","","","","","",""
"html-keyboard-response","55","70219","0.0-7.0-0.48","648b962b8fdb1fa686213ac1","64e77d7b61f440b60e28659d","64ecad81b8f7e141b27cbb2d","null","null","<p style=""font-size: 60px; font-family: BACS"">mUOcOrAJu</p>","","","","","","","","","",""
"html-keyboard-response","56","71235","0.0-7.0-0.49","648b962b8fdb1fa686213ac1","64e77d7b61f440b60e28659d","64ecad81b8f7e141b27cbb2d","null","null","<p style=""font-size: 60px; font-family: BACS"">YKRkRdCc</p>","","","","","","","","","",""
"html-keyboard-response","57","72237","0.0-7.0-0.50","648b962b8fdb1fa686213ac1","64e77d7b61f440b60e28659d","64ecad81b8f7e141b27cbb2d","null","null","<p style=""font-size: 60px; font-family: BACS"">BlmcltRb</p>","","","","","","","","","",""
"html-keyboard-response","58","73243","0.0-7.0-0.51","648b962b8fdb1fa686213ac1","64e77d7b61f440b60e28659d","64ecad81b8f7e141b27cbb2d","null","null","<p style=""font-size: 60px; font-family: BACS"">LdrbvJUNa</p>","","","","","","","","","",""
"html-keyboard-response","59","74252","0.0-7.0-0.52","648b962b8fdb1fa686213ac1","64e77d7b61f440b60e28659d","64ecad81b8f7e141b27cbb2d","null","null","<p style=""font-size: 60px; font-family: BACS"">TDKhCkbd</p>","","","","","","","","","",""
"html-keyboard-response","60","75254","0.0-7.0-0.53","648b962b8fdb1fa686213ac1","64e77d7b61f440b60e28659d","64ecad81b8f7e141b27cbb2d","null","null","<p style=""font-size: 60px; font-family: BACS"">damYbLaA</p>","","","","","","","","","",""
"html-keyboard-response","61","76268","0.0-7.0-0.54","648b962b8fdb1fa686213ac1","64e77d7b61f440b60e28659d","64ecad81b8f7e141b27cbb2d","null","null","<p style=""font-size: 60px; font-family: BACS"">GJGcZrAJu</p>","","","","","","","","","",""
"html-keyboard-response","62","77270","0.0-7.0-0.55","648b962b8fdb1fa686213ac1","64e77d7b61f440b60e28659d","64ecad81b8f7e141b27cbb2d","null","null","<p style=""font-size: 60px; font-family: BACS"">vJabYaOk</p>","","","","","","","","","",""
"html-keyboard-response","63","78285","0.0-7.0-0.56","648b962b8fdb1fa686213ac1","64e77d7b61f440b60e28659d","64ecad81b8f7e141b27cbb2d","null","null","<p style=""font-size: 60px; font-family: BACS"">EPMDkRdCc</p>","","","","","","","","","",""
"html-keyboard-response","64","79288","0.0-7.0-0.57","648b962b8fdb1fa686213ac1","64e77d7b61f440b60e28659d","64ecad81b8f7e141b27cbb2d","null","null","<p style=""font-size: 60px; font-family: BACS"">ktBdCkbd</p>","","","","","","","","","",""
"html-keyboard-response","65","80302","0.0-7.0-0.58","648b962b8fdb1fa686213ac1","64e77d7b61f440b60e28659d","64ecad81b8f7e141b27cbb2d","null","null","<p style=""font-size: 60px; font-family: BACS"">OmtlDtRb</p>","","","","","","","","","",""
"html-keyboard-response","66","81318","0.0-7.0-0.59","648b962b8fdb1fa686213ac1","64e77d7b61f440b60e28659d","64ecad81b8f7e141b27cbb2d","null","null","<p style=""font-size: 60px; font-family: BACS"">uQkrdJUNa</p>","","","","","","","","","",""
"html-keyboard-response","67","82320","0.0-7.0-0.60","648b962b8fdb1fa686213ac1","64e77d7b61f440b60e28659d","64ecad81b8f7e141b27cbb2d","null","null","<p style=""font-size: 60px; font-family: BACS"">aNYmbLaA</p>","","","","","","","","","",""
"html-keyboard-response","68","83321","0.0-7.0-0.61","648b962b8fdb1fa686213ac1","64e77d7b61f440b60e28659d","64ecad81b8f7e141b27cbb2d","null","null","<p style=""font-size: 60px; font-family: BACS"">YKRkOBT</p>","","","","","","","","","",""
"html-keyboard-response","69","84335","0.0-7.0-0.62","648b962b8fdb1fa686213ac1","64e77d7b61f440b60e28659d","64ecad81b8f7e141b27cbb2d","null","null","<p style=""font-size: 60px; font-family: BACS"">PMPtkCkbd</p>","","","","","","","","","",""
"html-keyboard-response","70","85350","0.0-7.0-0.63","648b962b8fdb1fa686213ac1","64e77d7b61f440b60e28659d","64ecad81b8f7e141b27cbb2d","null","null","<p style=""font-size: 60px; font-family: BACS"">uQkrdYaOk</p>","","","","","","","","","",""
"html-keyboard-response","71","86354","0.0-7.0-0.64","648b962b8fdb1fa686213ac1","64e77d7b61f440b60e28659d","64ecad81b8f7e141b27cbb2d","null","null","<p style=""font-size: 60px; font-family: BACS"">dTmEDCkbd</p>","","","","","","","","","",""
"html-keyboard-response","72","87369","0.0-7.0-0.65","648b962b8fdb1fa686213ac1","64e77d7b61f440b60e28659d","64ecad81b8f7e141b27cbb2d","null","null","<p style=""font-size: 60px; font-family: BACS"">ubALmJUNa</p>","","","","","","","","","",""
"html-keyboard-response","73","88375","0.0-7.0-0.66","648b962b8fdb1fa686213ac1","64e77d7b61f440b60e28659d","64ecad81b8f7e141b27cbb2d","null","null","<p style=""font-size: 60px; font-family: BACS"">YKRktRb</p>","","","","","","","","","",""
"html-keyboard-response","74","89385","0.0-7.0-0.67","648b962b8fdb1fa686213ac1","64e77d7b61f440b60e28659d","64ecad81b8f7e141b27cbb2d","null","null","<p style=""font-size: 60px; font-family: BACS"">damYbrAJu</p>","","","","","","","","","",""
"html-keyboard-response","75","90387","0.0-7.0-0.68","648b962b8fdb1fa686213ac1","64e77d7b61f440b60e28659d","64ecad81b8f7e141b27cbb2d","null","null","<p style=""font-size: 60px; font-family: BACS"">ktBdRdCc</p>","","","","","","","","","",""
"html-keyboard-response","76","91402","0.0-7.0-0.69","648b962b8fdb1fa686213ac1","64e77d7b61f440b60e28659d","64ecad81b8f7e141b27cbb2d","null","null","<p style=""font-size: 60px; font-family: BACS"">aLNlkrZYd</p>","","","","","","","","","",""
"html-keyboard-response","77","92418","0.0-7.0-0.70","648b962b8fdb1fa686213ac1","64e77d7b61f440b60e28659d","64ecad81b8f7e141b27cbb2d","null","null","<p style=""font-size: 60px; font-family: BACS"">EPMDkOBT</p>","","","","","","","","","",""
"html-keyboard-response","78","93419","0.0-7.0-0.71","648b962b8fdb1fa686213ac1","64e77d7b61f440b60e28659d","64ecad81b8f7e141b27cbb2d","null","null","<p style=""font-size: 60px; font-family: BACS"">uQkrdLaA</p>","","","","","","","","","",""
"html-keyboard-response","79","94435","0.0-7.0-0.72","648b962b8fdb1fa686213ac1","64e77d7b61f440b60e28659d","64ecad81b8f7e141b27cbb2d","null","null","<p style=""font-size: 60px; font-family: BACS"">EPMDkMAB</p>","","","","","","","","","",""
"html-keyboard-response","80","95436","0.0-7.0-0.73","648b962b8fdb1fa686213ac1","64e77d7b61f440b60e28659d","64ecad81b8f7e141b27cbb2d","null","null","<p style=""font-size: 60px; font-family: BACS"">YOaAbYaOk</p>","","","","","","","","","",""
"html-keyboard-response","81","96452","0.0-7.0-0.74","648b962b8fdb1fa686213ac1","64e77d7b61f440b60e28659d","64ecad81b8f7e141b27cbb2d","null","null","<p style=""font-size: 60px; font-family: BACS"">GJGcZrZYd</p>","","","","","","","","","",""
"html-keyboard-response","82","97468","0.0-7.0-0.75","648b962b8fdb1fa686213ac1","64e77d7b61f440b60e28659d","64ecad81b8f7e141b27cbb2d","null","null","<p style=""font-size: 60px; font-family: BACS"">EPMDkCkbd</p>","","","","","","","","","",""
"html-keyboard-response","83","98469","0.0-7.0-0.76","648b962b8fdb1fa686213ac1","64e77d7b61f440b60e28659d","64ecad81b8f7e141b27cbb2d","null","null","<p style=""font-size: 60px; font-family: BACS"">uQkrdrZYd</p>","","","","","","","","","",""
"html-keyboard-response","84","99486","0.0-7.0-0.77","648b962b8fdb1fa686213ac1","64e77d7b61f440b60e28659d","64ecad81b8f7e141b27cbb2d","null","null","<p style=""font-size: 60px; font-family: BACS"">vJabLaA</p>","","","","","","","","","",""
"html-keyboard-response","85","100501","0.0-7.0-0.78","648b962b8fdb1fa686213ac1","64e77d7b61f440b60e28659d","64ecad81b8f7e141b27cbb2d","null","null","<p style=""font-size: 60px; font-family: BACS"">ubALmrZYd</p>","","","","","","","","","",""
"html-keyboard-response","86","101518","0.0-7.0-0.79","648b962b8fdb1fa686213ac1","64e77d7b61f440b60e28659d","64ecad81b8f7e141b27cbb2d","null","null","<p style=""font-size: 60px; font-family: BACS"">ktBdtRb</p>","","","","","","","","","",""
"html-keyboard-response","87","102749","0.0-8.0","648b962b8fdb1fa686213ac1","64e77d7b61f440b60e28659d","64ecad81b8f7e141b27cbb2d","1231"," ","<p>Great, you've seen the first block of words. You may now take a short break.</p>
      <p>Press the spacebar when you're ready to continue.</p>","","","","","","","","","",""
"html-keyboard-response","88","103753","0.0-9.0-0.0","648b962b8fdb1fa686213ac1","64e77d7b61f440b60e28659d","64ecad81b8f7e141b27cbb2d","null","null","<p style=""font-size: 60px; font-family: BACS"">GJGcZYaOk</p>","","","","","","","","","",""
"html-keyboard-response","89","104755","0.0-9.0-0.1","648b962b8fdb1fa686213ac1","64e77d7b61f440b60e28659d","64ecad81b8f7e141b27cbb2d","null","null","<p style=""font-size: 60px; font-family: BACS"">BECktRb</p>","","","","","","","","","",""
"html-keyboard-response","90","105769","0.0-9.0-0.2","648b962b8fdb1fa686213ac1","64e77d7b61f440b60e28659d","64ecad81b8f7e141b27cbb2d","null","null","<p style=""font-size: 60px; font-family: BACS"">LdrbvYaOk</p>","","","","","","","","","",""
"html-keyboard-response","91","106785","0.0-9.0-0.3","648b962b8fdb1fa686213ac1","64e77d7b61f440b60e28659d","64ecad81b8f7e141b27cbb2d","null","null","<p style=""font-size: 60px; font-family: BACS"">YKRkOBT</p>","","","","","","","","","",""
"html-keyboard-response","92","107801","0.0-9.0-0.4","648b962b8fdb1fa686213ac1","64e77d7b61f440b60e28659d","64ecad81b8f7e141b27cbb2d","null","null","<p style=""font-size: 60px; font-family: BACS"">BECkMAB</p>","","","","","","","","","",""
"html-keyboard-response","93","108802","0.0-9.0-0.5","648b962b8fdb1fa686213ac1","64e77d7b61f440b60e28659d","64ecad81b8f7e141b27cbb2d","null","null","<p style=""font-size: 60px; font-family: BACS"">GJGcZrAJu</p>","","","","","","","","","",""
"html-keyboard-response","94","109804","0.0-9.0-0.6","648b962b8fdb1fa686213ac1","64e77d7b61f440b60e28659d","64ecad81b8f7e141b27cbb2d","null","null","<p style=""font-size: 60px; font-family: BACS"">aLNlkLaA</p>","","","","","","","","","",""
"html-keyboard-response","95","110817","0.0-9.0-0.7","648b962b8fdb1fa686213ac1","64e77d7b61f440b60e28659d","64ecad81b8f7e141b27cbb2d","null","null","<p style=""font-size: 60px; font-family: BACS"">ubALmrAJu</p>","","","","","","","","","",""
"html-keyboard-response","96","111820","0.0-9.0-0.8","648b962b8fdb1fa686213ac1","64e77d7b61f440b60e28659d","64ecad81b8f7e141b27cbb2d","null","null","<p style=""font-size: 60px; font-family: BACS"">OmtlDtRb</p>","","","","","","","","","",""
"html-keyboard-response","97","112834","0.0-9.0-0.9","648b962b8fdb1fa686213ac1","64e77d7b61f440b60e28659d","64ecad81b8f7e141b27cbb2d","null","null","<p style=""font-size: 60px; font-family: BACS"">BlmclCkbd</p>","","","","","","","","","",""
"html-keyboard-response","98","113836","0.0-9.0-0.10","648b962b8fdb1fa686213ac1","64e77d7b61f440b60e28659d","64ecad81b8f7e141b27cbb2d","null","null","<p style=""font-size: 60px; font-family: BACS"">TDKhRdCc</p>","","","","","","","","","",""
"html-keyboard-response","99","114852","0.0-9.0-0.11","648b962b8fdb1fa686213ac1","64e77d7b61f440b60e28659d","64ecad81b8f7e141b27cbb2d","null","null","<p style=""font-size: 60px; font-family: BACS"">mUOcOJUNa</p>","","","","","","","","","",""
"html-keyboard-response","100","115853","0.0-9.0-0.12","648b962b8fdb1fa686213ac1","64e77d7b61f440b60e28659d","64ecad81b8f7e141b27cbb2d","null","null","<p style=""font-size: 60px; font-family: BACS"">dOYmlMAB</p>","","","","","","","","","",""
"html-keyboard-response","101","116867","0.0-9.0-0.13","648b962b8fdb1fa686213ac1","64e77d7b61f440b60e28659d","64ecad81b8f7e141b27cbb2d","null","null","<p style=""font-size: 60px; font-family: BACS"">BlmclOBT</p>","","","","","","","","","",""
"html-keyboard-response","102","117869","0.0-9.0-0.14","648b962b8fdb1fa686213ac1","64e77d7b61f440b60e28659d","64ecad81b8f7e141b27cbb2d","null","null","<p style=""font-size: 60px; font-family: BACS"">dOYmltRb</p>","","","","","","","","","",""
"html-keyboard-response","103","118885","0.0-9.0-0.15","648b962b8fdb1fa686213ac1","64e77d7b61f440b60e28659d","64ecad81b8f7e141b27cbb2d","null","null","<p style=""font-size: 60px; font-family: BACS"">damYbrAJu</p>","","","","","","","","","",""
"html-keyboard-response","104","119887","0.0-9.0-0.16","648b962b8fdb1fa686213ac1","64e77d7b61f440b60e28659d","64ecad81b8f7e141b27cbb2d","null","null","<p style=""font-size: 60px; font-family: BACS"">aNYmbLaA</p>","","","","","","","","","",""
"html-keyboard-response","105","120903","0.0-9.0-0.17","648b962b8fdb1fa686213ac1","64e77d7b61f440b60e28659d","64ecad81b8f7e141b27cbb2d","null","null","<p style=""font-size: 60px; font-family: BACS"">vJabrZYd</p>","","","","","","","","","",""
"html-keyboard-response","106","121917","0.0-9.0-0.18","648b962b8fdb1fa686213ac1","64e77d7b61f440b60e28659d","64ecad81b8f7e141b27cbb2d","null","null","<p style=""font-size: 60px; font-family: BACS"">damYbJUNa</p>","","","","","","","","","",""
"html-keyboard-response","107","122920","0.0-9.0-0.19","648b962b8fdb1fa686213ac1","64e77d7b61f440b60e28659d","64ecad81b8f7e141b27cbb2d","null","null","<p style=""font-size: 60px; font-family: BACS"">mUOcOrAJu</p>","","","","","","","","","",""
"html-keyboard-response","108","123935","0.0-9.0-0.20","648b962b8fdb1fa686213ac1","64e77d7b61f440b60e28659d","64ecad81b8f7e141b27cbb2d","null","null","<p style=""font-size: 60px; font-family: BACS"">damYbYaOk</p>","","","","","","","","","",""
"html-keyboard-response","109","124951","0.0-9.0-0.21","648b962b8fdb1fa686213ac1","64e77d7b61f440b60e28659d","64ecad81b8f7e141b27cbb2d","null","null","<p style=""font-size: 60px; font-family: BACS"">YOaAbrZYd</p>","","","","","","","","","",""
"html-keyboard-response","110","125953","0.0-9.0-0.22","648b962b8fdb1fa686213ac1","64e77d7b61f440b60e28659d","64ecad81b8f7e141b27cbb2d","null","null","<p style=""font-size: 60px; font-family: BACS"">dTmEDtRb</p>","","","","","","","","","",""
"html-keyboard-response","111","126969","0.0-9.0-0.23","648b962b8fdb1fa686213ac1","64e77d7b61f440b60e28659d","64ecad81b8f7e141b27cbb2d","null","null","<p style=""font-size: 60px; font-family: BACS"">PMPtkOBT</p>","","","","","","","","","",""
"html-keyboard-response","112","127970","0.0-9.0-0.24","648b962b8fdb1fa686213ac1","64e77d7b61f440b60e28659d","64ecad81b8f7e141b27cbb2d","null","null","<p style=""font-size: 60px; font-family: BACS"">TDKhtRb</p>","","","","","","","","","",""
"html-keyboard-response","113","128986","0.0-9.0-0.25","648b962b8fdb1fa686213ac1","64e77d7b61f440b60e28659d","64ecad81b8f7e141b27cbb2d","null","null","<p style=""font-size: 60px; font-family: BACS"">GJGcZrZYd</p>","","","","","","","","","",""
"html-keyboard-response","114","130002","0.0-9.0-0.26","648b962b8fdb1fa686213ac1","64e77d7b61f440b60e28659d","64ecad81b8f7e141b27cbb2d","null","null","<p style=""font-size: 60px; font-family: BACS"">ubALmJUNa</p>","","","","","","","","","",""
"html-keyboard-response","115","131017","0.0-9.0-0.27","648b962b8fdb1fa686213ac1","64e77d7b61f440b60e28659d","64ecad81b8f7e141b27cbb2d","null","null","<p style=""font-size: 60px; font-family: BACS"">OmtlDOBT</p>","","","","","","","","","",""
"html-keyboard-response","116","132018","0.0-9.0-0.28","648b962b8fdb1fa686213ac1","64e77d7b61f440b60e28659d","64ecad81b8f7e141b27cbb2d","null","null","<p style=""font-size: 60px; font-family: BACS"">dTmEDRdCc</p>","","","","","","","","","",""
"html-keyboard-response","117","133034","0.0-9.0-0.29","648b962b8fdb1fa686213ac1","64e77d7b61f440b60e28659d","64ecad81b8f7e141b27cbb2d","null","null","<p style=""font-size: 60px; font-family: BACS"">BlmclMAB</p>","","","","","","","","","",""
"html-keyboard-response","118","134036","0.0-9.0-0.30","648b962b8fdb1fa686213ac1","64e77d7b61f440b60e28659d","64ecad81b8f7e141b27cbb2d","null","null","<p style=""font-size: 60px; font-family: BACS"">vJabLaA</p>","","","","","","","","","",""
"html-keyboard-response","119","135050","0.0-9.0-0.31","648b962b8fdb1fa686213ac1","64e77d7b61f440b60e28659d","64ecad81b8f7e141b27cbb2d","null","null","<p style=""font-size: 60px; font-family: BACS"">uQkrdYaOk</p>","","","","","","","","","",""
"html-keyboard-response","120","136052","0.0-9.0-0.32","648b962b8fdb1fa686213ac1","64e77d7b61f440b60e28659d","64ecad81b8f7e141b27cbb2d","null","null","<p style=""font-size: 60px; font-family: BACS"">OmtlDMAB</p>","","","","","","","","","",""
"html-keyboard-response","121","137068","0.0-9.0-0.33","648b962b8fdb1fa686213ac1","64e77d7b61f440b60e28659d","64ecad81b8f7e141b27cbb2d","null","null","<p style=""font-size: 60px; font-family: BACS"">dTmEDCkbd</p>","","","","","","","","","",""
"html-keyboard-response","122","138085","0.0-9.0-0.34","648b962b8fdb1fa686213ac1","64e77d7b61f440b60e28659d","64ecad81b8f7e141b27cbb2d","null","null","<p style=""font-size: 60px; font-family: BACS"">aLNlkYaOk</p>","","","","","","","","","",""
"html-keyboard-response","123","139100","0.0-9.0-0.35","648b962b8fdb1fa686213ac1","64e77d7b61f440b60e28659d","64ecad81b8f7e141b27cbb2d","null","null","<p style=""font-size: 60px; font-family: BACS"">OmtlDCkbd</p>","","","","","","","","","",""
"html-keyboard-response","124","140102","0.0-9.0-0.36","648b962b8fdb1fa686213ac1","64e77d7b61f440b60e28659d","64ecad81b8f7e141b27cbb2d","null","null","<p style=""font-size: 60px; font-family: BACS"">LdrbvJUNa</p>","","","","","","","","","",""
"html-keyboard-response","125","141118","0.0-9.0-0.37","648b962b8fdb1fa686213ac1","64e77d7b61f440b60e28659d","64ecad81b8f7e141b27cbb2d","null","null","<p style=""font-size: 60px; font-family: BACS"">PMPtkRdCc</p>","","","","","","","","","",""
"html-keyboard-response","126","142134","0.0-9.0-0.38","648b962b8fdb1fa686213ac1","64e77d7b61f440b60e28659d","64ecad81b8f7e141b27cbb2d","null","null","<p style=""font-size: 60px; font-family: BACS"">BECkOBT</p>","","","","","","","","","",""
"html-keyboard-response","127","143136","0.0-9.0-0.39","648b962b8fdb1fa686213ac1","64e77d7b61f440b60e28659d","64ecad81b8f7e141b27cbb2d","null","null","<p style=""font-size: 60px; font-family: BACS"">YKRktRb</p>","","","","","","","","","",""
"html-keyboard-response","128","144152","0.0-9.0-0.40","648b962b8fdb1fa686213ac1","64e77d7b61f440b60e28659d","64ecad81b8f7e141b27cbb2d","null","null","<p style=""font-size: 60px; font-family: BACS"">TDKhCkbd</p>","","","","","","","","","",""
"html-keyboard-response","129","145153","0.0-9.0-0.41","648b962b8fdb1fa686213ac1","64e77d7b61f440b60e28659d","64ecad81b8f7e141b27cbb2d","null","null","<p style=""font-size: 60px; font-family: BACS"">ktBdRdCc</p>","","","","","","","","","",""
"html-keyboard-response","130","146167","0.0-9.0-0.42","648b962b8fdb1fa686213ac1","64e77d7b61f440b60e28659d","64ecad81b8f7e141b27cbb2d","null","null","<p style=""font-size: 60px; font-family: BACS"">EPMDkOBT</p>","","","","","","","","","",""
"html-keyboard-response","131","147169","0.0-9.0-0.43","648b962b8fdb1fa686213ac1","64e77d7b61f440b60e28659d","64ecad81b8f7e141b27cbb2d","null","null","<p style=""font-size: 60px; font-family: BACS"">GJGcZJUNa</p>","","","","","","","","","",""
"html-keyboard-response","132","148184","0.0-9.0-0.44","648b962b8fdb1fa686213ac1","64e77d7b61f440b60e28659d","64ecad81b8f7e141b27cbb2d","null","null","<p style=""font-size: 60px; font-family: BACS"">aLNlkrAJu</p>","","","","","","","","","",""
"html-keyboard-response","133","149185","0.0-9.0-0.45","648b962b8fdb1fa686213ac1","64e77d7b61f440b60e28659d","64ecad81b8f7e141b27cbb2d","null","null","<p style=""font-size: 60px; font-family: BACS"">LdrbvLaA</p>","","","","","","","","","",""
"html-keyboard-response","134","150200","0.0-9.0-0.46","648b962b8fdb1fa686213ac1","64e77d7b61f440b60e28659d","64ecad81b8f7e141b27cbb2d","null","null","<p style=""font-size: 60px; font-family: BACS"">ubALmrZYd</p>","","","","","","","","","",""
"html-keyboard-response","135","151203","0.0-9.0-0.47","648b962b8fdb1fa686213ac1","64e77d7b61f440b60e28659d","64ecad81b8f7e141b27cbb2d","null","null","<p style=""font-size: 60px; font-family: BACS"">EPMDkCkbd</p>","","","","","","","","","",""
"html-keyboard-response","136","152218","0.0-9.0-0.48","648b962b8fdb1fa686213ac1","64e77d7b61f440b60e28659d","64ecad81b8f7e141b27cbb2d","null","null","<p style=""font-size: 60px; font-family: BACS"">vJabJUNa</p>","","","","","","","","","",""
"html-keyboard-response","137","153233","0.0-9.0-0.49","648b962b8fdb1fa686213ac1","64e77d7b61f440b60e28659d","64ecad81b8f7e141b27cbb2d","null","null","<p style=""font-size: 60px; font-family: BACS"">TDKhMAB</p>","","","","","","","","","",""
"html-keyboard-response","138","154236","0.0-9.0-0.50","648b962b8fdb1fa686213ac1","64e77d7b61f440b60e28659d","64ecad81b8f7e141b27cbb2d","null","null","<p style=""font-size: 60px; font-family: BACS"">uQkrdJUNa</p>","","","","","","","","","",""
"html-keyboard-response","139","155251","0.0-9.0-0.51","648b962b8fdb1fa686213ac1","64e77d7b61f440b60e28659d","64ecad81b8f7e141b27cbb2d","null","null","<p style=""font-size: 60px; font-family: BACS"">dTmEDOBT</p>","","","","","","","","","",""
"html-keyboard-response","140","156252","0.0-9.0-0.52","648b962b8fdb1fa686213ac1","64e77d7b61f440b60e28659d","64ecad81b8f7e141b27cbb2d","null","null","<p style=""font-size: 60px; font-family: BACS"">EPMDkMAB</p>","","","","","","","","","",""
"html-keyboard-response","141","157266","0.0-9.0-0.53","648b962b8fdb1fa686213ac1","64e77d7b61f440b60e28659d","64ecad81b8f7e141b27cbb2d","null","null","<p style=""font-size: 60px; font-family: BACS"">ktBdCkbd</p>","","","","","","","","","",""
"html-keyboard-response","142","158269","0.0-9.0-0.54","648b962b8fdb1fa686213ac1","64e77d7b61f440b60e28659d","64ecad81b8f7e141b27cbb2d","null","null","<p style=""font-size: 60px; font-family: BACS"">uQkrdLaA</p>","","","","","","","","","",""
"html-keyboard-response","143","159284","0.0-9.0-0.55","648b962b8fdb1fa686213ac1","64e77d7b61f440b60e28659d","64ecad81b8f7e141b27cbb2d","null","null","<p style=""font-size: 60px; font-family: BACS"">aNYmbrZYd</p>","","","","","","","","","",""
"html-keyboard-response","144","160300","0.0-9.0-0.56","648b962b8fdb1fa686213ac1","64e77d7b61f440b60e28659d","64ecad81b8f7e141b27cbb2d","null","null","<p style=""font-size: 60px; font-family: BACS"">BlmcltRb</p>","","","","","","","","","",""
"html-keyboard-response","145","161302","0.0-9.0-0.57","648b962b8fdb1fa686213ac1","64e77d7b61f440b60e28659d","64ecad81b8f7e141b27cbb2d","null","null","<p style=""font-size: 60px; font-family: BACS"">EPMDkRdCc</p>","","","","","","","","","",""
"html-keyboard-response","146","162317","0.0-9.0-0.58","648b962b8fdb1fa686213ac1","64e77d7b61f440b60e28659d","64ecad81b8f7e141b27cbb2d","null","null","<p style=""font-size: 60px; font-family: BACS"">LdrbvrAJu</p>","","","","","","","","","",""
"html-keyboard-response","147","163319","0.0-9.0-0.59","648b962b8fdb1fa686213ac1","64e77d7b61f440b60e28659d","64ecad81b8f7e141b27cbb2d","null","null","<p style=""font-size: 60px; font-family: BACS"">aLNlkrZYd</p>","","","","","","","","","",""
"html-keyboard-response","148","164335","0.0-9.0-0.60","648b962b8fdb1fa686213ac1","64e77d7b61f440b60e28659d","64ecad81b8f7e141b27cbb2d","null","null","<p style=""font-size: 60px; font-family: BACS"">YOaAbYaOk</p>","","","","","","","","","",""
"html-keyboard-response","149","165337","0.0-9.0-0.61","648b962b8fdb1fa686213ac1","64e77d7b61f440b60e28659d","64ecad81b8f7e141b27cbb2d","null","null","<p style=""font-size: 60px; font-family: BACS"">mUOcOLaA</p>","","","","","","","","","",""
"html-keyboard-response","150","166352","0.0-9.0-0.62","648b962b8fdb1fa686213ac1","64e77d7b61f440b60e28659d","64ecad81b8f7e141b27cbb2d","null","null","<p style=""font-size: 60px; font-family: BACS"">dOYmlOBT</p>","","","","","","","","","",""
"html-keyboard-response","151","167367","0.0-9.0-0.63","648b962b8fdb1fa686213ac1","64e77d7b61f440b60e28659d","64ecad81b8f7e141b27cbb2d","null","null","<p style=""font-size: 60px; font-family: BACS"">aNYmbJUNa</p>","","","","","","","","","",""
"html-keyboard-response","152","168368","0.0-9.0-0.64","648b962b8fdb1fa686213ac1","64e77d7b61f440b60e28659d","64ecad81b8f7e141b27cbb2d","null","null","<p style=""font-size: 60px; font-family: BACS"">YKRkCkbd</p>","","","","","","","","","",""
"html-keyboard-response","153","169371","0.0-9.0-0.65","648b962b8fdb1fa686213ac1","64e77d7b61f440b60e28659d","64ecad81b8f7e141b27cbb2d","null","null","<p style=""font-size: 60px; font-family: BACS"">ubALmYaOk</p>","","","","","","","","","",""
"html-keyboard-response","154","170384","0.0-9.0-0.66","648b962b8fdb1fa686213ac1","64e77d7b61f440b60e28659d","64ecad81b8f7e141b27cbb2d","null","null","<p style=""font-size: 60px; font-family: BACS"">dOYmlRdCc</p>","","","","","","","","","",""
"html-keyboard-response","155","171386","0.0-9.0-0.67","648b962b8fdb1fa686213ac1","64e77d7b61f440b60e28659d","64ecad81b8f7e141b27cbb2d","null","null","<p style=""font-size: 60px; font-family: BACS"">damYbLaA</p>","","","","","","","","","",""
"html-keyboard-response","156","172402","0.0-9.0-0.68","648b962b8fdb1fa686213ac1","64e77d7b61f440b60e28659d","64ecad81b8f7e141b27cbb2d","null","null","<p style=""font-size: 60px; font-family: BACS"">ktBdMAB</p>","","","","","","","","","",""
"html-keyboard-response","157","173418","0.0-9.0-0.69","648b962b8fdb1fa686213ac1","64e77d7b61f440b60e28659d","64ecad81b8f7e141b27cbb2d","null","null","<p style=""font-size: 60px; font-family: BACS"">YOaAbrAJu</p>","","","","","","","","","",""
"html-keyboard-response","158","174434","0.0-9.0-0.70","648b962b8fdb1fa686213ac1","64e77d7b61f440b60e28659d","64ecad81b8f7e141b27cbb2d","null","null","<p style=""font-size: 60px; font-family: BACS"">YKRkRdCc</p>","","","","","","","","","",""
"html-keyboard-response","159","175436","0.0-9.0-0.71","648b962b8fdb1fa686213ac1","64e77d7b61f440b60e28659d","64ecad81b8f7e141b27cbb2d","null","null","<p style=""font-size: 60px; font-family: BACS"">uQkrdrZYd</p>","","","","","","","","","",""
"html-keyboard-response","160","176452","0.0-9.0-0.72","648b962b8fdb1fa686213ac1","64e77d7b61f440b60e28659d","64ecad81b8f7e141b27cbb2d","null","null","<p style=""font-size: 60px; font-family: BACS"">YOaAbLaA</p>","","","","","","","","","",""
"html-keyboard-response","161","177467","0.0-9.0-0.73","648b962b8fdb1fa686213ac1","64e77d7b61f440b60e28659d","64ecad81b8f7e141b27cbb2d","null","null","<p style=""font-size: 60px; font-family: BACS"">aNYmbrAJu</p>","","","","","","","","","",""
"html-keyboard-response","162","178469","0.0-9.0-0.74","648b962b8fdb1fa686213ac1","64e77d7b61f440b60e28659d","64ecad81b8f7e141b27cbb2d","null","null","<p style=""font-size: 60px; font-family: BACS"">PMPtkMAB</p>","","","","","","","","","",""
"html-keyboard-response","163","179484","0.0-9.0-0.75","648b962b8fdb1fa686213ac1","64e77d7b61f440b60e28659d","64ecad81b8f7e141b27cbb2d","null","null","<p style=""font-size: 60px; font-family: BACS"">ktBdtRb</p>","","","","","","","","","",""
"html-keyboard-response","164","180485","0.0-9.0-0.76","648b962b8fdb1fa686213ac1","64e77d7b61f440b60e28659d","64ecad81b8f7e141b27cbb2d","null","null","<p style=""font-size: 60px; font-family: BACS"">PMPtkCkbd</p>","","","","","","","","","",""
"html-keyboard-response","165","181486","0.0-9.0-0.77","648b962b8fdb1fa686213ac1","64e77d7b61f440b60e28659d","64ecad81b8f7e141b27cbb2d","null","null","<p style=""font-size: 60px; font-family: BACS"">BECkRdCc</p>","","","","","","","","","",""
"html-keyboard-response","166","182500","0.0-9.0-0.78","648b962b8fdb1fa686213ac1","64e77d7b61f440b60e28659d","64ecad81b8f7e141b27cbb2d","null","null","<p style=""font-size: 60px; font-family: BACS"">mUOcOrZYd</p>","","","","","","","","","",""
"html-keyboard-response","167","183502","0.0-9.0-0.79","648b962b8fdb1fa686213ac1","64e77d7b61f440b60e28659d","64ecad81b8f7e141b27cbb2d","null","null","<p style=""font-size: 60px; font-family: BACS"">vJabYaOk</p>","","","","","","","","","",""
"html-keyboard-response","168","185877","0.0-10.0","648b962b8fdb1fa686213ac1","64e77d7b61f440b60e28659d","64ecad81b8f7e141b27cbb2d","2375"," ","<p>Great, you've seen the second block of words. You may now take a short break.</p>
      <p>Press the spacebar when you're ready to continue.</p>","","","","","","","","","",""
"html-keyboard-response","169","186884","0.0-11.0-0.0","648b962b8fdb1fa686213ac1","64e77d7b61f440b60e28659d","64ecad81b8f7e141b27cbb2d","null","null","<p style=""font-size: 60px; font-family: BACS"">GJGcZrAJu</p>","","","","","","","","","",""
"html-keyboard-response","170","187886","0.0-11.0-0.1","648b962b8fdb1fa686213ac1","64e77d7b61f440b60e28659d","64ecad81b8f7e141b27cbb2d","null","null","<p style=""font-size: 60px; font-family: BACS"">EPMDkRdCc</p>","","","","","","","","","",""
"html-keyboard-response","171","188901","0.0-11.0-0.2","648b962b8fdb1fa686213ac1","64e77d7b61f440b60e28659d","64ecad81b8f7e141b27cbb2d","null","null","<p style=""font-size: 60px; font-family: BACS"">uQkrdYaOk</p>","","","","","","","","","",""
"html-keyboard-response","172","189903","0.0-11.0-0.3","648b962b8fdb1fa686213ac1","64e77d7b61f440b60e28659d","64ecad81b8f7e141b27cbb2d","null","null","<p style=""font-size: 60px; font-family: BACS"">ktBdtRb</p>","","","","","","","","","",""
"html-keyboard-response","173","190919","0.0-11.0-0.4","648b962b8fdb1fa686213ac1","64e77d7b61f440b60e28659d","64ecad81b8f7e141b27cbb2d","null","null","<p style=""font-size: 60px; font-family: BACS"">YKRkOBT</p>","","","","","","","","","",""
"html-keyboard-response","174","191934","0.0-11.0-0.5","648b962b8fdb1fa686213ac1","64e77d7b61f440b60e28659d","64ecad81b8f7e141b27cbb2d","null","null","<p style=""font-size: 60px; font-family: BACS"">EPMDkMAB</p>","","","","","","","","","",""
"html-keyboard-response","175","192936","0.0-11.0-0.6","648b962b8fdb1fa686213ac1","64e77d7b61f440b60e28659d","64ecad81b8f7e141b27cbb2d","null","null","<p style=""font-size: 60px; font-family: BACS"">OmtlDtRb</p>","","","","","","","","","",""
"html-keyboard-response","176","193937","0.0-11.0-0.7","648b962b8fdb1fa686213ac1","64e77d7b61f440b60e28659d","64ecad81b8f7e141b27cbb2d","null","null","<p style=""font-size: 60px; font-family: BACS"">aNYmbJUNa</p>","","","","","","","","","",""
"html-keyboard-response","177","194938","0.0-11.0-0.8","648b962b8fdb1fa686213ac1","64e77d7b61f440b60e28659d","64ecad81b8f7e141b27cbb2d","null","null","<p style=""font-size: 60px; font-family: BACS"">ubALmrZYd</p>","","","","","","","","","",""
"html-keyboard-response","178","196411","0.0-11.0-0.9","648b962b8fdb1fa686213ac1","64e77d7b61f440b60e28659d","64ecad81b8f7e141b27cbb2d","null","null","<p style=""font-size: 60px; font-family: BACS"">dOYmlMAB</p>","","","","","","","","","",""
"html-keyboard-response","179","197427","0.0-11.0-0.10","648b962b8fdb1fa686213ac1","64e77d7b61f440b60e28659d","64ecad81b8f7e141b27cbb2d","null","null","<p style=""font-size: 60px; font-family: BACS"">LdrbvJUNa</p>","","","","","","","","","",""
"html-keyboard-response","180","198429","0.0-11.0-0.11","648b962b8fdb1fa686213ac1","64e77d7b61f440b60e28659d","64ecad81b8f7e141b27cbb2d","null","null","<p style=""font-size: 60px; font-family: BACS"">BECkRdCc</p>","","","","","","","","","",""
"html-keyboard-response","181","199441","0.0-11.0-0.12","648b962b8fdb1fa686213ac1","64e77d7b61f440b60e28659d","64ecad81b8f7e141b27cbb2d","null","null","<p style=""font-size: 60px; font-family: BACS"">TDKhMAB</p>","","","","","","","","","",""
"html-keyboard-response","182","200442","0.0-11.0-0.13","648b962b8fdb1fa686213ac1","64e77d7b61f440b60e28659d","64ecad81b8f7e141b27cbb2d","null","null","<p style=""font-size: 60px; font-family: BACS"">LdrbvLaA</p>","","","","","","","","","",""
"html-keyboard-response","183","201451","0.0-11.0-0.14","648b962b8fdb1fa686213ac1","64e77d7b61f440b60e28659d","64ecad81b8f7e141b27cbb2d","null","null","<p style=""font-size: 60px; font-family: BACS"">PMPtkMAB</p>","","","","","","","","","",""
"html-keyboard-response","184","202452","0.0-11.0-0.15","648b962b8fdb1fa686213ac1","64e77d7b61f440b60e28659d","64ecad81b8f7e141b27cbb2d","null","null","<p style=""font-size: 60px; font-family: BACS"">ktBdRdCc</p>","","","","","","","","","",""
"html-keyboard-response","185","203467","0.0-11.0-0.16","648b962b8fdb1fa686213ac1","64e77d7b61f440b60e28659d","64ecad81b8f7e141b27cbb2d","null","null","<p style=""font-size: 60px; font-family: BACS"">dTmEDOBT</p>","","","","","","","","","",""
"html-keyboard-response","186","204475","0.0-11.0-0.17","648b962b8fdb1fa686213ac1","64e77d7b61f440b60e28659d","64ecad81b8f7e141b27cbb2d","null","null","<p style=""font-size: 60px; font-family: BACS"">aLNlkLaA</p>","","","","","","","","","",""
"html-keyboard-response","187","205484","0.0-11.0-0.18","648b962b8fdb1fa686213ac1","64e77d7b61f440b60e28659d","64ecad81b8f7e141b27cbb2d","null","null","<p style=""font-size: 60px; font-family: BACS"">BlmclCkbd</p>","","","","","","","","","",""
"html-keyboard-response","188","206497","0.0-11.0-0.19","648b962b8fdb1fa686213ac1","64e77d7b61f440b60e28659d","64ecad81b8f7e141b27cbb2d","null","null","<p style=""font-size: 60px; font-family: BACS"">uQkrdLaA</p>","","","","","","","","","",""
"html-keyboard-response","189","207502","0.0-11.0-0.20","648b962b8fdb1fa686213ac1","64e77d7b61f440b60e28659d","64ecad81b8f7e141b27cbb2d","null","null","<p style=""font-size: 60px; font-family: BACS"">EPMDkCkbd</p>","","","","","","","","","",""
"html-keyboard-response","190","208505","0.0-11.0-0.21","648b962b8fdb1fa686213ac1","64e77d7b61f440b60e28659d","64ecad81b8f7e141b27cbb2d","null","null","<p style=""font-size: 60px; font-family: BACS"">ubALmYaOk</p>","","","","","","","","","",""
"html-keyboard-response","191","209518","0.0-11.0-0.22","648b962b8fdb1fa686213ac1","64e77d7b61f440b60e28659d","64ecad81b8f7e141b27cbb2d","null","null","<p style=""font-size: 60px; font-family: BACS"">ktBdCkbd</p>","","","","","","","","","",""
"html-keyboard-response","192","210534","0.0-11.0-0.23","648b962b8fdb1fa686213ac1","64e77d7b61f440b60e28659d","64ecad81b8f7e141b27cbb2d","null","null","<p style=""font-size: 60px; font-family: BACS"">BECkOBT</p>","","","","","","","","","",""
"html-keyboard-response","193","211536","0.0-11.0-0.24","648b962b8fdb1fa686213ac1","64e77d7b61f440b60e28659d","64ecad81b8f7e141b27cbb2d","null","null","<p style=""font-size: 60px; font-family: BACS"">PMPtkCkbd</p>","","","","","","","","","",""
"html-keyboard-response","194","212552","0.0-11.0-0.25","648b962b8fdb1fa686213ac1","64e77d7b61f440b60e28659d","64ecad81b8f7e141b27cbb2d","null","null","<p style=""font-size: 60px; font-family: BACS"">GJGcZJUNa</p>","","","","","","","","","",""
"html-keyboard-response","195","213567","0.0-11.0-0.26","648b962b8fdb1fa686213ac1","64e77d7b61f440b60e28659d","64ecad81b8f7e141b27cbb2d","null","null","<p style=""font-size: 60px; font-family: BACS"">aLNlkYaOk</p>","","","","","","","","","",""
"html-keyboard-response","196","214569","0.0-11.0-0.27","648b962b8fdb1fa686213ac1","64e77d7b61f440b60e28659d","64ecad81b8f7e141b27cbb2d","null","null","<p style=""font-size: 60px; font-family: BACS"">dTmEDCkbd</p>","","","","","","","","","",""
"html-keyboard-response","197","215584","0.0-11.0-0.28","648b962b8fdb1fa686213ac1","64e77d7b61f440b60e28659d","64ecad81b8f7e141b27cbb2d","null","null","<p style=""font-size: 60px; font-family: BACS"">TDKhtRb</p>","","","","","","","","","",""
"html-keyboard-response","198","216599","0.0-11.0-0.29","648b962b8fdb1fa686213ac1","64e77d7b61f440b60e28659d","64ecad81b8f7e141b27cbb2d","null","null","<p style=""font-size: 60px; font-family: BACS"">YOaAbrAJu</p>","","","","","","","","","",""
"html-keyboard-response","199","217601","0.0-11.0-0.30","648b962b8fdb1fa686213ac1","64e77d7b61f440b60e28659d","64ecad81b8f7e141b27cbb2d","null","null","<p style=""font-size: 60px; font-family: BACS"">YKRktRb</p>","","","","","","","","","",""
"html-keyboard-response","200","218616","0.0-11.0-0.31","648b962b8fdb1fa686213ac1","64e77d7b61f440b60e28659d","64ecad81b8f7e141b27cbb2d","null","null","<p style=""font-size: 60px; font-family: BACS"">damYbLaA</p>","","","","","","","","","",""
"html-keyboard-response","201","219618","0.0-11.0-0.32","648b962b8fdb1fa686213ac1","64e77d7b61f440b60e28659d","64ecad81b8f7e141b27cbb2d","null","null","<p style=""font-size: 60px; font-family: BACS"">dOYmltRb</p>","","","","","","","","","",""
"html-keyboard-response","202","220633","0.0-11.0-0.33","648b962b8fdb1fa686213ac1","64e77d7b61f440b60e28659d","64ecad81b8f7e141b27cbb2d","null","null","<p style=""font-size: 60px; font-family: BACS"">uQkrdJUNa</p>","","","","","","","","","",""
"html-keyboard-response","203","221635","0.0-11.0-0.34","648b962b8fdb1fa686213ac1","64e77d7b61f440b60e28659d","64ecad81b8f7e141b27cbb2d","null","null","<p style=""font-size: 60px; font-family: BACS"">LdrbvrAJu</p>","","","","","","","","","",""
"html-keyboard-response","204","222651","0.0-11.0-0.35","648b962b8fdb1fa686213ac1","64e77d7b61f440b60e28659d","64ecad81b8f7e141b27cbb2d","null","null","<p style=""font-size: 60px; font-family: BACS"">YOaAbYaOk</p>","","","","","","","","","",""
"html-keyboard-response","205","223667","0.0-11.0-0.36","648b962b8fdb1fa686213ac1","64e77d7b61f440b60e28659d","64ecad81b8f7e141b27cbb2d","null","null","<p style=""font-size: 60px; font-family: BACS"">EPMDkOBT</p>","","","","","","","","","",""
"html-keyboard-response","206","224669","0.0-11.0-0.37","648b962b8fdb1fa686213ac1","64e77d7b61f440b60e28659d","64ecad81b8f7e141b27cbb2d","null","null","<p style=""font-size: 60px; font-family: BACS"">PMPtkRdCc</p>","","","","","","","","","",""
"html-keyboard-response","207","225683","0.0-11.0-0.38","648b962b8fdb1fa686213ac1","64e77d7b61f440b60e28659d","64ecad81b8f7e141b27cbb2d","null","null","<p style=""font-size: 60px; font-family: BACS"">aLNlkrZYd</p>","","","","","","","","","",""
"html-keyboard-response","208","226685","0.0-11.0-0.39","648b962b8fdb1fa686213ac1","64e77d7b61f440b60e28659d","64ecad81b8f7e141b27cbb2d","null","null","<p style=""font-size: 60px; font-family: BACS"">GJGcZYaOk</p>","","","","","","","","","",""
"html-keyboard-response","209","227700","0.0-11.0-0.40","648b962b8fdb1fa686213ac1","64e77d7b61f440b60e28659d","64ecad81b8f7e141b27cbb2d","null","null","<p style=""font-size: 60px; font-family: BACS"">BlmcltRb</p>","","","","","","","","","",""
"html-keyboard-response","210","228702","0.0-11.0-0.41","648b962b8fdb1fa686213ac1","64e77d7b61f440b60e28659d","64ecad81b8f7e141b27cbb2d","null","null","<p style=""font-size: 60px; font-family: BACS"">OmtlDMAB</p>","","","","","","","","","",""
"html-keyboard-response","211","229716","0.0-11.0-0.42","648b962b8fdb1fa686213ac1","64e77d7b61f440b60e28659d","64ecad81b8f7e141b27cbb2d","null","null","<p style=""font-size: 60px; font-family: BACS"">LdrbvYaOk</p>","","","","","","","","","",""
"html-keyboard-response","212","230733","0.0-11.0-0.43","648b962b8fdb1fa686213ac1","64e77d7b61f440b60e28659d","64ecad81b8f7e141b27cbb2d","null","null","<p style=""font-size: 60px; font-family: BACS"">damYbrAJu</p>","","","","","","","","","",""
"html-keyboard-response","213","231735","0.0-11.0-0.44","648b962b8fdb1fa686213ac1","64e77d7b61f440b60e28659d","64ecad81b8f7e141b27cbb2d","null","null","<p style=""font-size: 60px; font-family: BACS"">BECkMAB</p>","","","","","","","","","",""
"html-keyboard-response","214","232736","0.0-11.0-0.45","648b962b8fdb1fa686213ac1","64e77d7b61f440b60e28659d","64ecad81b8f7e141b27cbb2d","null","null","<p style=""font-size: 60px; font-family: BACS"">BlmclOBT</p>","","","","","","","","","",""
"html-keyboard-response","215","233751","0.0-11.0-0.46","648b962b8fdb1fa686213ac1","64e77d7b61f440b60e28659d","64ecad81b8f7e141b27cbb2d","null","null","<p style=""font-size: 60px; font-family: BACS"">YOaAbrZYd</p>","","","","","","","","","",""
"html-keyboard-response","216","234752","0.0-11.0-0.47","648b962b8fdb1fa686213ac1","64e77d7b61f440b60e28659d","64ecad81b8f7e141b27cbb2d","null","null","<p style=""font-size: 60px; font-family: BACS"">aNYmbLaA</p>","","","","","","","","","",""
"html-keyboard-response","217","235768","0.0-11.0-0.48","648b962b8fdb1fa686213ac1","64e77d7b61f440b60e28659d","64ecad81b8f7e141b27cbb2d","null","null","<p style=""font-size: 60px; font-family: BACS"">dTmEDtRb</p>","","","","","","","","","",""
"html-keyboard-response","218","236784","0.0-11.0-0.49","648b962b8fdb1fa686213ac1","64e77d7b61f440b60e28659d","64ecad81b8f7e141b27cbb2d","null","null","<p style=""font-size: 60px; font-family: BACS"">vJabJUNa</p>","","","","","","","","","",""
"html-keyboard-response","219","237800","0.0-11.0-0.50","648b962b8fdb1fa686213ac1","64e77d7b61f440b60e28659d","64ecad81b8f7e141b27cbb2d","null","null","<p style=""font-size: 60px; font-family: BACS"">mUOcOLaA</p>","","","","","","","","","",""
"html-keyboard-response","220","238801","0.0-11.0-0.51","648b962b8fdb1fa686213ac1","64e77d7b61f440b60e28659d","64ecad81b8f7e141b27cbb2d","null","null","<p style=""font-size: 60px; font-family: BACS"">YKRkCkbd</p>","","","","","","","","","",""
"html-keyboard-response","221","239803","0.0-11.0-0.52","648b962b8fdb1fa686213ac1","64e77d7b61f440b60e28659d","64ecad81b8f7e141b27cbb2d","null","null","<p style=""font-size: 60px; font-family: BACS"">uQkrdrZYd</p>","","","","","","","","","",""
"html-keyboard-response","222","240817","0.0-11.0-0.53","648b962b8fdb1fa686213ac1","64e77d7b61f440b60e28659d","64ecad81b8f7e141b27cbb2d","null","null","<p style=""font-size: 60px; font-family: BACS"">damYbYaOk</p>","","","","","","","","","",""
"html-keyboard-response","223","241819","0.0-11.0-0.54","648b962b8fdb1fa686213ac1","64e77d7b61f440b60e28659d","64ecad81b8f7e141b27cbb2d","null","null","<p style=""font-size: 60px; font-family: BACS"">GJGcZrZYd</p>","","","","","","","","","",""
"html-keyboard-response","224","242833","0.0-11.0-0.55","648b962b8fdb1fa686213ac1","64e77d7b61f440b60e28659d","64ecad81b8f7e141b27cbb2d","null","null","<p style=""font-size: 60px; font-family: BACS"">aNYmbrAJu</p>","","","","","","","","","",""
"html-keyboard-response","225","243835","0.0-11.0-0.56","648b962b8fdb1fa686213ac1","64e77d7b61f440b60e28659d","64ecad81b8f7e141b27cbb2d","null","null","<p style=""font-size: 60px; font-family: BACS"">ubALmJUNa</p>","","","","","","","","","",""
"html-keyboard-response","226","244850","0.0-11.0-0.57","648b962b8fdb1fa686213ac1","64e77d7b61f440b60e28659d","64ecad81b8f7e141b27cbb2d","null","null","<p style=""font-size: 60px; font-family: BACS"">OmtlDOBT</p>","","","","","","","","","",""
"html-keyboard-response","227","245852","0.0-11.0-0.58","648b962b8fdb1fa686213ac1","64e77d7b61f440b60e28659d","64ecad81b8f7e141b27cbb2d","null","null","<p style=""font-size: 60px; font-family: BACS"">BECktRb</p>","","","","","","","","","",""
"html-keyboard-response","228","246867","0.0-11.0-0.59","648b962b8fdb1fa686213ac1","64e77d7b61f440b60e28659d","64ecad81b8f7e141b27cbb2d","null","null","<p style=""font-size: 60px; font-family: BACS"">aLNlkrAJu</p>","","","","","","","","","",""
"html-keyboard-response","229","247869","0.0-11.0-0.60","648b962b8fdb1fa686213ac1","64e77d7b61f440b60e28659d","64ecad81b8f7e141b27cbb2d","null","null","<p style=""font-size: 60px; font-family: BACS"">vJabrZYd</p>","","","","","","","","","",""
"html-keyboard-response","230","248883","0.0-11.0-0.61","648b962b8fdb1fa686213ac1","64e77d7b61f440b60e28659d","64ecad81b8f7e141b27cbb2d","null","null","<p style=""font-size: 60px; font-family: BACS"">mUOcOJUNa</p>","","","","","","","","","",""
"html-keyboard-response","231","249886","0.0-11.0-0.62","648b962b8fdb1fa686213ac1","64e77d7b61f440b60e28659d","64ecad81b8f7e141b27cbb2d","null","null","<p style=""font-size: 60px; font-family: BACS"">TDKhRdCc</p>","","","","","","","","","",""
"html-keyboard-response","232","250901","0.0-11.0-0.63","648b962b8fdb1fa686213ac1","64e77d7b61f440b60e28659d","64ecad81b8f7e141b27cbb2d","null","null","<p style=""font-size: 60px; font-family: BACS"">BlmclMAB</p>","","","","","","","","","",""
"html-keyboard-response","233","251917","0.0-11.0-0.64","648b962b8fdb1fa686213ac1","64e77d7b61f440b60e28659d","64ecad81b8f7e141b27cbb2d","null","null","<p style=""font-size: 60px; font-family: BACS"">YKRkRdCc</p>","","","","","","","","","",""
"html-keyboard-response","234","252917","0.0-11.0-0.65","648b962b8fdb1fa686213ac1","64e77d7b61f440b60e28659d","64ecad81b8f7e141b27cbb2d","null","null","<p style=""font-size: 60px; font-family: BACS"">PMPtkOBT</p>","","","","","","","","","",""
"html-keyboard-response","235","253934","0.0-11.0-0.66","648b962b8fdb1fa686213ac1","64e77d7b61f440b60e28659d","64ecad81b8f7e141b27cbb2d","null","null","<p style=""font-size: 60px; font-family: BACS"">vJabYaOk</p>","","","","","","","","","",""
"html-keyboard-response","236","254950","0.0-11.0-0.67","648b962b8fdb1fa686213ac1","64e77d7b61f440b60e28659d","64ecad81b8f7e141b27cbb2d","null","null","<p style=""font-size: 60px; font-family: BACS"">mUOcOrAJu</p>","","","","","","","","","",""
"html-keyboard-response","237","255952","0.0-11.0-0.68","648b962b8fdb1fa686213ac1","64e77d7b61f440b60e28659d","64ecad81b8f7e141b27cbb2d","null","null","<p style=""font-size: 60px; font-family: BACS"">dTmEDRdCc</p>","","","","","","","","","",""
"html-keyboard-response","238","256967","0.0-11.0-0.69","648b962b8fdb1fa686213ac1","64e77d7b61f440b60e28659d","64ecad81b8f7e141b27cbb2d","null","null","<p style=""font-size: 60px; font-family: BACS"">dOYmlOBT</p>","","","","","","","","","",""
"html-keyboard-response","239","257983","0.0-11.0-0.70","648b962b8fdb1fa686213ac1","64e77d7b61f440b60e28659d","64ecad81b8f7e141b27cbb2d","null","null","<p style=""font-size: 60px; font-family: BACS"">YOaAbLaA</p>","","","","","","","","","",""
"html-keyboard-response","240","258999","0.0-11.0-0.71","648b962b8fdb1fa686213ac1","64e77d7b61f440b60e28659d","64ecad81b8f7e141b27cbb2d","null","null","<p style=""font-size: 60px; font-family: BACS"">ubALmrAJu</p>","","","","","","","","","",""
"html-keyboard-response","241","260016","0.0-11.0-0.72","648b962b8fdb1fa686213ac1","64e77d7b61f440b60e28659d","64ecad81b8f7e141b27cbb2d","null","null","<p style=""font-size: 60px; font-family: BACS"">ktBdMAB</p>","","","","","","","","","",""
"html-keyboard-response","242","261018","0.0-11.0-0.73","648b962b8fdb1fa686213ac1","64e77d7b61f440b60e28659d","64ecad81b8f7e141b27cbb2d","null","null","<p style=""font-size: 60px; font-family: BACS"">mUOcOrZYd</p>","","","","","","","","","",""
"html-keyboard-response","243","262033","0.0-11.0-0.74","648b962b8fdb1fa686213ac1","64e77d7b61f440b60e28659d","64ecad81b8f7e141b27cbb2d","null","null","<p style=""font-size: 60px; font-family: BACS"">dOYmlRdCc</p>","","","","","","","","","",""
"html-keyboard-response","244","263035","0.0-11.0-0.75","648b962b8fdb1fa686213ac1","64e77d7b61f440b60e28659d","64ecad81b8f7e141b27cbb2d","null","null","<p style=""font-size: 60px; font-family: BACS"">vJabLaA</p>","","","","","","","","","",""
"html-keyboard-response","245","264050","0.0-11.0-0.76","648b962b8fdb1fa686213ac1","64e77d7b61f440b60e28659d","64ecad81b8f7e141b27cbb2d","null","null","<p style=""font-size: 60px; font-family: BACS"">aNYmbrZYd</p>","","","","","","","","","",""
"html-keyboard-response","246","265052","0.0-11.0-0.77","648b962b8fdb1fa686213ac1","64e77d7b61f440b60e28659d","64ecad81b8f7e141b27cbb2d","null","null","<p style=""font-size: 60px; font-family: BACS"">TDKhCkbd</p>","","","","","","","","","",""
"html-keyboard-response","247","266066","0.0-11.0-0.78","648b962b8fdb1fa686213ac1","64e77d7b61f440b60e28659d","64ecad81b8f7e141b27cbb2d","null","null","<p style=""font-size: 60px; font-family: BACS"">damYbJUNa</p>","","","","","","","","","",""
"html-keyboard-response","248","267068","0.0-11.0-0.79","648b962b8fdb1fa686213ac1","64e77d7b61f440b60e28659d","64ecad81b8f7e141b27cbb2d","null","null","<p style=""font-size: 60px; font-family: BACS"">OmtlDCkbd</p>","","","","","","","","","",""
"html-keyboard-response","249","268308","0.0-12.0","648b962b8fdb1fa686213ac1","64e77d7b61f440b60e28659d","64ecad81b8f7e141b27cbb2d","1240"," ","<p>Great, you've seen the third block of words. You may now take a short break.</p>
      <p>Press the spacebar when you're ready to continue.</p>","","","","","","","","","",""
"html-keyboard-response","250","269318","0.0-13.0-0.0","648b962b8fdb1fa686213ac1","64e77d7b61f440b60e28659d","64ecad81b8f7e141b27cbb2d","null","null","<p style=""font-size: 60px; font-family: BACS"">mUOcOrZYd</p>","","","","","","","","","",""
"html-keyboard-response","251","270332","0.0-13.0-0.1","648b962b8fdb1fa686213ac1","64e77d7b61f440b60e28659d","64ecad81b8f7e141b27cbb2d","null","null","<p style=""font-size: 60px; font-family: BACS"">dOYmlMAB</p>","","","","","","","","","",""
"html-keyboard-response","252","271333","0.0-13.0-0.2","648b962b8fdb1fa686213ac1","64e77d7b61f440b60e28659d","64ecad81b8f7e141b27cbb2d","null","null","<p style=""font-size: 60px; font-family: BACS"">LdrbvYaOk</p>","","","","","","","","","",""
"html-keyboard-response","253","272335","0.0-13.0-0.3","648b962b8fdb1fa686213ac1","64e77d7b61f440b60e28659d","64ecad81b8f7e141b27cbb2d","null","null","<p style=""font-size: 60px; font-family: BACS"">aNYmbrAJu</p>","","","","","","","","","",""
"html-keyboard-response","254","273349","0.0-13.0-0.4","648b962b8fdb1fa686213ac1","64e77d7b61f440b60e28659d","64ecad81b8f7e141b27cbb2d","null","null","<p style=""font-size: 60px; font-family: BACS"">vJabYaOk</p>","","","","","","","","","",""
"html-keyboard-response","255","274351","0.0-13.0-0.5","648b962b8fdb1fa686213ac1","64e77d7b61f440b60e28659d","64ecad81b8f7e141b27cbb2d","null","null","<p style=""font-size: 60px; font-family: BACS"">TDKhtRb</p>","","","","","","","","","",""
"html-keyboard-response","256","275367","0.0-13.0-0.6","648b962b8fdb1fa686213ac1","64e77d7b61f440b60e28659d","64ecad81b8f7e141b27cbb2d","null","null","<p style=""font-size: 60px; font-family: BACS"">ktBdCkbd</p>","","","","","","","","","",""
"html-keyboard-response","257","276384","0.0-13.0-0.7","648b962b8fdb1fa686213ac1","64e77d7b61f440b60e28659d","64ecad81b8f7e141b27cbb2d","null","null","<p style=""font-size: 60px; font-family: BACS"">mUOcOLaA</p>","","","","","","","","","",""
"html-keyboard-response","258","277400","0.0-13.0-0.8","648b962b8fdb1fa686213ac1","64e77d7b61f440b60e28659d","64ecad81b8f7e141b27cbb2d","null","null","<p style=""font-size: 60px; font-family: BACS"">ubALmYaOk</p>","","","","","","","","","",""
"html-keyboard-response","259","278417","0.0-13.0-0.9","648b962b8fdb1fa686213ac1","64e77d7b61f440b60e28659d","64ecad81b8f7e141b27cbb2d","null","null","<p style=""font-size: 60px; font-family: BACS"">YOaAbrAJu</p>","","","","","","","","","",""
"html-keyboard-response","260","279418","0.0-13.0-0.10","648b962b8fdb1fa686213ac1","64e77d7b61f440b60e28659d","64ecad81b8f7e141b27cbb2d","null","null","<p style=""font-size: 60px; font-family: BACS"">BlmcltRb</p>","","","","","","","","","",""
"html-keyboard-response","261","280433","0.0-13.0-0.11","648b962b8fdb1fa686213ac1","64e77d7b61f440b60e28659d","64ecad81b8f7e141b27cbb2d","null","null","<p style=""font-size: 60px; font-family: BACS"">BECkOBT</p>","","","","","","","","","",""
"html-keyboard-response","262","281435","0.0-13.0-0.12","648b962b8fdb1fa686213ac1","64e77d7b61f440b60e28659d","64ecad81b8f7e141b27cbb2d","null","null","<p style=""font-size: 60px; font-family: BACS"">PMPtkRdCc</p>","","","","","","","","","",""
"html-keyboard-response","263","282450","0.0-13.0-0.13","648b962b8fdb1fa686213ac1","64e77d7b61f440b60e28659d","64ecad81b8f7e141b27cbb2d","null","null","<p style=""font-size: 60px; font-family: BACS"">aLNlkYaOk</p>","","","","","","","","","",""
"html-keyboard-response","264","283451","0.0-13.0-0.14","648b962b8fdb1fa686213ac1","64e77d7b61f440b60e28659d","64ecad81b8f7e141b27cbb2d","null","null","<p style=""font-size: 60px; font-family: BACS"">LdrbvJUNa</p>","","","","","","","","","",""
"html-keyboard-response","265","284452","0.0-13.0-0.15","648b962b8fdb1fa686213ac1","64e77d7b61f440b60e28659d","64ecad81b8f7e141b27cbb2d","null","null","<p style=""font-size: 60px; font-family: BACS"">dTmEDtRb</p>","","","","","","","","","",""
"html-keyboard-response","266","285467","0.0-13.0-0.16","648b962b8fdb1fa686213ac1","64e77d7b61f440b60e28659d","64ecad81b8f7e141b27cbb2d","null","null","<p style=""font-size: 60px; font-family: BACS"">uQkrdrZYd</p>","","","","","","","","","",""
"html-keyboard-response","267","286468","0.0-13.0-0.17","648b962b8fdb1fa686213ac1","64e77d7b61f440b60e28659d","64ecad81b8f7e141b27cbb2d","null","null","<p style=""font-size: 60px; font-family: BACS"">dOYmltRb</p>","","","","","","","","","",""
"html-keyboard-response","268","287484","0.0-13.0-0.18","648b962b8fdb1fa686213ac1","64e77d7b61f440b60e28659d","64ecad81b8f7e141b27cbb2d","null","null","<p style=""font-size: 60px; font-family: BACS"">damYbYaOk</p>","","","","","","","","","",""
"html-keyboard-response","269","288485","0.0-13.0-0.19","648b962b8fdb1fa686213ac1","64e77d7b61f440b60e28659d","64ecad81b8f7e141b27cbb2d","null","null","<p style=""font-size: 60px; font-family: BACS"">vJabJUNa</p>","","","","","","","","","",""
"html-keyboard-response","270","289502","0.0-13.0-0.20","648b962b8fdb1fa686213ac1","64e77d7b61f440b60e28659d","64ecad81b8f7e141b27cbb2d","null","null","<p style=""font-size: 60px; font-family: BACS"">OmtlDtRb</p>","","","","","","","","","",""
"html-keyboard-response","271","290518","0.0-13.0-0.21","648b962b8fdb1fa686213ac1","64e77d7b61f440b60e28659d","64ecad81b8f7e141b27cbb2d","null","null","<p style=""font-size: 60px; font-family: BACS"">BECkRdCc</p>","","","","","","","","","",""
"html-keyboard-response","272","291520","0.0-13.0-0.22","648b962b8fdb1fa686213ac1","64e77d7b61f440b60e28659d","64ecad81b8f7e141b27cbb2d","null","null","<p style=""font-size: 60px; font-family: BACS"">aNYmbJUNa</p>","","","","","","","","","",""
"html-keyboard-response","273","292535","0.0-13.0-0.23","648b962b8fdb1fa686213ac1","64e77d7b61f440b60e28659d","64ecad81b8f7e141b27cbb2d","null","null","<p style=""font-size: 60px; font-family: BACS"">BECktRb</p>","","","","","","","","","",""
"html-keyboard-response","274","293550","0.0-13.0-0.24","648b962b8fdb1fa686213ac1","64e77d7b61f440b60e28659d","64ecad81b8f7e141b27cbb2d","null","null","<p style=""font-size: 60px; font-family: BACS"">YOaAbYaOk</p>","","","","","","","","","",""
"html-keyboard-response","275","294551","0.0-13.0-0.25","648b962b8fdb1fa686213ac1","64e77d7b61f440b60e28659d","64ecad81b8f7e141b27cbb2d","null","null","<p style=""font-size: 60px; font-family: BACS"">mUOcOrAJu</p>","","","","","","","","","",""
"html-keyboard-response","276","295567","0.0-13.0-0.26","648b962b8fdb1fa686213ac1","64e77d7b61f440b60e28659d","64ecad81b8f7e141b27cbb2d","null","null","<p style=""font-size: 60px; font-family: BACS"">YKRkOBT</p>","","","","","","","","","",""
"html-keyboard-response","277","296584","0.0-13.0-0.27","648b962b8fdb1fa686213ac1","64e77d7b61f440b60e28659d","64ecad81b8f7e141b27cbb2d","null","null","<p style=""font-size: 60px; font-family: BACS"">ktBdRdCc</p>","","","","","","","","","",""
"html-keyboard-response","278","297600","0.0-13.0-0.28","648b962b8fdb1fa686213ac1","64e77d7b61f440b60e28659d","64ecad81b8f7e141b27cbb2d","null","null","<p style=""font-size: 60px; font-family: BACS"">BECkMAB</p>","","","","","","","","","",""
"html-keyboard-response","279","298617","0.0-13.0-0.29","648b962b8fdb1fa686213ac1","64e77d7b61f440b60e28659d","64ecad81b8f7e141b27cbb2d","null","null","<p style=""font-size: 60px; font-family: BACS"">TDKhRdCc</p>","","","","","","","","","",""
"html-keyboard-response","280","299633","0.0-13.0-0.30","648b962b8fdb1fa686213ac1","64e77d7b61f440b60e28659d","64ecad81b8f7e141b27cbb2d","null","null","<p style=""font-size: 60px; font-family: BACS"">YKRkCkbd</p>","","","","","","","","","",""
"html-keyboard-response","281","300650","0.0-13.0-0.31","648b962b8fdb1fa686213ac1","64e77d7b61f440b60e28659d","64ecad81b8f7e141b27cbb2d","null","null","<p style=""font-size: 60px; font-family: BACS"">damYbrAJu</p>","","","","","","","","","",""
"html-keyboard-response","282","301651","0.0-13.0-0.32","648b962b8fdb1fa686213ac1","64e77d7b61f440b60e28659d","64ecad81b8f7e141b27cbb2d","null","null","<p style=""font-size: 60px; font-family: BACS"">PMPtkMAB</p>","","","","","","","","","",""
"html-keyboard-response","283","302667","0.0-13.0-0.33","648b962b8fdb1fa686213ac1","64e77d7b61f440b60e28659d","64ecad81b8f7e141b27cbb2d","null","null","<p style=""font-size: 60px; font-family: BACS"">YKRktRb</p>","","","","","","","","","",""
"html-keyboard-response","284","303683","0.0-13.0-0.34","648b962b8fdb1fa686213ac1","64e77d7b61f440b60e28659d","64ecad81b8f7e141b27cbb2d","null","null","<p style=""font-size: 60px; font-family: BACS"">uQkrdYaOk</p>","","","","","","","","","",""
"html-keyboard-response","285","304699","0.0-13.0-0.35","648b962b8fdb1fa686213ac1","64e77d7b61f440b60e28659d","64ecad81b8f7e141b27cbb2d","null","null","<p style=""font-size: 60px; font-family: BACS"">OmtlDCkbd</p>","","","","","","","","","",""
"html-keyboard-response","286","305701","0.0-13.0-0.36","648b962b8fdb1fa686213ac1","64e77d7b61f440b60e28659d","64ecad81b8f7e141b27cbb2d","null","null","<p style=""font-size: 60px; font-family: BACS"">YOaAbLaA</p>","","","","","","","","","",""
"html-keyboard-response","287","306716","0.0-13.0-0.37","648b962b8fdb1fa686213ac1","64e77d7b61f440b60e28659d","64ecad81b8f7e141b27cbb2d","null","null","<p style=""font-size: 60px; font-family: BACS"">dTmEDRdCc</p>","","","","","","","","","",""
"html-keyboard-response","288","307718","0.0-13.0-0.38","648b962b8fdb1fa686213ac1","64e77d7b61f440b60e28659d","64ecad81b8f7e141b27cbb2d","null","null","<p style=""font-size: 60px; font-family: BACS"">PMPtkCkbd</p>","","","","","","","","","",""
"html-keyboard-response","289","308732","0.0-13.0-0.39","648b962b8fdb1fa686213ac1","64e77d7b61f440b60e28659d","64ecad81b8f7e141b27cbb2d","null","null","<p style=""font-size: 60px; font-family: BACS"">LdrbvrAJu</p>","","","","","","","","","",""
"html-keyboard-response","290","309734","0.0-13.0-0.40","648b962b8fdb1fa686213ac1","64e77d7b61f440b60e28659d","64ecad81b8f7e141b27cbb2d","null","null","<p style=""font-size: 60px; font-family: BACS"">mUOcOJUNa</p>","","","","","","","","","",""
"html-keyboard-response","291","310750","0.0-13.0-0.41","648b962b8fdb1fa686213ac1","64e77d7b61f440b60e28659d","64ecad81b8f7e141b27cbb2d","null","null","<p style=""font-size: 60px; font-family: BACS"">YOaAbrZYd</p>","","","","","","","","","",""
"html-keyboard-response","292","311766","0.0-13.0-0.42","648b962b8fdb1fa686213ac1","64e77d7b61f440b60e28659d","64ecad81b8f7e141b27cbb2d","null","null","<p style=""font-size: 60px; font-family: BACS"">dOYmlOBT</p>","","","","","","","","","",""
"html-keyboard-response","293","312767","0.0-13.0-0.43","648b962b8fdb1fa686213ac1","64e77d7b61f440b60e28659d","64ecad81b8f7e141b27cbb2d","null","null","<p style=""font-size: 60px; font-family: BACS"">LdrbvLaA</p>","","","","","","","","","",""
"html-keyboard-response","294","313783","0.0-13.0-0.44","648b962b8fdb1fa686213ac1","64e77d7b61f440b60e28659d","64ecad81b8f7e141b27cbb2d","null","null","<p style=""font-size: 60px; font-family: BACS"">GJGcZJUNa</p>","","","","","","","","","",""
"html-keyboard-response","295","314798","0.0-13.0-0.45","648b962b8fdb1fa686213ac1","64e77d7b61f440b60e28659d","64ecad81b8f7e141b27cbb2d","null","null","<p style=""font-size: 60px; font-family: BACS"">EPMDkMAB</p>","","","","","","","","","",""
"html-keyboard-response","296","315800","0.0-13.0-0.46","648b962b8fdb1fa686213ac1","64e77d7b61f440b60e28659d","64ecad81b8f7e141b27cbb2d","null","null","<p style=""font-size: 60px; font-family: BACS"">aNYmbLaA</p>","","","","","","","","","",""
"html-keyboard-response","297","316801","0.0-13.0-0.47","648b962b8fdb1fa686213ac1","64e77d7b61f440b60e28659d","64ecad81b8f7e141b27cbb2d","null","null","<p style=""font-size: 60px; font-family: BACS"">EPMDkCkbd</p>","","","","","","","","","",""
"html-keyboard-response","298","317816","0.0-13.0-0.48","648b962b8fdb1fa686213ac1","64e77d7b61f440b60e28659d","64ecad81b8f7e141b27cbb2d","null","null","<p style=""font-size: 60px; font-family: BACS"">ubALmJUNa</p>","","","","","","","","","",""
"html-keyboard-response","299","318818","0.0-13.0-0.49","648b962b8fdb1fa686213ac1","64e77d7b61f440b60e28659d","64ecad81b8f7e141b27cbb2d","null","null","<p style=""font-size: 60px; font-family: BACS"">GJGcZrAJu</p>","","","","","","","","","",""
"html-keyboard-response","300","319833","0.0-13.0-0.50","648b962b8fdb1fa686213ac1","64e77d7b61f440b60e28659d","64ecad81b8f7e141b27cbb2d","null","null","<p style=""font-size: 60px; font-family: BACS"">EPMDkRdCc</p>","","","","","","","","","",""
"html-keyboard-response","301","320835","0.0-13.0-0.51","648b962b8fdb1fa686213ac1","64e77d7b61f440b60e28659d","64ecad81b8f7e141b27cbb2d","null","null","<p style=""font-size: 60px; font-family: BACS"">PMPtkOBT</p>","","","","","","","","","",""
"html-keyboard-response","302","321850","0.0-13.0-0.52","648b962b8fdb1fa686213ac1","64e77d7b61f440b60e28659d","64ecad81b8f7e141b27cbb2d","null","null","<p style=""font-size: 60px; font-family: BACS"">uQkrdLaA</p>","","","","","","","","","",""
"html-keyboard-response","303","322866","0.0-13.0-0.53","648b962b8fdb1fa686213ac1","64e77d7b61f440b60e28659d","64ecad81b8f7e141b27cbb2d","null","null","<p style=""font-size: 60px; font-family: BACS"">BlmclCkbd</p>","","","","","","","","","",""
"html-keyboard-response","304","323867","0.0-13.0-0.54","648b962b8fdb1fa686213ac1","64e77d7b61f440b60e28659d","64ecad81b8f7e141b27cbb2d","null","null","<p style=""font-size: 60px; font-family: BACS"">ubALmrAJu</p>","","","","","","","","","",""
"html-keyboard-response","305","324882","0.0-13.0-0.55","648b962b8fdb1fa686213ac1","64e77d7b61f440b60e28659d","64ecad81b8f7e141b27cbb2d","null","null","<p style=""font-size: 60px; font-family: BACS"">uQkrdJUNa</p>","","","","","","","","","",""
"html-keyboard-response","306","325884","0.0-13.0-0.56","648b962b8fdb1fa686213ac1","64e77d7b61f440b60e28659d","64ecad81b8f7e141b27cbb2d","null","null","<p style=""font-size: 60px; font-family: BACS"">vJabrZYd</p>","","","","","","","","","",""
"html-keyboard-response","307","326900","0.0-13.0-0.57","648b962b8fdb1fa686213ac1","64e77d7b61f440b60e28659d","64ecad81b8f7e141b27cbb2d","null","null","<p style=""font-size: 60px; font-family: BACS"">ktBdMAB</p>","","","","","","","","","",""
"html-keyboard-response","308","327901","0.0-13.0-0.58","648b962b8fdb1fa686213ac1","64e77d7b61f440b60e28659d","64ecad81b8f7e141b27cbb2d","null","null","<p style=""font-size: 60px; font-family: BACS"">aNYmbrZYd</p>","","","","","","","","","",""
"html-keyboard-response","309","328916","0.0-13.0-0.59","648b962b8fdb1fa686213ac1","64e77d7b61f440b60e28659d","64ecad81b8f7e141b27cbb2d","null","null","<p style=""font-size: 60px; font-family: BACS"">aLNlkLaA</p>","","","","","","","","","",""
"html-keyboard-response","310","329917","0.0-13.0-0.60","648b962b8fdb1fa686213ac1","64e77d7b61f440b60e28659d","64ecad81b8f7e141b27cbb2d","null","null","<p style=""font-size: 60px; font-family: BACS"">GJGcZrZYd</p>","","","","","","","","","",""
"html-keyboard-response","311","330932","0.0-13.0-0.61","648b962b8fdb1fa686213ac1","64e77d7b61f440b60e28659d","64ecad81b8f7e141b27cbb2d","null","null","<p style=""font-size: 60px; font-family: BACS"">OmtlDOBT</p>","","","","","","","","","",""
"html-keyboard-response","312","331935","0.0-13.0-0.62","648b962b8fdb1fa686213ac1","64e77d7b61f440b60e28659d","64ecad81b8f7e141b27cbb2d","null","null","<p style=""font-size: 60px; font-family: BACS"">aLNlkrAJu</p>","","","","","","","","","",""
"html-keyboard-response","313","332950","0.0-13.0-0.63","648b962b8fdb1fa686213ac1","64e77d7b61f440b60e28659d","64ecad81b8f7e141b27cbb2d","null","null","<p style=""font-size: 60px; font-family: BACS"">BlmclMAB</p>","","","","","","","","","",""
"html-keyboard-response","314","333966","0.0-13.0-0.64","648b962b8fdb1fa686213ac1","64e77d7b61f440b60e28659d","64ecad81b8f7e141b27cbb2d","null","null","<p style=""font-size: 60px; font-family: BACS"">dTmEDOBT</p>","","","","","","","","","",""
"html-keyboard-response","315","334983","0.0-13.0-0.65","648b962b8fdb1fa686213ac1","64e77d7b61f440b60e28659d","64ecad81b8f7e141b27cbb2d","null","null","<p style=""font-size: 60px; font-family: BACS"">dOYmlRdCc</p>","","","","","","","","","",""
"html-keyboard-response","316","335999","0.0-13.0-0.66","648b962b8fdb1fa686213ac1","64e77d7b61f440b60e28659d","64ecad81b8f7e141b27cbb2d","null","null","<p style=""font-size: 60px; font-family: BACS"">vJabLaA</p>","","","","","","","","","",""
"html-keyboard-response","317","337014","0.0-13.0-0.67","648b962b8fdb1fa686213ac1","64e77d7b61f440b60e28659d","64ecad81b8f7e141b27cbb2d","null","null","<p style=""font-size: 60px; font-family: BACS"">aLNlkrZYd</p>","","","","","","","","","",""
"html-keyboard-response","318","338018","0.0-13.0-0.68","648b962b8fdb1fa686213ac1","64e77d7b61f440b60e28659d","64ecad81b8f7e141b27cbb2d","null","null","<p style=""font-size: 60px; font-family: BACS"">OmtlDMAB</p>","","","","","","","","","",""
"html-keyboard-response","319","339033","0.0-13.0-0.69","648b962b8fdb1fa686213ac1","64e77d7b61f440b60e28659d","64ecad81b8f7e141b27cbb2d","null","null","<p style=""font-size: 60px; font-family: BACS"">YKRkRdCc</p>","","","","","","","","","",""
"html-keyboard-response","320","340049","0.0-13.0-0.70","648b962b8fdb1fa686213ac1","64e77d7b61f440b60e28659d","64ecad81b8f7e141b27cbb2d","null","null","<p style=""font-size: 60px; font-family: BACS"">EPMDkOBT</p>","","","","","","","","","",""
"html-keyboard-response","321","341051","0.0-13.0-0.71","648b962b8fdb1fa686213ac1","64e77d7b61f440b60e28659d","64ecad81b8f7e141b27cbb2d","null","null","<p style=""font-size: 60px; font-family: BACS"">dTmEDCkbd</p>","","","","","","","","","",""
"html-keyboard-response","322","342066","0.0-13.0-0.72","648b962b8fdb1fa686213ac1","64e77d7b61f440b60e28659d","64ecad81b8f7e141b27cbb2d","null","null","<p style=""font-size: 60px; font-family: BACS"">damYbLaA</p>","","","","","","","","","",""
"html-keyboard-response","323","343083","0.0-13.0-0.73","648b962b8fdb1fa686213ac1","64e77d7b61f440b60e28659d","64ecad81b8f7e141b27cbb2d","null","null","<p style=""font-size: 60px; font-family: BACS"">ubALmrZYd</p>","","","","","","","","","",""
"html-keyboard-response","324","344099","0.0-13.0-0.74","648b962b8fdb1fa686213ac1","64e77d7b61f440b60e28659d","64ecad81b8f7e141b27cbb2d","null","null","<p style=""font-size: 60px; font-family: BACS"">BlmclOBT</p>","","","","","","","","","",""
"html-keyboard-response","325","345100","0.0-13.0-0.75","648b962b8fdb1fa686213ac1","64e77d7b61f440b60e28659d","64ecad81b8f7e141b27cbb2d","null","null","<p style=""font-size: 60px; font-family: BACS"">GJGcZYaOk</p>","","","","","","","","","",""
"html-keyboard-response","326","346109","0.0-13.0-0.76","648b962b8fdb1fa686213ac1","64e77d7b61f440b60e28659d","64ecad81b8f7e141b27cbb2d","null","null","<p style=""font-size: 60px; font-family: BACS"">TDKhCkbd</p>","","","","","","","","","",""
"html-keyboard-response","327","347117","0.0-13.0-0.77","648b962b8fdb1fa686213ac1","64e77d7b61f440b60e28659d","64ecad81b8f7e141b27cbb2d","null","null","<p style=""font-size: 60px; font-family: BACS"">ktBdtRb</p>","","","","","","","","","",""
"html-keyboard-response","328","348133","0.0-13.0-0.78","648b962b8fdb1fa686213ac1","64e77d7b61f440b60e28659d","64ecad81b8f7e141b27cbb2d","null","null","<p style=""font-size: 60px; font-family: BACS"">damYbJUNa</p>","","","","","","","","","",""
"html-keyboard-response","329","349149","0.0-13.0-0.79","648b962b8fdb1fa686213ac1","64e77d7b61f440b60e28659d","64ecad81b8f7e141b27cbb2d","null","null","<p style=""font-size: 60px; font-family: BACS"">TDKhMAB</p>","","","","","","","","","",""
"html-keyboard-response","330","353243","0.0-14.0","648b962b8fdb1fa686213ac1","64e77d7b61f440b60e28659d","64ecad81b8f7e141b27cbb2d","4093"," ","<p>Great, you've seen the fourth block of words. You may now take a short break.</p>
      <p>Press the spacebar when you're ready to continue.</p>","","","","","","","","","",""
"html-keyboard-response","331","354249","0.0-15.0-0.0","648b962b8fdb1fa686213ac1","64e77d7b61f440b60e28659d","64ecad81b8f7e141b27cbb2d","null","null","<p style=""font-size: 60px; font-family: BACS"">ktBdtRb</p>","","","","","","","","","",""
"html-keyboard-response","332","355251","0.0-15.0-0.1","648b962b8fdb1fa686213ac1","64e77d7b61f440b60e28659d","64ecad81b8f7e141b27cbb2d","null","null","<p style=""font-size: 60px; font-family: BACS"">ktBdtRb</p>","","","","","","","","","",""
"html-keyboard-response","333","356265","0.0-15.0-0.2","648b962b8fdb1fa686213ac1","64e77d7b61f440b60e28659d","64ecad81b8f7e141b27cbb2d","null","null","<p style=""font-size: 60px; font-family: BACS"">ktBdtRb</p>","","","","","","","","","",""
"html-keyboard-response","334","357267","0.0-15.0-0.3","648b962b8fdb1fa686213ac1","64e77d7b61f440b60e28659d","64ecad81b8f7e141b27cbb2d","null","null","<p style=""font-size: 60px; font-family: BACS"">ktBdtRb</p>","","","","","","","","","",""
"html-keyboard-response","335","358284","0.0-15.0-0.4","648b962b8fdb1fa686213ac1","64e77d7b61f440b60e28659d","64ecad81b8f7e141b27cbb2d","null","null","<p style=""font-size: 60px; font-family: BACS"">ktBdtRb</p>","","","","","","","","","",""
"html-keyboard-response","336","359300","0.0-15.0-0.5","648b962b8fdb1fa686213ac1","64e77d7b61f440b60e28659d","64ecad81b8f7e141b27cbb2d","null","null","<p style=""font-size: 60px; font-family: BACS"">ktBdtRb</p>","","","","","","","","","",""
"html-keyboard-response","337","360316","0.0-15.0-0.6","648b962b8fdb1fa686213ac1","64e77d7b61f440b60e28659d","64ecad81b8f7e141b27cbb2d","null","null","<p style=""font-size: 60px; font-family: BACS"">ktBdtRb</p>","","","","","","","","","",""
"html-keyboard-response","338","361330","0.0-15.0-0.7","648b962b8fdb1fa686213ac1","64e77d7b61f440b60e28659d","64ecad81b8f7e141b27cbb2d","null","null","<p style=""font-size: 60px; font-family: BACS"">ktBdtRb</p>","","","","","","","","","",""
"html-keyboard-response","339","362334","0.0-15.0-0.8","648b962b8fdb1fa686213ac1","64e77d7b61f440b60e28659d","64ecad81b8f7e141b27cbb2d","null","null","<p style=""font-size: 60px; font-family: BACS"">ktBdtRb</p>","","","","","","","","","",""
"html-keyboard-response","340","363349","0.0-15.0-0.9","648b962b8fdb1fa686213ac1","64e77d7b61f440b60e28659d","64ecad81b8f7e141b27cbb2d","null","null","<p style=""font-size: 60px; font-family: BACS"">ktBdtRb</p>","","","","","","","","","",""
"html-keyboard-response","341","364351","0.0-15.0-0.10","648b962b8fdb1fa686213ac1","64e77d7b61f440b60e28659d","64ecad81b8f7e141b27cbb2d","null","null","<p style=""font-size: 60px; font-family: BACS"">ktBdtRb</p>","","","","","","","","","",""
"html-keyboard-response","342","365366","0.0-15.0-0.11","648b962b8fdb1fa686213ac1","64e77d7b61f440b60e28659d","64ecad81b8f7e141b27cbb2d","null","null","<p style=""font-size: 60px; font-family: BACS"">ktBdtRb</p>","","","","","","","","","",""
"html-keyboard-response","343","366382","0.0-15.0-0.12","648b962b8fdb1fa686213ac1","64e77d7b61f440b60e28659d","64ecad81b8f7e141b27cbb2d","null","null","<p style=""font-size: 60px; font-family: BACS"">ktBdtRb</p>","","","","","","","","","",""
"html-keyboard-response","344","367384","0.0-15.0-0.13","648b962b8fdb1fa686213ac1","64e77d7b61f440b60e28659d","64ecad81b8f7e141b27cbb2d","null","null","<p style=""font-size: 60px; font-family: BACS"">ktBdtRb</p>","","","","","","","","","",""
"html-keyboard-response","345","368399","0.0-15.0-0.14","648b962b8fdb1fa686213ac1","64e77d7b61f440b60e28659d","64ecad81b8f7e141b27cbb2d","null","null","<p style=""font-size: 60px; font-family: BACS"">ktBdtRb</p>","","","","","","","","","",""
"html-keyboard-response","346","369400","0.0-15.0-0.15","648b962b8fdb1fa686213ac1","64e77d7b61f440b60e28659d","64ecad81b8f7e141b27cbb2d","null","null","<p style=""font-size: 60px; font-family: BACS"">ktBdtRb</p>","","","","","","","","","",""
"html-keyboard-response","347","370416","0.0-15.0-0.16","648b962b8fdb1fa686213ac1","64e77d7b61f440b60e28659d","64ecad81b8f7e141b27cbb2d","null","null","<p style=""font-size: 60px; font-family: BACS"">ktBdtRb</p>","","","","","","","","","",""
"html-keyboard-response","348","371417","0.0-15.0-0.17","648b962b8fdb1fa686213ac1","64e77d7b61f440b60e28659d","64ecad81b8f7e141b27cbb2d","null","null","<p style=""font-size: 60px; font-family: BACS"">ktBdtRb</p>","","","","","","","","","",""
"html-keyboard-response","349","372433","0.0-15.0-0.18","648b962b8fdb1fa686213ac1","64e77d7b61f440b60e28659d","64ecad81b8f7e141b27cbb2d","null","null","<p style=""font-size: 60px; font-family: BACS"">ktBdtRb</p>","","","","","","","","","",""
"html-keyboard-response","350","373447","0.0-15.0-0.19","648b962b8fdb1fa686213ac1","64e77d7b61f440b60e28659d","64ecad81b8f7e141b27cbb2d","null","null","<p style=""font-size: 60px; font-family: BACS"">ktBdtRb</p>","","","","","","","","","",""
"html-keyboard-response","351","374449","0.0-15.0-0.20","648b962b8fdb1fa686213ac1","64e77d7b61f440b60e28659d","64ecad81b8f7e141b27cbb2d","null","null","<p style=""font-size: 60px; font-family: BACS"">ktBdtRb</p>","","","","","","","","","",""
"html-keyboard-response","352","375450","0.0-15.0-0.21","648b962b8fdb1fa686213ac1","64e77d7b61f440b60e28659d","64ecad81b8f7e141b27cbb2d","null","null","<p style=""font-size: 60px; font-family: BACS"">ktBdtRb</p>","","","","","","","","","",""
"html-keyboard-response","353","376465","0.0-15.0-0.22","648b962b8fdb1fa686213ac1","64e77d7b61f440b60e28659d","64ecad81b8f7e141b27cbb2d","null","null","<p style=""font-size: 60px; font-family: BACS"">ktBdtRb</p>","","","","","","","","","",""
"html-keyboard-response","354","377466","0.0-15.0-0.23","648b962b8fdb1fa686213ac1","64e77d7b61f440b60e28659d","64ecad81b8f7e141b27cbb2d","null","null","<p style=""font-size: 60px; font-family: BACS"">ktBdtRb</p>","","","","","","","","","",""
"html-keyboard-response","355","378482","0.0-15.0-0.24","648b962b8fdb1fa686213ac1","64e77d7b61f440b60e28659d","64ecad81b8f7e141b27cbb2d","null","null","<p style=""font-size: 60px; font-family: BACS"">ktBdtRb</p>","","","","","","","","","",""
"html-keyboard-response","356","379483","0.0-15.0-0.25","648b962b8fdb1fa686213ac1","64e77d7b61f440b60e28659d","64ecad81b8f7e141b27cbb2d","null","null","<p style=""font-size: 60px; font-family: BACS"">ktBdtRb</p>","","","","","","","","","",""
"html-keyboard-response","357","380499","0.0-15.0-0.26","648b962b8fdb1fa686213ac1","64e77d7b61f440b60e28659d","64ecad81b8f7e141b27cbb2d","null","null","<p style=""font-size: 60px; font-family: BACS"">ktBdtRb</p>","","","","","","","","","",""
"html-keyboard-response","358","381500","0.0-15.0-0.27","648b962b8fdb1fa686213ac1","64e77d7b61f440b60e28659d","64ecad81b8f7e141b27cbb2d","null","null","<p style=""font-size: 60px; font-family: BACS"">ktBdtRb</p>","","","","","","","","","",""
"html-keyboard-response","359","382515","0.0-15.0-0.28","648b962b8fdb1fa686213ac1","64e77d7b61f440b60e28659d","64ecad81b8f7e141b27cbb2d","null","null","<p style=""font-size: 60px; font-family: BACS"">ktBdtRb</p>","","","","","","","","","",""
"html-keyboard-response","360","383516","0.0-15.0-0.29","648b962b8fdb1fa686213ac1","64e77d7b61f440b60e28659d","64ecad81b8f7e141b27cbb2d","null","null","<p style=""font-size: 60px; font-family: BACS"">ktBdtRb</p>","","","","","","","","","",""
"html-keyboard-response","361","384533","0.0-15.0-0.30","648b962b8fdb1fa686213ac1","64e77d7b61f440b60e28659d","64ecad81b8f7e141b27cbb2d","null","null","<p style=""font-size: 60px; font-family: BACS"">ktBdtRb</p>","","","","","","","","","",""
"html-keyboard-response","362","385549","0.0-15.0-0.31","648b962b8fdb1fa686213ac1","64e77d7b61f440b60e28659d","64ecad81b8f7e141b27cbb2d","null","null","<p style=""font-size: 60px; font-family: BACS"">ktBdtRb</p>","","","","","","","","","",""
"html-keyboard-response","363","386550","0.0-15.0-0.32","648b962b8fdb1fa686213ac1","64e77d7b61f440b60e28659d","64ecad81b8f7e141b27cbb2d","null","null","<p style=""font-size: 60px; font-family: BACS"">ktBdtRb</p>","","","","","","","","","",""
"html-keyboard-response","364","387565","0.0-15.0-0.33","648b962b8fdb1fa686213ac1","64e77d7b61f440b60e28659d","64ecad81b8f7e141b27cbb2d","null","null","<p style=""font-size: 60px; font-family: BACS"">ktBdtRb</p>","","","","","","","","","",""
"html-keyboard-response","365","388566","0.0-15.0-0.34","648b962b8fdb1fa686213ac1","64e77d7b61f440b60e28659d","64ecad81b8f7e141b27cbb2d","null","null","<p style=""font-size: 60px; font-family: BACS"">ktBdtRb</p>","","","","","","","","","",""
"html-keyboard-response","366","389582","0.0-15.0-0.35","648b962b8fdb1fa686213ac1","64e77d7b61f440b60e28659d","64ecad81b8f7e141b27cbb2d","null","null","<p style=""font-size: 60px; font-family: BACS"">ktBdtRb</p>","","","","","","","","","",""
"html-keyboard-response","367","390584","0.0-15.0-0.36","648b962b8fdb1fa686213ac1","64e77d7b61f440b60e28659d","64ecad81b8f7e141b27cbb2d","null","null","<p style=""font-size: 60px; font-family: BACS"">ktBdtRb</p>","","","","","","","","","",""
"html-keyboard-response","368","391599","0.0-15.0-0.37","648b962b8fdb1fa686213ac1","64e77d7b61f440b60e28659d","64ecad81b8f7e141b27cbb2d","null","null","<p style=""font-size: 60px; font-family: BACS"">ktBdtRb</p>","","","","","","","","","",""
"html-keyboard-response","369","392601","0.0-15.0-0.38","648b962b8fdb1fa686213ac1","64e77d7b61f440b60e28659d","64ecad81b8f7e141b27cbb2d","null","null","<p style=""font-size: 60px; font-family: BACS"">ktBdtRb</p>","","","","","","","","","",""
"html-keyboard-response","370","393616","0.0-15.0-0.39","648b962b8fdb1fa686213ac1","64e77d7b61f440b60e28659d","64ecad81b8f7e141b27cbb2d","null","null","<p style=""font-size: 60px; font-family: BACS"">ktBdtRb</p>","","","","","","","","","",""
"html-keyboard-response","371","394632","0.0-15.0-0.40","648b962b8fdb1fa686213ac1","64e77d7b61f440b60e28659d","64ecad81b8f7e141b27cbb2d","null","null","<p style=""font-size: 60px; font-family: BACS"">ktBdtRb</p>","","","","","","","","","",""
"html-keyboard-response","372","395633","0.0-15.0-0.41","648b962b8fdb1fa686213ac1","64e77d7b61f440b60e28659d","64ecad81b8f7e141b27cbb2d","null","null","<p style=""font-size: 60px; font-family: BACS"">ktBdtRb</p>","","","","","","","","","",""
"html-keyboard-response","373","396649","0.0-15.0-0.42","648b962b8fdb1fa686213ac1","64e77d7b61f440b60e28659d","64ecad81b8f7e141b27cbb2d","null","null","<p style=""font-size: 60px; font-family: BACS"">ktBdtRb</p>","","","","","","","","","",""
"html-keyboard-response","374","397651","0.0-15.0-0.43","648b962b8fdb1fa686213ac1","64e77d7b61f440b60e28659d","64ecad81b8f7e141b27cbb2d","null","null","<p style=""font-size: 60px; font-family: BACS"">ktBdtRb</p>","","","","","","","","","",""
"html-keyboard-response","375","398665","0.0-15.0-0.44","648b962b8fdb1fa686213ac1","64e77d7b61f440b60e28659d","64ecad81b8f7e141b27cbb2d","null","null","<p style=""font-size: 60px; font-family: BACS"">ktBdtRb</p>","","","","","","","","","",""
"html-keyboard-response","376","399666","0.0-15.0-0.45","648b962b8fdb1fa686213ac1","64e77d7b61f440b60e28659d","64ecad81b8f7e141b27cbb2d","null","null","<p style=""font-size: 60px; font-family: BACS"">ktBdtRb</p>","","","","","","","","","",""
"html-keyboard-response","377","400682","0.0-15.0-0.46","648b962b8fdb1fa686213ac1","64e77d7b61f440b60e28659d","64ecad81b8f7e141b27cbb2d","null","null","<p style=""font-size: 60px; font-family: BACS"">ktBdtRb</p>","","","","","","","","","",""
"html-keyboard-response","378","401684","0.0-15.0-0.47","648b962b8fdb1fa686213ac1","64e77d7b61f440b60e28659d","64ecad81b8f7e141b27cbb2d","null","null","<p style=""font-size: 60px; font-family: BACS"">ktBdtRb</p>","","","","","","","","","",""
"html-keyboard-response","379","402699","0.0-15.0-0.48","648b962b8fdb1fa686213ac1","64e77d7b61f440b60e28659d","64ecad81b8f7e141b27cbb2d","null","null","<p style=""font-size: 60px; font-family: BACS"">ktBdtRb</p>","","","","","","","","","",""
"html-keyboard-response","380","403700","0.0-15.0-0.49","648b962b8fdb1fa686213ac1","64e77d7b61f440b60e28659d","64ecad81b8f7e141b27cbb2d","null","null","<p style=""font-size: 60px; font-family: BACS"">ktBdtRb</p>","","","","","","","","","",""
"html-keyboard-response","381","404715","0.0-15.0-0.50","648b962b8fdb1fa686213ac1","64e77d7b61f440b60e28659d","64ecad81b8f7e141b27cbb2d","null","null","<p style=""font-size: 60px; font-family: BACS"">ktBdtRb</p>","","","","","","","","","",""
"html-keyboard-response","382","405732","0.0-15.0-0.51","648b962b8fdb1fa686213ac1","64e77d7b61f440b60e28659d","64ecad81b8f7e141b27cbb2d","null","null","<p style=""font-size: 60px; font-family: BACS"">ktBdtRb</p>","","","","","","","","","",""
"html-keyboard-response","383","406749","0.0-15.0-0.52","648b962b8fdb1fa686213ac1","64e77d7b61f440b60e28659d","64ecad81b8f7e141b27cbb2d","null","null","<p style=""font-size: 60px; font-family: BACS"">ktBdtRb</p>","","","","","","","","","",""
"html-keyboard-response","384","407750","0.0-15.0-0.53","648b962b8fdb1fa686213ac1","64e77d7b61f440b60e28659d","64ecad81b8f7e141b27cbb2d","null","null","<p style=""font-size: 60px; font-family: BACS"">ktBdtRb</p>","","","","","","","","","",""
"html-keyboard-response","385","408766","0.0-15.0-0.54","648b962b8fdb1fa686213ac1","64e77d7b61f440b60e28659d","64ecad81b8f7e141b27cbb2d","null","null","<p style=""font-size: 60px; font-family: BACS"">ktBdtRb</p>","","","","","","","","","",""
"html-keyboard-response","386","409782","0.0-15.0-0.55","648b962b8fdb1fa686213ac1","64e77d7b61f440b60e28659d","64ecad81b8f7e141b27cbb2d","null","null","<p style=""font-size: 60px; font-family: BACS"">ktBdtRb</p>","","","","","","","","","",""
"html-keyboard-response","387","410797","0.0-15.0-0.56","648b962b8fdb1fa686213ac1","64e77d7b61f440b60e28659d","64ecad81b8f7e141b27cbb2d","null","null","<p style=""font-size: 60px; font-family: BACS"">ktBdtRb</p>","","","","","","","","","",""
"html-keyboard-response","388","411799","0.0-15.0-0.57","648b962b8fdb1fa686213ac1","64e77d7b61f440b60e28659d","64ecad81b8f7e141b27cbb2d","null","null","<p style=""font-size: 60px; font-family: BACS"">ktBdtRb</p>","","","","","","","","","",""
"html-keyboard-response","389","412800","0.0-15.0-0.58","648b962b8fdb1fa686213ac1","64e77d7b61f440b60e28659d","64ecad81b8f7e141b27cbb2d","null","null","<p style=""font-size: 60px; font-family: BACS"">ktBdtRb</p>","","","","","","","","","",""
"html-keyboard-response","390","413816","0.0-15.0-0.59","648b962b8fdb1fa686213ac1","64e77d7b61f440b60e28659d","64ecad81b8f7e141b27cbb2d","null","null","<p style=""font-size: 60px; font-family: BACS"">ktBdtRb</p>","","","","","","","","","",""
"html-keyboard-response","391","414831","0.0-15.0-0.60","648b962b8fdb1fa686213ac1","64e77d7b61f440b60e28659d","64ecad81b8f7e141b27cbb2d","null","null","<p style=""font-size: 60px; font-family: BACS"">ktBdtRb</p>","","","","","","","","","",""
"html-keyboard-response","392","415833","0.0-15.0-0.61","648b962b8fdb1fa686213ac1","64e77d7b61f440b60e28659d","64ecad81b8f7e141b27cbb2d","null","null","<p style=""font-size: 60px; font-family: BACS"">ktBdtRb</p>","","","","","","","","","",""
"html-keyboard-response","393","416849","0.0-15.0-0.62","648b962b8fdb1fa686213ac1","64e77d7b61f440b60e28659d","64ecad81b8f7e141b27cbb2d","null","null","<p style=""font-size: 60px; font-family: BACS"">ktBdtRb</p>","","","","","","","","","",""
"html-keyboard-response","394","417850","0.0-15.0-0.63","648b962b8fdb1fa686213ac1","64e77d7b61f440b60e28659d","64ecad81b8f7e141b27cbb2d","null","null","<p style=""font-size: 60px; font-family: BACS"">ktBdtRb</p>","","","","","","","","","",""
"html-keyboard-response","395","418865","0.0-15.0-0.64","648b962b8fdb1fa686213ac1","64e77d7b61f440b60e28659d","64ecad81b8f7e141b27cbb2d","null","null","<p style=""font-size: 60px; font-family: BACS"">ktBdtRb</p>","","","","","","","","","",""
