"trial_type","trial_index","time_elapsed","internal_node_id","subject_id","study_id","session_id","rt","response","stimulus","success","item","task","correct_response","correct","target","confound","name"
"pavlovia","0","3032","0.0-0.0","5d97c38dce449e001244dc15","64afc2c9a8732ea92db0087d","64afd7693177c2f995e6434a","","","","","","","","","","",""
"survey-html-form","1","14840","0.0-1.0","5d97c38dce449e001244dc15","64afc2c9a8732ea92db0087d","64afd7693177c2f995e6434a","11806","{""ID"":""5d97c38dce449e001244dc15""}","","","","","","","","",""
"html-keyboard-response","2","56163","0.0-2.0","5d97c38dce449e001244dc15","64afc2c9a8732ea92db0087d","64afd7693177c2f995e6434a","41321"," ","<p style=""font-size: 15px;"">Prima di cominciare, le chiediamo di leggere il modulo di consenso informato e confermare la sua volontà di partecipare all'esperimento.</p>
      <p style=""font-size: 15px;""> La preghiamo di ricordare che questo è un progetto di ricerca e che la sua partecipazione è completamente volontaria. Lei si potra' ritirare in qualunque momento, senza necessariamente dover dare alcuna spiegazione. Lo studio al quale Le si chiede di partecipare ha lo scopo di esaminare come i lettori elaborano le parole scritte. La somministrazione delle prove è individuale. Lei sarà impegnato in una sessione di lavoro della durata media di 10 minuti, e un questionario di 10 minuti. L’ordine delle prove ed il loro svolgimento sono stabiliti in modo tale da evitare un eventuale affaticamento. Tutte le prove saranno precedute da un breve addestramento in modo tale che abbia la possibilità di familiarizzare con il compito. Sono previste alcune pause nel corso dello svolgimento dell’esperimento. Una ricompensa di £4 (£8 per ora) Le verrà consegnata al termine della sessione di testing. Nonostante il testing preveda delle prove cognitive, il presente esperimento non costituisce una prova clinica che permetta la diagnosi di eventuali patologie.</p>
      <p style=""font-size: 15px;"">Tutti i dati raccolti grazie alla partecipazione Sua e di altre persone volontarie saranno custoditi in server sicuri e protetti da password, e non sarà consentito ad alcuna persona non autorizzata di accedervi. Le Sue informazioni personali saranno conservate separatamente dai risultati della presente ricerca, cui saranno associati soltanto attraverso un ID arbitrario. Grazie a questo processo di anonimizzazione dei dati, a nessun ricercatore sarà possibile analizzare i risultati sapendo da quale specifico partecipante essi provengono. Inoltre, questa procedura renderà impossibile la Sua identificazione anche nel momento in cui i risultati della ricerca fossero pubblicati su riviste scientifiche, o presentati a congressi o in qualsiasi altro pubblico consesso. Più in generale, i dati raccolti saranno trattati in accordo con le leggi sulla privacy e in conformità al Decreto Legislativo 30 giugno 2003 n. 196 “Codice in materia di protezione dei dati personali” e al Regolamento Europeo 2016/679 (General Data Protection Regulation - GDPR). Il Responsabile della protezione dei dati (RPD) è l’Avv. Valentina Carollo che può essere contattato ai seguenti indirizzi email: <a href=""mailto:dpo@sissa.it"">dpo@sissa.it</a> oppure <a href=""mailto:rpd@sissa.it"">rpd@sissa.it</a> - PEC: <a href=""mailto:protocollo@pec.sissa.it"">protocollo@pec.sissa.it</a>.</p>
      <p style=""font-size: 15px;""> Prima di esprimere il suo consenso alla partecipazione, Le ricordiamo ancora che in caso Lei abbia bisogno di delucidazioni su qualunque aspetto della procedura sperimentale, il ricercatore è a Sua completa disposizione (<a href=""mailto:aliebelt@sissa.it"">aliebelt@sissa.it</a>, <a href=""mailto:davide.crepaldi@sissa.it"">davide.crepaldi@sissa.it</a>).</p>
      <p style=""font-size: 15px;"">Se vuole scaricare il modulo di consenso informato, clicca qui: <a href=""BASL_modulo_consenso.pdf"" download>modulo di consenso</a>.</p>
      <p style=""font-size: 15px;""> Le chiediamo di premere la barra per continuare al consenso.</p>","","","","","","","",""
"survey-html-form","3","68006","0.0-3.0","5d97c38dce449e001244dc15","64afc2c9a8732ea92db0087d","64afd7693177c2f995e6434a","11842","{""consent1"":""YES"",""consent2"":""YES"",""consent3"":""YES"",""consent4"":""YES"",""consent5"":""YES"",""consent6"":""YES""}","","","","","","","","",""
"fullscreen","4","82038","0.0-4.0","5d97c38dce449e001244dc15","64afc2c9a8732ea92db0087d","64afd7693177c2f995e6434a","","","","true","","","","","","",""
"html-keyboard-response","5","161162","0.0-5.0","5d97c38dce449e001244dc15","64afc2c9a8732ea92db0087d","64afd7693177c2f995e6434a","79123"," ","<p>Benvenuta/o, e grazie mille del tuo tempo!</p>
      <p>In questo esperimento sarai un esperto/un'esperta di linguaggio cui è stato chiesto di dare un'occhiata ad alcuni messaggi che la Terra ha ricevuto dallo spazio. Il tuo compito, in questa prima parte dell'esperimento, sarà di fare molta attenzione alle parole che ti verranno mostrate; più tardi, i leader del mondo ti chiederanno qualche informazione su quello che hai visto. Le parole si susseguiranno abbastanza velocemente; sembra che questi alieni abbiano una certa fretta :-) </p>
      <p>Per favore, chiama lo sperimentatore se ha qualche domanda.</p><p>Premi la barra per continuare.</p>","","","","","","","",""
"html-keyboard-response","6","169239","0.0-6.0","5d97c38dce449e001244dc15","64afc2c9a8732ea92db0087d","64afd7693177c2f995e6434a","8076"," ","<p>Ecco un esempio delle parole che vedrai:</p>
      <img src='esempio.png' height='400px'>
      <p>Quando sei pronti per iniziare, premi la barra.</p></div>","","","","","","","",""
"html-keyboard-response","7","170242","0.0-7.0-0.0","5d97c38dce449e001244dc15","64afc2c9a8732ea92db0087d","64afd7693177c2f995e6434a","null","null","<p style=""font-size: 60px; font-family: BACS"">AmaclJcUk</p>","","","","","","","",""
"html-keyboard-response","8","171244","0.0-7.0-0.1","5d97c38dce449e001244dc15","64afc2c9a8732ea92db0087d","64afd7693177c2f995e6434a","null","null","<p style=""font-size: 60px; font-family: BACS"">rkJukdrO</p>","","","","","","","",""
"html-keyboard-response","9","172246","0.0-7.0-0.2","5d97c38dce449e001244dc15","64afc2c9a8732ea92db0087d","64afd7693177c2f995e6434a","null","null","<p style=""font-size: 60px; font-family: BACS"">AmaclNUZ</p>","","","","","","","",""
"html-keyboard-response","10","173247","0.0-7.0-0.3","5d97c38dce449e001244dc15","64afc2c9a8732ea92db0087d","64afd7693177c2f995e6434a","null","null","<p style=""font-size: 60px; font-family: BACS"">UAcdukdrO</p>","","","","","","","",""
"html-keyboard-response","11","174248","0.0-7.0-0.4","5d97c38dce449e001244dc15","64afc2c9a8732ea92db0087d","64afd7693177c2f995e6434a","null","null","<p style=""font-size: 60px; font-family: BACS"">mARMDlDT</p>","","","","","","","",""
"html-keyboard-response","12","175256","0.0-7.0-0.5","5d97c38dce449e001244dc15","64afc2c9a8732ea92db0087d","64afd7693177c2f995e6434a","null","null","<p style=""font-size: 60px; font-family: BACS"">bNdmGJcUk</p>","","","","","","","",""
"html-keyboard-response","13","176264","0.0-7.0-0.6","5d97c38dce449e001244dc15","64afc2c9a8732ea92db0087d","64afd7693177c2f995e6434a","null","null","<p style=""font-size: 60px; font-family: BACS"">YlYcDlDT</p>","","","","","","","",""
"html-keyboard-response","14","177269","0.0-7.0-0.7","5d97c38dce449e001244dc15","64afc2c9a8732ea92db0087d","64afd7693177c2f995e6434a","null","null","<p style=""font-size: 60px; font-family: BACS"">PYkCTmTm</p>","","","","","","","",""
"html-keyboard-response","15","178276","0.0-7.0-0.8","5d97c38dce449e001244dc15","64afc2c9a8732ea92db0087d","64afd7693177c2f995e6434a","null","null","<p style=""font-size: 60px; font-family: BACS"">mLdkZNUZ</p>","","","","","","","",""
"html-keyboard-response","16","179280","0.0-7.0-0.9","5d97c38dce449e001244dc15","64afc2c9a8732ea92db0087d","64afd7693177c2f995e6434a","null","null","<p style=""font-size: 60px; font-family: BACS"">RYtkcRCdc</p>","","","","","","","",""
"html-keyboard-response","17","180290","0.0-7.0-0.10","5d97c38dce449e001244dc15","64afc2c9a8732ea92db0087d","64afd7693177c2f995e6434a","null","null","<p style=""font-size: 60px; font-family: BACS"">DlDdDlDT</p>","","","","","","","",""
"html-keyboard-response","18","181298","0.0-7.0-0.11","5d97c38dce449e001244dc15","64afc2c9a8732ea92db0087d","64afd7693177c2f995e6434a","null","null","<p style=""font-size: 60px; font-family: BACS"">PYkCRCdc</p>","","","","","","","",""
"html-keyboard-response","19","182307","0.0-7.0-0.12","5d97c38dce449e001244dc15","64afc2c9a8732ea92db0087d","64afd7693177c2f995e6434a","null","null","<p style=""font-size: 60px; font-family: BACS"">mARMTmTm</p>","","","","","","","",""
"html-keyboard-response","20","183308","0.0-7.0-0.13","5d97c38dce449e001244dc15","64afc2c9a8732ea92db0087d","64afd7693177c2f995e6434a","null","null","<p style=""font-size: 60px; font-family: BACS"">kcOYBRDh</p>","","","","","","","",""
"html-keyboard-response","21","184321","0.0-7.0-0.14","5d97c38dce449e001244dc15","64afc2c9a8732ea92db0087d","64afd7693177c2f995e6434a","null","null","<p style=""font-size: 60px; font-family: BACS"">OJGQNUZ</p>","","","","","","","",""
"html-keyboard-response","22","185323","0.0-7.0-0.15","5d97c38dce449e001244dc15","64afc2c9a8732ea92db0087d","64afd7693177c2f995e6434a","null","null","<p style=""font-size: 60px; font-family: BACS"">DlDdDmh</p>","","","","","","","",""
"html-keyboard-response","23","186325","0.0-7.0-0.16","5d97c38dce449e001244dc15","64afc2c9a8732ea92db0087d","64afd7693177c2f995e6434a","null","null","<p style=""font-size: 60px; font-family: BACS"">dGLAlkdrO</p>","","","","","","","",""
"html-keyboard-response","24","187326","0.0-7.0-0.17","5d97c38dce449e001244dc15","64afc2c9a8732ea92db0087d","64afd7693177c2f995e6434a","null","null","<p style=""font-size: 60px; font-family: BACS"">EPERdBRDh</p>","","","","","","","",""
"html-keyboard-response","25","188330","0.0-7.0-0.18","5d97c38dce449e001244dc15","64afc2c9a8732ea92db0087d","64afd7693177c2f995e6434a","null","null","<p style=""font-size: 60px; font-family: BACS"">YOaAbJcUk</p>","","","","","","","",""
"html-keyboard-response","26","189337","0.0-7.0-0.19","5d97c38dce449e001244dc15","64afc2c9a8732ea92db0087d","64afd7693177c2f995e6434a","null","null","<p style=""font-size: 60px; font-family: BACS"">TdmADlDT</p>","","","","","","","",""
"html-keyboard-response","27","190341","0.0-7.0-0.20","5d97c38dce449e001244dc15","64afc2c9a8732ea92db0087d","64afd7693177c2f995e6434a","null","null","<p style=""font-size: 60px; font-family: BACS"">UAcduNUZ</p>","","","","","","","",""
"html-keyboard-response","28","191348","0.0-7.0-0.21","5d97c38dce449e001244dc15","64afc2c9a8732ea92db0087d","64afd7693177c2f995e6434a","null","null","<p style=""font-size: 60px; font-family: BACS"">bNdmGJZr</p>","","","","","","","",""
"html-keyboard-response","29","192353","0.0-7.0-0.22","5d97c38dce449e001244dc15","64afc2c9a8732ea92db0087d","64afd7693177c2f995e6434a","null","null","<p style=""font-size: 60px; font-family: BACS"">kcOYRCdc</p>","","","","","","","",""
"html-keyboard-response","30","193355","0.0-7.0-0.23","5d97c38dce449e001244dc15","64afc2c9a8732ea92db0087d","64afd7693177c2f995e6434a","null","null","<p style=""font-size: 60px; font-family: BACS"">mARMDmh</p>","","","","","","","",""
"html-keyboard-response","31","194356","0.0-7.0-0.24","5d97c38dce449e001244dc15","64afc2c9a8732ea92db0087d","64afd7693177c2f995e6434a","null","null","<p style=""font-size: 60px; font-family: BACS"">kcOYTmTm</p>","","","","","","","",""
"html-keyboard-response","32","195357","0.0-7.0-0.25","5d97c38dce449e001244dc15","64afc2c9a8732ea92db0087d","64afd7693177c2f995e6434a","null","null","<p style=""font-size: 60px; font-family: BACS"">OdlNmNUZ</p>","","","","","","","",""
"html-keyboard-response","33","196363","0.0-7.0-0.26","5d97c38dce449e001244dc15","64afc2c9a8732ea92db0087d","64afd7693177c2f995e6434a","null","null","<p style=""font-size: 60px; font-family: BACS"">DlDdBRDh</p>","","","","","","","",""
"html-keyboard-response","34","197365","0.0-7.0-0.27","5d97c38dce449e001244dc15","64afc2c9a8732ea92db0087d","64afd7693177c2f995e6434a","null","null","<p style=""font-size: 60px; font-family: BACS"">UvOGJZr</p>","","","","","","","",""
"html-keyboard-response","35","198373","0.0-7.0-0.28","5d97c38dce449e001244dc15","64afc2c9a8732ea92db0087d","64afd7693177c2f995e6434a","null","null","<p style=""font-size: 60px; font-family: BACS"">OdlNmkdrO</p>","","","","","","","",""
"html-keyboard-response","36","199381","0.0-7.0-0.29","5d97c38dce449e001244dc15","64afc2c9a8732ea92db0087d","64afd7693177c2f995e6434a","null","null","<p style=""font-size: 60px; font-family: BACS"">BOckPTmTm</p>","","","","","","","",""
"html-keyboard-response","37","200384","0.0-7.0-0.30","5d97c38dce449e001244dc15","64afc2c9a8732ea92db0087d","64afd7693177c2f995e6434a","null","null","<p style=""font-size: 60px; font-family: BACS"">DlDdRCdc</p>","","","","","","","",""
"html-keyboard-response","38","201390","0.0-7.0-0.31","5d97c38dce449e001244dc15","64afc2c9a8732ea92db0087d","64afd7693177c2f995e6434a","null","null","<p style=""font-size: 60px; font-family: BACS"">UvOGNUZ</p>","","","","","","","",""
"html-keyboard-response","39","202391","0.0-7.0-0.32","5d97c38dce449e001244dc15","64afc2c9a8732ea92db0087d","64afd7693177c2f995e6434a","null","null","<p style=""font-size: 60px; font-family: BACS"">AmaclJZr</p>","","","","","","","",""
"html-keyboard-response","40","203393","0.0-7.0-0.33","5d97c38dce449e001244dc15","64afc2c9a8732ea92db0087d","64afd7693177c2f995e6434a","null","null","<p style=""font-size: 60px; font-family: BACS"">BOckPRCdc</p>","","","","","","","",""
"html-keyboard-response","41","204394","0.0-7.0-0.34","5d97c38dce449e001244dc15","64afc2c9a8732ea92db0087d","64afd7693177c2f995e6434a","null","null","<p style=""font-size: 60px; font-family: BACS"">DMRPDlDT</p>","","","","","","","",""
"html-keyboard-response","42","205407","0.0-7.0-0.35","5d97c38dce449e001244dc15","64afc2c9a8732ea92db0087d","64afd7693177c2f995e6434a","null","null","<p style=""font-size: 60px; font-family: BACS"">OdlNmJZr</p>","","","","","","","",""
"html-keyboard-response","43","206408","0.0-7.0-0.36","5d97c38dce449e001244dc15","64afc2c9a8732ea92db0087d","64afd7693177c2f995e6434a","null","null","<p style=""font-size: 60px; font-family: BACS"">TdmARCdc</p>","","","","","","","",""
"html-keyboard-response","44","207421","0.0-7.0-0.37","5d97c38dce449e001244dc15","64afc2c9a8732ea92db0087d","64afd7693177c2f995e6434a","null","null","<p style=""font-size: 60px; font-family: BACS"">RYtkcTmTm</p>","","","","","","","",""
"html-keyboard-response","45","208429","0.0-7.0-0.38","5d97c38dce449e001244dc15","64afc2c9a8732ea92db0087d","64afd7693177c2f995e6434a","null","null","<p style=""font-size: 60px; font-family: BACS"">UAcduJcUk</p>","","","","","","","",""
"html-keyboard-response","46","209431","0.0-7.0-0.39","5d97c38dce449e001244dc15","64afc2c9a8732ea92db0087d","64afd7693177c2f995e6434a","null","null","<p style=""font-size: 60px; font-family: BACS"">YOaAbark</p>","","","","","","","",""
"html-keyboard-response","47","210444","0.0-7.0-0.40","5d97c38dce449e001244dc15","64afc2c9a8732ea92db0087d","64afd7693177c2f995e6434a","null","null","<p style=""font-size: 60px; font-family: BACS"">bNdmGkdrO</p>","","","","","","","",""
"html-keyboard-response","48","211445","0.0-7.0-0.41","5d97c38dce449e001244dc15","64afc2c9a8732ea92db0087d","64afd7693177c2f995e6434a","null","null","<p style=""font-size: 60px; font-family: BACS"">rkJuJcUk</p>","","","","","","","",""
"html-keyboard-response","49","212456","0.0-7.0-0.42","5d97c38dce449e001244dc15","64afc2c9a8732ea92db0087d","64afd7693177c2f995e6434a","null","null","<p style=""font-size: 60px; font-family: BACS"">UvOGkdrO</p>","","","","","","","",""
"html-keyboard-response","50","213457","0.0-7.0-0.43","5d97c38dce449e001244dc15","64afc2c9a8732ea92db0087d","64afd7693177c2f995e6434a","null","null","<p style=""font-size: 60px; font-family: BACS"">RYtkcDmh</p>","","","","","","","",""
"html-keyboard-response","51","214458","0.0-7.0-0.44","5d97c38dce449e001244dc15","64afc2c9a8732ea92db0087d","64afd7693177c2f995e6434a","null","null","<p style=""font-size: 60px; font-family: BACS"">Amaclark</p>","","","","","","","",""
"html-keyboard-response","52","215459","0.0-7.0-0.45","5d97c38dce449e001244dc15","64afc2c9a8732ea92db0087d","64afd7693177c2f995e6434a","null","null","<p style=""font-size: 60px; font-family: BACS"">RYtkcDlDT</p>","","","","","","","",""
"html-keyboard-response","53","216461","0.0-7.0-0.46","5d97c38dce449e001244dc15","64afc2c9a8732ea92db0087d","64afd7693177c2f995e6434a","null","null","<p style=""font-size: 60px; font-family: BACS"">bNdmGNUZ</p>","","","","","","","",""
"html-keyboard-response","54","217462","0.0-7.0-0.47","5d97c38dce449e001244dc15","64afc2c9a8732ea92db0087d","64afd7693177c2f995e6434a","null","null","<p style=""font-size: 60px; font-family: BACS"">TdmADmh</p>","","","","","","","",""
"html-keyboard-response","55","218476","0.0-7.0-0.48","5d97c38dce449e001244dc15","64afc2c9a8732ea92db0087d","64afd7693177c2f995e6434a","null","null","<p style=""font-size: 60px; font-family: BACS"">mLdkZark</p>","","","","","","","",""
"html-keyboard-response","56","219477","0.0-7.0-0.49","5d97c38dce449e001244dc15","64afc2c9a8732ea92db0087d","64afd7693177c2f995e6434a","null","null","<p style=""font-size: 60px; font-family: BACS"">rkJuJZr</p>","","","","","","","",""
"html-keyboard-response","57","220487","0.0-7.0-0.50","5d97c38dce449e001244dc15","64afc2c9a8732ea92db0087d","64afd7693177c2f995e6434a","null","null","<p style=""font-size: 60px; font-family: BACS"">UAcduark</p>","","","","","","","",""
"html-keyboard-response","58","221490","0.0-7.0-0.51","5d97c38dce449e001244dc15","64afc2c9a8732ea92db0087d","64afd7693177c2f995e6434a","null","null","<p style=""font-size: 60px; font-family: BACS"">YlYcRCdc</p>","","","","","","","",""
"html-keyboard-response","59","222491","0.0-7.0-0.52","5d97c38dce449e001244dc15","64afc2c9a8732ea92db0087d","64afd7693177c2f995e6434a","null","null","<p style=""font-size: 60px; font-family: BACS"">EPERdTmTm</p>","","","","","","","",""
"html-keyboard-response","60","223505","0.0-7.0-0.53","5d97c38dce449e001244dc15","64afc2c9a8732ea92db0087d","64afd7693177c2f995e6434a","null","null","<p style=""font-size: 60px; font-family: BACS"">YOaAbkdrO</p>","","","","","","","",""
"html-keyboard-response","61","224510","0.0-7.0-0.54","5d97c38dce449e001244dc15","64afc2c9a8732ea92db0087d","64afd7693177c2f995e6434a","null","null","<p style=""font-size: 60px; font-family: BACS"">BOckPBRDh</p>","","","","","","","",""
"html-keyboard-response","62","225511","0.0-7.0-0.55","5d97c38dce449e001244dc15","64afc2c9a8732ea92db0087d","64afd7693177c2f995e6434a","null","null","<p style=""font-size: 60px; font-family: BACS"">UvOGark</p>","","","","","","","",""
"html-keyboard-response","63","226512","0.0-7.0-0.56","5d97c38dce449e001244dc15","64afc2c9a8732ea92db0087d","64afd7693177c2f995e6434a","null","null","<p style=""font-size: 60px; font-family: BACS"">mLdkZJZr</p>","","","","","","","",""
"html-keyboard-response","64","227514","0.0-7.0-0.57","5d97c38dce449e001244dc15","64afc2c9a8732ea92db0087d","64afd7693177c2f995e6434a","null","null","<p style=""font-size: 60px; font-family: BACS"">YlYcBRDh</p>","","","","","","","",""
"html-keyboard-response","65","228514","0.0-7.0-0.58","5d97c38dce449e001244dc15","64afc2c9a8732ea92db0087d","64afd7693177c2f995e6434a","null","null","<p style=""font-size: 60px; font-family: BACS"">OdlNmark</p>","","","","","","","",""
"html-keyboard-response","66","229516","0.0-7.0-0.59","5d97c38dce449e001244dc15","64afc2c9a8732ea92db0087d","64afd7693177c2f995e6434a","null","null","<p style=""font-size: 60px; font-family: BACS"">YlYcDmh</p>","","","","","","","",""
"html-keyboard-response","67","230528","0.0-7.0-0.60","5d97c38dce449e001244dc15","64afc2c9a8732ea92db0087d","64afd7693177c2f995e6434a","null","null","<p style=""font-size: 60px; font-family: BACS"">DMRPBRDh</p>","","","","","","","",""
"html-keyboard-response","68","231538","0.0-7.0-0.61","5d97c38dce449e001244dc15","64afc2c9a8732ea92db0087d","64afd7693177c2f995e6434a","null","null","<p style=""font-size: 60px; font-family: BACS"">dGLAlNUZ</p>","","","","","","","",""
"html-keyboard-response","69","232539","0.0-7.0-0.62","5d97c38dce449e001244dc15","64afc2c9a8732ea92db0087d","64afd7693177c2f995e6434a","null","null","<p style=""font-size: 60px; font-family: BACS"">EPERdDlDT</p>","","","","","","","",""
"html-keyboard-response","70","233540","0.0-7.0-0.63","5d97c38dce449e001244dc15","64afc2c9a8732ea92db0087d","64afd7693177c2f995e6434a","null","null","<p style=""font-size: 60px; font-family: BACS"">DMRPTmTm</p>","","","","","","","",""
"html-keyboard-response","71","234541","0.0-7.0-0.64","5d97c38dce449e001244dc15","64afc2c9a8732ea92db0087d","64afd7693177c2f995e6434a","null","null","<p style=""font-size: 60px; font-family: BACS"">BOckPDmh</p>","","","","","","","",""
"html-keyboard-response","72","235542","0.0-7.0-0.65","5d97c38dce449e001244dc15","64afc2c9a8732ea92db0087d","64afd7693177c2f995e6434a","null","null","<p style=""font-size: 60px; font-family: BACS"">kcOYDlDT</p>","","","","","","","",""
"html-keyboard-response","73","236543","0.0-7.0-0.66","5d97c38dce449e001244dc15","64afc2c9a8732ea92db0087d","64afd7693177c2f995e6434a","null","null","<p style=""font-size: 60px; font-family: BACS"">PYkCBRDh</p>","","","","","","","",""
"html-keyboard-response","74","237547","0.0-7.0-0.67","5d97c38dce449e001244dc15","64afc2c9a8732ea92db0087d","64afd7693177c2f995e6434a","null","null","<p style=""font-size: 60px; font-family: BACS"">DMRPRCdc</p>","","","","","","","",""
"html-keyboard-response","75","238549","0.0-7.0-0.68","5d97c38dce449e001244dc15","64afc2c9a8732ea92db0087d","64afd7693177c2f995e6434a","null","null","<p style=""font-size: 60px; font-family: BACS"">OJGQJcUk</p>","","","","","","","",""
"html-keyboard-response","76","239562","0.0-7.0-0.69","5d97c38dce449e001244dc15","64afc2c9a8732ea92db0087d","64afd7693177c2f995e6434a","null","null","<p style=""font-size: 60px; font-family: BACS"">PYkCDmh</p>","","","","","","","",""
"html-keyboard-response","77","240564","0.0-7.0-0.70","5d97c38dce449e001244dc15","64afc2c9a8732ea92db0087d","64afd7693177c2f995e6434a","null","null","<p style=""font-size: 60px; font-family: BACS"">rkJuark</p>","","","","","","","",""
"html-keyboard-response","78","241566","0.0-7.0-0.71","5d97c38dce449e001244dc15","64afc2c9a8732ea92db0087d","64afd7693177c2f995e6434a","null","null","<p style=""font-size: 60px; font-family: BACS"">YOaAbJZr</p>","","","","","","","",""
"html-keyboard-response","79","242567","0.0-7.0-0.72","5d97c38dce449e001244dc15","64afc2c9a8732ea92db0087d","64afd7693177c2f995e6434a","null","null","<p style=""font-size: 60px; font-family: BACS"">TdmATmTm</p>","","","","","","","",""
"html-keyboard-response","80","243568","0.0-7.0-0.73","5d97c38dce449e001244dc15","64afc2c9a8732ea92db0087d","64afd7693177c2f995e6434a","null","null","<p style=""font-size: 60px; font-family: BACS"">dGLAlJZr</p>","","","","","","","",""
"html-keyboard-response","81","244579","0.0-7.0-0.74","5d97c38dce449e001244dc15","64afc2c9a8732ea92db0087d","64afd7693177c2f995e6434a","null","null","<p style=""font-size: 60px; font-family: BACS"">EPERdDmh</p>","","","","","","","",""
"html-keyboard-response","82","245580","0.0-7.0-0.75","5d97c38dce449e001244dc15","64afc2c9a8732ea92db0087d","64afd7693177c2f995e6434a","null","null","<p style=""font-size: 60px; font-family: BACS"">mLdkZJcUk</p>","","","","","","","",""
"html-keyboard-response","83","246581","0.0-7.0-0.76","5d97c38dce449e001244dc15","64afc2c9a8732ea92db0087d","64afd7693177c2f995e6434a","null","null","<p style=""font-size: 60px; font-family: BACS"">OJGQkdrO</p>","","","","","","","",""
"html-keyboard-response","84","247583","0.0-7.0-0.77","5d97c38dce449e001244dc15","64afc2c9a8732ea92db0087d","64afd7693177c2f995e6434a","null","null","<p style=""font-size: 60px; font-family: BACS"">dGLAlJcUk</p>","","","","","","","",""
"html-keyboard-response","85","248589","0.0-7.0-0.78","5d97c38dce449e001244dc15","64afc2c9a8732ea92db0087d","64afd7693177c2f995e6434a","null","null","<p style=""font-size: 60px; font-family: BACS"">mARMBRDh</p>","","","","","","","",""
"html-keyboard-response","86","249590","0.0-7.0-0.79","5d97c38dce449e001244dc15","64afc2c9a8732ea92db0087d","64afd7693177c2f995e6434a","null","null","<p style=""font-size: 60px; font-family: BACS"">OJGQark</p>","","","","","","","",""
"html-keyboard-response","87","265429","0.0-8.0","5d97c38dce449e001244dc15","64afc2c9a8732ea92db0087d","64afd7693177c2f995e6434a","15838"," ","<p>Ottimo, hai visto il primo blocco di parole. Ora puoi prenderti una piccola pausa.</p>
      <p>Premi la barra quando sei pronta/o per riprendere.</p>","","","","","","","",""
"html-keyboard-response","88","266434","0.0-9.0-0.0","5d97c38dce449e001244dc15","64afc2c9a8732ea92db0087d","64afd7693177c2f995e6434a","null","null","<p style=""font-size: 60px; font-family: BACS"">mLdkZNUZ</p>","","","","","","","",""
"html-keyboard-response","89","267436","0.0-9.0-0.1","5d97c38dce449e001244dc15","64afc2c9a8732ea92db0087d","64afd7693177c2f995e6434a","null","null","<p style=""font-size: 60px; font-family: BACS"">DlDdBRDh</p>","","","","","","","",""
"html-keyboard-response","90","268451","0.0-9.0-0.2","5d97c38dce449e001244dc15","64afc2c9a8732ea92db0087d","64afd7693177c2f995e6434a","null","null","<p style=""font-size: 60px; font-family: BACS"">RYtkcDlDT</p>","","","","","","","",""
"html-keyboard-response","91","269455","0.0-9.0-0.3","5d97c38dce449e001244dc15","64afc2c9a8732ea92db0087d","64afd7693177c2f995e6434a","null","null","<p style=""font-size: 60px; font-family: BACS"">rkJukdrO</p>","","","","","","","",""
"html-keyboard-response","92","270459","0.0-9.0-0.4","5d97c38dce449e001244dc15","64afc2c9a8732ea92db0087d","64afd7693177c2f995e6434a","null","null","<p style=""font-size: 60px; font-family: BACS"">mLdkZJcUk</p>","","","","","","","",""
"html-keyboard-response","93","271463","0.0-9.0-0.5","5d97c38dce449e001244dc15","64afc2c9a8732ea92db0087d","64afd7693177c2f995e6434a","null","null","<p style=""font-size: 60px; font-family: BACS"">UAcdukdrO</p>","","","","","","","",""
"html-keyboard-response","94","272471","0.0-9.0-0.6","5d97c38dce449e001244dc15","64afc2c9a8732ea92db0087d","64afd7693177c2f995e6434a","null","null","<p style=""font-size: 60px; font-family: BACS"">OJGQNUZ</p>","","","","","","","",""
"html-keyboard-response","95","273471","0.0-9.0-0.7","5d97c38dce449e001244dc15","64afc2c9a8732ea92db0087d","64afd7693177c2f995e6434a","null","null","<p style=""font-size: 60px; font-family: BACS"">DMRPTmTm</p>","","","","","","","",""
"html-keyboard-response","96","274472","0.0-9.0-0.8","5d97c38dce449e001244dc15","64afc2c9a8732ea92db0087d","64afd7693177c2f995e6434a","null","null","<p style=""font-size: 60px; font-family: BACS"">EPERdDlDT</p>","","","","","","","",""
"html-keyboard-response","97","275474","0.0-9.0-0.9","5d97c38dce449e001244dc15","64afc2c9a8732ea92db0087d","64afd7693177c2f995e6434a","null","null","<p style=""font-size: 60px; font-family: BACS"">bNdmGJcUk</p>","","","","","","","",""
"html-keyboard-response","98","276485","0.0-9.0-0.10","5d97c38dce449e001244dc15","64afc2c9a8732ea92db0087d","64afd7693177c2f995e6434a","null","null","<p style=""font-size: 60px; font-family: BACS"">EPERdBRDh</p>","","","","","","","",""
"html-keyboard-response","99","277485","0.0-9.0-0.11","5d97c38dce449e001244dc15","64afc2c9a8732ea92db0087d","64afd7693177c2f995e6434a","null","null","<p style=""font-size: 60px; font-family: BACS"">OdlNmNUZ</p>","","","","","","","",""
"html-keyboard-response","100","278500","0.0-9.0-0.12","5d97c38dce449e001244dc15","64afc2c9a8732ea92db0087d","64afd7693177c2f995e6434a","null","null","<p style=""font-size: 60px; font-family: BACS"">OJGQJcUk</p>","","","","","","","",""
"html-keyboard-response","101","279502","0.0-9.0-0.13","5d97c38dce449e001244dc15","64afc2c9a8732ea92db0087d","64afd7693177c2f995e6434a","null","null","<p style=""font-size: 60px; font-family: BACS"">UvOGJZr</p>","","","","","","","",""
"html-keyboard-response","102","280503","0.0-9.0-0.14","5d97c38dce449e001244dc15","64afc2c9a8732ea92db0087d","64afd7693177c2f995e6434a","null","null","<p style=""font-size: 60px; font-family: BACS"">kcOYBRDh</p>","","","","","","","",""
"html-keyboard-response","103","281503","0.0-9.0-0.15","5d97c38dce449e001244dc15","64afc2c9a8732ea92db0087d","64afd7693177c2f995e6434a","null","null","<p style=""font-size: 60px; font-family: BACS"">BOckPDmh</p>","","","","","","","",""
"html-keyboard-response","104","282504","0.0-9.0-0.16","5d97c38dce449e001244dc15","64afc2c9a8732ea92db0087d","64afd7693177c2f995e6434a","null","null","<p style=""font-size: 60px; font-family: BACS"">EPERdTmTm</p>","","","","","","","",""
"html-keyboard-response","105","283507","0.0-9.0-0.17","5d97c38dce449e001244dc15","64afc2c9a8732ea92db0087d","64afd7693177c2f995e6434a","null","null","<p style=""font-size: 60px; font-family: BACS"">YlYcRCdc</p>","","","","","","","",""
"html-keyboard-response","106","284507","0.0-9.0-0.18","5d97c38dce449e001244dc15","64afc2c9a8732ea92db0087d","64afd7693177c2f995e6434a","null","null","<p style=""font-size: 60px; font-family: BACS"">YOaAbark</p>","","","","","","","",""
"html-keyboard-response","107","285508","0.0-9.0-0.19","5d97c38dce449e001244dc15","64afc2c9a8732ea92db0087d","64afd7693177c2f995e6434a","null","null","<p style=""font-size: 60px; font-family: BACS"">mARMBRDh</p>","","","","","","","",""
"html-keyboard-response","108","286523","0.0-9.0-0.20","5d97c38dce449e001244dc15","64afc2c9a8732ea92db0087d","64afd7693177c2f995e6434a","null","null","<p style=""font-size: 60px; font-family: BACS"">YlYcDmh</p>","","","","","","","",""
"html-keyboard-response","109","287524","0.0-9.0-0.21","5d97c38dce449e001244dc15","64afc2c9a8732ea92db0087d","64afd7693177c2f995e6434a","null","null","<p style=""font-size: 60px; font-family: BACS"">UvOGark</p>","","","","","","","",""
"html-keyboard-response","110","288526","0.0-9.0-0.22","5d97c38dce449e001244dc15","64afc2c9a8732ea92db0087d","64afd7693177c2f995e6434a","null","null","<p style=""font-size: 60px; font-family: BACS"">bNdmGJZr</p>","","","","","","","",""
"html-keyboard-response","111","289527","0.0-9.0-0.23","5d97c38dce449e001244dc15","64afc2c9a8732ea92db0087d","64afd7693177c2f995e6434a","null","null","<p style=""font-size: 60px; font-family: BACS"">UAcduJcUk</p>","","","","","","","",""
"html-keyboard-response","112","290528","0.0-9.0-0.24","5d97c38dce449e001244dc15","64afc2c9a8732ea92db0087d","64afd7693177c2f995e6434a","null","null","<p style=""font-size: 60px; font-family: BACS"">YOaAbkdrO</p>","","","","","","","",""
"html-keyboard-response","113","291529","0.0-9.0-0.25","5d97c38dce449e001244dc15","64afc2c9a8732ea92db0087d","64afd7693177c2f995e6434a","null","null","<p style=""font-size: 60px; font-family: BACS"">dGLAlJcUk</p>","","","","","","","",""
"html-keyboard-response","114","292530","0.0-9.0-0.26","5d97c38dce449e001244dc15","64afc2c9a8732ea92db0087d","64afd7693177c2f995e6434a","null","null","<p style=""font-size: 60px; font-family: BACS"">kcOYTmTm</p>","","","","","","","",""
"html-keyboard-response","115","293532","0.0-9.0-0.27","5d97c38dce449e001244dc15","64afc2c9a8732ea92db0087d","64afd7693177c2f995e6434a","null","null","<p style=""font-size: 60px; font-family: BACS"">rkJuark</p>","","","","","","","",""
"html-keyboard-response","116","294533","0.0-9.0-0.28","5d97c38dce449e001244dc15","64afc2c9a8732ea92db0087d","64afd7693177c2f995e6434a","null","null","<p style=""font-size: 60px; font-family: BACS"">UAcduNUZ</p>","","","","","","","",""
"html-keyboard-response","117","295534","0.0-9.0-0.29","5d97c38dce449e001244dc15","64afc2c9a8732ea92db0087d","64afd7693177c2f995e6434a","null","null","<p style=""font-size: 60px; font-family: BACS"">RYtkcRCdc</p>","","","","","","","",""
"html-keyboard-response","118","296538","0.0-9.0-0.30","5d97c38dce449e001244dc15","64afc2c9a8732ea92db0087d","64afd7693177c2f995e6434a","null","null","<p style=""font-size: 60px; font-family: BACS"">AmaclJZr</p>","","","","","","","",""
"html-keyboard-response","119","297540","0.0-9.0-0.31","5d97c38dce449e001244dc15","64afc2c9a8732ea92db0087d","64afd7693177c2f995e6434a","null","null","<p style=""font-size: 60px; font-family: BACS"">DlDdDmh</p>","","","","","","","",""
"html-keyboard-response","120","298552","0.0-9.0-0.32","5d97c38dce449e001244dc15","64afc2c9a8732ea92db0087d","64afd7693177c2f995e6434a","null","null","<p style=""font-size: 60px; font-family: BACS"">mARMTmTm</p>","","","","","","","",""
"html-keyboard-response","121","299553","0.0-9.0-0.33","5d97c38dce449e001244dc15","64afc2c9a8732ea92db0087d","64afd7693177c2f995e6434a","null","null","<p style=""font-size: 60px; font-family: BACS"">OJGQark</p>","","","","","","","",""
"html-keyboard-response","122","300565","0.0-9.0-0.34","5d97c38dce449e001244dc15","64afc2c9a8732ea92db0087d","64afd7693177c2f995e6434a","null","null","<p style=""font-size: 60px; font-family: BACS"">AmaclNUZ</p>","","","","","","","",""
"html-keyboard-response","123","301571","0.0-9.0-0.35","5d97c38dce449e001244dc15","64afc2c9a8732ea92db0087d","64afd7693177c2f995e6434a","null","null","<p style=""font-size: 60px; font-family: BACS"">YOaAbJZr</p>","","","","","","","",""
"html-keyboard-response","124","302572","0.0-9.0-0.36","5d97c38dce449e001244dc15","64afc2c9a8732ea92db0087d","64afd7693177c2f995e6434a","null","null","<p style=""font-size: 60px; font-family: BACS"">OdlNmkdrO</p>","","","","","","","",""
"html-keyboard-response","125","303583","0.0-9.0-0.37","5d97c38dce449e001244dc15","64afc2c9a8732ea92db0087d","64afd7693177c2f995e6434a","null","null","<p style=""font-size: 60px; font-family: BACS"">mLdkZJZr</p>","","","","","","","",""
"html-keyboard-response","126","304589","0.0-9.0-0.38","5d97c38dce449e001244dc15","64afc2c9a8732ea92db0087d","64afd7693177c2f995e6434a","null","null","<p style=""font-size: 60px; font-family: BACS"">BOckPTmTm</p>","","","","","","","",""
"html-keyboard-response","127","305590","0.0-9.0-0.39","5d97c38dce449e001244dc15","64afc2c9a8732ea92db0087d","64afd7693177c2f995e6434a","null","null","<p style=""font-size: 60px; font-family: BACS"">DlDdRCdc</p>","","","","","","","",""
"html-keyboard-response","128","306591","0.0-9.0-0.40","5d97c38dce449e001244dc15","64afc2c9a8732ea92db0087d","64afd7693177c2f995e6434a","null","null","<p style=""font-size: 60px; font-family: BACS"">RYtkcDmh</p>","","","","","","","",""
"html-keyboard-response","129","307593","0.0-9.0-0.41","5d97c38dce449e001244dc15","64afc2c9a8732ea92db0087d","64afd7693177c2f995e6434a","null","null","<p style=""font-size: 60px; font-family: BACS"">DlDdDlDT</p>","","","","","","","",""
"html-keyboard-response","130","308594","0.0-9.0-0.42","5d97c38dce449e001244dc15","64afc2c9a8732ea92db0087d","64afd7693177c2f995e6434a","null","null","<p style=""font-size: 60px; font-family: BACS"">TdmATmTm</p>","","","","","","","",""
"html-keyboard-response","131","309596","0.0-9.0-0.43","5d97c38dce449e001244dc15","64afc2c9a8732ea92db0087d","64afd7693177c2f995e6434a","null","null","<p style=""font-size: 60px; font-family: BACS"">Amaclark</p>","","","","","","","",""
"html-keyboard-response","132","310597","0.0-9.0-0.44","5d97c38dce449e001244dc15","64afc2c9a8732ea92db0087d","64afd7693177c2f995e6434a","null","null","<p style=""font-size: 60px; font-family: BACS"">UvOGNUZ</p>","","","","","","","",""
"html-keyboard-response","133","311611","0.0-9.0-0.45","5d97c38dce449e001244dc15","64afc2c9a8732ea92db0087d","64afd7693177c2f995e6434a","null","null","<p style=""font-size: 60px; font-family: BACS"">TdmARCdc</p>","","","","","","","",""
"html-keyboard-response","134","312612","0.0-9.0-0.46","5d97c38dce449e001244dc15","64afc2c9a8732ea92db0087d","64afd7693177c2f995e6434a","null","null","<p style=""font-size: 60px; font-family: BACS"">PYkCTmTm</p>","","","","","","","",""
"html-keyboard-response","135","313613","0.0-9.0-0.47","5d97c38dce449e001244dc15","64afc2c9a8732ea92db0087d","64afd7693177c2f995e6434a","null","null","<p style=""font-size: 60px; font-family: BACS"">YlYcDlDT</p>","","","","","","","",""
"html-keyboard-response","136","314613","0.0-9.0-0.48","5d97c38dce449e001244dc15","64afc2c9a8732ea92db0087d","64afd7693177c2f995e6434a","null","null","<p style=""font-size: 60px; font-family: BACS"">OdlNmark</p>","","","","","","","",""
"html-keyboard-response","137","315622","0.0-9.0-0.49","5d97c38dce449e001244dc15","64afc2c9a8732ea92db0087d","64afd7693177c2f995e6434a","null","null","<p style=""font-size: 60px; font-family: BACS"">kcOYDlDT</p>","","","","","","","",""
"html-keyboard-response","138","316623","0.0-9.0-0.50","5d97c38dce449e001244dc15","64afc2c9a8732ea92db0087d","64afd7693177c2f995e6434a","null","null","<p style=""font-size: 60px; font-family: BACS"">OdlNmJZr</p>","","","","","","","",""
"html-keyboard-response","139","317624","0.0-9.0-0.51","5d97c38dce449e001244dc15","64afc2c9a8732ea92db0087d","64afd7693177c2f995e6434a","null","null","<p style=""font-size: 60px; font-family: BACS"">UvOGkdrO</p>","","","","","","","",""
"html-keyboard-response","140","318626","0.0-9.0-0.52","5d97c38dce449e001244dc15","64afc2c9a8732ea92db0087d","64afd7693177c2f995e6434a","null","null","<p style=""font-size: 60px; font-family: BACS"">UAcduark</p>","","","","","","","",""
"html-keyboard-response","141","319627","0.0-9.0-0.53","5d97c38dce449e001244dc15","64afc2c9a8732ea92db0087d","64afd7693177c2f995e6434a","null","null","<p style=""font-size: 60px; font-family: BACS"">rkJuJcUk</p>","","","","","","","",""
"html-keyboard-response","142","320642","0.0-9.0-0.54","5d97c38dce449e001244dc15","64afc2c9a8732ea92db0087d","64afd7693177c2f995e6434a","null","null","<p style=""font-size: 60px; font-family: BACS"">bNdmGkdrO</p>","","","","","","","",""
"html-keyboard-response","143","321643","0.0-9.0-0.55","5d97c38dce449e001244dc15","64afc2c9a8732ea92db0087d","64afd7693177c2f995e6434a","null","null","<p style=""font-size: 60px; font-family: BACS"">YlYcBRDh</p>","","","","","","","",""
"html-keyboard-response","144","322645","0.0-9.0-0.56","5d97c38dce449e001244dc15","64afc2c9a8732ea92db0087d","64afd7693177c2f995e6434a","null","null","<p style=""font-size: 60px; font-family: BACS"">AmaclJcUk</p>","","","","","","","",""
"html-keyboard-response","145","323660","0.0-9.0-0.57","5d97c38dce449e001244dc15","64afc2c9a8732ea92db0087d","64afd7693177c2f995e6434a","null","null","<p style=""font-size: 60px; font-family: BACS"">TdmADmh</p>","","","","","","","",""
"html-keyboard-response","146","324660","0.0-9.0-0.58","5d97c38dce449e001244dc15","64afc2c9a8732ea92db0087d","64afd7693177c2f995e6434a","null","null","<p style=""font-size: 60px; font-family: BACS"">dGLAlNUZ</p>","","","","","","","",""
"html-keyboard-response","147","325662","0.0-9.0-0.59","5d97c38dce449e001244dc15","64afc2c9a8732ea92db0087d","64afd7693177c2f995e6434a","null","null","<p style=""font-size: 60px; font-family: BACS"">PYkCDmh</p>","","","","","","","",""
"html-keyboard-response","148","326670","0.0-9.0-0.60","5d97c38dce449e001244dc15","64afc2c9a8732ea92db0087d","64afd7693177c2f995e6434a","null","null","<p style=""font-size: 60px; font-family: BACS"">rkJuJZr</p>","","","","","","","",""
"html-keyboard-response","149","327672","0.0-9.0-0.61","5d97c38dce449e001244dc15","64afc2c9a8732ea92db0087d","64afd7693177c2f995e6434a","null","null","<p style=""font-size: 60px; font-family: BACS"">OJGQkdrO</p>","","","","","","","",""
"html-keyboard-response","150","328685","0.0-9.0-0.62","5d97c38dce449e001244dc15","64afc2c9a8732ea92db0087d","64afd7693177c2f995e6434a","null","null","<p style=""font-size: 60px; font-family: BACS"">BOckPBRDh</p>","","","","","","","",""
"html-keyboard-response","151","329687","0.0-9.0-0.63","5d97c38dce449e001244dc15","64afc2c9a8732ea92db0087d","64afd7693177c2f995e6434a","null","null","<p style=""font-size: 60px; font-family: BACS"">dGLAlkdrO</p>","","","","","","","",""
"html-keyboard-response","152","330699","0.0-9.0-0.64","5d97c38dce449e001244dc15","64afc2c9a8732ea92db0087d","64afd7693177c2f995e6434a","null","null","<p style=""font-size: 60px; font-family: BACS"">TdmADlDT</p>","","","","","","","",""
"html-keyboard-response","153","331700","0.0-9.0-0.65","5d97c38dce449e001244dc15","64afc2c9a8732ea92db0087d","64afd7693177c2f995e6434a","null","null","<p style=""font-size: 60px; font-family: BACS"">bNdmGNUZ</p>","","","","","","","",""
"html-keyboard-response","154","332704","0.0-9.0-0.66","5d97c38dce449e001244dc15","64afc2c9a8732ea92db0087d","64afd7693177c2f995e6434a","null","null","<p style=""font-size: 60px; font-family: BACS"">mLdkZark</p>","","","","","","","",""
"html-keyboard-response","155","333705","0.0-9.0-0.67","5d97c38dce449e001244dc15","64afc2c9a8732ea92db0087d","64afd7693177c2f995e6434a","null","null","<p style=""font-size: 60px; font-family: BACS"">DMRPDlDT</p>","","","","","","","",""
"html-keyboard-response","156","334707","0.0-9.0-0.68","5d97c38dce449e001244dc15","64afc2c9a8732ea92db0087d","64afd7693177c2f995e6434a","null","null","<p style=""font-size: 60px; font-family: BACS"">YOaAbJcUk</p>","","","","","","","",""
"html-keyboard-response","157","335708","0.0-9.0-0.69","5d97c38dce449e001244dc15","64afc2c9a8732ea92db0087d","64afd7693177c2f995e6434a","null","null","<p style=""font-size: 60px; font-family: BACS"">EPERdDmh</p>","","","","","","","",""
"html-keyboard-response","158","336709","0.0-9.0-0.70","5d97c38dce449e001244dc15","64afc2c9a8732ea92db0087d","64afd7693177c2f995e6434a","null","null","<p style=""font-size: 60px; font-family: BACS"">kcOYRCdc</p>","","","","","","","",""
"html-keyboard-response","159","337718","0.0-9.0-0.71","5d97c38dce449e001244dc15","64afc2c9a8732ea92db0087d","64afd7693177c2f995e6434a","null","null","<p style=""font-size: 60px; font-family: BACS"">DMRPBRDh</p>","","","","","","","",""
"html-keyboard-response","160","338728","0.0-9.0-0.72","5d97c38dce449e001244dc15","64afc2c9a8732ea92db0087d","64afd7693177c2f995e6434a","null","null","<p style=""font-size: 60px; font-family: BACS"">dGLAlJZr</p>","","","","","","","",""
"html-keyboard-response","161","339729","0.0-9.0-0.73","5d97c38dce449e001244dc15","64afc2c9a8732ea92db0087d","64afd7693177c2f995e6434a","null","null","<p style=""font-size: 60px; font-family: BACS"">BOckPRCdc</p>","","","","","","","",""
"html-keyboard-response","162","340730","0.0-9.0-0.74","5d97c38dce449e001244dc15","64afc2c9a8732ea92db0087d","64afd7693177c2f995e6434a","null","null","<p style=""font-size: 60px; font-family: BACS"">PYkCBRDh</p>","","","","","","","",""
"html-keyboard-response","163","341731","0.0-9.0-0.75","5d97c38dce449e001244dc15","64afc2c9a8732ea92db0087d","64afd7693177c2f995e6434a","null","null","<p style=""font-size: 60px; font-family: BACS"">RYtkcTmTm</p>","","","","","","","",""
"html-keyboard-response","164","342732","0.0-9.0-0.76","5d97c38dce449e001244dc15","64afc2c9a8732ea92db0087d","64afd7693177c2f995e6434a","null","null","<p style=""font-size: 60px; font-family: BACS"">DMRPRCdc</p>","","","","","","","",""
"html-keyboard-response","165","343734","0.0-9.0-0.77","5d97c38dce449e001244dc15","64afc2c9a8732ea92db0087d","64afd7693177c2f995e6434a","null","null","<p style=""font-size: 60px; font-family: BACS"">mARMDlDT</p>","","","","","","","",""
"html-keyboard-response","166","344735","0.0-9.0-0.78","5d97c38dce449e001244dc15","64afc2c9a8732ea92db0087d","64afd7693177c2f995e6434a","null","null","<p style=""font-size: 60px; font-family: BACS"">PYkCRCdc</p>","","","","","","","",""
"html-keyboard-response","167","345736","0.0-9.0-0.79","5d97c38dce449e001244dc15","64afc2c9a8732ea92db0087d","64afd7693177c2f995e6434a","null","null","<p style=""font-size: 60px; font-family: BACS"">mARMDmh</p>","","","","","","","",""
"html-keyboard-response","168","402775","0.0-10.0","5d97c38dce449e001244dc15","64afc2c9a8732ea92db0087d","64afd7693177c2f995e6434a","57038"," ","<p>Ottimo, hai visto il secondo blocco di parole. Ora puoi prenderti una piccola pausa.</p>
      <p>Premi la barra quando sei pronta/o per riprendere.</p>","","","","","","","",""
"html-keyboard-response","169","403782","0.0-11.0-0.0","5d97c38dce449e001244dc15","64afc2c9a8732ea92db0087d","64afd7693177c2f995e6434a","null","null","<p style=""font-size: 60px; font-family: BACS"">mARMBRDh</p>","","","","","","","",""
"html-keyboard-response","170","404783","0.0-11.0-0.1","5d97c38dce449e001244dc15","64afc2c9a8732ea92db0087d","64afd7693177c2f995e6434a","null","null","<p style=""font-size: 60px; font-family: BACS"">RYtkcDlDT</p>","","","","","","","",""
"html-keyboard-response","171","405790","0.0-11.0-0.2","5d97c38dce449e001244dc15","64afc2c9a8732ea92db0087d","64afd7693177c2f995e6434a","null","null","<p style=""font-size: 60px; font-family: BACS"">UvOGkdrO</p>","","","","","","","",""
"html-keyboard-response","172","406791","0.0-11.0-0.3","5d97c38dce449e001244dc15","64afc2c9a8732ea92db0087d","64afd7693177c2f995e6434a","null","null","<p style=""font-size: 60px; font-family: BACS"">UAcduNUZ</p>","","","","","","","",""
"html-keyboard-response","173","407793","0.0-11.0-0.4","5d97c38dce449e001244dc15","64afc2c9a8732ea92db0087d","64afd7693177c2f995e6434a","null","null","<p style=""font-size: 60px; font-family: BACS"">bNdmGkdrO</p>","","","","","","","",""
"html-keyboard-response","174","408796","0.0-11.0-0.5","5d97c38dce449e001244dc15","64afc2c9a8732ea92db0087d","64afd7693177c2f995e6434a","null","null","<p style=""font-size: 60px; font-family: BACS"">OJGQark</p>","","","","","","","",""
"html-keyboard-response","175","409797","0.0-11.0-0.6","5d97c38dce449e001244dc15","64afc2c9a8732ea92db0087d","64afd7693177c2f995e6434a","null","null","<p style=""font-size: 60px; font-family: BACS"">DlDdRCdc</p>","","","","","","","",""
"html-keyboard-response","176","410802","0.0-11.0-0.7","5d97c38dce449e001244dc15","64afc2c9a8732ea92db0087d","64afd7693177c2f995e6434a","null","null","<p style=""font-size: 60px; font-family: BACS"">DMRPDlDT</p>","","","","","","","",""
"html-keyboard-response","177","411807","0.0-11.0-0.8","5d97c38dce449e001244dc15","64afc2c9a8732ea92db0087d","64afd7693177c2f995e6434a","null","null","<p style=""font-size: 60px; font-family: BACS"">mLdkZNUZ</p>","","","","","","","",""
"html-keyboard-response","178","412807","0.0-11.0-0.9","5d97c38dce449e001244dc15","64afc2c9a8732ea92db0087d","64afd7693177c2f995e6434a","null","null","<p style=""font-size: 60px; font-family: BACS"">YlYcDmh</p>","","","","","","","",""
"html-keyboard-response","179","413808","0.0-11.0-0.10","5d97c38dce449e001244dc15","64afc2c9a8732ea92db0087d","64afd7693177c2f995e6434a","null","null","<p style=""font-size: 60px; font-family: BACS"">TdmATmTm</p>","","","","","","","",""
"html-keyboard-response","180","414809","0.0-11.0-0.11","5d97c38dce449e001244dc15","64afc2c9a8732ea92db0087d","64afd7693177c2f995e6434a","null","null","<p style=""font-size: 60px; font-family: BACS"">OdlNmNUZ</p>","","","","","","","",""
"html-keyboard-response","181","415816","0.0-11.0-0.12","5d97c38dce449e001244dc15","64afc2c9a8732ea92db0087d","64afd7693177c2f995e6434a","null","null","<p style=""font-size: 60px; font-family: BACS"">PYkCRCdc</p>","","","","","","","",""
"html-keyboard-response","182","416817","0.0-11.0-0.13","5d97c38dce449e001244dc15","64afc2c9a8732ea92db0087d","64afd7693177c2f995e6434a","null","null","<p style=""font-size: 60px; font-family: BACS"">TdmADmh</p>","","","","","","","",""
"html-keyboard-response","183","417818","0.0-11.0-0.14","5d97c38dce449e001244dc15","64afc2c9a8732ea92db0087d","64afd7693177c2f995e6434a","null","null","<p style=""font-size: 60px; font-family: BACS"">mLdkZJcUk</p>","","","","","","","",""
"html-keyboard-response","184","418819","0.0-11.0-0.15","5d97c38dce449e001244dc15","64afc2c9a8732ea92db0087d","64afd7693177c2f995e6434a","null","null","<p style=""font-size: 60px; font-family: BACS"">RYtkcRCdc</p>","","","","","","","",""
"html-keyboard-response","185","419820","0.0-11.0-0.16","5d97c38dce449e001244dc15","64afc2c9a8732ea92db0087d","64afd7693177c2f995e6434a","null","null","<p style=""font-size: 60px; font-family: BACS"">dGLAlkdrO</p>","","","","","","","",""
"html-keyboard-response","186","420823","0.0-11.0-0.17","5d97c38dce449e001244dc15","64afc2c9a8732ea92db0087d","64afd7693177c2f995e6434a","null","null","<p style=""font-size: 60px; font-family: BACS"">DlDdDmh</p>","","","","","","","",""
"html-keyboard-response","187","421832","0.0-11.0-0.18","5d97c38dce449e001244dc15","64afc2c9a8732ea92db0087d","64afd7693177c2f995e6434a","null","null","<p style=""font-size: 60px; font-family: BACS"">rkJukdrO</p>","","","","","","","",""
"html-keyboard-response","188","422833","0.0-11.0-0.19","5d97c38dce449e001244dc15","64afc2c9a8732ea92db0087d","64afd7693177c2f995e6434a","null","null","<p style=""font-size: 60px; font-family: BACS"">mARMTmTm</p>","","","","","","","",""
"html-keyboard-response","189","423834","0.0-11.0-0.20","5d97c38dce449e001244dc15","64afc2c9a8732ea92db0087d","64afd7693177c2f995e6434a","null","null","<p style=""font-size: 60px; font-family: BACS"">YOaAbark</p>","","","","","","","",""
"html-keyboard-response","190","424835","0.0-11.0-0.21","5d97c38dce449e001244dc15","64afc2c9a8732ea92db0087d","64afd7693177c2f995e6434a","null","null","<p style=""font-size: 60px; font-family: BACS"">BOckPDmh</p>","","","","","","","",""
"html-keyboard-response","191","425837","0.0-11.0-0.22","5d97c38dce449e001244dc15","64afc2c9a8732ea92db0087d","64afd7693177c2f995e6434a","null","null","<p style=""font-size: 60px; font-family: BACS"">UvOGNUZ</p>","","","","","","","",""
"html-keyboard-response","192","426838","0.0-11.0-0.23","5d97c38dce449e001244dc15","64afc2c9a8732ea92db0087d","64afd7693177c2f995e6434a","null","null","<p style=""font-size: 60px; font-family: BACS"">EPERdDlDT</p>","","","","","","","",""
"html-keyboard-response","193","427851","0.0-11.0-0.24","5d97c38dce449e001244dc15","64afc2c9a8732ea92db0087d","64afd7693177c2f995e6434a","null","null","<p style=""font-size: 60px; font-family: BACS"">YlYcRCdc</p>","","","","","","","",""
"html-keyboard-response","194","428864","0.0-11.0-0.25","5d97c38dce449e001244dc15","64afc2c9a8732ea92db0087d","64afd7693177c2f995e6434a","null","null","<p style=""font-size: 60px; font-family: BACS"">OdlNmark</p>","","","","","","","",""
"html-keyboard-response","195","429878","0.0-11.0-0.26","5d97c38dce449e001244dc15","64afc2c9a8732ea92db0087d","64afd7693177c2f995e6434a","null","null","<p style=""font-size: 60px; font-family: BACS"">TdmADlDT</p>","","","","","","","",""
"html-keyboard-response","196","430879","0.0-11.0-0.27","5d97c38dce449e001244dc15","64afc2c9a8732ea92db0087d","64afd7693177c2f995e6434a","null","null","<p style=""font-size: 60px; font-family: BACS"">YOaAbJZr</p>","","","","","","","",""
"html-keyboard-response","197","431885","0.0-11.0-0.28","5d97c38dce449e001244dc15","64afc2c9a8732ea92db0087d","64afd7693177c2f995e6434a","null","null","<p style=""font-size: 60px; font-family: BACS"">OJGQkdrO</p>","","","","","","","",""
"html-keyboard-response","198","432886","0.0-11.0-0.29","5d97c38dce449e001244dc15","64afc2c9a8732ea92db0087d","64afd7693177c2f995e6434a","null","null","<p style=""font-size: 60px; font-family: BACS"">kcOYBRDh</p>","","","","","","","",""
"html-keyboard-response","199","433887","0.0-11.0-0.30","5d97c38dce449e001244dc15","64afc2c9a8732ea92db0087d","64afd7693177c2f995e6434a","null","null","<p style=""font-size: 60px; font-family: BACS"">OJGQJcUk</p>","","","","","","","",""
"html-keyboard-response","200","434888","0.0-11.0-0.31","5d97c38dce449e001244dc15","64afc2c9a8732ea92db0087d","64afd7693177c2f995e6434a","null","null","<p style=""font-size: 60px; font-family: BACS"">bNdmGNUZ</p>","","","","","","","",""
"html-keyboard-response","201","435895","0.0-11.0-0.32","5d97c38dce449e001244dc15","64afc2c9a8732ea92db0087d","64afd7693177c2f995e6434a","null","null","<p style=""font-size: 60px; font-family: BACS"">kcOYTmTm</p>","","","","","","","",""
"html-keyboard-response","202","436896","0.0-11.0-0.33","5d97c38dce449e001244dc15","64afc2c9a8732ea92db0087d","64afd7693177c2f995e6434a","null","null","<p style=""font-size: 60px; font-family: BACS"">AmaclNUZ</p>","","","","","","","",""
"html-keyboard-response","203","437898","0.0-11.0-0.34","5d97c38dce449e001244dc15","64afc2c9a8732ea92db0087d","64afd7693177c2f995e6434a","null","null","<p style=""font-size: 60px; font-family: BACS"">EPERdDmh</p>","","","","","","","",""
"html-keyboard-response","204","438899","0.0-11.0-0.35","5d97c38dce449e001244dc15","64afc2c9a8732ea92db0087d","64afd7693177c2f995e6434a","null","null","<p style=""font-size: 60px; font-family: BACS"">RYtkcTmTm</p>","","","","","","","",""
"html-keyboard-response","205","439900","0.0-11.0-0.36","5d97c38dce449e001244dc15","64afc2c9a8732ea92db0087d","64afd7693177c2f995e6434a","null","null","<p style=""font-size: 60px; font-family: BACS"">UAcduark</p>","","","","","","","",""
"html-keyboard-response","206","440901","0.0-11.0-0.37","5d97c38dce449e001244dc15","64afc2c9a8732ea92db0087d","64afd7693177c2f995e6434a","null","null","<p style=""font-size: 60px; font-family: BACS"">OJGQNUZ</p>","","","","","","","",""
"html-keyboard-response","207","441902","0.0-11.0-0.38","5d97c38dce449e001244dc15","64afc2c9a8732ea92db0087d","64afd7693177c2f995e6434a","null","null","<p style=""font-size: 60px; font-family: BACS"">mARMDmh</p>","","","","","","","",""
"html-keyboard-response","208","442904","0.0-11.0-0.39","5d97c38dce449e001244dc15","64afc2c9a8732ea92db0087d","64afd7693177c2f995e6434a","null","null","<p style=""font-size: 60px; font-family: BACS"">dGLAlJZr</p>","","","","","","","",""
"html-keyboard-response","209","443905","0.0-11.0-0.40","5d97c38dce449e001244dc15","64afc2c9a8732ea92db0087d","64afd7693177c2f995e6434a","null","null","<p style=""font-size: 60px; font-family: BACS"">UAcduJcUk</p>","","","","","","","",""
"html-keyboard-response","210","444906","0.0-11.0-0.41","5d97c38dce449e001244dc15","64afc2c9a8732ea92db0087d","64afd7693177c2f995e6434a","null","null","<p style=""font-size: 60px; font-family: BACS"">RYtkcDmh</p>","","","","","","","",""
"html-keyboard-response","211","445907","0.0-11.0-0.42","5d97c38dce449e001244dc15","64afc2c9a8732ea92db0087d","64afd7693177c2f995e6434a","null","null","<p style=""font-size: 60px; font-family: BACS"">OdlNmkdrO</p>","","","","","","","",""
"html-keyboard-response","212","446912","0.0-11.0-0.43","5d97c38dce449e001244dc15","64afc2c9a8732ea92db0087d","64afd7693177c2f995e6434a","null","null","<p style=""font-size: 60px; font-family: BACS"">kcOYRCdc</p>","","","","","","","",""
"html-keyboard-response","213","447913","0.0-11.0-0.44","5d97c38dce449e001244dc15","64afc2c9a8732ea92db0087d","64afd7693177c2f995e6434a","null","null","<p style=""font-size: 60px; font-family: BACS"">rkJuJZr</p>","","","","","","","",""
"html-keyboard-response","214","448914","0.0-11.0-0.45","5d97c38dce449e001244dc15","64afc2c9a8732ea92db0087d","64afd7693177c2f995e6434a","null","null","<p style=""font-size: 60px; font-family: BACS"">Amaclark</p>","","","","","","","",""
"html-keyboard-response","215","449915","0.0-11.0-0.46","5d97c38dce449e001244dc15","64afc2c9a8732ea92db0087d","64afd7693177c2f995e6434a","null","null","<p style=""font-size: 60px; font-family: BACS"">EPERdBRDh</p>","","","","","","","",""
"html-keyboard-response","216","450916","0.0-11.0-0.47","5d97c38dce449e001244dc15","64afc2c9a8732ea92db0087d","64afd7693177c2f995e6434a","null","null","<p style=""font-size: 60px; font-family: BACS"">mARMDlDT</p>","","","","","","","",""
"html-keyboard-response","217","451929","0.0-11.0-0.48","5d97c38dce449e001244dc15","64afc2c9a8732ea92db0087d","64afd7693177c2f995e6434a","null","null","<p style=""font-size: 60px; font-family: BACS"">DMRPRCdc</p>","","","","","","","",""
"html-keyboard-response","218","452931","0.0-11.0-0.49","5d97c38dce449e001244dc15","64afc2c9a8732ea92db0087d","64afd7693177c2f995e6434a","null","null","<p style=""font-size: 60px; font-family: BACS"">bNdmGJZr</p>","","","","","","","",""
"html-keyboard-response","219","453932","0.0-11.0-0.50","5d97c38dce449e001244dc15","64afc2c9a8732ea92db0087d","64afd7693177c2f995e6434a","null","null","<p style=""font-size: 60px; font-family: BACS"">PYkCBRDh</p>","","","","","","","",""
"html-keyboard-response","220","454945","0.0-11.0-0.51","5d97c38dce449e001244dc15","64afc2c9a8732ea92db0087d","64afd7693177c2f995e6434a","null","null","<p style=""font-size: 60px; font-family: BACS"">kcOYDlDT</p>","","","","","","","",""
"html-keyboard-response","221","455954","0.0-11.0-0.52","5d97c38dce449e001244dc15","64afc2c9a8732ea92db0087d","64afd7693177c2f995e6434a","null","null","<p style=""font-size: 60px; font-family: BACS"">UvOGark</p>","","","","","","","",""
"html-keyboard-response","222","456954","0.0-11.0-0.53","5d97c38dce449e001244dc15","64afc2c9a8732ea92db0087d","64afd7693177c2f995e6434a","null","null","<p style=""font-size: 60px; font-family: BACS"">AmaclJZr</p>","","","","","","","",""
"html-keyboard-response","223","457955","0.0-11.0-0.54","5d97c38dce449e001244dc15","64afc2c9a8732ea92db0087d","64afd7693177c2f995e6434a","null","null","<p style=""font-size: 60px; font-family: BACS"">PYkCTmTm</p>","","","","","","","",""
"html-keyboard-response","224","458956","0.0-11.0-0.55","5d97c38dce449e001244dc15","64afc2c9a8732ea92db0087d","64afd7693177c2f995e6434a","null","null","<p style=""font-size: 60px; font-family: BACS"">dGLAlJcUk</p>","","","","","","","",""
"html-keyboard-response","225","459970","0.0-11.0-0.56","5d97c38dce449e001244dc15","64afc2c9a8732ea92db0087d","64afd7693177c2f995e6434a","null","null","<p style=""font-size: 60px; font-family: BACS"">UvOGJZr</p>","","","","","","","",""
"html-keyboard-response","226","460974","0.0-11.0-0.57","5d97c38dce449e001244dc15","64afc2c9a8732ea92db0087d","64afd7693177c2f995e6434a","null","null","<p style=""font-size: 60px; font-family: BACS"">DlDdBRDh</p>","","","","","","","",""
"html-keyboard-response","227","461976","0.0-11.0-0.58","5d97c38dce449e001244dc15","64afc2c9a8732ea92db0087d","64afd7693177c2f995e6434a","null","null","<p style=""font-size: 60px; font-family: BACS"">TdmARCdc</p>","","","","","","","",""
"html-keyboard-response","228","462989","0.0-11.0-0.59","5d97c38dce449e001244dc15","64afc2c9a8732ea92db0087d","64afd7693177c2f995e6434a","null","null","<p style=""font-size: 60px; font-family: BACS"">AmaclJcUk</p>","","","","","","","",""
"html-keyboard-response","229","463996","0.0-11.0-0.60","5d97c38dce449e001244dc15","64afc2c9a8732ea92db0087d","64afd7693177c2f995e6434a","null","null","<p style=""font-size: 60px; font-family: BACS"">DMRPTmTm</p>","","","","","","","",""
"html-keyboard-response","230","464997","0.0-11.0-0.61","5d97c38dce449e001244dc15","64afc2c9a8732ea92db0087d","64afd7693177c2f995e6434a","null","null","<p style=""font-size: 60px; font-family: BACS"">BOckPBRDh</p>","","","","","","","",""
"html-keyboard-response","231","465998","0.0-11.0-0.62","5d97c38dce449e001244dc15","64afc2c9a8732ea92db0087d","64afd7693177c2f995e6434a","null","null","<p style=""font-size: 60px; font-family: BACS"">YOaAbJcUk</p>","","","","","","","",""
"html-keyboard-response","232","467012","0.0-11.0-0.63","5d97c38dce449e001244dc15","64afc2c9a8732ea92db0087d","64afd7693177c2f995e6434a","null","null","<p style=""font-size: 60px; font-family: BACS"">BOckPRCdc</p>","","","","","","","",""
"html-keyboard-response","233","468018","0.0-11.0-0.64","5d97c38dce449e001244dc15","64afc2c9a8732ea92db0087d","64afd7693177c2f995e6434a","null","null","<p style=""font-size: 60px; font-family: BACS"">EPERdTmTm</p>","","","","","","","",""
"html-keyboard-response","234","469018","0.0-11.0-0.65","5d97c38dce449e001244dc15","64afc2c9a8732ea92db0087d","64afd7693177c2f995e6434a","null","null","<p style=""font-size: 60px; font-family: BACS"">dGLAlNUZ</p>","","","","","","","",""
"html-keyboard-response","235","470028","0.0-11.0-0.66","5d97c38dce449e001244dc15","64afc2c9a8732ea92db0087d","64afd7693177c2f995e6434a","null","null","<p style=""font-size: 60px; font-family: BACS"">mLdkZark</p>","","","","","","","",""
"html-keyboard-response","236","471034","0.0-11.0-0.67","5d97c38dce449e001244dc15","64afc2c9a8732ea92db0087d","64afd7693177c2f995e6434a","null","null","<p style=""font-size: 60px; font-family: BACS"">BOckPTmTm</p>","","","","","","","",""
"html-keyboard-response","237","472050","0.0-11.0-0.68","5d97c38dce449e001244dc15","64afc2c9a8732ea92db0087d","64afd7693177c2f995e6434a","null","null","<p style=""font-size: 60px; font-family: BACS"">DMRPBRDh</p>","","","","","","","",""
"html-keyboard-response","238","473051","0.0-11.0-0.69","5d97c38dce449e001244dc15","64afc2c9a8732ea92db0087d","64afd7693177c2f995e6434a","null","null","<p style=""font-size: 60px; font-family: BACS"">YlYcDlDT</p>","","","","","","","",""
"html-keyboard-response","239","474051","0.0-11.0-0.70","5d97c38dce449e001244dc15","64afc2c9a8732ea92db0087d","64afd7693177c2f995e6434a","null","null","<p style=""font-size: 60px; font-family: BACS"">bNdmGJcUk</p>","","","","","","","",""
"html-keyboard-response","240","475053","0.0-11.0-0.71","5d97c38dce449e001244dc15","64afc2c9a8732ea92db0087d","64afd7693177c2f995e6434a","null","null","<p style=""font-size: 60px; font-family: BACS"">UAcdukdrO</p>","","","","","","","",""
"html-keyboard-response","241","476065","0.0-11.0-0.72","5d97c38dce449e001244dc15","64afc2c9a8732ea92db0087d","64afd7693177c2f995e6434a","null","null","<p style=""font-size: 60px; font-family: BACS"">rkJuJcUk</p>","","","","","","","",""
"html-keyboard-response","242","477066","0.0-11.0-0.73","5d97c38dce449e001244dc15","64afc2c9a8732ea92db0087d","64afd7693177c2f995e6434a","null","null","<p style=""font-size: 60px; font-family: BACS"">YlYcBRDh</p>","","","","","","","",""
"html-keyboard-response","243","478067","0.0-11.0-0.74","5d97c38dce449e001244dc15","64afc2c9a8732ea92db0087d","64afd7693177c2f995e6434a","null","null","<p style=""font-size: 60px; font-family: BACS"">DlDdDlDT</p>","","","","","","","",""
"html-keyboard-response","244","479068","0.0-11.0-0.75","5d97c38dce449e001244dc15","64afc2c9a8732ea92db0087d","64afd7693177c2f995e6434a","null","null","<p style=""font-size: 60px; font-family: BACS"">mLdkZJZr</p>","","","","","","","",""
"html-keyboard-response","245","480068","0.0-11.0-0.76","5d97c38dce449e001244dc15","64afc2c9a8732ea92db0087d","64afd7693177c2f995e6434a","null","null","<p style=""font-size: 60px; font-family: BACS"">YOaAbkdrO</p>","","","","","","","",""
"html-keyboard-response","246","481070","0.0-11.0-0.77","5d97c38dce449e001244dc15","64afc2c9a8732ea92db0087d","64afd7693177c2f995e6434a","null","null","<p style=""font-size: 60px; font-family: BACS"">OdlNmJZr</p>","","","","","","","",""
"html-keyboard-response","247","482070","0.0-11.0-0.78","5d97c38dce449e001244dc15","64afc2c9a8732ea92db0087d","64afd7693177c2f995e6434a","null","null","<p style=""font-size: 60px; font-family: BACS"">rkJuark</p>","","","","","","","",""
"html-keyboard-response","248","483071","0.0-11.0-0.79","5d97c38dce449e001244dc15","64afc2c9a8732ea92db0087d","64afd7693177c2f995e6434a","null","null","<p style=""font-size: 60px; font-family: BACS"">PYkCDmh</p>","","","","","","","",""
"html-keyboard-response","249","501697","0.0-12.0","5d97c38dce449e001244dc15","64afc2c9a8732ea92db0087d","64afd7693177c2f995e6434a","18625"," ","<p>Ottimo, hai visto il terzo blocco di parole. Ora puoi prenderti una piccola pausa.</p>
      <p>Premi la barra quando sei pronta/o per riprendere.</p>","","","","","","","",""
"html-keyboard-response","250","502698","0.0-13.0-0.0","5d97c38dce449e001244dc15","64afc2c9a8732ea92db0087d","64afd7693177c2f995e6434a","null","null","<p style=""font-size: 60px; font-family: BACS"">DMRPDlDT</p>","","","","","","","",""
"html-keyboard-response","251","503698","0.0-13.0-0.1","5d97c38dce449e001244dc15","64afc2c9a8732ea92db0087d","64afd7693177c2f995e6434a","null","null","<p style=""font-size: 60px; font-family: BACS"">OJGQNUZ</p>","","","","","","","",""
"html-keyboard-response","252","504700","0.0-13.0-0.2","5d97c38dce449e001244dc15","64afc2c9a8732ea92db0087d","64afd7693177c2f995e6434a","null","null","<p style=""font-size: 60px; font-family: BACS"">RYtkcDmh</p>","","","","","","","",""
"html-keyboard-response","253","505702","0.0-13.0-0.3","5d97c38dce449e001244dc15","64afc2c9a8732ea92db0087d","64afd7693177c2f995e6434a","null","null","<p style=""font-size: 60px; font-family: BACS"">UAcduark</p>","","","","","","","",""
"html-keyboard-response","254","506703","0.0-13.0-0.4","5d97c38dce449e001244dc15","64afc2c9a8732ea92db0087d","64afd7693177c2f995e6434a","null","null","<p style=""font-size: 60px; font-family: BACS"">DMRPTmTm</p>","","","","","","","",""
"html-keyboard-response","255","507705","0.0-13.0-0.5","5d97c38dce449e001244dc15","64afc2c9a8732ea92db0087d","64afd7693177c2f995e6434a","null","null","<p style=""font-size: 60px; font-family: BACS"">DlDdRCdc</p>","","","","","","","",""
"html-keyboard-response","256","508721","0.0-13.0-0.6","5d97c38dce449e001244dc15","64afc2c9a8732ea92db0087d","64afd7693177c2f995e6434a","null","null","<p style=""font-size: 60px; font-family: BACS"">BOckPTmTm</p>","","","","","","","",""
"html-keyboard-response","257","509723","0.0-13.0-0.7","5d97c38dce449e001244dc15","64afc2c9a8732ea92db0087d","64afd7693177c2f995e6434a","null","null","<p style=""font-size: 60px; font-family: BACS"">YlYcDmh</p>","","","","","","","",""
"html-keyboard-response","258","510728","0.0-13.0-0.8","5d97c38dce449e001244dc15","64afc2c9a8732ea92db0087d","64afd7693177c2f995e6434a","null","null","<p style=""font-size: 60px; font-family: BACS"">OJGQkdrO</p>","","","","","","","",""
"html-keyboard-response","259","511729","0.0-13.0-0.9","5d97c38dce449e001244dc15","64afc2c9a8732ea92db0087d","64afd7693177c2f995e6434a","null","null","<p style=""font-size: 60px; font-family: BACS"">DMRPBRDh</p>","","","","","","","",""
"html-keyboard-response","260","512734","0.0-13.0-0.10","5d97c38dce449e001244dc15","64afc2c9a8732ea92db0087d","64afd7693177c2f995e6434a","null","null","<p style=""font-size: 60px; font-family: BACS"">mARMDmh</p>","","","","","","","",""
"html-keyboard-response","261","513735","0.0-13.0-0.11","5d97c38dce449e001244dc15","64afc2c9a8732ea92db0087d","64afd7693177c2f995e6434a","null","null","<p style=""font-size: 60px; font-family: BACS"">mLdkZJcUk</p>","","","","","","","",""
"html-keyboard-response","262","514739","0.0-13.0-0.12","5d97c38dce449e001244dc15","64afc2c9a8732ea92db0087d","64afd7693177c2f995e6434a","null","null","<p style=""font-size: 60px; font-family: BACS"">DMRPRCdc</p>","","","","","","","",""
"html-keyboard-response","263","515741","0.0-13.0-0.13","5d97c38dce449e001244dc15","64afc2c9a8732ea92db0087d","64afd7693177c2f995e6434a","null","null","<p style=""font-size: 60px; font-family: BACS"">Amaclark</p>","","","","","","","",""
"html-keyboard-response","264","516748","0.0-13.0-0.14","5d97c38dce449e001244dc15","64afc2c9a8732ea92db0087d","64afd7693177c2f995e6434a","null","null","<p style=""font-size: 60px; font-family: BACS"">mLdkZJZr</p>","","","","","","","",""
"html-keyboard-response","265","517748","0.0-13.0-0.15","5d97c38dce449e001244dc15","64afc2c9a8732ea92db0087d","64afd7693177c2f995e6434a","null","null","<p style=""font-size: 60px; font-family: BACS"">rkJukdrO</p>","","","","","","","",""
"html-keyboard-response","266","518756","0.0-13.0-0.16","5d97c38dce449e001244dc15","64afc2c9a8732ea92db0087d","64afd7693177c2f995e6434a","null","null","<p style=""font-size: 60px; font-family: BACS"">YOaAbJcUk</p>","","","","","","","",""
"html-keyboard-response","267","519757","0.0-13.0-0.17","5d97c38dce449e001244dc15","64afc2c9a8732ea92db0087d","64afd7693177c2f995e6434a","null","null","<p style=""font-size: 60px; font-family: BACS"">PYkCDmh</p>","","","","","","","",""
"html-keyboard-response","268","520764","0.0-13.0-0.18","5d97c38dce449e001244dc15","64afc2c9a8732ea92db0087d","64afd7693177c2f995e6434a","null","null","<p style=""font-size: 60px; font-family: BACS"">YlYcDlDT</p>","","","","","","","",""
"html-keyboard-response","269","521768","0.0-13.0-0.19","5d97c38dce449e001244dc15","64afc2c9a8732ea92db0087d","64afd7693177c2f995e6434a","null","null","<p style=""font-size: 60px; font-family: BACS"">bNdmGkdrO</p>","","","","","","","",""
"html-keyboard-response","270","522770","0.0-13.0-0.20","5d97c38dce449e001244dc15","64afc2c9a8732ea92db0087d","64afd7693177c2f995e6434a","null","null","<p style=""font-size: 60px; font-family: BACS"">BOckPRCdc</p>","","","","","","","",""
"html-keyboard-response","271","523769","0.0-13.0-0.21","5d97c38dce449e001244dc15","64afc2c9a8732ea92db0087d","64afd7693177c2f995e6434a","null","null","<p style=""font-size: 60px; font-family: BACS"">bNdmGJcUk</p>","","","","","","","",""
"html-keyboard-response","272","524773","0.0-13.0-0.22","5d97c38dce449e001244dc15","64afc2c9a8732ea92db0087d","64afd7693177c2f995e6434a","null","null","<p style=""font-size: 60px; font-family: BACS"">YlYcBRDh</p>","","","","","","","",""
"html-keyboard-response","273","525776","0.0-13.0-0.23","5d97c38dce449e001244dc15","64afc2c9a8732ea92db0087d","64afd7693177c2f995e6434a","null","null","<p style=""font-size: 60px; font-family: BACS"">UvOGark</p>","","","","","","","",""
"html-keyboard-response","274","526779","0.0-13.0-0.24","5d97c38dce449e001244dc15","64afc2c9a8732ea92db0087d","64afd7693177c2f995e6434a","null","null","<p style=""font-size: 60px; font-family: BACS"">TdmADlDT</p>","","","","","","","",""
"html-keyboard-response","275","527780","0.0-13.0-0.25","5d97c38dce449e001244dc15","64afc2c9a8732ea92db0087d","64afd7693177c2f995e6434a","null","null","<p style=""font-size: 60px; font-family: BACS"">PYkCRCdc</p>","","","","","","","",""
"html-keyboard-response","276","528791","0.0-13.0-0.26","5d97c38dce449e001244dc15","64afc2c9a8732ea92db0087d","64afd7693177c2f995e6434a","null","null","<p style=""font-size: 60px; font-family: BACS"">bNdmGJZr</p>","","","","","","","",""
"html-keyboard-response","277","529792","0.0-13.0-0.27","5d97c38dce449e001244dc15","64afc2c9a8732ea92db0087d","64afd7693177c2f995e6434a","null","null","<p style=""font-size: 60px; font-family: BACS"">OJGQark</p>","","","","","","","",""
"html-keyboard-response","278","530807","0.0-13.0-0.28","5d97c38dce449e001244dc15","64afc2c9a8732ea92db0087d","64afd7693177c2f995e6434a","null","null","<p style=""font-size: 60px; font-family: BACS"">YlYcRCdc</p>","","","","","","","",""
"html-keyboard-response","279","531808","0.0-13.0-0.29","5d97c38dce449e001244dc15","64afc2c9a8732ea92db0087d","64afd7693177c2f995e6434a","null","null","<p style=""font-size: 60px; font-family: BACS"">rkJuJZr</p>","","","","","","","",""
"html-keyboard-response","280","532811","0.0-13.0-0.30","5d97c38dce449e001244dc15","64afc2c9a8732ea92db0087d","64afd7693177c2f995e6434a","null","null","<p style=""font-size: 60px; font-family: BACS"">DlDdBRDh</p>","","","","","","","",""
"html-keyboard-response","281","533812","0.0-13.0-0.31","5d97c38dce449e001244dc15","64afc2c9a8732ea92db0087d","64afd7693177c2f995e6434a","null","null","<p style=""font-size: 60px; font-family: BACS"">mARMTmTm</p>","","","","","","","",""
"html-keyboard-response","282","534813","0.0-13.0-0.32","5d97c38dce449e001244dc15","64afc2c9a8732ea92db0087d","64afd7693177c2f995e6434a","null","null","<p style=""font-size: 60px; font-family: BACS"">RYtkcDlDT</p>","","","","","","","",""
"html-keyboard-response","283","535828","0.0-13.0-0.33","5d97c38dce449e001244dc15","64afc2c9a8732ea92db0087d","64afd7693177c2f995e6434a","null","null","<p style=""font-size: 60px; font-family: BACS"">rkJuark</p>","","","","","","","",""
"html-keyboard-response","284","536832","0.0-13.0-0.34","5d97c38dce449e001244dc15","64afc2c9a8732ea92db0087d","64afd7693177c2f995e6434a","null","null","<p style=""font-size: 60px; font-family: BACS"">kcOYTmTm</p>","","","","","","","",""
"html-keyboard-response","285","537838","0.0-13.0-0.35","5d97c38dce449e001244dc15","64afc2c9a8732ea92db0087d","64afd7693177c2f995e6434a","null","null","<p style=""font-size: 60px; font-family: BACS"">UAcdukdrO</p>","","","","","","","",""
"html-keyboard-response","286","538843","0.0-13.0-0.36","5d97c38dce449e001244dc15","64afc2c9a8732ea92db0087d","64afd7693177c2f995e6434a","null","null","<p style=""font-size: 60px; font-family: BACS"">RYtkcTmTm</p>","","","","","","","",""
"html-keyboard-response","287","539845","0.0-13.0-0.37","5d97c38dce449e001244dc15","64afc2c9a8732ea92db0087d","64afd7693177c2f995e6434a","null","null","<p style=""font-size: 60px; font-family: BACS"">BOckPBRDh</p>","","","","","","","",""
"html-keyboard-response","288","540846","0.0-13.0-0.38","5d97c38dce449e001244dc15","64afc2c9a8732ea92db0087d","64afd7693177c2f995e6434a","null","null","<p style=""font-size: 60px; font-family: BACS"">OdlNmNUZ</p>","","","","","","","",""
"html-keyboard-response","289","541849","0.0-13.0-0.39","5d97c38dce449e001244dc15","64afc2c9a8732ea92db0087d","64afd7693177c2f995e6434a","null","null","<p style=""font-size: 60px; font-family: BACS"">PYkCBRDh</p>","","","","","","","",""
"html-keyboard-response","290","542849","0.0-13.0-0.40","5d97c38dce449e001244dc15","64afc2c9a8732ea92db0087d","64afd7693177c2f995e6434a","null","null","<p style=""font-size: 60px; font-family: BACS"">AmaclJcUk</p>","","","","","","","",""
"html-keyboard-response","291","543850","0.0-13.0-0.41","5d97c38dce449e001244dc15","64afc2c9a8732ea92db0087d","64afd7693177c2f995e6434a","null","null","<p style=""font-size: 60px; font-family: BACS"">TdmADmh</p>","","","","","","","",""
"html-keyboard-response","292","544851","0.0-13.0-0.42","5d97c38dce449e001244dc15","64afc2c9a8732ea92db0087d","64afd7693177c2f995e6434a","null","null","<p style=""font-size: 60px; font-family: BACS"">EPERdTmTm</p>","","","","","","","",""
"html-keyboard-response","293","545854","0.0-13.0-0.43","5d97c38dce449e001244dc15","64afc2c9a8732ea92db0087d","64afd7693177c2f995e6434a","null","null","<p style=""font-size: 60px; font-family: BACS"">DlDdDlDT</p>","","","","","","","",""
"html-keyboard-response","294","546855","0.0-13.0-0.44","5d97c38dce449e001244dc15","64afc2c9a8732ea92db0087d","64afd7693177c2f995e6434a","null","null","<p style=""font-size: 60px; font-family: BACS"">rkJuJcUk</p>","","","","","","","",""
"html-keyboard-response","295","547866","0.0-13.0-0.45","5d97c38dce449e001244dc15","64afc2c9a8732ea92db0087d","64afd7693177c2f995e6434a","null","null","<p style=""font-size: 60px; font-family: BACS"">mLdkZNUZ</p>","","","","","","","",""
"html-keyboard-response","296","548872","0.0-13.0-0.46","5d97c38dce449e001244dc15","64afc2c9a8732ea92db0087d","64afd7693177c2f995e6434a","null","null","<p style=""font-size: 60px; font-family: BACS"">EPERdBRDh</p>","","","","","","","",""
"html-keyboard-response","297","549873","0.0-13.0-0.47","5d97c38dce449e001244dc15","64afc2c9a8732ea92db0087d","64afd7693177c2f995e6434a","null","null","<p style=""font-size: 60px; font-family: BACS"">dGLAlkdrO</p>","","","","","","","",""
"html-keyboard-response","298","550880","0.0-13.0-0.48","5d97c38dce449e001244dc15","64afc2c9a8732ea92db0087d","64afd7693177c2f995e6434a","null","null","<p style=""font-size: 60px; font-family: BACS"">PYkCTmTm</p>","","","","","","","",""
"html-keyboard-response","299","551881","0.0-13.0-0.49","5d97c38dce449e001244dc15","64afc2c9a8732ea92db0087d","64afd7693177c2f995e6434a","null","null","<p style=""font-size: 60px; font-family: BACS"">mLdkZark</p>","","","","","","","",""
"html-keyboard-response","300","552882","0.0-13.0-0.50","5d97c38dce449e001244dc15","64afc2c9a8732ea92db0087d","64afd7693177c2f995e6434a","null","null","<p style=""font-size: 60px; font-family: BACS"">YOaAbJZr</p>","","","","","","","",""
"html-keyboard-response","301","553884","0.0-13.0-0.51","5d97c38dce449e001244dc15","64afc2c9a8732ea92db0087d","64afd7693177c2f995e6434a","null","null","<p style=""font-size: 60px; font-family: BACS"">mARMDlDT</p>","","","","","","","",""
"html-keyboard-response","302","554889","0.0-13.0-0.52","5d97c38dce449e001244dc15","64afc2c9a8732ea92db0087d","64afd7693177c2f995e6434a","null","null","<p style=""font-size: 60px; font-family: BACS"">OdlNmJZr</p>","","","","","","","",""
"html-keyboard-response","303","555899","0.0-13.0-0.53","5d97c38dce449e001244dc15","64afc2c9a8732ea92db0087d","64afd7693177c2f995e6434a","null","null","<p style=""font-size: 60px; font-family: BACS"">kcOYBRDh</p>","","","","","","","",""
"html-keyboard-response","304","556899","0.0-13.0-0.54","5d97c38dce449e001244dc15","64afc2c9a8732ea92db0087d","64afd7693177c2f995e6434a","null","null","<p style=""font-size: 60px; font-family: BACS"">UvOGkdrO</p>","","","","","","","",""
"html-keyboard-response","305","557913","0.0-13.0-0.55","5d97c38dce449e001244dc15","64afc2c9a8732ea92db0087d","64afd7693177c2f995e6434a","null","null","<p style=""font-size: 60px; font-family: BACS"">dGLAlJcUk</p>","","","","","","","",""
"html-keyboard-response","306","558916","0.0-13.0-0.56","5d97c38dce449e001244dc15","64afc2c9a8732ea92db0087d","64afd7693177c2f995e6434a","null","null","<p style=""font-size: 60px; font-family: BACS"">kcOYRCdc</p>","","","","","","","",""
"html-keyboard-response","307","559916","0.0-13.0-0.57","5d97c38dce449e001244dc15","64afc2c9a8732ea92db0087d","64afd7693177c2f995e6434a","null","null","<p style=""font-size: 60px; font-family: BACS"">AmaclNUZ</p>","","","","","","","",""
"html-keyboard-response","308","560918","0.0-13.0-0.58","5d97c38dce449e001244dc15","64afc2c9a8732ea92db0087d","64afd7693177c2f995e6434a","null","null","<p style=""font-size: 60px; font-family: BACS"">YOaAbkdrO</p>","","","","","","","",""
"html-keyboard-response","309","561919","0.0-13.0-0.59","5d97c38dce449e001244dc15","64afc2c9a8732ea92db0087d","64afd7693177c2f995e6434a","null","null","<p style=""font-size: 60px; font-family: BACS"">UAcduJcUk</p>","","","","","","","",""
"html-keyboard-response","310","562920","0.0-13.0-0.60","5d97c38dce449e001244dc15","64afc2c9a8732ea92db0087d","64afd7693177c2f995e6434a","null","null","<p style=""font-size: 60px; font-family: BACS"">OdlNmkdrO</p>","","","","","","","",""
"html-keyboard-response","311","563920","0.0-13.0-0.61","5d97c38dce449e001244dc15","64afc2c9a8732ea92db0087d","64afd7693177c2f995e6434a","null","null","<p style=""font-size: 60px; font-family: BACS"">AmaclJZr</p>","","","","","","","",""
"html-keyboard-response","312","564921","0.0-13.0-0.62","5d97c38dce449e001244dc15","64afc2c9a8732ea92db0087d","64afd7693177c2f995e6434a","null","null","<p style=""font-size: 60px; font-family: BACS"">mARMBRDh</p>","","","","","","","",""
"html-keyboard-response","313","565922","0.0-13.0-0.63","5d97c38dce449e001244dc15","64afc2c9a8732ea92db0087d","64afd7693177c2f995e6434a","null","null","<p style=""font-size: 60px; font-family: BACS"">UvOGJZr</p>","","","","","","","",""
"html-keyboard-response","314","566927","0.0-13.0-0.64","5d97c38dce449e001244dc15","64afc2c9a8732ea92db0087d","64afd7693177c2f995e6434a","null","null","<p style=""font-size: 60px; font-family: BACS"">kcOYDlDT</p>","","","","","","","",""
"html-keyboard-response","315","567932","0.0-13.0-0.65","5d97c38dce449e001244dc15","64afc2c9a8732ea92db0087d","64afd7693177c2f995e6434a","null","null","<p style=""font-size: 60px; font-family: BACS"">DlDdDmh</p>","","","","","","","",""
"html-keyboard-response","316","568937","0.0-13.0-0.66","5d97c38dce449e001244dc15","64afc2c9a8732ea92db0087d","64afd7693177c2f995e6434a","null","null","<p style=""font-size: 60px; font-family: BACS"">UAcduNUZ</p>","","","","","","","",""
"html-keyboard-response","317","569943","0.0-13.0-0.67","5d97c38dce449e001244dc15","64afc2c9a8732ea92db0087d","64afd7693177c2f995e6434a","null","null","<p style=""font-size: 60px; font-family: BACS"">YOaAbark</p>","","","","","","","",""
"html-keyboard-response","318","570947","0.0-13.0-0.68","5d97c38dce449e001244dc15","64afc2c9a8732ea92db0087d","64afd7693177c2f995e6434a","null","null","<p style=""font-size: 60px; font-family: BACS"">TdmATmTm</p>","","","","","","","",""
"html-keyboard-response","319","571950","0.0-13.0-0.69","5d97c38dce449e001244dc15","64afc2c9a8732ea92db0087d","64afd7693177c2f995e6434a","null","null","<p style=""font-size: 60px; font-family: BACS"">UvOGNUZ</p>","","","","","","","",""
"html-keyboard-response","320","572956","0.0-13.0-0.70","5d97c38dce449e001244dc15","64afc2c9a8732ea92db0087d","64afd7693177c2f995e6434a","null","null","<p style=""font-size: 60px; font-family: BACS"">TdmARCdc</p>","","","","","","","",""
"html-keyboard-response","321","573957","0.0-13.0-0.71","5d97c38dce449e001244dc15","64afc2c9a8732ea92db0087d","64afd7693177c2f995e6434a","null","null","<p style=""font-size: 60px; font-family: BACS"">EPERdDmh</p>","","","","","","","",""
"html-keyboard-response","322","574959","0.0-13.0-0.72","5d97c38dce449e001244dc15","64afc2c9a8732ea92db0087d","64afd7693177c2f995e6434a","null","null","<p style=""font-size: 60px; font-family: BACS"">dGLAlNUZ</p>","","","","","","","",""
"html-keyboard-response","323","575961","0.0-13.0-0.73","5d97c38dce449e001244dc15","64afc2c9a8732ea92db0087d","64afd7693177c2f995e6434a","null","null","<p style=""font-size: 60px; font-family: BACS"">EPERdDlDT</p>","","","","","","","",""
"html-keyboard-response","324","576962","0.0-13.0-0.74","5d97c38dce449e001244dc15","64afc2c9a8732ea92db0087d","64afd7693177c2f995e6434a","null","null","<p style=""font-size: 60px; font-family: BACS"">OJGQJcUk</p>","","","","","","","",""
"html-keyboard-response","325","577963","0.0-13.0-0.75","5d97c38dce449e001244dc15","64afc2c9a8732ea92db0087d","64afd7693177c2f995e6434a","null","null","<p style=""font-size: 60px; font-family: BACS"">OdlNmark</p>","","","","","","","",""
"html-keyboard-response","326","578964","0.0-13.0-0.76","5d97c38dce449e001244dc15","64afc2c9a8732ea92db0087d","64afd7693177c2f995e6434a","null","null","<p style=""font-size: 60px; font-family: BACS"">RYtkcRCdc</p>","","","","","","","",""
"html-keyboard-response","327","579969","0.0-13.0-0.77","5d97c38dce449e001244dc15","64afc2c9a8732ea92db0087d","64afd7693177c2f995e6434a","null","null","<p style=""font-size: 60px; font-family: BACS"">BOckPDmh</p>","","","","","","","",""
"html-keyboard-response","328","580970","0.0-13.0-0.78","5d97c38dce449e001244dc15","64afc2c9a8732ea92db0087d","64afd7693177c2f995e6434a","null","null","<p style=""font-size: 60px; font-family: BACS"">dGLAlJZr</p>","","","","","","","",""
"html-keyboard-response","329","581971","0.0-13.0-0.79","5d97c38dce449e001244dc15","64afc2c9a8732ea92db0087d","64afd7693177c2f995e6434a","null","null","<p style=""font-size: 60px; font-family: BACS"">bNdmGNUZ</p>","","","","","","","",""
"html-keyboard-response","330","592242","0.0-14.0","5d97c38dce449e001244dc15","64afc2c9a8732ea92db0087d","64afd7693177c2f995e6434a","10270"," ","<p>Ottimo! Hai visto tutte le parole che abbiamo ricevuto dallo spazio.</p>
      <p>Premi la barra quando sei pronta/o per continuare.</p>","","","","","","","",""
"html-keyboard-response","331","918471","0.0-15.0","5d97c38dce449e001244dc15","64afc2c9a8732ea92db0087d","64afd7693177c2f995e6434a","326228"," ","<p>In questa seconda parte, vedrai delle nuove parole che abbiamo ricevuto dallo stesso gruppo di alieni, e altre che invece provengono da un'altra comunicazione, con un altro gruppo di alieni. Purtroppo le due comunicazioni non arrivano a noi separatamente, per cui le parole sono mescolate tra loro. Il tuo compito sarà quello di individuare le parole che provengono dal gruppo che hai studiato nella prima parte dell'esperimento.</p>
      <p>Questo compito non è per nulla facile; le due comunicazioni infatti usano gli stessi caratteri. Il tuo meeting con i leader mondiali inizia tra poco, per cui non avrai molto tempo per prendere la tua decisione; dovrai essere veloce. Cerca di fare del tuo meglio usando la tua intuizione; non hai tempo di stare a pensare a lungo su ogni singola parola.</p>
      <p>Premi <strong>k</strong> quando pensi che la parola che stai vedendo sia degli stessi alieni che hai studiato prima, e <strong>d</strong> quando invece pensi che la parola che stai vedendo venga dall'altra comunicazione, con il nuovo gruppo di alieni.</p><p>Premi la barra quando sei pronta/o per iniziare.</p>","","","","","","","",""
"html-keyboard-response","332","921298","0.0-16.0-0.0","5d97c38dce449e001244dc15","64afc2c9a8732ea92db0087d","64afd7693177c2f995e6434a","2827","k","<p style=""font-size: 30px;"">La parola viene del gruppo di alieni che hai studiato prima?</p><br><p style=""font-size: 60px; font-family: BACS"">mARMRCdc<p style=""font-size: 15px"">Premi <strong>k</strong> per sì, <strong>d</strong> per no.</p>","","mARMRCdc","testing","k","true","","",""
"html-keyboard-response","333","925933","0.0-16.0-1.0-0.0","5d97c38dce449e001244dc15","64afc2c9a8732ea92db0087d","64afd7693177c2f995e6434a","4627"," ","<p style=""font-size: 30px; color: red"">Attenzione! Sei stato troppo lento con questa parola.</p>
      <p style=""font-size: 30px; color: red"">Cerca di essere più veloce.</p><p></p><p>Premi la barra per continuare.</p>","","","","","","","",""
"html-keyboard-response","334","926979","0.0-16.0-0.1","5d97c38dce449e001244dc15","64afc2c9a8732ea92db0087d","64afd7693177c2f995e6434a","1044","d","<p style=""font-size: 30px;"">La parola viene del gruppo di alieni che hai studiato prima?</p><br><p style=""font-size: 60px; font-family: BACS"">UvOGDmh<p style=""font-size: 15px"">Premi <strong>k</strong> per sì, <strong>d</strong> per no.</p>","","UvOGDmh","testing","d","true","","",""
"html-keyboard-response","335","928250","0.0-16.0-0.2","5d97c38dce449e001244dc15","64afc2c9a8732ea92db0087d","64afd7693177c2f995e6434a","1271","k","<p style=""font-size: 30px;"">La parola viene del gruppo di alieni che hai studiato prima?</p><br><p style=""font-size: 60px; font-family: BACS"">bNdmGTmTm<p style=""font-size: 15px"">Premi <strong>k</strong> per sì, <strong>d</strong> per no.</p>","","bNdmGTmTm","testing","d","false","","",""
"html-keyboard-response","336","929529","0.0-16.0-0.3","5d97c38dce449e001244dc15","64afc2c9a8732ea92db0087d","64afd7693177c2f995e6434a","1278","k","<p style=""font-size: 30px"">&emsp;</p><br><p style=""font-size: 60px; font-family: BACS"">RYtkckdrO<p style=""font-size: 15px"">Premi <strong>k</strong> per sì, <strong>d</strong> per no.</p>","","RYtkckdrO","testing","d","false","","",""
"html-keyboard-response","337","930760","0.0-16.0-0.4","5d97c38dce449e001244dc15","64afc2c9a8732ea92db0087d","64afd7693177c2f995e6434a","1230","k","<p style=""font-size: 30px"">&emsp;</p><br><p style=""font-size: 60px; font-family: BACS"">AmaclBRDh<p style=""font-size: 15px"">Premi <strong>k</strong> per sì, <strong>d</strong> per no.</p>","","AmaclBRDh","testing","d","false","","",""
"html-keyboard-response","338","931944","0.0-16.0-0.5","5d97c38dce449e001244dc15","64afc2c9a8732ea92db0087d","64afd7693177c2f995e6434a","1183","d","<p style=""font-size: 30px"">&emsp;</p><br><p style=""font-size: 60px; font-family: BACS"">TdmAkdrO<p style=""font-size: 15px"">Premi <strong>k</strong> per sì, <strong>d</strong> per no.</p>","","TdmAkdrO","testing","d","true","","",""
"html-keyboard-response","339","933457","0.0-16.0-0.6","5d97c38dce449e001244dc15","64afc2c9a8732ea92db0087d","64afd7693177c2f995e6434a","1512","k","<p style=""font-size: 30px"">&emsp;</p><br><p style=""font-size: 60px; font-family: BACS"">PYkCDlDT<p style=""font-size: 15px"">Premi <strong>k</strong> per sì, <strong>d</strong> per no.</p>","","PYkCDlDT","testing","k","true","","",""
"html-keyboard-response","340","934913","0.0-16.0-0.7","5d97c38dce449e001244dc15","64afc2c9a8732ea92db0087d","64afd7693177c2f995e6434a","1456","k","<p style=""font-size: 30px"">&emsp;</p><br><p style=""font-size: 60px; font-family: BACS"">DMRPDmh<p style=""font-size: 15px"">Premi <strong>k</strong> per sì, <strong>d</strong> per no.</p>","","DMRPDmh","testing","k","true","","",""
"html-keyboard-response","341","936269","0.0-16.0-0.8","5d97c38dce449e001244dc15","64afc2c9a8732ea92db0087d","64afd7693177c2f995e6434a","1355","d","<p style=""font-size: 30px"">&emsp;</p><br><p style=""font-size: 60px; font-family: BACS"">mARMJZr<p style=""font-size: 15px"">Premi <strong>k</strong> per sì, <strong>d</strong> per no.</p>","","mARMJZr","testing","d","true","","",""
"html-keyboard-response","342","937903","0.0-16.0-0.9","5d97c38dce449e001244dc15","64afc2c9a8732ea92db0087d","64afd7693177c2f995e6434a","1634","d","<p style=""font-size: 30px"">&emsp;</p><br><p style=""font-size: 60px; font-family: BACS"">BOckPNUZ<p style=""font-size: 15px"">Premi <strong>k</strong> per sì, <strong>d</strong> per no.</p>","","BOckPNUZ","testing","d","true","","",""
"html-keyboard-response","343","939323","0.0-16.0-0.10","5d97c38dce449e001244dc15","64afc2c9a8732ea92db0087d","64afd7693177c2f995e6434a","1419","d","<p style=""font-size: 30px"">&emsp;</p><br><p style=""font-size: 60px; font-family: BACS"">OJGQRCdc<p style=""font-size: 15px"">Premi <strong>k</strong> per sì, <strong>d</strong> per no.</p>","","OJGQRCdc","testing","d","true","","",""
"html-keyboard-response","344","940605","0.0-16.0-0.11","5d97c38dce449e001244dc15","64afc2c9a8732ea92db0087d","64afd7693177c2f995e6434a","1282","k","<p style=""font-size: 30px"">&emsp;</p><br><p style=""font-size: 60px; font-family: BACS"">YlYcTmTm<p style=""font-size: 15px"">Premi <strong>k</strong> per sì, <strong>d</strong> per no.</p>","","YlYcTmTm","testing","k","true","","",""
"html-keyboard-response","345","941925","0.0-16.0-0.12","5d97c38dce449e001244dc15","64afc2c9a8732ea92db0087d","64afd7693177c2f995e6434a","1319","k","<p style=""font-size: 30px"">&emsp;</p><br><p style=""font-size: 60px; font-family: BACS"">TdmABRDh<p style=""font-size: 15px"">Premi <strong>k</strong> per sì, <strong>d</strong> per no.</p>","","TdmABRDh","testing","k","true","","",""
"html-keyboard-response","346","943166","0.0-16.0-0.13","5d97c38dce449e001244dc15","64afc2c9a8732ea92db0087d","64afd7693177c2f995e6434a","1241","k","<p style=""font-size: 30px"">&emsp;</p><br><p style=""font-size: 60px; font-family: BACS"">UAcduJZr<p style=""font-size: 15px"">Premi <strong>k</strong> per sì, <strong>d</strong> per no.</p>","","UAcduJZr","testing","k","true","","",""
"html-keyboard-response","347","944535","0.0-16.0-0.14","5d97c38dce449e001244dc15","64afc2c9a8732ea92db0087d","64afd7693177c2f995e6434a","1368","k","<p style=""font-size: 30px"">&emsp;</p><br><p style=""font-size: 60px; font-family: BACS"">mLdkZBRDh<p style=""font-size: 15px"">Premi <strong>k</strong> per sì, <strong>d</strong> per no.</p>","","mLdkZBRDh","testing","d","false","","",""
"html-keyboard-response","348","945703","0.0-16.0-0.15","5d97c38dce449e001244dc15","64afc2c9a8732ea92db0087d","64afd7693177c2f995e6434a","1167","k","<p style=""font-size: 30px"">&emsp;</p><br><p style=""font-size: 60px; font-family: BACS"">PYkCNUZ<p style=""font-size: 15px"">Premi <strong>k</strong> per sì, <strong>d</strong> per no.</p>","","PYkCNUZ","testing","d","false","","",""
"html-keyboard-response","349","946756","0.0-16.0-0.16","5d97c38dce449e001244dc15","64afc2c9a8732ea92db0087d","64afd7693177c2f995e6434a","1052","d","<p style=""font-size: 30px"">&emsp;</p><br><p style=""font-size: 60px; font-family: BACS"">rkJuDlDT<p style=""font-size: 15px"">Premi <strong>k</strong> per sì, <strong>d</strong> per no.</p>","","rkJuDlDT","testing","d","true","","",""
"html-keyboard-response","350","948344","0.0-16.0-0.17","5d97c38dce449e001244dc15","64afc2c9a8732ea92db0087d","64afd7693177c2f995e6434a","1588","k","<p style=""font-size: 30px"">&emsp;</p><br><p style=""font-size: 60px; font-family: BACS"">UvOGJcUk<p style=""font-size: 15px"">Premi <strong>k</strong> per sì, <strong>d</strong> per no.</p>","","UvOGJcUk","testing","k","true","","",""
"html-keyboard-response","351","949626","0.0-16.0-0.18","5d97c38dce449e001244dc15","64afc2c9a8732ea92db0087d","64afd7693177c2f995e6434a","1281","k","<p style=""font-size: 30px"">&emsp;</p><br><p style=""font-size: 60px; font-family: BACS"">DlDdark<p style=""font-size: 15px"">Premi <strong>k</strong> per sì, <strong>d</strong> per no.</p>","","DlDdark","testing","d","false","","",""
"html-keyboard-response","352","950939","0.0-16.0-0.19","5d97c38dce449e001244dc15","64afc2c9a8732ea92db0087d","64afd7693177c2f995e6434a","1313","d","<p style=""font-size: 30px"">&emsp;</p><br><p style=""font-size: 60px; font-family: BACS"">kcOYDmh<p style=""font-size: 15px"">Premi <strong>k</strong> per sì, <strong>d</strong> per no.</p>","","kcOYDmh","testing","k","false","","",""
"html-keyboard-response","353","952248","0.0-16.0-0.20","5d97c38dce449e001244dc15","64afc2c9a8732ea92db0087d","64afd7693177c2f995e6434a","1308","d","<p style=""font-size: 30px"">&emsp;</p><br><p style=""font-size: 60px; font-family: BACS"">RYtkcBRDh<p style=""font-size: 15px"">Premi <strong>k</strong> per sì, <strong>d</strong> per no.</p>","","RYtkcBRDh","testing","k","false","","",""
"html-keyboard-response","354","953940","0.0-16.0-0.21","5d97c38dce449e001244dc15","64afc2c9a8732ea92db0087d","64afd7693177c2f995e6434a","1691","k","<p style=""font-size: 30px"">&emsp;</p><br><p style=""font-size: 60px; font-family: BACS"">YOaAbNUZ<p style=""font-size: 15px"">Premi <strong>k</strong> per sì, <strong>d</strong> per no.</p>","","YOaAbNUZ","testing","k","true","","",""
"html-keyboard-response","355","955293","0.0-16.0-0.22","5d97c38dce449e001244dc15","64afc2c9a8732ea92db0087d","64afd7693177c2f995e6434a","1351","d","<p style=""font-size: 30px"">&emsp;</p><br><p style=""font-size: 60px; font-family: BACS"">YlYcark<p style=""font-size: 15px"">Premi <strong>k</strong> per sì, <strong>d</strong> per no.</p>","","YlYcark","testing","d","true","","",""
"html-keyboard-response","356","956425","0.0-16.0-0.23","5d97c38dce449e001244dc15","64afc2c9a8732ea92db0087d","64afd7693177c2f995e6434a","1131","d","<p style=""font-size: 30px"">&emsp;</p><br><p style=""font-size: 60px; font-family: BACS"">OdlNmJcUk<p style=""font-size: 15px"">Premi <strong>k</strong> per sì, <strong>d</strong> per no.</p>","","OdlNmJcUk","testing","k","false","","",""
"html-keyboard-response","357","957284","0.0-16.0-0.24","5d97c38dce449e001244dc15","64afc2c9a8732ea92db0087d","64afd7693177c2f995e6434a","858","k","<p style=""font-size: 30px"">&emsp;</p><br><p style=""font-size: 60px; font-family: BACS"">OJGQJZr<p style=""font-size: 15px"">Premi <strong>k</strong> per sì, <strong>d</strong> per no.</p>","","OJGQJZr","testing","k","true","","",""
"html-keyboard-response","358","958555","0.0-16.0-0.25","5d97c38dce449e001244dc15","64afc2c9a8732ea92db0087d","64afd7693177c2f995e6434a","1270","k","<p style=""font-size: 30px"">&emsp;</p><br><p style=""font-size: 60px; font-family: BACS"">dGLAlark<p style=""font-size: 15px"">Premi <strong>k</strong> per sì, <strong>d</strong> per no.</p>","","dGLAlark","testing","k","true","","",""
"html-keyboard-response","359","959589","0.0-16.0-0.26","5d97c38dce449e001244dc15","64afc2c9a8732ea92db0087d","64afd7693177c2f995e6434a","1033","k","<p style=""font-size: 30px"">&emsp;</p><br><p style=""font-size: 60px; font-family: BACS"">mLdkZkdrO<p style=""font-size: 15px"">Premi <strong>k</strong> per sì, <strong>d</strong> per no.</p>","","mLdkZkdrO","testing","k","true","","",""
"html-keyboard-response","360","960453","0.0-16.0-0.27","5d97c38dce449e001244dc15","64afc2c9a8732ea92db0087d","64afd7693177c2f995e6434a","864","k","<p style=""font-size: 30px"">&emsp;</p><br><p style=""font-size: 60px; font-family: BACS"">EPERdJZr<p style=""font-size: 15px"">Premi <strong>k</strong> per sì, <strong>d</strong> per no.</p>","","EPERdJZr","testing","d","false","","",""
"html-keyboard-response","361","961889","0.0-16.0-0.28","5d97c38dce449e001244dc15","64afc2c9a8732ea92db0087d","64afd7693177c2f995e6434a","1434","k","<p style=""font-size: 30px"">&emsp;</p><br><p style=""font-size: 60px; font-family: BACS"">dGLAlTmTm<p style=""font-size: 15px"">Premi <strong>k</strong> per sì, <strong>d</strong> per no.</p>","","dGLAlTmTm","testing","d","false","","",""
"html-keyboard-response","362","963298","0.0-16.0-0.29","5d97c38dce449e001244dc15","64afc2c9a8732ea92db0087d","64afd7693177c2f995e6434a","1409","d","<p style=""font-size: 30px"">&emsp;</p><br><p style=""font-size: 60px; font-family: BACS"">DMRPJcUk<p style=""font-size: 15px"">Premi <strong>k</strong> per sì, <strong>d</strong> per no.</p>","","DMRPJcUk","testing","d","true","","",""
"html-keyboard-response","363","964580","0.0-16.0-0.30","5d97c38dce449e001244dc15","64afc2c9a8732ea92db0087d","64afd7693177c2f995e6434a","1281","d","<p style=""font-size: 30px"">&emsp;</p><br><p style=""font-size: 60px; font-family: BACS"">OdlNmDmh<p style=""font-size: 15px"">Premi <strong>k</strong> per sì, <strong>d</strong> per no.</p>","","OdlNmDmh","testing","d","true","","",""
"html-keyboard-response","364","966381","0.0-16.0-0.31","5d97c38dce449e001244dc15","64afc2c9a8732ea92db0087d","64afd7693177c2f995e6434a","1800","k","<p style=""font-size: 30px"">&emsp;</p><br><p style=""font-size: 60px; font-family: BACS"">AmaclkdrO<p style=""font-size: 15px"">Premi <strong>k</strong> per sì, <strong>d</strong> per no.</p>","","AmaclkdrO","testing","k","true","","",""
"html-keyboard-response","365","967771","0.0-16.0-0.32","5d97c38dce449e001244dc15","64afc2c9a8732ea92db0087d","64afd7693177c2f995e6434a","1389","d","<p style=""font-size: 30px"">&emsp;</p><br><p style=""font-size: 60px; font-family: BACS"">BOckPDlDT<p style=""font-size: 15px"">Premi <strong>k</strong> per sì, <strong>d</strong> per no.</p>","","BOckPDlDT","testing","k","false","","",""
"html-keyboard-response","366","969029","0.0-16.0-0.33","5d97c38dce449e001244dc15","64afc2c9a8732ea92db0087d","64afd7693177c2f995e6434a","1258","d","<p style=""font-size: 30px"">&emsp;</p><br><p style=""font-size: 60px; font-family: BACS"">rkJuNUZ<p style=""font-size: 15px"">Premi <strong>k</strong> per sì, <strong>d</strong> per no.</p>","","rkJuNUZ","testing","k","false","","",""
"html-keyboard-response","367","970522","0.0-16.0-0.34","5d97c38dce449e001244dc15","64afc2c9a8732ea92db0087d","64afd7693177c2f995e6434a","1492","k","<p style=""font-size: 30px"">&emsp;</p><br><p style=""font-size: 60px; font-family: BACS"">UAcduRCdc<p style=""font-size: 15px"">Premi <strong>k</strong> per sì, <strong>d</strong> per no.</p>","","UAcduRCdc","testing","d","false","","",""
"html-keyboard-response","368","971579","0.0-16.0-0.35","5d97c38dce449e001244dc15","64afc2c9a8732ea92db0087d","64afd7693177c2f995e6434a","1057","k","<p style=""font-size: 30px"">&emsp;</p><br><p style=""font-size: 60px; font-family: BACS"">DlDdTmTm<p style=""font-size: 15px"">Premi <strong>k</strong> per sì, <strong>d</strong> per no.</p>","","DlDdTmTm","testing","k","true","","",""
"html-keyboard-response","369","972758","0.0-16.0-0.36","5d97c38dce449e001244dc15","64afc2c9a8732ea92db0087d","64afd7693177c2f995e6434a","1178","d","<p style=""font-size: 30px"">&emsp;</p><br><p style=""font-size: 60px; font-family: BACS"">YOaAbDlDT<p style=""font-size: 15px"">Premi <strong>k</strong> per sì, <strong>d</strong> per no.</p>","","YOaAbDlDT","testing","d","true","","",""
"html-keyboard-response","370","973676","0.0-16.0-0.37","5d97c38dce449e001244dc15","64afc2c9a8732ea92db0087d","64afd7693177c2f995e6434a","917","k","<p style=""font-size: 30px"">&emsp;</p><br><p style=""font-size: 60px; font-family: BACS"">EPERdRCdc<p style=""font-size: 15px"">Premi <strong>k</strong> per sì, <strong>d</strong> per no.</p>","","EPERdRCdc","testing","k","true","","",""
