"trial_type","trial_index","time_elapsed","internal_node_id","subject_id","study_id","session_id","rt","response","stimulus","success","item","task","correct_response","testing_condition","correct","target","confound","name","view_history"
"pavlovia","0","696","0.0-0.0","601b5c79e845ac360826c9df","650c16f0f2faf8d7a0d14c09","651c1cb6f2caf4c51671900d","","","","","","","","","","","","",""
"survey-html-form","1","6471","0.0-1.0","601b5c79e845ac360826c9df","650c16f0f2faf8d7a0d14c09","651c1cb6f2caf4c51671900d","5774","{""ID"":""601b5c79e845ac360826c9df""}","","","","","","","","","","",""
"html-keyboard-response","2","16163","0.0-2.0","601b5c79e845ac360826c9df","650c16f0f2faf8d7a0d14c09","651c1cb6f2caf4c51671900d","9692"," ","<p style=""font-size: 15px;"">Before beginning, we ask that you read the consent information and confirm your agreement to participate in the experiment.</p>
      <p style=""font-size: 15px;""> We ask that you remember that this is a research project and that your participation is entirely voluntary. You can stop your participation at any time, without needing to provide any explanation. The study we're asking you to participate in aims at examining how readers process written words. You will be engaged in a session of apprximately 20 minutes, followed by a brief questionnaire. You will have the opportunity to take a few breaks during the experiment. You will be paid £4 for your participation, corresponding to a rate of £8/hour. While this experiment looks at cognitive faculties, this experiment doesn't constitute clinical proof of eventual pathologies.</p>
      <p style=""font-size: 15px;"">All of the information collected thanks to yours and others' participation will be held in a secure password-protected server, and will not be shared with anyone not authorised to view it. Your personal information will be kept with an arbitrary participant ID. Thanks to this data anonymity process, any researcher analysing the data won't be able to track the information back to a specific participant. Therefore, this process will make identifying you impossibile, even when results from the study will be published in scientific reviews, presented at congresses, or at any other public forum. More generally, the collected data will be treated in accordance with the laws on privacy and conformity to the Legislative Degree n. 196 ""Code regarding the protection of personal data"" of the 30th of June 2003 and to the European Regulation 2016/670 (General Data Protection Regulation - GDPR). The Data Protection Officer is Avv. Valentina Carollo, who can be contacted at the following email addresses: <a href=""mailto:dpo@sissa.it"">dpo@sissa.it</a> or <a href=""mailto:rpd@sissa.it"">rpd@sissa.it</a> - PEC: <a href=""mailto:protocollo@pec.sissa.it"">protocollo@pec.sissa.it</a>.</p>
      <p style=""font-size: 15px;""> Before expressing your consent to participate, we would like to remind you again that in case you need explanations on any aspect of the experimental procedure, the researcher is at your disposition (<a href=""mailto:aliebelt@sissa.it"">aliebelt@sissa.it</a>, <a href=""mailto:davide.crepaldi@sissa.it"">davide.crepaldi@sissa.it</a>).</p>
      <p style=""font-size: 15px;"">If you would like to download the informed consent form, you can do so here: <a href=""BASL-Informed_Consent.pdf"" download>informed consent form</a>.</p>
      <p style=""font-size: 15px;"">We ask that you press the spacebar to proceed to the consent section.</p>","","","","","","","","","",""
"survey-html-form","3","30408","0.0-3.0","601b5c79e845ac360826c9df","650c16f0f2faf8d7a0d14c09","651c1cb6f2caf4c51671900d","14245","{""consent1"":""YES"",""consent2"":""YES"",""consent3"":""YES"",""consent4"":""YES"",""consent5"":""YES"",""consent6"":""YES""}","","","","","","","","","","",""
"fullscreen","4","50512","0.0-4.0","601b5c79e845ac360826c9df","650c16f0f2faf8d7a0d14c09","651c1cb6f2caf4c51671900d","","","","true","","","","","","","","",""
"html-keyboard-response","5","58258","0.0-5.0","601b5c79e845ac360826c9df","650c16f0f2faf8d7a0d14c09","651c1cb6f2caf4c51671900d","7745"," ","<p>Welcome, and thank you very much for your time!</p>
      <p>In this experiment, you'll be a language expert who's been asked to take a look at words that Earth has received in its first communication with aliens. Your task, in this first part of the experiment, is to pay close attention to the words you'll be shown; later, world leaders will ask you questions on what you saw. The words will be shown to you quite quickly; it seems that the aliens were in a hurry :-)</p>
      <p>Press the spacebar to continue.<p>","","","","","","","","","",""
"html-keyboard-response","6","58309","0.0-6.0","601b5c79e845ac360826c9df","650c16f0f2faf8d7a0d14c09","651c1cb6f2caf4c51671900d","null","null","<p style=""font-size: 120px; font-family: BACS""> </p>","","","","","","","","","",""
"html-keyboard-response","7","98188","0.0-7.0","601b5c79e845ac360826c9df","650c16f0f2faf8d7a0d14c09","651c1cb6f2caf4c51671900d","39879"," ","<p>Here is an example of the words you'll see:</p>
      <img src='esempio.png' height='400px'>
      <p>When you're ready to begin, press the spacebar.</p></div>","","","","","","","","","",""
"html-keyboard-response","8","99190","0.0-8.0-0.0","601b5c79e845ac360826c9df","650c16f0f2faf8d7a0d14c09","651c1cb6f2caf4c51671900d","null","null","<p style=""font-size: 60px; font-family: BACS"">KElBKlkD</p>","","","","","","","","","",""
"html-keyboard-response","9","100195","0.0-8.0-0.1","601b5c79e845ac360826c9df","650c16f0f2faf8d7a0d14c09","651c1cb6f2caf4c51671900d","null","null","<p style=""font-size: 60px; font-family: BACS"">NaAQdaQr</p>","","","","","","","","","",""
"html-keyboard-response","10","101200","0.0-8.0-0.2","601b5c79e845ac360826c9df","650c16f0f2faf8d7a0d14c09","651c1cb6f2caf4c51671900d","null","null","<p style=""font-size: 60px; font-family: BACS"">JrGvkYL</p>","","","","","","","","","",""
"html-keyboard-response","11","102212","0.0-8.0-0.3","601b5c79e845ac360826c9df","650c16f0f2faf8d7a0d14c09","651c1cb6f2caf4c51671900d","null","null","<p style=""font-size: 60px; font-family: BACS"">dRhtCPMl</p>","","","","","","","","","",""
"html-keyboard-response","12","103223","0.0-8.0-0.4","601b5c79e845ac360826c9df","650c16f0f2faf8d7a0d14c09","651c1cb6f2caf4c51671900d","null","null","<p style=""font-size: 60px; font-family: BACS"">tcYbdcDR</p>","","","","","","","","","",""
"html-keyboard-response","13","104224","0.0-8.0-0.5","601b5c79e845ac360826c9df","650c16f0f2faf8d7a0d14c09","651c1cb6f2caf4c51671900d","null","null","<p style=""font-size: 60px; font-family: BACS"">YJLcAkYL</p>","","","","","","","","","",""
"html-keyboard-response","14","105229","0.0-8.0-0.6","601b5c79e845ac360826c9df","650c16f0f2faf8d7a0d14c09","651c1cb6f2caf4c51671900d","null","null","<p style=""font-size: 60px; font-family: BACS"">vQdOaQr</p>","","","","","","","","","",""
"html-keyboard-response","15","106245","0.0-8.0-0.7","601b5c79e845ac360826c9df","650c16f0f2faf8d7a0d14c09","651c1cb6f2caf4c51671900d","null","null","<p style=""font-size: 60px; font-family: BACS"">JrGvkam</p>","","","","","","","","","",""
"html-keyboard-response","16","107260","0.0-8.0-0.8","601b5c79e845ac360826c9df","650c16f0f2faf8d7a0d14c09","651c1cb6f2caf4c51671900d","null","null","<p style=""font-size: 60px; font-family: BACS"">lRCBCPMl</p>","","","","","","","","","",""
"html-keyboard-response","17","108267","0.0-8.0-0.9","601b5c79e845ac360826c9df","650c16f0f2faf8d7a0d14c09","651c1cb6f2caf4c51671900d","null","null","<p style=""font-size: 60px; font-family: BACS"">JrGvkmU</p>","","","","","","","","","",""
"html-keyboard-response","18","109268","0.0-8.0-0.10","601b5c79e845ac360826c9df","650c16f0f2faf8d7a0d14c09","651c1cb6f2caf4c51671900d","null","null","<p style=""font-size: 60px; font-family: BACS"">vclYaQr</p>","","","","","","","","","",""
"html-keyboard-response","19","110283","0.0-8.0-0.11","601b5c79e845ac360826c9df","650c16f0f2faf8d7a0d14c09","651c1cb6f2caf4c51671900d","null","null","<p style=""font-size: 60px; font-family: BACS"">DBklmKcD</p>","","","","","","","","","",""
"html-keyboard-response","20","111284","0.0-8.0-0.12","601b5c79e845ac360826c9df","650c16f0f2faf8d7a0d14c09","651c1cb6f2caf4c51671900d","null","null","<p style=""font-size: 60px; font-family: BACS"">ZcGdNaQr</p>","","","","","","","","","",""
"html-keyboard-response","21","112285","0.0-8.0-0.13","601b5c79e845ac360826c9df","650c16f0f2faf8d7a0d14c09","651c1cb6f2caf4c51671900d","null","null","<p style=""font-size: 60px; font-family: BACS"">YJLcAkdrO</p>","","","","","","","","","",""
"html-keyboard-response","22","113288","0.0-8.0-0.14","601b5c79e845ac360826c9df","650c16f0f2faf8d7a0d14c09","651c1cb6f2caf4c51671900d","null","null","<p style=""font-size: 60px; font-family: BACS"">rbYbukmU</p>","","","","","","","","","",""
"html-keyboard-response","23","114288","0.0-8.0-0.15","601b5c79e845ac360826c9df","650c16f0f2faf8d7a0d14c09","651c1cb6f2caf4c51671900d","null","null","<p style=""font-size: 60px; font-family: BACS"">tcYbdmKcD</p>","","","","","","","","","",""
"html-keyboard-response","24","115296","0.0-8.0-0.16","601b5c79e845ac360826c9df","650c16f0f2faf8d7a0d14c09","651c1cb6f2caf4c51671900d","null","null","<p style=""font-size: 60px; font-family: BACS"">uAkrkam</p>","","","","","","","","","",""
"html-keyboard-response","25","116298","0.0-8.0-0.17","601b5c79e845ac360826c9df","650c16f0f2faf8d7a0d14c09","651c1cb6f2caf4c51671900d","null","null","<p style=""font-size: 60px; font-family: BACS"">mARMcPK</p>","","","","","","","","","",""
"html-keyboard-response","26","117299","0.0-8.0-0.18","601b5c79e845ac360826c9df","650c16f0f2faf8d7a0d14c09","651c1cb6f2caf4c51671900d","null","null","<p style=""font-size: 60px; font-family: BACS"">uAkraQr</p>","","","","","","","","","",""
"html-keyboard-response","27","118312","0.0-8.0-0.19","601b5c79e845ac360826c9df","650c16f0f2faf8d7a0d14c09","651c1cb6f2caf4c51671900d","null","null","<p style=""font-size: 60px; font-family: BACS"">mARMCPMl</p>","","","","","","","","","",""
"html-keyboard-response","28","119313","0.0-8.0-0.20","601b5c79e845ac360826c9df","650c16f0f2faf8d7a0d14c09","651c1cb6f2caf4c51671900d","null","null","<p style=""font-size: 60px; font-family: BACS"">hCktcPK</p>","","","","","","","","","",""
"html-keyboard-response","29","120326","0.0-8.0-0.21","601b5c79e845ac360826c9df","650c16f0f2faf8d7a0d14c09","651c1cb6f2caf4c51671900d","null","null","<p style=""font-size: 60px; font-family: BACS"">tcYbdKlkD</p>","","","","","","","","","",""
"html-keyboard-response","30","121341","0.0-8.0-0.22","601b5c79e845ac360826c9df","650c16f0f2faf8d7a0d14c09","651c1cb6f2caf4c51671900d","null","null","<p style=""font-size: 60px; font-family: BACS"">CDEmYmKcD</p>","","","","","","","","","",""
"html-keyboard-response","31","122348","0.0-8.0-0.23","601b5c79e845ac360826c9df","650c16f0f2faf8d7a0d14c09","651c1cb6f2caf4c51671900d","null","null","<p style=""font-size: 60px; font-family: BACS"">BMEMACPMl</p>","","","","","","","","","",""
"html-keyboard-response","32","123357","0.0-8.0-0.24","601b5c79e845ac360826c9df","650c16f0f2faf8d7a0d14c09","651c1cb6f2caf4c51671900d","null","null","<p style=""font-size: 60px; font-family: BACS"">AlTdKlkD</p>","","","","","","","","","",""
"html-keyboard-response","33","124362","0.0-8.0-0.25","601b5c79e845ac360826c9df","650c16f0f2faf8d7a0d14c09","651c1cb6f2caf4c51671900d","null","null","<p style=""font-size: 60px; font-family: BACS"">ZcGdNkYL</p>","","","","","","","","","",""
"html-keyboard-response","34","125367","0.0-8.0-0.26","601b5c79e845ac360826c9df","650c16f0f2faf8d7a0d14c09","651c1cb6f2caf4c51671900d","null","null","<p style=""font-size: 60px; font-family: BACS"">lRCBKlkD</p>","","","","","","","","","",""
"html-keyboard-response","35","126383","0.0-8.0-0.27","601b5c79e845ac360826c9df","650c16f0f2faf8d7a0d14c09","651c1cb6f2caf4c51671900d","null","null","<p style=""font-size: 60px; font-family: BACS"">NaAQdkmU</p>","","","","","","","","","",""
"html-keyboard-response","36","127385","0.0-8.0-0.28","601b5c79e845ac360826c9df","650c16f0f2faf8d7a0d14c09","651c1cb6f2caf4c51671900d","null","null","<p style=""font-size: 60px; font-family: BACS"">lRCBmKcD</p>","","","","","","","","","",""
"html-keyboard-response","37","128396","0.0-8.0-0.29","601b5c79e845ac360826c9df","650c16f0f2faf8d7a0d14c09","651c1cb6f2caf4c51671900d","null","null","<p style=""font-size: 60px; font-family: BACS"">AlTdcPK</p>","","","","","","","","","",""
"html-keyboard-response","38","129410","0.0-8.0-0.30","601b5c79e845ac360826c9df","650c16f0f2faf8d7a0d14c09","651c1cb6f2caf4c51671900d","null","null","<p style=""font-size: 60px; font-family: BACS"">NaAQdkdrO</p>","","","","","","","","","",""
"html-keyboard-response","39","130411","0.0-8.0-0.31","601b5c79e845ac360826c9df","650c16f0f2faf8d7a0d14c09","651c1cb6f2caf4c51671900d","null","null","<p style=""font-size: 60px; font-family: BACS"">rbYbuaQr</p>","","","","","","","","","",""
"html-keyboard-response","40","131413","0.0-8.0-0.32","601b5c79e845ac360826c9df","650c16f0f2faf8d7a0d14c09","651c1cb6f2caf4c51671900d","null","null","<p style=""font-size: 60px; font-family: BACS"">hCktKlkD</p>","","","","","","","","","",""
"html-keyboard-response","41","132425","0.0-8.0-0.33","601b5c79e845ac360826c9df","650c16f0f2faf8d7a0d14c09","651c1cb6f2caf4c51671900d","null","null","<p style=""font-size: 60px; font-family: BACS"">rbYbukam</p>","","","","","","","","","",""
"html-keyboard-response","42","133426","0.0-8.0-0.34","601b5c79e845ac360826c9df","650c16f0f2faf8d7a0d14c09","651c1cb6f2caf4c51671900d","null","null","<p style=""font-size: 60px; font-family: BACS"">NaAQdkYL</p>","","","","","","","","","",""
"html-keyboard-response","43","134427","0.0-8.0-0.35","601b5c79e845ac360826c9df","650c16f0f2faf8d7a0d14c09","651c1cb6f2caf4c51671900d","null","null","<p style=""font-size: 60px; font-family: BACS"">vclYkam</p>","","","","","","","","","",""
"html-keyboard-response","44","135429","0.0-8.0-0.36","601b5c79e845ac360826c9df","650c16f0f2faf8d7a0d14c09","651c1cb6f2caf4c51671900d","null","null","<p style=""font-size: 60px; font-family: BACS"">vQdOkmU</p>","","","","","","","","","",""
"html-keyboard-response","45","136431","0.0-8.0-0.37","601b5c79e845ac360826c9df","650c16f0f2faf8d7a0d14c09","651c1cb6f2caf4c51671900d","null","null","<p style=""font-size: 60px; font-family: BACS"">dRhtmKcD</p>","","","","","","","","","",""
"html-keyboard-response","46","137442","0.0-8.0-0.38","601b5c79e845ac360826c9df","650c16f0f2faf8d7a0d14c09","651c1cb6f2caf4c51671900d","null","null","<p style=""font-size: 60px; font-family: BACS"">AlTdCPMl</p>","","","","","","","","","",""
"html-keyboard-response","47","138453","0.0-8.0-0.39","601b5c79e845ac360826c9df","650c16f0f2faf8d7a0d14c09","651c1cb6f2caf4c51671900d","null","null","<p style=""font-size: 60px; font-family: BACS"">hCktcDR</p>","","","","","","","","","",""
"html-keyboard-response","48","139454","0.0-8.0-0.40","601b5c79e845ac360826c9df","650c16f0f2faf8d7a0d14c09","651c1cb6f2caf4c51671900d","null","null","<p style=""font-size: 60px; font-family: BACS"">mrOdkam</p>","","","","","","","","","",""
"html-keyboard-response","49","140455","0.0-8.0-0.41","601b5c79e845ac360826c9df","650c16f0f2faf8d7a0d14c09","651c1cb6f2caf4c51671900d","null","null","<p style=""font-size: 60px; font-family: BACS"">KElBcDR</p>","","","","","","","","","",""
"html-keyboard-response","50","141456","0.0-8.0-0.42","601b5c79e845ac360826c9df","650c16f0f2faf8d7a0d14c09","651c1cb6f2caf4c51671900d","null","null","<p style=""font-size: 60px; font-family: BACS"">CDEmYcPK</p>","","","","","","","","","",""
"html-keyboard-response","51","142458","0.0-8.0-0.43","601b5c79e845ac360826c9df","650c16f0f2faf8d7a0d14c09","651c1cb6f2caf4c51671900d","null","null","<p style=""font-size: 60px; font-family: BACS"">vclYkdrO</p>","","","","","","","","","",""
"html-keyboard-response","52","143459","0.0-8.0-0.44","601b5c79e845ac360826c9df","650c16f0f2faf8d7a0d14c09","651c1cb6f2caf4c51671900d","null","null","<p style=""font-size: 60px; font-family: BACS"">DBklcDR</p>","","","","","","","","","",""
"html-keyboard-response","53","144470","0.0-8.0-0.45","601b5c79e845ac360826c9df","650c16f0f2faf8d7a0d14c09","651c1cb6f2caf4c51671900d","null","null","<p style=""font-size: 60px; font-family: BACS"">YJkbkmU</p>","","","","","","","","","",""
"html-keyboard-response","54","145472","0.0-8.0-0.46","601b5c79e845ac360826c9df","650c16f0f2faf8d7a0d14c09","651c1cb6f2caf4c51671900d","null","null","<p style=""font-size: 60px; font-family: BACS"">CDEmYcDR</p>","","","","","","","","","",""
"html-keyboard-response","55","146473","0.0-8.0-0.47","601b5c79e845ac360826c9df","650c16f0f2faf8d7a0d14c09","651c1cb6f2caf4c51671900d","null","null","<p style=""font-size: 60px; font-family: BACS"">YJLcAaQr</p>","","","","","","","","","",""
"html-keyboard-response","56","147475","0.0-8.0-0.48","601b5c79e845ac360826c9df","650c16f0f2faf8d7a0d14c09","651c1cb6f2caf4c51671900d","null","null","<p style=""font-size: 60px; font-family: BACS"">DBklCPMl</p>","","","","","","","","","",""
"html-keyboard-response","57","148476","0.0-8.0-0.49","601b5c79e845ac360826c9df","650c16f0f2faf8d7a0d14c09","651c1cb6f2caf4c51671900d","null","null","<p style=""font-size: 60px; font-family: BACS"">vclYkmU</p>","","","","","","","","","",""
"html-keyboard-response","58","149477","0.0-8.0-0.50","601b5c79e845ac360826c9df","650c16f0f2faf8d7a0d14c09","651c1cb6f2caf4c51671900d","null","null","<p style=""font-size: 60px; font-family: BACS"">KElBCPMl</p>","","","","","","","","","",""
"html-keyboard-response","59","150478","0.0-8.0-0.51","601b5c79e845ac360826c9df","650c16f0f2faf8d7a0d14c09","651c1cb6f2caf4c51671900d","null","null","<p style=""font-size: 60px; font-family: BACS"">mrOdkdrO</p>","","","","","","","","","",""
"html-keyboard-response","60","151480","0.0-8.0-0.52","601b5c79e845ac360826c9df","650c16f0f2faf8d7a0d14c09","651c1cb6f2caf4c51671900d","null","null","<p style=""font-size: 60px; font-family: BACS"">DBklcPK</p>","","","","","","","","","",""
"html-keyboard-response","61","152491","0.0-8.0-0.53","601b5c79e845ac360826c9df","650c16f0f2faf8d7a0d14c09","651c1cb6f2caf4c51671900d","null","null","<p style=""font-size: 60px; font-family: BACS"">mrOdkYL</p>","","","","","","","","","",""
"html-keyboard-response","62","153492","0.0-8.0-0.54","601b5c79e845ac360826c9df","650c16f0f2faf8d7a0d14c09","651c1cb6f2caf4c51671900d","null","null","<p style=""font-size: 60px; font-family: BACS"">BMEMAcDR</p>","","","","","","","","","",""
"html-keyboard-response","63","154493","0.0-8.0-0.55","601b5c79e845ac360826c9df","650c16f0f2faf8d7a0d14c09","651c1cb6f2caf4c51671900d","null","null","<p style=""font-size: 60px; font-family: BACS"">mARMmKcD</p>","","","","","","","","","",""
"html-keyboard-response","64","155498","0.0-8.0-0.56","601b5c79e845ac360826c9df","650c16f0f2faf8d7a0d14c09","651c1cb6f2caf4c51671900d","null","null","<p style=""font-size: 60px; font-family: BACS"">YJLcAkam</p>","","","","","","","","","",""
"html-keyboard-response","65","156512","0.0-8.0-0.57","601b5c79e845ac360826c9df","650c16f0f2faf8d7a0d14c09","651c1cb6f2caf4c51671900d","null","null","<p style=""font-size: 60px; font-family: BACS"">uAkrkYL</p>","","","","","","","","","",""
"html-keyboard-response","66","157518","0.0-8.0-0.58","601b5c79e845ac360826c9df","650c16f0f2faf8d7a0d14c09","651c1cb6f2caf4c51671900d","null","null","<p style=""font-size: 60px; font-family: BACS"">BMEMAKlkD</p>","","","","","","","","","",""
"html-keyboard-response","67","158518","0.0-8.0-0.59","601b5c79e845ac360826c9df","650c16f0f2faf8d7a0d14c09","651c1cb6f2caf4c51671900d","null","null","<p style=""font-size: 60px; font-family: BACS"">hCktmKcD</p>","","","","","","","","","",""
"html-keyboard-response","68","159521","0.0-8.0-0.60","601b5c79e845ac360826c9df","650c16f0f2faf8d7a0d14c09","651c1cb6f2caf4c51671900d","null","null","<p style=""font-size: 60px; font-family: BACS"">mrOdkmU</p>","","","","","","","","","",""
"html-keyboard-response","69","160537","0.0-8.0-0.61","601b5c79e845ac360826c9df","650c16f0f2faf8d7a0d14c09","651c1cb6f2caf4c51671900d","null","null","<p style=""font-size: 60px; font-family: BACS"">YJkbkam</p>","","","","","","","","","",""
"html-keyboard-response","70","161543","0.0-8.0-0.62","601b5c79e845ac360826c9df","650c16f0f2faf8d7a0d14c09","651c1cb6f2caf4c51671900d","null","null","<p style=""font-size: 60px; font-family: BACS"">vQdOkdrO</p>","","","","","","","","","",""
"html-keyboard-response","71","162557","0.0-8.0-0.63","601b5c79e845ac360826c9df","650c16f0f2faf8d7a0d14c09","651c1cb6f2caf4c51671900d","null","null","<p style=""font-size: 60px; font-family: BACS"">dRhtKlkD</p>","","","","","","","","","",""
"html-keyboard-response","72","163568","0.0-8.0-0.64","601b5c79e845ac360826c9df","650c16f0f2faf8d7a0d14c09","651c1cb6f2caf4c51671900d","null","null","<p style=""font-size: 60px; font-family: BACS"">BMEMAmKcD</p>","","","","","","","","","",""
"html-keyboard-response","73","164569","0.0-8.0-0.65","601b5c79e845ac360826c9df","650c16f0f2faf8d7a0d14c09","651c1cb6f2caf4c51671900d","null","null","<p style=""font-size: 60px; font-family: BACS"">ZcGdNkdrO</p>","","","","","","","","","",""
"html-keyboard-response","74","165584","0.0-8.0-0.66","601b5c79e845ac360826c9df","650c16f0f2faf8d7a0d14c09","651c1cb6f2caf4c51671900d","null","null","<p style=""font-size: 60px; font-family: BACS"">vQdOkYL</p>","","","","","","","","","",""
"html-keyboard-response","75","166597","0.0-8.0-0.67","601b5c79e845ac360826c9df","650c16f0f2faf8d7a0d14c09","651c1cb6f2caf4c51671900d","null","null","<p style=""font-size: 60px; font-family: BACS"">rbYbukdrO</p>","","","","","","","","","",""
"html-keyboard-response","76","167612","0.0-8.0-0.68","601b5c79e845ac360826c9df","650c16f0f2faf8d7a0d14c09","651c1cb6f2caf4c51671900d","null","null","<p style=""font-size: 60px; font-family: BACS"">lRCBcDR</p>","","","","","","","","","",""
"html-keyboard-response","77","168613","0.0-8.0-0.69","601b5c79e845ac360826c9df","650c16f0f2faf8d7a0d14c09","651c1cb6f2caf4c51671900d","null","null","<p style=""font-size: 60px; font-family: BACS"">ZcGdNkam</p>","","","","","","","","","",""
"html-keyboard-response","78","169614","0.0-8.0-0.70","601b5c79e845ac360826c9df","650c16f0f2faf8d7a0d14c09","651c1cb6f2caf4c51671900d","null","null","<p style=""font-size: 60px; font-family: BACS"">YJkbaQr</p>","","","","","","","","","",""
"html-keyboard-response","79","170615","0.0-8.0-0.71","601b5c79e845ac360826c9df","650c16f0f2faf8d7a0d14c09","651c1cb6f2caf4c51671900d","null","null","<p style=""font-size: 60px; font-family: BACS"">dRhtcPK</p>","","","","","","","","","",""
"html-keyboard-response","80","171617","0.0-8.0-0.72","601b5c79e845ac360826c9df","650c16f0f2faf8d7a0d14c09","651c1cb6f2caf4c51671900d","null","null","<p style=""font-size: 60px; font-family: BACS"">uAkrkmU</p>","","","","","","","","","",""
"html-keyboard-response","81","172630","0.0-8.0-0.73","601b5c79e845ac360826c9df","650c16f0f2faf8d7a0d14c09","651c1cb6f2caf4c51671900d","null","null","<p style=""font-size: 60px; font-family: BACS"">JrGvkdrO</p>","","","","","","","","","",""
"html-keyboard-response","82","173641","0.0-8.0-0.74","601b5c79e845ac360826c9df","650c16f0f2faf8d7a0d14c09","651c1cb6f2caf4c51671900d","null","null","<p style=""font-size: 60px; font-family: BACS"">AlTdcDR</p>","","","","","","","","","",""
"html-keyboard-response","83","174657","0.0-8.0-0.75","601b5c79e845ac360826c9df","650c16f0f2faf8d7a0d14c09","651c1cb6f2caf4c51671900d","null","null","<p style=""font-size: 60px; font-family: BACS"">YJkbkYL</p>","","","","","","","","","",""
"html-keyboard-response","84","175657","0.0-8.0-0.76","601b5c79e845ac360826c9df","650c16f0f2faf8d7a0d14c09","651c1cb6f2caf4c51671900d","null","null","<p style=""font-size: 60px; font-family: BACS"">mARMKlkD</p>","","","","","","","","","",""
"html-keyboard-response","85","176658","0.0-8.0-0.77","601b5c79e845ac360826c9df","650c16f0f2faf8d7a0d14c09","651c1cb6f2caf4c51671900d","null","null","<p style=""font-size: 60px; font-family: BACS"">tcYbdcPK</p>","","","","","","","","","",""
"html-keyboard-response","86","177659","0.0-8.0-0.78","601b5c79e845ac360826c9df","650c16f0f2faf8d7a0d14c09","651c1cb6f2caf4c51671900d","null","null","<p style=""font-size: 60px; font-family: BACS"">CDEmYCPMl</p>","","","","","","","","","",""
"html-keyboard-response","87","178661","0.0-8.0-0.79","601b5c79e845ac360826c9df","650c16f0f2faf8d7a0d14c09","651c1cb6f2caf4c51671900d","null","null","<p style=""font-size: 60px; font-family: BACS"">KElBcPK</p>","","","","","","","","","",""
"html-keyboard-response","88","195225","0.0-9.0","601b5c79e845ac360826c9df","650c16f0f2faf8d7a0d14c09","651c1cb6f2caf4c51671900d","16563"," ","<p>Great, you've seen the first block of words. You may now take a short break.</p>
      <p>Press the spacebar when you're ready to continue.</p>","","","","","","","","","",""
"html-keyboard-response","89","196240","0.0-10.0-0.0","601b5c79e845ac360826c9df","650c16f0f2faf8d7a0d14c09","651c1cb6f2caf4c51671900d","null","null","<p style=""font-size: 60px; font-family: BACS"">YJLcAkam</p>","","","","","","","","","",""
"html-keyboard-response","90","197242","0.0-10.0-0.1","601b5c79e845ac360826c9df","650c16f0f2faf8d7a0d14c09","651c1cb6f2caf4c51671900d","null","null","<p style=""font-size: 60px; font-family: BACS"">AlTdcPK</p>","","","","","","","","","",""
"html-keyboard-response","91","198245","0.0-10.0-0.2","601b5c79e845ac360826c9df","650c16f0f2faf8d7a0d14c09","651c1cb6f2caf4c51671900d","null","null","<p style=""font-size: 60px; font-family: BACS"">mARMCPMl</p>","","","","","","","","","",""
"html-keyboard-response","92","199250","0.0-10.0-0.3","601b5c79e845ac360826c9df","650c16f0f2faf8d7a0d14c09","651c1cb6f2caf4c51671900d","null","null","<p style=""font-size: 60px; font-family: BACS"">JrGvkdrO</p>","","","","","","","","","",""
"html-keyboard-response","93","200251","0.0-10.0-0.4","601b5c79e845ac360826c9df","650c16f0f2faf8d7a0d14c09","651c1cb6f2caf4c51671900d","null","null","<p style=""font-size: 60px; font-family: BACS"">AlTdKlkD</p>","","","","","","","","","",""
"html-keyboard-response","94","201258","0.0-10.0-0.5","601b5c79e845ac360826c9df","650c16f0f2faf8d7a0d14c09","651c1cb6f2caf4c51671900d","null","null","<p style=""font-size: 60px; font-family: BACS"">lRCBcDR</p>","","","","","","","","","",""
"html-keyboard-response","95","202259","0.0-10.0-0.6","601b5c79e845ac360826c9df","650c16f0f2faf8d7a0d14c09","651c1cb6f2caf4c51671900d","null","null","<p style=""font-size: 60px; font-family: BACS"">KElBCPMl</p>","","","","","","","","","",""
"html-keyboard-response","96","203274","0.0-10.0-0.7","601b5c79e845ac360826c9df","650c16f0f2faf8d7a0d14c09","651c1cb6f2caf4c51671900d","null","null","<p style=""font-size: 60px; font-family: BACS"">NaAQdaQr</p>","","","","","","","","","",""
"html-keyboard-response","97","204285","0.0-10.0-0.8","601b5c79e845ac360826c9df","650c16f0f2faf8d7a0d14c09","651c1cb6f2caf4c51671900d","null","null","<p style=""font-size: 60px; font-family: BACS"">BMEMAKlkD</p>","","","","","","","","","",""
"html-keyboard-response","98","205287","0.0-10.0-0.9","601b5c79e845ac360826c9df","650c16f0f2faf8d7a0d14c09","651c1cb6f2caf4c51671900d","null","null","<p style=""font-size: 60px; font-family: BACS"">mrOdkYL</p>","","","","","","","","","",""
"html-keyboard-response","99","206288","0.0-10.0-0.10","601b5c79e845ac360826c9df","650c16f0f2faf8d7a0d14c09","651c1cb6f2caf4c51671900d","null","null","<p style=""font-size: 60px; font-family: BACS"">BMEMAcDR</p>","","","","","","","","","",""
"html-keyboard-response","100","207290","0.0-10.0-0.11","601b5c79e845ac360826c9df","650c16f0f2faf8d7a0d14c09","651c1cb6f2caf4c51671900d","null","null","<p style=""font-size: 60px; font-family: BACS"">lRCBmKcD</p>","","","","","","","","","",""
"html-keyboard-response","101","208290","0.0-10.0-0.12","601b5c79e845ac360826c9df","650c16f0f2faf8d7a0d14c09","651c1cb6f2caf4c51671900d","null","null","<p style=""font-size: 60px; font-family: BACS"">vQdOkdrO</p>","","","","","","","","","",""
"html-keyboard-response","102","209292","0.0-10.0-0.13","601b5c79e845ac360826c9df","650c16f0f2faf8d7a0d14c09","651c1cb6f2caf4c51671900d","null","null","<p style=""font-size: 60px; font-family: BACS"">tcYbdmKcD</p>","","","","","","","","","",""
"html-keyboard-response","103","210306","0.0-10.0-0.14","601b5c79e845ac360826c9df","650c16f0f2faf8d7a0d14c09","651c1cb6f2caf4c51671900d","null","null","<p style=""font-size: 60px; font-family: BACS"">YJkbkmU</p>","","","","","","","","","",""
"html-keyboard-response","104","211307","0.0-10.0-0.15","601b5c79e845ac360826c9df","650c16f0f2faf8d7a0d14c09","651c1cb6f2caf4c51671900d","null","null","<p style=""font-size: 60px; font-family: BACS"">JrGvkYL</p>","","","","","","","","","",""
"html-keyboard-response","105","212322","0.0-10.0-0.16","601b5c79e845ac360826c9df","650c16f0f2faf8d7a0d14c09","651c1cb6f2caf4c51671900d","null","null","<p style=""font-size: 60px; font-family: BACS"">dRhtcPK</p>","","","","","","","","","",""
"html-keyboard-response","106","213324","0.0-10.0-0.17","601b5c79e845ac360826c9df","650c16f0f2faf8d7a0d14c09","651c1cb6f2caf4c51671900d","null","null","<p style=""font-size: 60px; font-family: BACS"">mrOdkmU</p>","","","","","","","","","",""
"html-keyboard-response","107","214326","0.0-10.0-0.18","601b5c79e845ac360826c9df","650c16f0f2faf8d7a0d14c09","651c1cb6f2caf4c51671900d","null","null","<p style=""font-size: 60px; font-family: BACS"">NaAQdkYL</p>","","","","","","","","","",""
"html-keyboard-response","108","215335","0.0-10.0-0.19","601b5c79e845ac360826c9df","650c16f0f2faf8d7a0d14c09","651c1cb6f2caf4c51671900d","null","null","<p style=""font-size: 60px; font-family: BACS"">KElBKlkD</p>","","","","","","","","","",""
"html-keyboard-response","109","216346","0.0-10.0-0.20","601b5c79e845ac360826c9df","650c16f0f2faf8d7a0d14c09","651c1cb6f2caf4c51671900d","null","null","<p style=""font-size: 60px; font-family: BACS"">CDEmYCPMl</p>","","","","","","","","","",""
"html-keyboard-response","110","217361","0.0-10.0-0.21","601b5c79e845ac360826c9df","650c16f0f2faf8d7a0d14c09","651c1cb6f2caf4c51671900d","null","null","<p style=""font-size: 60px; font-family: BACS"">tcYbdKlkD</p>","","","","","","","","","",""
"html-keyboard-response","111","218376","0.0-10.0-0.22","601b5c79e845ac360826c9df","650c16f0f2faf8d7a0d14c09","651c1cb6f2caf4c51671900d","null","null","<p style=""font-size: 60px; font-family: BACS"">dRhtmKcD</p>","","","","","","","","","",""
"html-keyboard-response","112","219376","0.0-10.0-0.23","601b5c79e845ac360826c9df","650c16f0f2faf8d7a0d14c09","651c1cb6f2caf4c51671900d","null","null","<p style=""font-size: 60px; font-family: BACS"">AlTdCPMl</p>","","","","","","","","","",""
"html-keyboard-response","113","220390","0.0-10.0-0.24","601b5c79e845ac360826c9df","650c16f0f2faf8d7a0d14c09","651c1cb6f2caf4c51671900d","null","null","<p style=""font-size: 60px; font-family: BACS"">vclYkdrO</p>","","","","","","","","","",""
"html-keyboard-response","114","221400","0.0-10.0-0.25","601b5c79e845ac360826c9df","650c16f0f2faf8d7a0d14c09","651c1cb6f2caf4c51671900d","null","null","<p style=""font-size: 60px; font-family: BACS"">rbYbukmU</p>","","","","","","","","","",""
"html-keyboard-response","115","222403","0.0-10.0-0.26","601b5c79e845ac360826c9df","650c16f0f2faf8d7a0d14c09","651c1cb6f2caf4c51671900d","null","null","<p style=""font-size: 60px; font-family: BACS"">DBklcDR</p>","","","","","","","","","",""
"html-keyboard-response","116","223418","0.0-10.0-0.27","601b5c79e845ac360826c9df","650c16f0f2faf8d7a0d14c09","651c1cb6f2caf4c51671900d","null","null","<p style=""font-size: 60px; font-family: BACS"">ZcGdNkYL</p>","","","","","","","","","",""
"html-keyboard-response","117","224427","0.0-10.0-0.28","601b5c79e845ac360826c9df","650c16f0f2faf8d7a0d14c09","651c1cb6f2caf4c51671900d","null","null","<p style=""font-size: 60px; font-family: BACS"">mARMmKcD</p>","","","","","","","","","",""
"html-keyboard-response","118","225433","0.0-10.0-0.29","601b5c79e845ac360826c9df","650c16f0f2faf8d7a0d14c09","651c1cb6f2caf4c51671900d","null","null","<p style=""font-size: 60px; font-family: BACS"">dRhtCPMl</p>","","","","","","","","","",""
"html-keyboard-response","119","226435","0.0-10.0-0.30","601b5c79e845ac360826c9df","650c16f0f2faf8d7a0d14c09","651c1cb6f2caf4c51671900d","null","null","<p style=""font-size: 60px; font-family: BACS"">rbYbukam</p>","","","","","","","","","",""
"html-keyboard-response","120","227436","0.0-10.0-0.31","601b5c79e845ac360826c9df","650c16f0f2faf8d7a0d14c09","651c1cb6f2caf4c51671900d","null","null","<p style=""font-size: 60px; font-family: BACS"">CDEmYcPK</p>","","","","","","","","","",""
"html-keyboard-response","121","228438","0.0-10.0-0.32","601b5c79e845ac360826c9df","650c16f0f2faf8d7a0d14c09","651c1cb6f2caf4c51671900d","null","null","<p style=""font-size: 60px; font-family: BACS"">YJLcAkYL</p>","","","","","","","","","",""
"html-keyboard-response","122","229449","0.0-10.0-0.33","601b5c79e845ac360826c9df","650c16f0f2faf8d7a0d14c09","651c1cb6f2caf4c51671900d","null","null","<p style=""font-size: 60px; font-family: BACS"">uAkraQr</p>","","","","","","","","","",""
"html-keyboard-response","123","230450","0.0-10.0-0.34","601b5c79e845ac360826c9df","650c16f0f2faf8d7a0d14c09","651c1cb6f2caf4c51671900d","null","null","<p style=""font-size: 60px; font-family: BACS"">vclYkam</p>","","","","","","","","","",""
"html-keyboard-response","124","231452","0.0-10.0-0.35","601b5c79e845ac360826c9df","650c16f0f2faf8d7a0d14c09","651c1cb6f2caf4c51671900d","null","null","<p style=""font-size: 60px; font-family: BACS"">uAkrkYL</p>","","","","","","","","","",""
"html-keyboard-response","125","232454","0.0-10.0-0.36","601b5c79e845ac360826c9df","650c16f0f2faf8d7a0d14c09","651c1cb6f2caf4c51671900d","null","null","<p style=""font-size: 60px; font-family: BACS"">YJLcAaQr</p>","","","","","","","","","",""
"html-keyboard-response","126","233466","0.0-10.0-0.37","601b5c79e845ac360826c9df","650c16f0f2faf8d7a0d14c09","651c1cb6f2caf4c51671900d","null","null","<p style=""font-size: 60px; font-family: BACS"">vQdOkmU</p>","","","","","","","","","",""
"html-keyboard-response","127","234469","0.0-10.0-0.38","601b5c79e845ac360826c9df","650c16f0f2faf8d7a0d14c09","651c1cb6f2caf4c51671900d","null","null","<p style=""font-size: 60px; font-family: BACS"">vclYaQr</p>","","","","","","","","","",""
"html-keyboard-response","128","235470","0.0-10.0-0.39","601b5c79e845ac360826c9df","650c16f0f2faf8d7a0d14c09","651c1cb6f2caf4c51671900d","null","null","<p style=""font-size: 60px; font-family: BACS"">YJkbkam</p>","","","","","","","","","",""
"html-keyboard-response","129","236472","0.0-10.0-0.40","601b5c79e845ac360826c9df","650c16f0f2faf8d7a0d14c09","651c1cb6f2caf4c51671900d","null","null","<p style=""font-size: 60px; font-family: BACS"">mARMcPK</p>","","","","","","","","","",""
"html-keyboard-response","130","237475","0.0-10.0-0.41","601b5c79e845ac360826c9df","650c16f0f2faf8d7a0d14c09","651c1cb6f2caf4c51671900d","null","null","<p style=""font-size: 60px; font-family: BACS"">KElBcDR</p>","","","","","","","","","",""
"html-keyboard-response","131","238490","0.0-10.0-0.42","601b5c79e845ac360826c9df","650c16f0f2faf8d7a0d14c09","651c1cb6f2caf4c51671900d","null","null","<p style=""font-size: 60px; font-family: BACS"">YJLcAkdrO</p>","","","","","","","","","",""
"html-keyboard-response","132","239506","0.0-10.0-0.43","601b5c79e845ac360826c9df","650c16f0f2faf8d7a0d14c09","651c1cb6f2caf4c51671900d","null","null","<p style=""font-size: 60px; font-family: BACS"">tcYbdcPK</p>","","","","","","","","","",""
"html-keyboard-response","133","240521","0.0-10.0-0.44","601b5c79e845ac360826c9df","650c16f0f2faf8d7a0d14c09","651c1cb6f2caf4c51671900d","null","null","<p style=""font-size: 60px; font-family: BACS"">YJkbkYL</p>","","","","","","","","","",""
"html-keyboard-response","134","241523","0.0-10.0-0.45","601b5c79e845ac360826c9df","650c16f0f2faf8d7a0d14c09","651c1cb6f2caf4c51671900d","null","null","<p style=""font-size: 60px; font-family: BACS"">vclYkmU</p>","","","","","","","","","",""
"html-keyboard-response","135","242524","0.0-10.0-0.46","601b5c79e845ac360826c9df","650c16f0f2faf8d7a0d14c09","651c1cb6f2caf4c51671900d","null","null","<p style=""font-size: 60px; font-family: BACS"">rbYbukdrO</p>","","","","","","","","","",""
"html-keyboard-response","136","243540","0.0-10.0-0.47","601b5c79e845ac360826c9df","650c16f0f2faf8d7a0d14c09","651c1cb6f2caf4c51671900d","null","null","<p style=""font-size: 60px; font-family: BACS"">lRCBCPMl</p>","","","","","","","","","",""
"html-keyboard-response","137","244553","0.0-10.0-0.48","601b5c79e845ac360826c9df","650c16f0f2faf8d7a0d14c09","651c1cb6f2caf4c51671900d","null","null","<p style=""font-size: 60px; font-family: BACS"">ZcGdNaQr</p>","","","","","","","","","",""
"html-keyboard-response","138","245556","0.0-10.0-0.49","601b5c79e845ac360826c9df","650c16f0f2faf8d7a0d14c09","651c1cb6f2caf4c51671900d","null","null","<p style=""font-size: 60px; font-family: BACS"">JrGvkam</p>","","","","","","","","","",""
"html-keyboard-response","139","246557","0.0-10.0-0.50","601b5c79e845ac360826c9df","650c16f0f2faf8d7a0d14c09","651c1cb6f2caf4c51671900d","null","null","<p style=""font-size: 60px; font-family: BACS"">hCktcPK</p>","","","","","","","","","",""
"html-keyboard-response","140","247572","0.0-10.0-0.51","601b5c79e845ac360826c9df","650c16f0f2faf8d7a0d14c09","651c1cb6f2caf4c51671900d","null","null","<p style=""font-size: 60px; font-family: BACS"">uAkrkmU</p>","","","","","","","","","",""
"html-keyboard-response","141","248588","0.0-10.0-0.52","601b5c79e845ac360826c9df","650c16f0f2faf8d7a0d14c09","651c1cb6f2caf4c51671900d","null","null","<p style=""font-size: 60px; font-family: BACS"">DBklmKcD</p>","","","","","","","","","",""
"html-keyboard-response","142","249589","0.0-10.0-0.53","601b5c79e845ac360826c9df","650c16f0f2faf8d7a0d14c09","651c1cb6f2caf4c51671900d","null","null","<p style=""font-size: 60px; font-family: BACS"">ZcGdNkdrO</p>","","","","","","","","","",""
"html-keyboard-response","143","250599","0.0-10.0-0.54","601b5c79e845ac360826c9df","650c16f0f2faf8d7a0d14c09","651c1cb6f2caf4c51671900d","null","null","<p style=""font-size: 60px; font-family: BACS"">NaAQdkmU</p>","","","","","","","","","",""
"html-keyboard-response","144","251615","0.0-10.0-0.55","601b5c79e845ac360826c9df","650c16f0f2faf8d7a0d14c09","651c1cb6f2caf4c51671900d","null","null","<p style=""font-size: 60px; font-family: BACS"">CDEmYmKcD</p>","","","","","","","","","",""
"html-keyboard-response","145","252619","0.0-10.0-0.56","601b5c79e845ac360826c9df","650c16f0f2faf8d7a0d14c09","651c1cb6f2caf4c51671900d","null","null","<p style=""font-size: 60px; font-family: BACS"">JrGvkmU</p>","","","","","","","","","",""
"html-keyboard-response","146","253620","0.0-10.0-0.57","601b5c79e845ac360826c9df","650c16f0f2faf8d7a0d14c09","651c1cb6f2caf4c51671900d","null","null","<p style=""font-size: 60px; font-family: BACS"">NaAQdkdrO</p>","","","","","","","","","",""
"html-keyboard-response","147","254621","0.0-10.0-0.58","601b5c79e845ac360826c9df","650c16f0f2faf8d7a0d14c09","651c1cb6f2caf4c51671900d","null","null","<p style=""font-size: 60px; font-family: BACS"">hCktmKcD</p>","","","","","","","","","",""
"html-keyboard-response","148","255622","0.0-10.0-0.59","601b5c79e845ac360826c9df","650c16f0f2faf8d7a0d14c09","651c1cb6f2caf4c51671900d","null","null","<p style=""font-size: 60px; font-family: BACS"">KElBcPK</p>","","","","","","","","","",""
"html-keyboard-response","149","256622","0.0-10.0-0.60","601b5c79e845ac360826c9df","650c16f0f2faf8d7a0d14c09","651c1cb6f2caf4c51671900d","null","null","<p style=""font-size: 60px; font-family: BACS"">vQdOkYL</p>","","","","","","","","","",""
"html-keyboard-response","150","257633","0.0-10.0-0.61","601b5c79e845ac360826c9df","650c16f0f2faf8d7a0d14c09","651c1cb6f2caf4c51671900d","null","null","<p style=""font-size: 60px; font-family: BACS"">CDEmYcDR</p>","","","","","","","","","",""
"html-keyboard-response","151","258635","0.0-10.0-0.62","601b5c79e845ac360826c9df","650c16f0f2faf8d7a0d14c09","651c1cb6f2caf4c51671900d","null","null","<p style=""font-size: 60px; font-family: BACS"">ZcGdNkam</p>","","","","","","","","","",""
"html-keyboard-response","152","259636","0.0-10.0-0.63","601b5c79e845ac360826c9df","650c16f0f2faf8d7a0d14c09","651c1cb6f2caf4c51671900d","null","null","<p style=""font-size: 60px; font-family: BACS"">mrOdkdrO</p>","","","","","","","","","",""
"html-keyboard-response","153","260642","0.0-10.0-0.64","601b5c79e845ac360826c9df","650c16f0f2faf8d7a0d14c09","651c1cb6f2caf4c51671900d","null","null","<p style=""font-size: 60px; font-family: BACS"">YJkbaQr</p>","","","","","","","","","",""
"html-keyboard-response","154","261643","0.0-10.0-0.65","601b5c79e845ac360826c9df","650c16f0f2faf8d7a0d14c09","651c1cb6f2caf4c51671900d","null","null","<p style=""font-size: 60px; font-family: BACS"">mrOdkam</p>","","","","","","","","","",""
"html-keyboard-response","155","262655","0.0-10.0-0.66","601b5c79e845ac360826c9df","650c16f0f2faf8d7a0d14c09","651c1cb6f2caf4c51671900d","null","null","<p style=""font-size: 60px; font-family: BACS"">tcYbdcDR</p>","","","","","","","","","",""
"html-keyboard-response","156","263658","0.0-10.0-0.67","601b5c79e845ac360826c9df","650c16f0f2faf8d7a0d14c09","651c1cb6f2caf4c51671900d","null","null","<p style=""font-size: 60px; font-family: BACS"">mARMKlkD</p>","","","","","","","","","",""
"html-keyboard-response","157","264665","0.0-10.0-0.68","601b5c79e845ac360826c9df","650c16f0f2faf8d7a0d14c09","651c1cb6f2caf4c51671900d","null","null","<p style=""font-size: 60px; font-family: BACS"">uAkrkam</p>","","","","","","","","","",""
"html-keyboard-response","158","265666","0.0-10.0-0.69","601b5c79e845ac360826c9df","650c16f0f2faf8d7a0d14c09","651c1cb6f2caf4c51671900d","null","null","<p style=""font-size: 60px; font-family: BACS"">lRCBKlkD</p>","","","","","","","","","",""
"html-keyboard-response","159","266677","0.0-10.0-0.70","601b5c79e845ac360826c9df","650c16f0f2faf8d7a0d14c09","651c1cb6f2caf4c51671900d","null","null","<p style=""font-size: 60px; font-family: BACS"">AlTdcDR</p>","","","","","","","","","",""
"html-keyboard-response","160","267686","0.0-10.0-0.71","601b5c79e845ac360826c9df","650c16f0f2faf8d7a0d14c09","651c1cb6f2caf4c51671900d","null","null","<p style=""font-size: 60px; font-family: BACS"">DBklcPK</p>","","","","","","","","","",""
"html-keyboard-response","161","268695","0.0-10.0-0.72","601b5c79e845ac360826c9df","650c16f0f2faf8d7a0d14c09","651c1cb6f2caf4c51671900d","null","null","<p style=""font-size: 60px; font-family: BACS"">BMEMACPMl</p>","","","","","","","","","",""
"html-keyboard-response","162","269706","0.0-10.0-0.73","601b5c79e845ac360826c9df","650c16f0f2faf8d7a0d14c09","651c1cb6f2caf4c51671900d","null","null","<p style=""font-size: 60px; font-family: BACS"">rbYbuaQr</p>","","","","","","","","","",""
"html-keyboard-response","163","270708","0.0-10.0-0.74","601b5c79e845ac360826c9df","650c16f0f2faf8d7a0d14c09","651c1cb6f2caf4c51671900d","null","null","<p style=""font-size: 60px; font-family: BACS"">BMEMAmKcD</p>","","","","","","","","","",""
"html-keyboard-response","164","271709","0.0-10.0-0.75","601b5c79e845ac360826c9df","650c16f0f2faf8d7a0d14c09","651c1cb6f2caf4c51671900d","null","null","<p style=""font-size: 60px; font-family: BACS"">vQdOaQr</p>","","","","","","","","","",""
"html-keyboard-response","165","272712","0.0-10.0-0.76","601b5c79e845ac360826c9df","650c16f0f2faf8d7a0d14c09","651c1cb6f2caf4c51671900d","null","null","<p style=""font-size: 60px; font-family: BACS"">dRhtKlkD</p>","","","","","","","","","",""
"html-keyboard-response","166","273716","0.0-10.0-0.77","601b5c79e845ac360826c9df","650c16f0f2faf8d7a0d14c09","651c1cb6f2caf4c51671900d","null","null","<p style=""font-size: 60px; font-family: BACS"">hCktcDR</p>","","","","","","","","","",""
"html-keyboard-response","167","274717","0.0-10.0-0.78","601b5c79e845ac360826c9df","650c16f0f2faf8d7a0d14c09","651c1cb6f2caf4c51671900d","null","null","<p style=""font-size: 60px; font-family: BACS"">DBklCPMl</p>","","","","","","","","","",""
"html-keyboard-response","168","275718","0.0-10.0-0.79","601b5c79e845ac360826c9df","650c16f0f2faf8d7a0d14c09","651c1cb6f2caf4c51671900d","null","null","<p style=""font-size: 60px; font-family: BACS"">hCktKlkD</p>","","","","","","","","","",""
"html-keyboard-response","169","278811","0.0-11.0","601b5c79e845ac360826c9df","650c16f0f2faf8d7a0d14c09","651c1cb6f2caf4c51671900d","3092"," ","<p>Great, you've seen the second block of words. You may now take a short break.</p>
      <p>Press the spacebar when you're ready to continue.</p>","","","","","","","","","",""
"html-keyboard-response","170","279812","0.0-12.0-0.0","601b5c79e845ac360826c9df","650c16f0f2faf8d7a0d14c09","651c1cb6f2caf4c51671900d","null","null","<p style=""font-size: 60px; font-family: BACS"">AlTdcDR</p>","","","","","","","","","",""
"html-keyboard-response","171","280815","0.0-12.0-0.1","601b5c79e845ac360826c9df","650c16f0f2faf8d7a0d14c09","651c1cb6f2caf4c51671900d","null","null","<p style=""font-size: 60px; font-family: BACS"">lRCBCPMl</p>","","","","","","","","","",""
"html-keyboard-response","172","281817","0.0-12.0-0.2","601b5c79e845ac360826c9df","650c16f0f2faf8d7a0d14c09","651c1cb6f2caf4c51671900d","null","null","<p style=""font-size: 60px; font-family: BACS"">dRhtcPK</p>","","","","","","","","","",""
"html-keyboard-response","173","282826","0.0-12.0-0.3","601b5c79e845ac360826c9df","650c16f0f2faf8d7a0d14c09","651c1cb6f2caf4c51671900d","null","null","<p style=""font-size: 60px; font-family: BACS"">YJkbkYL</p>","","","","","","","","","",""
"html-keyboard-response","174","283827","0.0-12.0-0.4","601b5c79e845ac360826c9df","650c16f0f2faf8d7a0d14c09","651c1cb6f2caf4c51671900d","null","null","<p style=""font-size: 60px; font-family: BACS"">mARMmKcD</p>","","","","","","","","","",""
"html-keyboard-response","175","284829","0.0-12.0-0.5","601b5c79e845ac360826c9df","650c16f0f2faf8d7a0d14c09","651c1cb6f2caf4c51671900d","null","null","<p style=""font-size: 60px; font-family: BACS"">vQdOkdrO</p>","","","","","","","","","",""
"html-keyboard-response","176","285829","0.0-12.0-0.6","601b5c79e845ac360826c9df","650c16f0f2faf8d7a0d14c09","651c1cb6f2caf4c51671900d","null","null","<p style=""font-size: 60px; font-family: BACS"">JrGvkYL</p>","","","","","","","","","",""
"html-keyboard-response","177","286831","0.0-12.0-0.7","601b5c79e845ac360826c9df","650c16f0f2faf8d7a0d14c09","651c1cb6f2caf4c51671900d","null","null","<p style=""font-size: 60px; font-family: BACS"">KElBKlkD</p>","","","","","","","","","",""
"html-keyboard-response","178","287832","0.0-12.0-0.8","601b5c79e845ac360826c9df","650c16f0f2faf8d7a0d14c09","651c1cb6f2caf4c51671900d","null","null","<p style=""font-size: 60px; font-family: BACS"">lRCBmKcD</p>","","","","","","","","","",""
"html-keyboard-response","179","288834","0.0-12.0-0.9","601b5c79e845ac360826c9df","650c16f0f2faf8d7a0d14c09","651c1cb6f2caf4c51671900d","null","null","<p style=""font-size: 60px; font-family: BACS"">vclYkdrO</p>","","","","","","","","","",""
"html-keyboard-response","180","289843","0.0-12.0-0.10","601b5c79e845ac360826c9df","650c16f0f2faf8d7a0d14c09","651c1cb6f2caf4c51671900d","null","null","<p style=""font-size: 60px; font-family: BACS"">hCktcPK</p>","","","","","","","","","",""
"html-keyboard-response","181","290848","0.0-12.0-0.11","601b5c79e845ac360826c9df","650c16f0f2faf8d7a0d14c09","651c1cb6f2caf4c51671900d","null","null","<p style=""font-size: 60px; font-family: BACS"">mrOdkYL</p>","","","","","","","","","",""
"html-keyboard-response","182","291865","0.0-12.0-0.12","601b5c79e845ac360826c9df","650c16f0f2faf8d7a0d14c09","651c1cb6f2caf4c51671900d","null","null","<p style=""font-size: 60px; font-family: BACS"">BMEMAmKcD</p>","","","","","","","","","",""
"html-keyboard-response","183","292866","0.0-12.0-0.13","601b5c79e845ac360826c9df","650c16f0f2faf8d7a0d14c09","651c1cb6f2caf4c51671900d","null","null","<p style=""font-size: 60px; font-family: BACS"">rbYbuaQr</p>","","","","","","","","","",""
"html-keyboard-response","184","293866","0.0-12.0-0.14","601b5c79e845ac360826c9df","650c16f0f2faf8d7a0d14c09","651c1cb6f2caf4c51671900d","null","null","<p style=""font-size: 60px; font-family: BACS"">CDEmYcPK</p>","","","","","","","","","",""
"html-keyboard-response","185","294872","0.0-12.0-0.15","601b5c79e845ac360826c9df","650c16f0f2faf8d7a0d14c09","651c1cb6f2caf4c51671900d","null","null","<p style=""font-size: 60px; font-family: BACS"">rbYbukmU</p>","","","","","","","","","",""
"html-keyboard-response","186","295873","0.0-12.0-0.16","601b5c79e845ac360826c9df","650c16f0f2faf8d7a0d14c09","651c1cb6f2caf4c51671900d","null","null","<p style=""font-size: 60px; font-family: BACS"">dRhtmKcD</p>","","","","","","","","","",""
"html-keyboard-response","187","296874","0.0-12.0-0.17","601b5c79e845ac360826c9df","650c16f0f2faf8d7a0d14c09","651c1cb6f2caf4c51671900d","null","null","<p style=""font-size: 60px; font-family: BACS"">NaAQdkYL</p>","","","","","","","","","",""
"html-keyboard-response","188","297876","0.0-12.0-0.18","601b5c79e845ac360826c9df","650c16f0f2faf8d7a0d14c09","651c1cb6f2caf4c51671900d","null","null","<p style=""font-size: 60px; font-family: BACS"">YJkbkam</p>","","","","","","","","","",""
"html-keyboard-response","189","298889","0.0-12.0-0.19","601b5c79e845ac360826c9df","650c16f0f2faf8d7a0d14c09","651c1cb6f2caf4c51671900d","null","null","<p style=""font-size: 60px; font-family: BACS"">hCktKlkD</p>","","","","","","","","","",""
"html-keyboard-response","190","299890","0.0-12.0-0.20","601b5c79e845ac360826c9df","650c16f0f2faf8d7a0d14c09","651c1cb6f2caf4c51671900d","null","null","<p style=""font-size: 60px; font-family: BACS"">YJLcAkam</p>","","","","","","","","","",""
"html-keyboard-response","191","300891","0.0-12.0-0.21","601b5c79e845ac360826c9df","650c16f0f2faf8d7a0d14c09","651c1cb6f2caf4c51671900d","null","null","<p style=""font-size: 60px; font-family: BACS"">KElBcPK</p>","","","","","","","","","",""
"html-keyboard-response","192","301892","0.0-12.0-0.22","601b5c79e845ac360826c9df","650c16f0f2faf8d7a0d14c09","651c1cb6f2caf4c51671900d","null","null","<p style=""font-size: 60px; font-family: BACS"">DBklcDR</p>","","","","","","","","","",""
"html-keyboard-response","193","302902","0.0-12.0-0.23","601b5c79e845ac360826c9df","650c16f0f2faf8d7a0d14c09","651c1cb6f2caf4c51671900d","null","null","<p style=""font-size: 60px; font-family: BACS"">NaAQdkmU</p>","","","","","","","","","",""
"html-keyboard-response","194","303904","0.0-12.0-0.24","601b5c79e845ac360826c9df","650c16f0f2faf8d7a0d14c09","651c1cb6f2caf4c51671900d","null","null","<p style=""font-size: 60px; font-family: BACS"">hCktcDR</p>","","","","","","","","","",""
"html-keyboard-response","195","305812","0.0-12.0-0.25","601b5c79e845ac360826c9df","650c16f0f2faf8d7a0d14c09","651c1cb6f2caf4c51671900d","null","null","<p style=""font-size: 60px; font-family: BACS"">lRCBKlkD</p>","","","","","","","","","",""
"html-keyboard-response","196","307809","0.0-12.0-0.26","601b5c79e845ac360826c9df","650c16f0f2faf8d7a0d14c09","651c1cb6f2caf4c51671900d","null","null","<p style=""font-size: 60px; font-family: BACS"">DBklmKcD</p>","","","","","","","","","",""
"html-keyboard-response","197","308815","0.0-12.0-0.27","601b5c79e845ac360826c9df","650c16f0f2faf8d7a0d14c09","651c1cb6f2caf4c51671900d","null","null","<p style=""font-size: 60px; font-family: BACS"">KElBCPMl</p>","","","","","","","","","",""
"html-keyboard-response","198","310813","0.0-12.0-0.28","601b5c79e845ac360826c9df","650c16f0f2faf8d7a0d14c09","651c1cb6f2caf4c51671900d","null","null","<p style=""font-size: 60px; font-family: BACS"">ZcGdNkYL</p>","","","","","","","","","",""
"html-keyboard-response","199","312811","0.0-12.0-0.29","601b5c79e845ac360826c9df","650c16f0f2faf8d7a0d14c09","651c1cb6f2caf4c51671900d","null","null","<p style=""font-size: 60px; font-family: BACS"">NaAQdkdrO</p>","","","","","","","","","",""
"html-keyboard-response","200","314808","0.0-12.0-0.30","601b5c79e845ac360826c9df","650c16f0f2faf8d7a0d14c09","651c1cb6f2caf4c51671900d","null","null","<p style=""font-size: 60px; font-family: BACS"">DBklcPK</p>","","","","","","","","","",""
"html-keyboard-response","201","315810","0.0-12.0-0.31","601b5c79e845ac360826c9df","650c16f0f2faf8d7a0d14c09","651c1cb6f2caf4c51671900d","null","null","<p style=""font-size: 60px; font-family: BACS"">mrOdkam</p>","","","","","","","","","",""
"html-keyboard-response","202","317810","0.0-12.0-0.32","601b5c79e845ac360826c9df","650c16f0f2faf8d7a0d14c09","651c1cb6f2caf4c51671900d","null","null","<p style=""font-size: 60px; font-family: BACS"">tcYbdcDR</p>","","","","","","","","","",""
"html-keyboard-response","203","318814","0.0-12.0-0.33","601b5c79e845ac360826c9df","650c16f0f2faf8d7a0d14c09","651c1cb6f2caf4c51671900d","null","null","<p style=""font-size: 60px; font-family: BACS"">vclYaQr</p>","","","","","","","","","",""
"html-keyboard-response","204","320800","0.0-12.0-0.34","601b5c79e845ac360826c9df","650c16f0f2faf8d7a0d14c09","651c1cb6f2caf4c51671900d","null","null","<p style=""font-size: 60px; font-family: BACS"">uAkrkmU</p>","","","","","","","","","",""
"html-keyboard-response","205","321814","0.0-12.0-0.35","601b5c79e845ac360826c9df","650c16f0f2faf8d7a0d14c09","651c1cb6f2caf4c51671900d","null","null","<p style=""font-size: 60px; font-family: BACS"">vclYkam</p>","","","","","","","","","",""
"html-keyboard-response","206","323209","0.0-12.0-0.36","601b5c79e845ac360826c9df","650c16f0f2faf8d7a0d14c09","651c1cb6f2caf4c51671900d","null","null","<p style=""font-size: 60px; font-family: BACS"">BMEMACPMl</p>","","","","","","","","","",""
"html-keyboard-response","207","324210","0.0-12.0-0.37","601b5c79e845ac360826c9df","650c16f0f2faf8d7a0d14c09","651c1cb6f2caf4c51671900d","null","null","<p style=""font-size: 60px; font-family: BACS"">mARMKlkD</p>","","","","","","","","","",""
"html-keyboard-response","208","325211","0.0-12.0-0.38","601b5c79e845ac360826c9df","650c16f0f2faf8d7a0d14c09","651c1cb6f2caf4c51671900d","null","null","<p style=""font-size: 60px; font-family: BACS"">DBklCPMl</p>","","","","","","","","","",""
"html-keyboard-response","209","326212","0.0-12.0-0.39","601b5c79e845ac360826c9df","650c16f0f2faf8d7a0d14c09","651c1cb6f2caf4c51671900d","null","null","<p style=""font-size: 60px; font-family: BACS"">tcYbdmKcD</p>","","","","","","","","","",""
"html-keyboard-response","210","327213","0.0-12.0-0.40","601b5c79e845ac360826c9df","650c16f0f2faf8d7a0d14c09","651c1cb6f2caf4c51671900d","null","null","<p style=""font-size: 60px; font-family: BACS"">ZcGdNkam</p>","","","","","","","","","",""
"html-keyboard-response","211","328224","0.0-12.0-0.41","601b5c79e845ac360826c9df","650c16f0f2faf8d7a0d14c09","651c1cb6f2caf4c51671900d","null","null","<p style=""font-size: 60px; font-family: BACS"">KElBcDR</p>","","","","","","","","","",""
"html-keyboard-response","212","329228","0.0-12.0-0.42","601b5c79e845ac360826c9df","650c16f0f2faf8d7a0d14c09","651c1cb6f2caf4c51671900d","null","null","<p style=""font-size: 60px; font-family: BACS"">dRhtCPMl</p>","","","","","","","","","",""
"html-keyboard-response","213","330234","0.0-12.0-0.43","601b5c79e845ac360826c9df","650c16f0f2faf8d7a0d14c09","651c1cb6f2caf4c51671900d","null","null","<p style=""font-size: 60px; font-family: BACS"">uAkraQr</p>","","","","","","","","","",""
"html-keyboard-response","214","331242","0.0-12.0-0.44","601b5c79e845ac360826c9df","650c16f0f2faf8d7a0d14c09","651c1cb6f2caf4c51671900d","null","null","<p style=""font-size: 60px; font-family: BACS"">mrOdkdrO</p>","","","","","","","","","",""
"html-keyboard-response","215","332244","0.0-12.0-0.45","601b5c79e845ac360826c9df","650c16f0f2faf8d7a0d14c09","651c1cb6f2caf4c51671900d","null","null","<p style=""font-size: 60px; font-family: BACS"">YJLcAaQr</p>","","","","","","","","","",""
"html-keyboard-response","216","333246","0.0-12.0-0.46","601b5c79e845ac360826c9df","650c16f0f2faf8d7a0d14c09","651c1cb6f2caf4c51671900d","null","null","<p style=""font-size: 60px; font-family: BACS"">JrGvkdrO</p>","","","","","","","","","",""
"html-keyboard-response","217","334248","0.0-12.0-0.47","601b5c79e845ac360826c9df","650c16f0f2faf8d7a0d14c09","651c1cb6f2caf4c51671900d","null","null","<p style=""font-size: 60px; font-family: BACS"">AlTdKlkD</p>","","","","","","","","","",""
"html-keyboard-response","218","335250","0.0-12.0-0.48","601b5c79e845ac360826c9df","650c16f0f2faf8d7a0d14c09","651c1cb6f2caf4c51671900d","null","null","<p style=""font-size: 60px; font-family: BACS"">CDEmYmKcD</p>","","","","","","","","","",""
"html-keyboard-response","219","336260","0.0-12.0-0.49","601b5c79e845ac360826c9df","650c16f0f2faf8d7a0d14c09","651c1cb6f2caf4c51671900d","null","null","<p style=""font-size: 60px; font-family: BACS"">ZcGdNaQr</p>","","","","","","","","","",""
"html-keyboard-response","220","337261","0.0-12.0-0.50","601b5c79e845ac360826c9df","650c16f0f2faf8d7a0d14c09","651c1cb6f2caf4c51671900d","null","null","<p style=""font-size: 60px; font-family: BACS"">dRhtKlkD</p>","","","","","","","","","",""
"html-keyboard-response","221","338270","0.0-12.0-0.51","601b5c79e845ac360826c9df","650c16f0f2faf8d7a0d14c09","651c1cb6f2caf4c51671900d","null","null","<p style=""font-size: 60px; font-family: BACS"">YJLcAkYL</p>","","","","","","","","","",""
"html-keyboard-response","222","339279","0.0-12.0-0.52","601b5c79e845ac360826c9df","650c16f0f2faf8d7a0d14c09","651c1cb6f2caf4c51671900d","null","null","<p style=""font-size: 60px; font-family: BACS"">tcYbdKlkD</p>","","","","","","","","","",""
"html-keyboard-response","223","340286","0.0-12.0-0.53","601b5c79e845ac360826c9df","650c16f0f2faf8d7a0d14c09","651c1cb6f2caf4c51671900d","null","null","<p style=""font-size: 60px; font-family: BACS"">YJkbkmU</p>","","","","","","","","","",""
"html-keyboard-response","224","341294","0.0-12.0-0.54","601b5c79e845ac360826c9df","650c16f0f2faf8d7a0d14c09","651c1cb6f2caf4c51671900d","null","null","<p style=""font-size: 60px; font-family: BACS"">mARMcPK</p>","","","","","","","","","",""
"html-keyboard-response","225","342305","0.0-12.0-0.55","601b5c79e845ac360826c9df","650c16f0f2faf8d7a0d14c09","651c1cb6f2caf4c51671900d","null","null","<p style=""font-size: 60px; font-family: BACS"">vQdOkYL</p>","","","","","","","","","",""
"html-keyboard-response","226","343811","0.0-12.0-0.56","601b5c79e845ac360826c9df","650c16f0f2faf8d7a0d14c09","651c1cb6f2caf4c51671900d","null","null","<p style=""font-size: 60px; font-family: BACS"">BMEMAcDR</p>","","","","","","","","","",""
"html-keyboard-response","227","345809","0.0-12.0-0.57","601b5c79e845ac360826c9df","650c16f0f2faf8d7a0d14c09","651c1cb6f2caf4c51671900d","null","null","<p style=""font-size: 60px; font-family: BACS"">rbYbukdrO</p>","","","","","","","","","",""
"html-keyboard-response","228","346813","0.0-12.0-0.58","601b5c79e845ac360826c9df","650c16f0f2faf8d7a0d14c09","651c1cb6f2caf4c51671900d","null","null","<p style=""font-size: 60px; font-family: BACS"">mARMCPMl</p>","","","","","","","","","",""
"html-keyboard-response","229","348809","0.0-12.0-0.59","601b5c79e845ac360826c9df","650c16f0f2faf8d7a0d14c09","651c1cb6f2caf4c51671900d","null","null","<p style=""font-size: 60px; font-family: BACS"">tcYbdcPK</p>","","","","","","","","","",""
"html-keyboard-response","230","349815","0.0-12.0-0.60","601b5c79e845ac360826c9df","650c16f0f2faf8d7a0d14c09","651c1cb6f2caf4c51671900d","null","null","<p style=""font-size: 60px; font-family: BACS"">vQdOaQr</p>","","","","","","","","","",""
"html-keyboard-response","231","351815","0.0-12.0-0.61","601b5c79e845ac360826c9df","650c16f0f2faf8d7a0d14c09","651c1cb6f2caf4c51671900d","null","null","<p style=""font-size: 60px; font-family: BACS"">lRCBcDR</p>","","","","","","","","","",""
"html-keyboard-response","232","353811","0.0-12.0-0.62","601b5c79e845ac360826c9df","650c16f0f2faf8d7a0d14c09","651c1cb6f2caf4c51671900d","null","null","<p style=""font-size: 60px; font-family: BACS"">YJLcAkdrO</p>","","","","","","","","","",""
"html-keyboard-response","233","354815","0.0-12.0-0.63","601b5c79e845ac360826c9df","650c16f0f2faf8d7a0d14c09","651c1cb6f2caf4c51671900d","null","null","<p style=""font-size: 60px; font-family: BACS"">uAkrkam</p>","","","","","","","","","",""
"html-keyboard-response","234","356813","0.0-12.0-0.64","601b5c79e845ac360826c9df","650c16f0f2faf8d7a0d14c09","651c1cb6f2caf4c51671900d","null","null","<p style=""font-size: 60px; font-family: BACS"">vclYkmU</p>","","","","","","","","","",""
"html-keyboard-response","235","358812","0.0-12.0-0.65","601b5c79e845ac360826c9df","650c16f0f2faf8d7a0d14c09","651c1cb6f2caf4c51671900d","null","null","<p style=""font-size: 60px; font-family: BACS"">BMEMAKlkD</p>","","","","","","","","","",""
"html-keyboard-response","236","360813","0.0-12.0-0.66","601b5c79e845ac360826c9df","650c16f0f2faf8d7a0d14c09","651c1cb6f2caf4c51671900d","null","null","<p style=""font-size: 60px; font-family: BACS"">JrGvkam</p>","","","","","","","","","",""
"html-keyboard-response","237","362813","0.0-12.0-0.67","601b5c79e845ac360826c9df","650c16f0f2faf8d7a0d14c09","651c1cb6f2caf4c51671900d","null","null","<p style=""font-size: 60px; font-family: BACS"">mrOdkmU</p>","","","","","","","","","",""
"html-keyboard-response","238","364807","0.0-12.0-0.68","601b5c79e845ac360826c9df","650c16f0f2faf8d7a0d14c09","651c1cb6f2caf4c51671900d","null","null","<p style=""font-size: 60px; font-family: BACS"">AlTdCPMl</p>","","","","","","","","","",""
"html-keyboard-response","239","366808","0.0-12.0-0.69","601b5c79e845ac360826c9df","650c16f0f2faf8d7a0d14c09","651c1cb6f2caf4c51671900d","null","null","<p style=""font-size: 60px; font-family: BACS"">uAkrkYL</p>","","","","","","","","","",""
"html-keyboard-response","240","367815","0.0-12.0-0.70","601b5c79e845ac360826c9df","650c16f0f2faf8d7a0d14c09","651c1cb6f2caf4c51671900d","null","null","<p style=""font-size: 60px; font-family: BACS"">CDEmYCPMl</p>","","","","","","","","","",""
"html-keyboard-response","241","369810","0.0-12.0-0.71","601b5c79e845ac360826c9df","650c16f0f2faf8d7a0d14c09","651c1cb6f2caf4c51671900d","null","null","<p style=""font-size: 60px; font-family: BACS"">vQdOkmU</p>","","","","","","","","","",""
"html-keyboard-response","242","370813","0.0-12.0-0.72","601b5c79e845ac360826c9df","650c16f0f2faf8d7a0d14c09","651c1cb6f2caf4c51671900d","null","null","<p style=""font-size: 60px; font-family: BACS"">hCktmKcD</p>","","","","","","","","","",""
"html-keyboard-response","243","372809","0.0-12.0-0.73","601b5c79e845ac360826c9df","650c16f0f2faf8d7a0d14c09","651c1cb6f2caf4c51671900d","null","null","<p style=""font-size: 60px; font-family: BACS"">rbYbukam</p>","","","","","","","","","",""
"html-keyboard-response","244","373822","0.0-12.0-0.74","601b5c79e845ac360826c9df","650c16f0f2faf8d7a0d14c09","651c1cb6f2caf4c51671900d","null","null","<p style=""font-size: 60px; font-family: BACS"">AlTdcPK</p>","","","","","","","","","",""
"html-keyboard-response","245","375802","0.0-12.0-0.75","601b5c79e845ac360826c9df","650c16f0f2faf8d7a0d14c09","651c1cb6f2caf4c51671900d","null","null","<p style=""font-size: 60px; font-family: BACS"">JrGvkmU</p>","","","","","","","","","",""
"html-keyboard-response","246","376808","0.0-12.0-0.76","601b5c79e845ac360826c9df","650c16f0f2faf8d7a0d14c09","651c1cb6f2caf4c51671900d","null","null","<p style=""font-size: 60px; font-family: BACS"">NaAQdaQr</p>","","","","","","","","","",""
"html-keyboard-response","247","377813","0.0-12.0-0.77","601b5c79e845ac360826c9df","650c16f0f2faf8d7a0d14c09","651c1cb6f2caf4c51671900d","null","null","<p style=""font-size: 60px; font-family: BACS"">CDEmYcDR</p>","","","","","","","","","",""
"html-keyboard-response","248","379814","0.0-12.0-0.78","601b5c79e845ac360826c9df","650c16f0f2faf8d7a0d14c09","651c1cb6f2caf4c51671900d","null","null","<p style=""font-size: 60px; font-family: BACS"">ZcGdNkdrO</p>","","","","","","","","","",""
"html-keyboard-response","249","381814","0.0-12.0-0.79","601b5c79e845ac360826c9df","650c16f0f2faf8d7a0d14c09","651c1cb6f2caf4c51671900d","null","null","<p style=""font-size: 60px; font-family: BACS"">YJkbaQr</p>","","","","","","","","","",""
"html-keyboard-response","250","459119","0.0-13.0","601b5c79e845ac360826c9df","650c16f0f2faf8d7a0d14c09","651c1cb6f2caf4c51671900d","77304"," ","<p>Great, you've seen the third block of words. You may now take a short break.</p>
      <p>Press the spacebar when you're ready to continue.</p>","","","","","","","","","",""
"html-keyboard-response","251","460120","0.0-14.0-0.0","601b5c79e845ac360826c9df","650c16f0f2faf8d7a0d14c09","651c1cb6f2caf4c51671900d","null","null","<p style=""font-size: 60px; font-family: BACS"">mARMcPK</p>","","","","","","","","","",""
"html-keyboard-response","252","461132","0.0-14.0-0.1","601b5c79e845ac360826c9df","650c16f0f2faf8d7a0d14c09","651c1cb6f2caf4c51671900d","null","null","<p style=""font-size: 60px; font-family: BACS"">NaAQdaQr</p>","","","","","","","","","",""
"html-keyboard-response","253","462139","0.0-14.0-0.2","601b5c79e845ac360826c9df","650c16f0f2faf8d7a0d14c09","651c1cb6f2caf4c51671900d","null","null","<p style=""font-size: 60px; font-family: BACS"">vQdOkdrO</p>","","","","","","","","","",""
"html-keyboard-response","254","463801","0.0-14.0-0.3","601b5c79e845ac360826c9df","650c16f0f2faf8d7a0d14c09","651c1cb6f2caf4c51671900d","null","null","<p style=""font-size: 60px; font-family: BACS"">lRCBcDR</p>","","","","","","","","","",""
"html-keyboard-response","255","464804","0.0-14.0-0.4","601b5c79e845ac360826c9df","650c16f0f2faf8d7a0d14c09","651c1cb6f2caf4c51671900d","null","null","<p style=""font-size: 60px; font-family: BACS"">AlTdKlkD</p>","","","","","","","","","",""
"html-keyboard-response","256","465806","0.0-14.0-0.5","601b5c79e845ac360826c9df","650c16f0f2faf8d7a0d14c09","651c1cb6f2caf4c51671900d","null","null","<p style=""font-size: 60px; font-family: BACS"">vclYkdrO</p>","","","","","","","","","",""
"html-keyboard-response","257","466809","0.0-14.0-0.6","601b5c79e845ac360826c9df","650c16f0f2faf8d7a0d14c09","651c1cb6f2caf4c51671900d","null","null","<p style=""font-size: 60px; font-family: BACS"">YJkbkam</p>","","","","","","","","","",""
"html-keyboard-response","258","468611","0.0-14.0-0.7","601b5c79e845ac360826c9df","650c16f0f2faf8d7a0d14c09","651c1cb6f2caf4c51671900d","null","null","<p style=""font-size: 60px; font-family: BACS"">CDEmYmKcD</p>","","","","","","","","","",""
"html-keyboard-response","259","469619","0.0-14.0-0.8","601b5c79e845ac360826c9df","650c16f0f2faf8d7a0d14c09","651c1cb6f2caf4c51671900d","null","null","<p style=""font-size: 60px; font-family: BACS"">lRCBKlkD</p>","","","","","","","","","",""
"html-keyboard-response","260","470620","0.0-14.0-0.9","601b5c79e845ac360826c9df","650c16f0f2faf8d7a0d14c09","651c1cb6f2caf4c51671900d","null","null","<p style=""font-size: 60px; font-family: BACS"">JrGvkYL</p>","","","","","","","","","",""
"html-keyboard-response","261","471634","0.0-14.0-0.10","601b5c79e845ac360826c9df","650c16f0f2faf8d7a0d14c09","651c1cb6f2caf4c51671900d","null","null","<p style=""font-size: 60px; font-family: BACS"">hCktmKcD</p>","","","","","","","","","",""
"html-keyboard-response","262","472640","0.0-14.0-0.11","601b5c79e845ac360826c9df","650c16f0f2faf8d7a0d14c09","651c1cb6f2caf4c51671900d","null","null","<p style=""font-size: 60px; font-family: BACS"">vQdOaQr</p>","","","","","","","","","",""
"html-keyboard-response","263","473657","0.0-14.0-0.12","601b5c79e845ac360826c9df","650c16f0f2faf8d7a0d14c09","651c1cb6f2caf4c51671900d","null","null","<p style=""font-size: 60px; font-family: BACS"">ZcGdNkYL</p>","","","","","","","","","",""
"html-keyboard-response","264","474658","0.0-14.0-0.13","601b5c79e845ac360826c9df","650c16f0f2faf8d7a0d14c09","651c1cb6f2caf4c51671900d","null","null","<p style=""font-size: 60px; font-family: BACS"">KElBcDR</p>","","","","","","","","","",""
"html-keyboard-response","265","475673","0.0-14.0-0.14","601b5c79e845ac360826c9df","650c16f0f2faf8d7a0d14c09","651c1cb6f2caf4c51671900d","null","null","<p style=""font-size: 60px; font-family: BACS"">mrOdkmU</p>","","","","","","","","","",""
"html-keyboard-response","266","476679","0.0-14.0-0.15","601b5c79e845ac360826c9df","650c16f0f2faf8d7a0d14c09","651c1cb6f2caf4c51671900d","null","null","<p style=""font-size: 60px; font-family: BACS"">ZcGdNaQr</p>","","","","","","","","","",""
"html-keyboard-response","267","477681","0.0-14.0-0.16","601b5c79e845ac360826c9df","650c16f0f2faf8d7a0d14c09","651c1cb6f2caf4c51671900d","null","null","<p style=""font-size: 60px; font-family: BACS"">NaAQdkdrO</p>","","","","","","","","","",""
"html-keyboard-response","268","478682","0.0-14.0-0.17","601b5c79e845ac360826c9df","650c16f0f2faf8d7a0d14c09","651c1cb6f2caf4c51671900d","null","null","<p style=""font-size: 60px; font-family: BACS"">JrGvkmU</p>","","","","","","","","","",""
"html-keyboard-response","269","479684","0.0-14.0-0.18","601b5c79e845ac360826c9df","650c16f0f2faf8d7a0d14c09","651c1cb6f2caf4c51671900d","null","null","<p style=""font-size: 60px; font-family: BACS"">hCktKlkD</p>","","","","","","","","","",""
"html-keyboard-response","270","480688","0.0-14.0-0.19","601b5c79e845ac360826c9df","650c16f0f2faf8d7a0d14c09","651c1cb6f2caf4c51671900d","null","null","<p style=""font-size: 60px; font-family: BACS"">mARMmKcD</p>","","","","","","","","","",""
"html-keyboard-response","271","481689","0.0-14.0-0.20","601b5c79e845ac360826c9df","650c16f0f2faf8d7a0d14c09","651c1cb6f2caf4c51671900d","null","null","<p style=""font-size: 60px; font-family: BACS"">vclYaQr</p>","","","","","","","","","",""
"html-keyboard-response","272","482696","0.0-14.0-0.21","601b5c79e845ac360826c9df","650c16f0f2faf8d7a0d14c09","651c1cb6f2caf4c51671900d","null","null","<p style=""font-size: 60px; font-family: BACS"">YJLcAkYL</p>","","","","","","","","","",""
"html-keyboard-response","273","483807","0.0-14.0-0.22","601b5c79e845ac360826c9df","650c16f0f2faf8d7a0d14c09","651c1cb6f2caf4c51671900d","null","null","<p style=""font-size: 60px; font-family: BACS"">dRhtcPK</p>","","","","","","","","","",""
"html-keyboard-response","274","484808","0.0-14.0-0.23","601b5c79e845ac360826c9df","650c16f0f2faf8d7a0d14c09","651c1cb6f2caf4c51671900d","null","null","<p style=""font-size: 60px; font-family: BACS"">YJLcAkdrO</p>","","","","","","","","","",""
"html-keyboard-response","275","485814","0.0-14.0-0.24","601b5c79e845ac360826c9df","650c16f0f2faf8d7a0d14c09","651c1cb6f2caf4c51671900d","null","null","<p style=""font-size: 60px; font-family: BACS"">mrOdkam</p>","","","","","","","","","",""
"html-keyboard-response","276","487805","0.0-14.0-0.25","601b5c79e845ac360826c9df","650c16f0f2faf8d7a0d14c09","651c1cb6f2caf4c51671900d","null","null","<p style=""font-size: 60px; font-family: BACS"">AlTdCPMl</p>","","","","","","","","","",""
"html-keyboard-response","277","488805","0.0-14.0-0.26","601b5c79e845ac360826c9df","650c16f0f2faf8d7a0d14c09","651c1cb6f2caf4c51671900d","null","null","<p style=""font-size: 60px; font-family: BACS"">dRhtKlkD</p>","","","","","","","","","",""
"html-keyboard-response","278","490807","0.0-14.0-0.27","601b5c79e845ac360826c9df","650c16f0f2faf8d7a0d14c09","651c1cb6f2caf4c51671900d","null","null","<p style=""font-size: 60px; font-family: BACS"">vQdOkYL</p>","","","","","","","","","",""
"html-keyboard-response","279","491821","0.0-14.0-0.28","601b5c79e845ac360826c9df","650c16f0f2faf8d7a0d14c09","651c1cb6f2caf4c51671900d","null","null","<p style=""font-size: 60px; font-family: BACS"">CDEmYcDR</p>","","","","","","","","","",""
"html-keyboard-response","280","493205","0.0-14.0-0.29","601b5c79e845ac360826c9df","650c16f0f2faf8d7a0d14c09","651c1cb6f2caf4c51671900d","null","null","<p style=""font-size: 60px; font-family: BACS"">BMEMACPMl</p>","","","","","","","","","",""
"html-keyboard-response","281","494218","0.0-14.0-0.30","601b5c79e845ac360826c9df","650c16f0f2faf8d7a0d14c09","651c1cb6f2caf4c51671900d","null","null","<p style=""font-size: 60px; font-family: BACS"">tcYbdmKcD</p>","","","","","","","","","",""
"html-keyboard-response","282","495220","0.0-14.0-0.31","601b5c79e845ac360826c9df","650c16f0f2faf8d7a0d14c09","651c1cb6f2caf4c51671900d","null","null","<p style=""font-size: 60px; font-family: BACS"">vQdOkmU</p>","","","","","","","","","",""
"html-keyboard-response","283","496227","0.0-14.0-0.32","601b5c79e845ac360826c9df","650c16f0f2faf8d7a0d14c09","651c1cb6f2caf4c51671900d","null","null","<p style=""font-size: 60px; font-family: BACS"">hCktcDR</p>","","","","","","","","","",""
"html-keyboard-response","284","497228","0.0-14.0-0.33","601b5c79e845ac360826c9df","650c16f0f2faf8d7a0d14c09","651c1cb6f2caf4c51671900d","null","null","<p style=""font-size: 60px; font-family: BACS"">KElBKlkD</p>","","","","","","","","","",""
"html-keyboard-response","285","498240","0.0-14.0-0.34","601b5c79e845ac360826c9df","650c16f0f2faf8d7a0d14c09","651c1cb6f2caf4c51671900d","null","null","<p style=""font-size: 60px; font-family: BACS"">vclYkmU</p>","","","","","","","","","",""
"html-keyboard-response","286","499242","0.0-14.0-0.35","601b5c79e845ac360826c9df","650c16f0f2faf8d7a0d14c09","651c1cb6f2caf4c51671900d","null","null","<p style=""font-size: 60px; font-family: BACS"">dRhtCPMl</p>","","","","","","","","","",""
"html-keyboard-response","287","500243","0.0-14.0-0.36","601b5c79e845ac360826c9df","650c16f0f2faf8d7a0d14c09","651c1cb6f2caf4c51671900d","null","null","<p style=""font-size: 60px; font-family: BACS"">NaAQdkmU</p>","","","","","","","","","",""
"html-keyboard-response","288","501244","0.0-14.0-0.37","601b5c79e845ac360826c9df","650c16f0f2faf8d7a0d14c09","651c1cb6f2caf4c51671900d","null","null","<p style=""font-size: 60px; font-family: BACS"">CDEmYCPMl</p>","","","","","","","","","",""
"html-keyboard-response","289","502251","0.0-14.0-0.38","601b5c79e845ac360826c9df","650c16f0f2faf8d7a0d14c09","651c1cb6f2caf4c51671900d","null","null","<p style=""font-size: 60px; font-family: BACS"">uAkrkam</p>","","","","","","","","","",""
"html-keyboard-response","290","503253","0.0-14.0-0.39","601b5c79e845ac360826c9df","650c16f0f2faf8d7a0d14c09","651c1cb6f2caf4c51671900d","null","null","<p style=""font-size: 60px; font-family: BACS"">JrGvkdrO</p>","","","","","","","","","",""
"html-keyboard-response","291","504255","0.0-14.0-0.40","601b5c79e845ac360826c9df","650c16f0f2faf8d7a0d14c09","651c1cb6f2caf4c51671900d","null","null","<p style=""font-size: 60px; font-family: BACS"">tcYbdKlkD</p>","","","","","","","","","",""
"html-keyboard-response","292","505259","0.0-14.0-0.41","601b5c79e845ac360826c9df","650c16f0f2faf8d7a0d14c09","651c1cb6f2caf4c51671900d","null","null","<p style=""font-size: 60px; font-family: BACS"">DBklcPK</p>","","","","","","","","","",""
"html-keyboard-response","293","506812","0.0-14.0-0.42","601b5c79e845ac360826c9df","650c16f0f2faf8d7a0d14c09","651c1cb6f2caf4c51671900d","null","null","<p style=""font-size: 60px; font-family: BACS"">mARMKlkD</p>","","","","","","","","","",""
"html-keyboard-response","294","508806","0.0-14.0-0.43","601b5c79e845ac360826c9df","650c16f0f2faf8d7a0d14c09","651c1cb6f2caf4c51671900d","null","null","<p style=""font-size: 60px; font-family: BACS"">uAkrkmU</p>","","","","","","","","","",""
"html-keyboard-response","295","509815","0.0-14.0-0.44","601b5c79e845ac360826c9df","650c16f0f2faf8d7a0d14c09","651c1cb6f2caf4c51671900d","null","null","<p style=""font-size: 60px; font-family: BACS"">lRCBmKcD</p>","","","","","","","","","",""
"html-keyboard-response","296","511811","0.0-14.0-0.45","601b5c79e845ac360826c9df","650c16f0f2faf8d7a0d14c09","651c1cb6f2caf4c51671900d","null","null","<p style=""font-size: 60px; font-family: BACS"">rbYbukmU</p>","","","","","","","","","",""
"html-keyboard-response","297","513813","0.0-14.0-0.46","601b5c79e845ac360826c9df","650c16f0f2faf8d7a0d14c09","651c1cb6f2caf4c51671900d","null","null","<p style=""font-size: 60px; font-family: BACS"">uAkraQr</p>","","","","","","","","","",""
"html-keyboard-response","298","515807","0.0-14.0-0.47","601b5c79e845ac360826c9df","650c16f0f2faf8d7a0d14c09","651c1cb6f2caf4c51671900d","null","null","<p style=""font-size: 60px; font-family: BACS"">NaAQdkYL</p>","","","","","","","","","",""
"html-keyboard-response","299","516810","0.0-14.0-0.48","601b5c79e845ac360826c9df","650c16f0f2faf8d7a0d14c09","651c1cb6f2caf4c51671900d","null","null","<p style=""font-size: 60px; font-family: BACS"">ZcGdNkam</p>","","","","","","","","","",""
"html-keyboard-response","300","517811","0.0-14.0-0.49","601b5c79e845ac360826c9df","650c16f0f2faf8d7a0d14c09","651c1cb6f2caf4c51671900d","null","null","<p style=""font-size: 60px; font-family: BACS"">mrOdkdrO</p>","","","","","","","","","",""
"html-keyboard-response","301","519806","0.0-14.0-0.50","601b5c79e845ac360826c9df","650c16f0f2faf8d7a0d14c09","651c1cb6f2caf4c51671900d","null","null","<p style=""font-size: 60px; font-family: BACS"">mARMCPMl</p>","","","","","","","","","",""
"html-keyboard-response","302","520815","0.0-14.0-0.51","601b5c79e845ac360826c9df","650c16f0f2faf8d7a0d14c09","651c1cb6f2caf4c51671900d","null","null","<p style=""font-size: 60px; font-family: BACS"">DBklcDR</p>","","","","","","","","","",""
"html-keyboard-response","303","522810","0.0-14.0-0.52","601b5c79e845ac360826c9df","650c16f0f2faf8d7a0d14c09","651c1cb6f2caf4c51671900d","null","null","<p style=""font-size: 60px; font-family: BACS"">JrGvkam</p>","","","","","","","","","",""
"html-keyboard-response","304","524810","0.0-14.0-0.53","601b5c79e845ac360826c9df","650c16f0f2faf8d7a0d14c09","651c1cb6f2caf4c51671900d","null","null","<p style=""font-size: 60px; font-family: BACS"">rbYbukdrO</p>","","","","","","","","","",""
"html-keyboard-response","305","526800","0.0-14.0-0.54","601b5c79e845ac360826c9df","650c16f0f2faf8d7a0d14c09","651c1cb6f2caf4c51671900d","null","null","<p style=""font-size: 60px; font-family: BACS"">hCktcPK</p>","","","","","","","","","",""
"html-keyboard-response","306","527801","0.0-14.0-0.55","601b5c79e845ac360826c9df","650c16f0f2faf8d7a0d14c09","651c1cb6f2caf4c51671900d","null","null","<p style=""font-size: 60px; font-family: BACS"">vclYkam</p>","","","","","","","","","",""
"html-keyboard-response","307","528805","0.0-14.0-0.56","601b5c79e845ac360826c9df","650c16f0f2faf8d7a0d14c09","651c1cb6f2caf4c51671900d","null","null","<p style=""font-size: 60px; font-family: BACS"">BMEMAKlkD</p>","","","","","","","","","",""
"html-keyboard-response","308","529806","0.0-14.0-0.57","601b5c79e845ac360826c9df","650c16f0f2faf8d7a0d14c09","651c1cb6f2caf4c51671900d","null","null","<p style=""font-size: 60px; font-family: BACS"">YJkbkYL</p>","","","","","","","","","",""
"html-keyboard-response","309","530807","0.0-14.0-0.58","601b5c79e845ac360826c9df","650c16f0f2faf8d7a0d14c09","651c1cb6f2caf4c51671900d","null","null","<p style=""font-size: 60px; font-family: BACS"">ZcGdNkdrO</p>","","","","","","","","","",""
"html-keyboard-response","310","531809","0.0-14.0-0.59","601b5c79e845ac360826c9df","650c16f0f2faf8d7a0d14c09","651c1cb6f2caf4c51671900d","null","null","<p style=""font-size: 60px; font-family: BACS"">lRCBCPMl</p>","","","","","","","","","",""
"html-keyboard-response","311","532811","0.0-14.0-0.60","601b5c79e845ac360826c9df","650c16f0f2faf8d7a0d14c09","651c1cb6f2caf4c51671900d","null","null","<p style=""font-size: 60px; font-family: BACS"">rbYbuaQr</p>","","","","","","","","","",""
"html-keyboard-response","312","533817","0.0-14.0-0.61","601b5c79e845ac360826c9df","650c16f0f2faf8d7a0d14c09","651c1cb6f2caf4c51671900d","null","null","<p style=""font-size: 60px; font-family: BACS"">KElBCPMl</p>","","","","","","","","","",""
"html-keyboard-response","313","534818","0.0-14.0-0.62","601b5c79e845ac360826c9df","650c16f0f2faf8d7a0d14c09","651c1cb6f2caf4c51671900d","null","null","<p style=""font-size: 60px; font-family: BACS"">CDEmYcPK</p>","","","","","","","","","",""
"html-keyboard-response","314","535831","0.0-14.0-0.63","601b5c79e845ac360826c9df","650c16f0f2faf8d7a0d14c09","651c1cb6f2caf4c51671900d","null","null","<p style=""font-size: 60px; font-family: BACS"">dRhtmKcD</p>","","","","","","","","","",""
"html-keyboard-response","315","536832","0.0-14.0-0.64","601b5c79e845ac360826c9df","650c16f0f2faf8d7a0d14c09","651c1cb6f2caf4c51671900d","null","null","<p style=""font-size: 60px; font-family: BACS"">KElBcPK</p>","","","","","","","","","",""
"html-keyboard-response","316","537833","0.0-14.0-0.65","601b5c79e845ac360826c9df","650c16f0f2faf8d7a0d14c09","651c1cb6f2caf4c51671900d","null","null","<p style=""font-size: 60px; font-family: BACS"">YJLcAkam</p>","","","","","","","","","",""
"html-keyboard-response","317","538834","0.0-14.0-0.66","601b5c79e845ac360826c9df","650c16f0f2faf8d7a0d14c09","651c1cb6f2caf4c51671900d","null","null","<p style=""font-size: 60px; font-family: BACS"">AlTdcDR</p>","","","","","","","","","",""
"html-keyboard-response","318","539836","0.0-14.0-0.67","601b5c79e845ac360826c9df","650c16f0f2faf8d7a0d14c09","651c1cb6f2caf4c51671900d","null","null","<p style=""font-size: 60px; font-family: BACS"">DBklCPMl</p>","","","","","","","","","",""
"html-keyboard-response","319","540837","0.0-14.0-0.68","601b5c79e845ac360826c9df","650c16f0f2faf8d7a0d14c09","651c1cb6f2caf4c51671900d","null","null","<p style=""font-size: 60px; font-family: BACS"">tcYbdcPK</p>","","","","","","","","","",""
"html-keyboard-response","320","541838","0.0-14.0-0.69","601b5c79e845ac360826c9df","650c16f0f2faf8d7a0d14c09","651c1cb6f2caf4c51671900d","null","null","<p style=""font-size: 60px; font-family: BACS"">YJkbaQr</p>","","","","","","","","","",""
"html-keyboard-response","321","542840","0.0-14.0-0.70","601b5c79e845ac360826c9df","650c16f0f2faf8d7a0d14c09","651c1cb6f2caf4c51671900d","null","null","<p style=""font-size: 60px; font-family: BACS"">tcYbdcDR</p>","","","","","","","","","",""
"html-keyboard-response","322","543841","0.0-14.0-0.71","601b5c79e845ac360826c9df","650c16f0f2faf8d7a0d14c09","651c1cb6f2caf4c51671900d","null","null","<p style=""font-size: 60px; font-family: BACS"">DBklmKcD</p>","","","","","","","","","",""
"html-keyboard-response","323","544842","0.0-14.0-0.72","601b5c79e845ac360826c9df","650c16f0f2faf8d7a0d14c09","651c1cb6f2caf4c51671900d","null","null","<p style=""font-size: 60px; font-family: BACS"">YJkbkmU</p>","","","","","","","","","",""
"html-keyboard-response","324","545843","0.0-14.0-0.73","601b5c79e845ac360826c9df","650c16f0f2faf8d7a0d14c09","651c1cb6f2caf4c51671900d","null","null","<p style=""font-size: 60px; font-family: BACS"">uAkrkYL</p>","","","","","","","","","",""
"html-keyboard-response","325","546858","0.0-14.0-0.74","601b5c79e845ac360826c9df","650c16f0f2faf8d7a0d14c09","651c1cb6f2caf4c51671900d","null","null","<p style=""font-size: 60px; font-family: BACS"">BMEMAmKcD</p>","","","","","","","","","",""
"html-keyboard-response","326","547863","0.0-14.0-0.75","601b5c79e845ac360826c9df","650c16f0f2faf8d7a0d14c09","651c1cb6f2caf4c51671900d","null","null","<p style=""font-size: 60px; font-family: BACS"">AlTdcPK</p>","","","","","","","","","",""
"html-keyboard-response","327","548869","0.0-14.0-0.76","601b5c79e845ac360826c9df","650c16f0f2faf8d7a0d14c09","651c1cb6f2caf4c51671900d","null","null","<p style=""font-size: 60px; font-family: BACS"">YJLcAaQr</p>","","","","","","","","","",""
"html-keyboard-response","328","549875","0.0-14.0-0.77","601b5c79e845ac360826c9df","650c16f0f2faf8d7a0d14c09","651c1cb6f2caf4c51671900d","null","null","<p style=""font-size: 60px; font-family: BACS"">BMEMAcDR</p>","","","","","","","","","",""
"html-keyboard-response","329","550883","0.0-14.0-0.78","601b5c79e845ac360826c9df","650c16f0f2faf8d7a0d14c09","651c1cb6f2caf4c51671900d","null","null","<p style=""font-size: 60px; font-family: BACS"">rbYbukam</p>","","","","","","","","","",""
"html-keyboard-response","330","551892","0.0-14.0-0.79","601b5c79e845ac360826c9df","650c16f0f2faf8d7a0d14c09","651c1cb6f2caf4c51671900d","null","null","<p style=""font-size: 60px; font-family: BACS"">mrOdkYL</p>","","","","","","","","","",""
"html-keyboard-response","331","556887","0.0-15.0","601b5c79e845ac360826c9df","650c16f0f2faf8d7a0d14c09","651c1cb6f2caf4c51671900d","4995"," ","<p>Great, you've seen the fourth block of words. You may now take a short break.</p>
      <p>Press the spacebar when you're ready to continue.</p>","","","","","","","","","",""
"html-keyboard-response","332","557889","0.0-16.0-0.0","601b5c79e845ac360826c9df","650c16f0f2faf8d7a0d14c09","651c1cb6f2caf4c51671900d","null","null","<p style=""font-size: 60px; font-family: BACS"">KElBcPK</p>","","","","","","","","","",""
"html-keyboard-response","333","558890","0.0-16.0-0.1","601b5c79e845ac360826c9df","650c16f0f2faf8d7a0d14c09","651c1cb6f2caf4c51671900d","null","null","<p style=""font-size: 60px; font-family: BACS"">KElBcPK</p>","","","","","","","","","",""
"html-keyboard-response","334","559904","0.0-16.0-0.2","601b5c79e845ac360826c9df","650c16f0f2faf8d7a0d14c09","651c1cb6f2caf4c51671900d","null","null","<p style=""font-size: 60px; font-family: BACS"">KElBcPK</p>","","","","","","","","","",""
"html-keyboard-response","335","560913","0.0-16.0-0.3","601b5c79e845ac360826c9df","650c16f0f2faf8d7a0d14c09","651c1cb6f2caf4c51671900d","null","null","<p style=""font-size: 60px; font-family: BACS"">KElBcPK</p>","","","","","","","","","",""
"html-keyboard-response","336","561914","0.0-16.0-0.4","601b5c79e845ac360826c9df","650c16f0f2faf8d7a0d14c09","651c1cb6f2caf4c51671900d","null","null","<p style=""font-size: 60px; font-family: BACS"">KElBcPK</p>","","","","","","","","","",""
"html-keyboard-response","337","562927","0.0-16.0-0.5","601b5c79e845ac360826c9df","650c16f0f2faf8d7a0d14c09","651c1cb6f2caf4c51671900d","null","null","<p style=""font-size: 60px; font-family: BACS"">KElBcPK</p>","","","","","","","","","",""
"html-keyboard-response","338","563934","0.0-16.0-0.6","601b5c79e845ac360826c9df","650c16f0f2faf8d7a0d14c09","651c1cb6f2caf4c51671900d","null","null","<p style=""font-size: 60px; font-family: BACS"">KElBcPK</p>","","","","","","","","","",""
"html-keyboard-response","339","564935","0.0-16.0-0.7","601b5c79e845ac360826c9df","650c16f0f2faf8d7a0d14c09","651c1cb6f2caf4c51671900d","null","null","<p style=""font-size: 60px; font-family: BACS"">KElBcPK</p>","","","","","","","","","",""
"html-keyboard-response","340","565937","0.0-16.0-0.8","601b5c79e845ac360826c9df","650c16f0f2faf8d7a0d14c09","651c1cb6f2caf4c51671900d","null","null","<p style=""font-size: 60px; font-family: BACS"">KElBcPK</p>","","","","","","","","","",""
"html-keyboard-response","341","566952","0.0-16.0-0.9","601b5c79e845ac360826c9df","650c16f0f2faf8d7a0d14c09","651c1cb6f2caf4c51671900d","null","null","<p style=""font-size: 60px; font-family: BACS"">KElBcPK</p>","","","","","","","","","",""
"html-keyboard-response","342","567954","0.0-16.0-0.10","601b5c79e845ac360826c9df","650c16f0f2faf8d7a0d14c09","651c1cb6f2caf4c51671900d","null","null","<p style=""font-size: 60px; font-family: BACS"">KElBcPK</p>","","","","","","","","","",""
"html-keyboard-response","343","568958","0.0-16.0-0.11","601b5c79e845ac360826c9df","650c16f0f2faf8d7a0d14c09","651c1cb6f2caf4c51671900d","null","null","<p style=""font-size: 60px; font-family: BACS"">KElBcPK</p>","","","","","","","","","",""
"html-keyboard-response","344","569958","0.0-16.0-0.12","601b5c79e845ac360826c9df","650c16f0f2faf8d7a0d14c09","651c1cb6f2caf4c51671900d","null","null","<p style=""font-size: 60px; font-family: BACS"">KElBcPK</p>","","","","","","","","","",""
"html-keyboard-response","345","570959","0.0-16.0-0.13","601b5c79e845ac360826c9df","650c16f0f2faf8d7a0d14c09","651c1cb6f2caf4c51671900d","null","null","<p style=""font-size: 60px; font-family: BACS"">KElBcPK</p>","","","","","","","","","",""
"html-keyboard-response","346","571960","0.0-16.0-0.14","601b5c79e845ac360826c9df","650c16f0f2faf8d7a0d14c09","651c1cb6f2caf4c51671900d","null","null","<p style=""font-size: 60px; font-family: BACS"">KElBcPK</p>","","","","","","","","","",""
"html-keyboard-response","347","572962","0.0-16.0-0.15","601b5c79e845ac360826c9df","650c16f0f2faf8d7a0d14c09","651c1cb6f2caf4c51671900d","null","null","<p style=""font-size: 60px; font-family: BACS"">KElBcPK</p>","","","","","","","","","",""
"html-keyboard-response","348","573967","0.0-16.0-0.16","601b5c79e845ac360826c9df","650c16f0f2faf8d7a0d14c09","651c1cb6f2caf4c51671900d","null","null","<p style=""font-size: 60px; font-family: BACS"">KElBcPK</p>","","","","","","","","","",""
"html-keyboard-response","349","574969","0.0-16.0-0.17","601b5c79e845ac360826c9df","650c16f0f2faf8d7a0d14c09","651c1cb6f2caf4c51671900d","null","null","<p style=""font-size: 60px; font-family: BACS"">KElBcPK</p>","","","","","","","","","",""
"html-keyboard-response","350","575970","0.0-16.0-0.18","601b5c79e845ac360826c9df","650c16f0f2faf8d7a0d14c09","651c1cb6f2caf4c51671900d","null","null","<p style=""font-size: 60px; font-family: BACS"">KElBcPK</p>","","","","","","","","","",""
"html-keyboard-response","351","576971","0.0-16.0-0.19","601b5c79e845ac360826c9df","650c16f0f2faf8d7a0d14c09","651c1cb6f2caf4c51671900d","null","null","<p style=""font-size: 60px; font-family: BACS"">KElBcPK</p>","","","","","","","","","",""
"html-keyboard-response","352","577983","0.0-16.0-0.20","601b5c79e845ac360826c9df","650c16f0f2faf8d7a0d14c09","651c1cb6f2caf4c51671900d","null","null","<p style=""font-size: 60px; font-family: BACS"">KElBcPK</p>","","","","","","","","","",""
"html-keyboard-response","353","578998","0.0-16.0-0.21","601b5c79e845ac360826c9df","650c16f0f2faf8d7a0d14c09","651c1cb6f2caf4c51671900d","null","null","<p style=""font-size: 60px; font-family: BACS"">KElBcPK</p>","","","","","","","","","",""
"html-keyboard-response","354","579999","0.0-16.0-0.22","601b5c79e845ac360826c9df","650c16f0f2faf8d7a0d14c09","651c1cb6f2caf4c51671900d","null","null","<p style=""font-size: 60px; font-family: BACS"">KElBcPK</p>","","","","","","","","","",""
"html-keyboard-response","355","581001","0.0-16.0-0.23","601b5c79e845ac360826c9df","650c16f0f2faf8d7a0d14c09","651c1cb6f2caf4c51671900d","null","null","<p style=""font-size: 60px; font-family: BACS"">KElBcPK</p>","","","","","","","","","",""
"html-keyboard-response","356","582002","0.0-16.0-0.24","601b5c79e845ac360826c9df","650c16f0f2faf8d7a0d14c09","651c1cb6f2caf4c51671900d","null","null","<p style=""font-size: 60px; font-family: BACS"">KElBcPK</p>","","","","","","","","","",""
"html-keyboard-response","357","583004","0.0-16.0-0.25","601b5c79e845ac360826c9df","650c16f0f2faf8d7a0d14c09","651c1cb6f2caf4c51671900d","null","null","<p style=""font-size: 60px; font-family: BACS"">KElBcPK</p>","","","","","","","","","",""
"html-keyboard-response","358","584018","0.0-16.0-0.26","601b5c79e845ac360826c9df","650c16f0f2faf8d7a0d14c09","651c1cb6f2caf4c51671900d","null","null","<p style=""font-size: 60px; font-family: BACS"">KElBcPK</p>","","","","","","","","","",""
"html-keyboard-response","359","585022","0.0-16.0-0.27","601b5c79e845ac360826c9df","650c16f0f2faf8d7a0d14c09","651c1cb6f2caf4c51671900d","null","null","<p style=""font-size: 60px; font-family: BACS"">KElBcPK</p>","","","","","","","","","",""
"html-keyboard-response","360","586027","0.0-16.0-0.28","601b5c79e845ac360826c9df","650c16f0f2faf8d7a0d14c09","651c1cb6f2caf4c51671900d","null","null","<p style=""font-size: 60px; font-family: BACS"">KElBcPK</p>","","","","","","","","","",""
"html-keyboard-response","361","587029","0.0-16.0-0.29","601b5c79e845ac360826c9df","650c16f0f2faf8d7a0d14c09","651c1cb6f2caf4c51671900d","null","null","<p style=""font-size: 60px; font-family: BACS"">KElBcPK</p>","","","","","","","","","",""
"html-keyboard-response","362","588042","0.0-16.0-0.30","601b5c79e845ac360826c9df","650c16f0f2faf8d7a0d14c09","651c1cb6f2caf4c51671900d","null","null","<p style=""font-size: 60px; font-family: BACS"">KElBcPK</p>","","","","","","","","","",""
"html-keyboard-response","363","589047","0.0-16.0-0.31","601b5c79e845ac360826c9df","650c16f0f2faf8d7a0d14c09","651c1cb6f2caf4c51671900d","null","null","<p style=""font-size: 60px; font-family: BACS"">KElBcPK</p>","","","","","","","","","",""
"html-keyboard-response","364","590055","0.0-16.0-0.32","601b5c79e845ac360826c9df","650c16f0f2faf8d7a0d14c09","651c1cb6f2caf4c51671900d","null","null","<p style=""font-size: 60px; font-family: BACS"">KElBcPK</p>","","","","","","","","","",""
"html-keyboard-response","365","591056","0.0-16.0-0.33","601b5c79e845ac360826c9df","650c16f0f2faf8d7a0d14c09","651c1cb6f2caf4c51671900d","null","null","<p style=""font-size: 60px; font-family: BACS"">KElBcPK</p>","","","","","","","","","",""
"html-keyboard-response","366","592057","0.0-16.0-0.34","601b5c79e845ac360826c9df","650c16f0f2faf8d7a0d14c09","651c1cb6f2caf4c51671900d","null","null","<p style=""font-size: 60px; font-family: BACS"">KElBcPK</p>","","","","","","","","","",""
"html-keyboard-response","367","593058","0.0-16.0-0.35","601b5c79e845ac360826c9df","650c16f0f2faf8d7a0d14c09","651c1cb6f2caf4c51671900d","null","null","<p style=""font-size: 60px; font-family: BACS"">KElBcPK</p>","","","","","","","","","",""
"html-keyboard-response","368","594070","0.0-16.0-0.36","601b5c79e845ac360826c9df","650c16f0f2faf8d7a0d14c09","651c1cb6f2caf4c51671900d","null","null","<p style=""font-size: 60px; font-family: BACS"">KElBcPK</p>","","","","","","","","","",""
"html-keyboard-response","369","595075","0.0-16.0-0.37","601b5c79e845ac360826c9df","650c16f0f2faf8d7a0d14c09","651c1cb6f2caf4c51671900d","null","null","<p style=""font-size: 60px; font-family: BACS"">KElBcPK</p>","","","","","","","","","",""
"html-keyboard-response","370","596079","0.0-16.0-0.38","601b5c79e845ac360826c9df","650c16f0f2faf8d7a0d14c09","651c1cb6f2caf4c51671900d","null","null","<p style=""font-size: 60px; font-family: BACS"">KElBcPK</p>","","","","","","","","","",""
"html-keyboard-response","371","597080","0.0-16.0-0.39","601b5c79e845ac360826c9df","650c16f0f2faf8d7a0d14c09","651c1cb6f2caf4c51671900d","null","null","<p style=""font-size: 60px; font-family: BACS"">KElBcPK</p>","","","","","","","","","",""
"html-keyboard-response","372","598084","0.0-16.0-0.40","601b5c79e845ac360826c9df","650c16f0f2faf8d7a0d14c09","651c1cb6f2caf4c51671900d","null","null","<p style=""font-size: 60px; font-family: BACS"">KElBcPK</p>","","","","","","","","","",""
"html-keyboard-response","373","599085","0.0-16.0-0.41","601b5c79e845ac360826c9df","650c16f0f2faf8d7a0d14c09","651c1cb6f2caf4c51671900d","null","null","<p style=""font-size: 60px; font-family: BACS"">KElBcPK</p>","","","","","","","","","",""
"html-keyboard-response","374","600086","0.0-16.0-0.42","601b5c79e845ac360826c9df","650c16f0f2faf8d7a0d14c09","651c1cb6f2caf4c51671900d","null","null","<p style=""font-size: 60px; font-family: BACS"">KElBcPK</p>","","","","","","","","","",""
"html-keyboard-response","375","601099","0.0-16.0-0.43","601b5c79e845ac360826c9df","650c16f0f2faf8d7a0d14c09","651c1cb6f2caf4c51671900d","null","null","<p style=""font-size: 60px; font-family: BACS"">KElBcPK</p>","","","","","","","","","",""
"html-keyboard-response","376","602105","0.0-16.0-0.44","601b5c79e845ac360826c9df","650c16f0f2faf8d7a0d14c09","651c1cb6f2caf4c51671900d","null","null","<p style=""font-size: 60px; font-family: BACS"">KElBcPK</p>","","","","","","","","","",""
"html-keyboard-response","377","603113","0.0-16.0-0.45","601b5c79e845ac360826c9df","650c16f0f2faf8d7a0d14c09","651c1cb6f2caf4c51671900d","null","null","<p style=""font-size: 60px; font-family: BACS"">KElBcPK</p>","","","","","","","","","",""
"html-keyboard-response","378","604115","0.0-16.0-0.46","601b5c79e845ac360826c9df","650c16f0f2faf8d7a0d14c09","651c1cb6f2caf4c51671900d","null","null","<p style=""font-size: 60px; font-family: BACS"">KElBcPK</p>","","","","","","","","","",""
"html-keyboard-response","379","605127","0.0-16.0-0.47","601b5c79e845ac360826c9df","650c16f0f2faf8d7a0d14c09","651c1cb6f2caf4c51671900d","null","null","<p style=""font-size: 60px; font-family: BACS"">KElBcPK</p>","","","","","","","","","",""
"html-keyboard-response","380","606143","0.0-16.0-0.48","601b5c79e845ac360826c9df","650c16f0f2faf8d7a0d14c09","651c1cb6f2caf4c51671900d","null","null","<p style=""font-size: 60px; font-family: BACS"">KElBcPK</p>","","","","","","","","","",""
"html-keyboard-response","381","607147","0.0-16.0-0.49","601b5c79e845ac360826c9df","650c16f0f2faf8d7a0d14c09","651c1cb6f2caf4c51671900d","null","null","<p style=""font-size: 60px; font-family: BACS"">KElBcPK</p>","","","","","","","","","",""
"html-keyboard-response","382","608154","0.0-16.0-0.50","601b5c79e845ac360826c9df","650c16f0f2faf8d7a0d14c09","651c1cb6f2caf4c51671900d","null","null","<p style=""font-size: 60px; font-family: BACS"">KElBcPK</p>","","","","","","","","","",""
"html-keyboard-response","383","609156","0.0-16.0-0.51","601b5c79e845ac360826c9df","650c16f0f2faf8d7a0d14c09","651c1cb6f2caf4c51671900d","null","null","<p style=""font-size: 60px; font-family: BACS"">KElBcPK</p>","","","","","","","","","",""
"html-keyboard-response","384","610170","0.0-16.0-0.52","601b5c79e845ac360826c9df","650c16f0f2faf8d7a0d14c09","651c1cb6f2caf4c51671900d","null","null","<p style=""font-size: 60px; font-family: BACS"">KElBcPK</p>","","","","","","","","","",""
"html-keyboard-response","385","611183","0.0-16.0-0.53","601b5c79e845ac360826c9df","650c16f0f2faf8d7a0d14c09","651c1cb6f2caf4c51671900d","null","null","<p style=""font-size: 60px; font-family: BACS"">KElBcPK</p>","","","","","","","","","",""
"html-keyboard-response","386","612184","0.0-16.0-0.54","601b5c79e845ac360826c9df","650c16f0f2faf8d7a0d14c09","651c1cb6f2caf4c51671900d","null","null","<p style=""font-size: 60px; font-family: BACS"">KElBcPK</p>","","","","","","","","","",""
"html-keyboard-response","387","613186","0.0-16.0-0.55","601b5c79e845ac360826c9df","650c16f0f2faf8d7a0d14c09","651c1cb6f2caf4c51671900d","null","null","<p style=""font-size: 60px; font-family: BACS"">KElBcPK</p>","","","","","","","","","",""
"html-keyboard-response","388","614188","0.0-16.0-0.56","601b5c79e845ac360826c9df","650c16f0f2faf8d7a0d14c09","651c1cb6f2caf4c51671900d","null","null","<p style=""font-size: 60px; font-family: BACS"">KElBcPK</p>","","","","","","","","","",""
"html-keyboard-response","389","615195","0.0-16.0-0.57","601b5c79e845ac360826c9df","650c16f0f2faf8d7a0d14c09","651c1cb6f2caf4c51671900d","null","null","<p style=""font-size: 60px; font-family: BACS"">KElBcPK</p>","","","","","","","","","",""
"html-keyboard-response","390","616201","0.0-16.0-0.58","601b5c79e845ac360826c9df","650c16f0f2faf8d7a0d14c09","651c1cb6f2caf4c51671900d","null","null","<p style=""font-size: 60px; font-family: BACS"">KElBcPK</p>","","","","","","","","","",""
"html-keyboard-response","391","617216","0.0-16.0-0.59","601b5c79e845ac360826c9df","650c16f0f2faf8d7a0d14c09","651c1cb6f2caf4c51671900d","null","null","<p style=""font-size: 60px; font-family: BACS"">KElBcPK</p>","","","","","","","","","",""
"html-keyboard-response","392","618222","0.0-16.0-0.60","601b5c79e845ac360826c9df","650c16f0f2faf8d7a0d14c09","651c1cb6f2caf4c51671900d","null","null","<p style=""font-size: 60px; font-family: BACS"">KElBcPK</p>","","","","","","","","","",""
"html-keyboard-response","393","619237","0.0-16.0-0.61","601b5c79e845ac360826c9df","650c16f0f2faf8d7a0d14c09","651c1cb6f2caf4c51671900d","null","null","<p style=""font-size: 60px; font-family: BACS"">KElBcPK</p>","","","","","","","","","",""
