"trial_type","trial_index","time_elapsed","internal_node_id","subject_id","study_id","session_id","rt","response","stimulus","success","item","task","correct_response","correct","target","confound","name"
"pavlovia","0","3107","0.0-0.0","5cf14e1eb4397d0001f94e20","64afc2c9a8732ea92db0087d","64aff80e8313b9d00148948c","","","","","","","","","","",""
"survey-html-form","1","29289","0.0-1.0","5cf14e1eb4397d0001f94e20","64afc2c9a8732ea92db0087d","64aff80e8313b9d00148948c","26176","{""ID"":""5cf14e1eb4397d0001f94e20""}","","","","","","","","",""
"html-keyboard-response","2","35966","0.0-2.0","5cf14e1eb4397d0001f94e20","64afc2c9a8732ea92db0087d","64aff80e8313b9d00148948c","6674"," ","<p style=""font-size: 15px;"">Prima di cominciare, le chiediamo di leggere il modulo di consenso informato e confermare la sua volontà di partecipare all'esperimento.</p>
      <p style=""font-size: 15px;""> La preghiamo di ricordare che questo è un progetto di ricerca e che la sua partecipazione è completamente volontaria. Lei si potra' ritirare in qualunque momento, senza necessariamente dover dare alcuna spiegazione. Lo studio al quale Le si chiede di partecipare ha lo scopo di esaminare come i lettori elaborano le parole scritte. La somministrazione delle prove è individuale. Lei sarà impegnato in una sessione di lavoro della durata media di 10 minuti, e un questionario di 10 minuti. L’ordine delle prove ed il loro svolgimento sono stabiliti in modo tale da evitare un eventuale affaticamento. Tutte le prove saranno precedute da un breve addestramento in modo tale che abbia la possibilità di familiarizzare con il compito. Sono previste alcune pause nel corso dello svolgimento dell’esperimento. Una ricompensa di £4 (£8 per ora) Le verrà consegnata al termine della sessione di testing. Nonostante il testing preveda delle prove cognitive, il presente esperimento non costituisce una prova clinica che permetta la diagnosi di eventuali patologie.</p>
      <p style=""font-size: 15px;"">Tutti i dati raccolti grazie alla partecipazione Sua e di altre persone volontarie saranno custoditi in server sicuri e protetti da password, e non sarà consentito ad alcuna persona non autorizzata di accedervi. Le Sue informazioni personali saranno conservate separatamente dai risultati della presente ricerca, cui saranno associati soltanto attraverso un ID arbitrario. Grazie a questo processo di anonimizzazione dei dati, a nessun ricercatore sarà possibile analizzare i risultati sapendo da quale specifico partecipante essi provengono. Inoltre, questa procedura renderà impossibile la Sua identificazione anche nel momento in cui i risultati della ricerca fossero pubblicati su riviste scientifiche, o presentati a congressi o in qualsiasi altro pubblico consesso. Più in generale, i dati raccolti saranno trattati in accordo con le leggi sulla privacy e in conformità al Decreto Legislativo 30 giugno 2003 n. 196 “Codice in materia di protezione dei dati personali” e al Regolamento Europeo 2016/679 (General Data Protection Regulation - GDPR). Il Responsabile della protezione dei dati (RPD) è l’Avv. Valentina Carollo che può essere contattato ai seguenti indirizzi email: <a href=""mailto:dpo@sissa.it"">dpo@sissa.it</a> oppure <a href=""mailto:rpd@sissa.it"">rpd@sissa.it</a> - PEC: <a href=""mailto:protocollo@pec.sissa.it"">protocollo@pec.sissa.it</a>.</p>
      <p style=""font-size: 15px;""> Prima di esprimere il suo consenso alla partecipazione, Le ricordiamo ancora che in caso Lei abbia bisogno di delucidazioni su qualunque aspetto della procedura sperimentale, il ricercatore è a Sua completa disposizione (<a href=""mailto:aliebelt@sissa.it"">aliebelt@sissa.it</a>, <a href=""mailto:davide.crepaldi@sissa.it"">davide.crepaldi@sissa.it</a>).</p>
      <p style=""font-size: 15px;"">Se vuole scaricare il modulo di consenso informato, clicca qui: <a href=""BASL_modulo_consenso.pdf"" download>modulo di consenso</a>.</p>
      <p style=""font-size: 15px;""> Le chiediamo di premere la barra per continuare al consenso.</p>","","","","","","","",""
"survey-html-form","3","59163","0.0-3.0","5cf14e1eb4397d0001f94e20","64afc2c9a8732ea92db0087d","64aff80e8313b9d00148948c","23196","{""consent1"":""YES"",""consent2"":""YES"",""consent3"":""YES"",""consent4"":""YES"",""consent5"":""YES"",""consent6"":""YES""}","","","","","","","","",""
"fullscreen","4","65553","0.0-4.0","5cf14e1eb4397d0001f94e20","64afc2c9a8732ea92db0087d","64aff80e8313b9d00148948c","","","","true","","","","","","",""
"html-keyboard-response","5","125860","0.0-5.0","5cf14e1eb4397d0001f94e20","64afc2c9a8732ea92db0087d","64aff80e8313b9d00148948c","60306"," ","<p>Benvenuta/o, e grazie mille del tuo tempo!</p>
      <p>In questo esperimento sarai un esperto/un'esperta di linguaggio cui è stato chiesto di dare un'occhiata ad alcuni messaggi che la Terra ha ricevuto dallo spazio. Il tuo compito, in questa prima parte dell'esperimento, sarà di fare molta attenzione alle parole che ti verranno mostrate; più tardi, i leader del mondo ti chiederanno qualche informazione su quello che hai visto. Le parole si susseguiranno abbastanza velocemente; sembra che questi alieni abbiano una certa fretta :-) </p>
      <p>Per favore, chiama lo sperimentatore se ha qualche domanda.</p><p>Premi la barra per continuare.</p>","","","","","","","",""
"html-keyboard-response","6","133563","0.0-6.0","5cf14e1eb4397d0001f94e20","64afc2c9a8732ea92db0087d","64aff80e8313b9d00148948c","7702"," ","<p>Ecco un esempio delle parole che vedrai:</p>
      <img src='esempio.png' height='400px'>
      <p>Quando sei pronti per iniziare, premi la barra.</p></div>","","","","","","","",""
"html-keyboard-response","7","134566","0.0-7.0-0.0","5cf14e1eb4397d0001f94e20","64afc2c9a8732ea92db0087d","64aff80e8313b9d00148948c","null","null","<p style=""font-size: 60px; font-family: BACS"">UvOGkJdr</p>","","","","","","","",""
"html-keyboard-response","8","135570","0.0-7.0-0.1","5cf14e1eb4397d0001f94e20","64afc2c9a8732ea92db0087d","64aff80e8313b9d00148948c","null","null","<p style=""font-size: 60px; font-family: BACS"">hkRKmCd</p>","","","","","","","",""
"html-keyboard-response","9","136572","0.0-7.0-0.2","5cf14e1eb4397d0001f94e20","64afc2c9a8732ea92db0087d","64aff80e8313b9d00148948c","null","null","<p style=""font-size: 60px; font-family: BACS"">uAkrlLG</p>","","","","","","","",""
"html-keyboard-response","10","137574","0.0-7.0-0.3","5cf14e1eb4397d0001f94e20","64afc2c9a8732ea92db0087d","64aff80e8313b9d00148948c","null","null","<p style=""font-size: 60px; font-family: BACS"">YObADmh</p>","","","","","","","",""
"html-keyboard-response","11","138590","0.0-7.0-0.4","5cf14e1eb4397d0001f94e20","64afc2c9a8732ea92db0087d","64aff80e8313b9d00148948c","null","null","<p style=""font-size: 60px; font-family: BACS"">BEPOYBO</p>","","","","","","","",""
"html-keyboard-response","12","139592","0.0-7.0-0.5","5cf14e1eb4397d0001f94e20","64afc2c9a8732ea92db0087d","64aff80e8313b9d00148948c","null","null","<p style=""font-size: 60px; font-family: BACS"">aNYmblLG</p>","","","","","","","",""
"html-keyboard-response","13","140595","0.0-7.0-0.6","5cf14e1eb4397d0001f94e20","64afc2c9a8732ea92db0087d","64aff80e8313b9d00148948c","null","null","<p style=""font-size: 60px; font-family: BACS"">ZcGdNAld</p>","","","","","","","",""
"html-keyboard-response","14","141611","0.0-7.0-0.7","5cf14e1eb4397d0001f94e20","64afc2c9a8732ea92db0087d","64aff80e8313b9d00148948c","null","null","<p style=""font-size: 60px; font-family: BACS"">bNdmGlLG</p>","","","","","","","",""
"html-keyboard-response","15","142615","0.0-7.0-0.8","5cf14e1eb4397d0001f94e20","64afc2c9a8732ea92db0087d","64aff80e8313b9d00148948c","null","null","<p style=""font-size: 60px; font-family: BACS"">hTtBbYBO</p>","","","","","","","",""
"html-keyboard-response","16","143632","0.0-7.0-0.9","5cf14e1eb4397d0001f94e20","64afc2c9a8732ea92db0087d","64aff80e8313b9d00148948c","null","null","<p style=""font-size: 60px; font-family: BACS"">OEPkDmh</p>","","","","","","","",""
"html-keyboard-response","17","144633","0.0-7.0-0.10","5cf14e1eb4397d0001f94e20","64afc2c9a8732ea92db0087d","64aff80e8313b9d00148948c","null","null","<p style=""font-size: 60px; font-family: BACS"">aNYmbAld</p>","","","","","","","",""
"html-keyboard-response","18","145636","0.0-7.0-0.11","5cf14e1eb4397d0001f94e20","64afc2c9a8732ea92db0087d","64aff80e8313b9d00148948c","null","null","<p style=""font-size: 60px; font-family: BACS"">hkRKYBO</p>","","","","","","","",""
"html-keyboard-response","19","146638","0.0-7.0-0.12","5cf14e1eb4397d0001f94e20","64afc2c9a8732ea92db0087d","64aff80e8313b9d00148948c","null","null","<p style=""font-size: 60px; font-family: BACS"">UYZlZlLG</p>","","","","","","","",""
"html-keyboard-response","20","147640","0.0-7.0-0.13","5cf14e1eb4397d0001f94e20","64afc2c9a8732ea92db0087d","64aff80e8313b9d00148948c","null","null","<p style=""font-size: 60px; font-family: BACS"">BATOcmCd</p>","","","","","","","",""
"html-keyboard-response","21","148641","0.0-7.0-0.14","5cf14e1eb4397d0001f94e20","64afc2c9a8732ea92db0087d","64aff80e8313b9d00148948c","null","null","<p style=""font-size: 60px; font-family: BACS"">ZcGdNvcb</p>","","","","","","","",""
"html-keyboard-response","22","149657","0.0-7.0-0.15","5cf14e1eb4397d0001f94e20","64afc2c9a8732ea92db0087d","64aff80e8313b9d00148948c","null","null","<p style=""font-size: 60px; font-family: BACS"">bNdmGuOAO</p>","","","","","","","",""
"html-keyboard-response","23","150673","0.0-7.0-0.16","5cf14e1eb4397d0001f94e20","64afc2c9a8732ea92db0087d","64aff80e8313b9d00148948c","null","null","<p style=""font-size: 60px; font-family: BACS"">BEPODmh</p>","","","","","","","",""
"html-keyboard-response","24","151675","0.0-7.0-0.17","5cf14e1eb4397d0001f94e20","64afc2c9a8732ea92db0087d","64aff80e8313b9d00148948c","null","null","<p style=""font-size: 60px; font-family: BACS"">bYuQAld</p>","","","","","","","",""
"html-keyboard-response","25","152677","0.0-7.0-0.18","5cf14e1eb4397d0001f94e20","64afc2c9a8732ea92db0087d","64aff80e8313b9d00148948c","null","null","<p style=""font-size: 60px; font-family: BACS"">TbKMECMdP</p>","","","","","","","",""
"html-keyboard-response","26","153678","0.0-7.0-0.19","5cf14e1eb4397d0001f94e20","64afc2c9a8732ea92db0087d","64aff80e8313b9d00148948c","null","null","<p style=""font-size: 60px; font-family: BACS"">bNdmGkJdr</p>","","","","","","","",""
"html-keyboard-response","27","154681","0.0-7.0-0.20","5cf14e1eb4397d0001f94e20","64afc2c9a8732ea92db0087d","64aff80e8313b9d00148948c","null","null","<p style=""font-size: 60px; font-family: BACS"">YObAmCd</p>","","","","","","","",""
"html-keyboard-response","28","155682","0.0-7.0-0.21","5cf14e1eb4397d0001f94e20","64afc2c9a8732ea92db0087d","64aff80e8313b9d00148948c","null","null","<p style=""font-size: 60px; font-family: BACS"">BATOcTbk</p>","","","","","","","",""
"html-keyboard-response","29","156684","0.0-7.0-0.22","5cf14e1eb4397d0001f94e20","64afc2c9a8732ea92db0087d","64aff80e8313b9d00148948c","null","null","<p style=""font-size: 60px; font-family: BACS"">rGUAYAld</p>","","","","","","","",""
"html-keyboard-response","30","157686","0.0-7.0-0.23","5cf14e1eb4397d0001f94e20","64afc2c9a8732ea92db0087d","64aff80e8313b9d00148948c","null","null","<p style=""font-size: 60px; font-family: BACS"">MhKdTbk</p>","","","","","","","",""
"html-keyboard-response","31","158689","0.0-7.0-0.24","5cf14e1eb4397d0001f94e20","64afc2c9a8732ea92db0087d","64aff80e8313b9d00148948c","null","null","<p style=""font-size: 60px; font-family: BACS"">thbOMYBO</p>","","","","","","","",""
"html-keyboard-response","32","159693","0.0-7.0-0.25","5cf14e1eb4397d0001f94e20","64afc2c9a8732ea92db0087d","64aff80e8313b9d00148948c","null","null","<p style=""font-size: 60px; font-family: BACS"">adYrcAld</p>","","","","","","","",""
"html-keyboard-response","33","160694","0.0-7.0-0.26","5cf14e1eb4397d0001f94e20","64afc2c9a8732ea92db0087d","64aff80e8313b9d00148948c","null","null","<p style=""font-size: 60px; font-family: BACS"">bYuQlLG</p>","","","","","","","",""
"html-keyboard-response","34","161695","0.0-7.0-0.27","5cf14e1eb4397d0001f94e20","64afc2c9a8732ea92db0087d","64aff80e8313b9d00148948c","null","null","<p style=""font-size: 60px; font-family: BACS"">YObACMdP</p>","","","","","","","",""
"html-keyboard-response","35","162711","0.0-7.0-0.28","5cf14e1eb4397d0001f94e20","64afc2c9a8732ea92db0087d","64aff80e8313b9d00148948c","null","null","<p style=""font-size: 60px; font-family: BACS"">UYZlZuOAO</p>","","","","","","","",""
"html-keyboard-response","36","163712","0.0-7.0-0.29","5cf14e1eb4397d0001f94e20","64afc2c9a8732ea92db0087d","64aff80e8313b9d00148948c","null","null","<p style=""font-size: 60px; font-family: BACS"">DCmhmCd</p>","","","","","","","",""
"html-keyboard-response","37","164729","0.0-7.0-0.30","5cf14e1eb4397d0001f94e20","64afc2c9a8732ea92db0087d","64aff80e8313b9d00148948c","null","null","<p style=""font-size: 60px; font-family: BACS"">lrZGuOAO</p>","","","","","","","",""
"html-keyboard-response","38","165732","0.0-7.0-0.31","5cf14e1eb4397d0001f94e20","64afc2c9a8732ea92db0087d","64aff80e8313b9d00148948c","null","null","<p style=""font-size: 60px; font-family: BACS"">uAkrvcb</p>","","","","","","","",""
"html-keyboard-response","39","166749","0.0-7.0-0.32","5cf14e1eb4397d0001f94e20","64afc2c9a8732ea92db0087d","64aff80e8313b9d00148948c","null","null","<p style=""font-size: 60px; font-family: BACS"">OEPkmCd</p>","","","","","","","",""
"html-keyboard-response","40","167751","0.0-7.0-0.33","5cf14e1eb4397d0001f94e20","64afc2c9a8732ea92db0087d","64aff80e8313b9d00148948c","null","null","<p style=""font-size: 60px; font-family: BACS"">TbKMETbk</p>","","","","","","","",""
"html-keyboard-response","41","168767","0.0-7.0-0.34","5cf14e1eb4397d0001f94e20","64afc2c9a8732ea92db0087d","64aff80e8313b9d00148948c","null","null","<p style=""font-size: 60px; font-family: BACS"">hTtBbCMdP</p>","","","","","","","",""
"html-keyboard-response","42","169784","0.0-7.0-0.35","5cf14e1eb4397d0001f94e20","64afc2c9a8732ea92db0087d","64aff80e8313b9d00148948c","null","null","<p style=""font-size: 60px; font-family: BACS"">UvOGuOAO</p>","","","","","","","",""
"html-keyboard-response","43","170807","0.0-7.0-0.36","5cf14e1eb4397d0001f94e20","64afc2c9a8732ea92db0087d","64aff80e8313b9d00148948c","null","null","<p style=""font-size: 60px; font-family: BACS"">UYZlZkJdr</p>","","","","","","","",""
"html-keyboard-response","44","171824","0.0-7.0-0.37","5cf14e1eb4397d0001f94e20","64afc2c9a8732ea92db0087d","64aff80e8313b9d00148948c","null","null","<p style=""font-size: 60px; font-family: BACS"">hkRKCMdP</p>","","","","","","","",""
"html-keyboard-response","45","172826","0.0-7.0-0.38","5cf14e1eb4397d0001f94e20","64afc2c9a8732ea92db0087d","64aff80e8313b9d00148948c","null","null","<p style=""font-size: 60px; font-family: BACS"">OEPkYBO</p>","","","","","","","",""
"html-keyboard-response","46","173830","0.0-7.0-0.39","5cf14e1eb4397d0001f94e20","64afc2c9a8732ea92db0087d","64aff80e8313b9d00148948c","null","null","<p style=""font-size: 60px; font-family: BACS"">MhKdDmh</p>","","","","","","","",""
"html-keyboard-response","47","174846","0.0-7.0-0.40","5cf14e1eb4397d0001f94e20","64afc2c9a8732ea92db0087d","64aff80e8313b9d00148948c","null","null","<p style=""font-size: 60px; font-family: BACS"">adYrcvcb</p>","","","","","","","",""
"html-keyboard-response","48","175862","0.0-7.0-0.41","5cf14e1eb4397d0001f94e20","64afc2c9a8732ea92db0087d","64aff80e8313b9d00148948c","null","null","<p style=""font-size: 60px; font-family: BACS"">MhKdCMdP</p>","","","","","","","",""
"html-keyboard-response","49","176878","0.0-7.0-0.42","5cf14e1eb4397d0001f94e20","64afc2c9a8732ea92db0087d","64aff80e8313b9d00148948c","null","null","<p style=""font-size: 60px; font-family: BACS"">DCmhTbk</p>","","","","","","","",""
"html-keyboard-response","50","177880","0.0-7.0-0.43","5cf14e1eb4397d0001f94e20","64afc2c9a8732ea92db0087d","64aff80e8313b9d00148948c","null","null","<p style=""font-size: 60px; font-family: BACS"">MhKdYBO</p>","","","","","","","",""
"html-keyboard-response","51","178897","0.0-7.0-0.44","5cf14e1eb4397d0001f94e20","64afc2c9a8732ea92db0087d","64aff80e8313b9d00148948c","null","null","<p style=""font-size: 60px; font-family: BACS"">hkRKTbk</p>","","","","","","","",""
"html-keyboard-response","52","179897","0.0-7.0-0.45","5cf14e1eb4397d0001f94e20","64afc2c9a8732ea92db0087d","64aff80e8313b9d00148948c","null","null","<p style=""font-size: 60px; font-family: BACS"">UvOGlLG</p>","","","","","","","",""
"html-keyboard-response","53","180899","0.0-7.0-0.46","5cf14e1eb4397d0001f94e20","64afc2c9a8732ea92db0087d","64aff80e8313b9d00148948c","null","null","<p style=""font-size: 60px; font-family: BACS"">uAkrkJdr</p>","","","","","","","",""
"html-keyboard-response","54","181922","0.0-7.0-0.47","5cf14e1eb4397d0001f94e20","64afc2c9a8732ea92db0087d","64aff80e8313b9d00148948c","null","null","<p style=""font-size: 60px; font-family: BACS"">lrZGvcb</p>","","","","","","","",""
"html-keyboard-response","55","182938","0.0-7.0-0.48","5cf14e1eb4397d0001f94e20","64afc2c9a8732ea92db0087d","64aff80e8313b9d00148948c","null","null","<p style=""font-size: 60px; font-family: BACS"">aNYmbkJdr</p>","","","","","","","",""
"html-keyboard-response","56","183940","0.0-7.0-0.49","5cf14e1eb4397d0001f94e20","64afc2c9a8732ea92db0087d","64aff80e8313b9d00148948c","null","null","<p style=""font-size: 60px; font-family: BACS"">thbOMTbk</p>","","","","","","","",""
"html-keyboard-response","57","184955","0.0-7.0-0.50","5cf14e1eb4397d0001f94e20","64afc2c9a8732ea92db0087d","64aff80e8313b9d00148948c","null","null","<p style=""font-size: 60px; font-family: BACS"">aNYmbvcb</p>","","","","","","","",""
"html-keyboard-response","58","185971","0.0-7.0-0.51","5cf14e1eb4397d0001f94e20","64afc2c9a8732ea92db0087d","64aff80e8313b9d00148948c","null","null","<p style=""font-size: 60px; font-family: BACS"">hTtBbmCd</p>","","","","","","","",""
"html-keyboard-response","59","186989","0.0-7.0-0.52","5cf14e1eb4397d0001f94e20","64afc2c9a8732ea92db0087d","64aff80e8313b9d00148948c","null","null","<p style=""font-size: 60px; font-family: BACS"">uAkrAld</p>","","","","","","","",""
"html-keyboard-response","60","187990","0.0-7.0-0.53","5cf14e1eb4397d0001f94e20","64afc2c9a8732ea92db0087d","64aff80e8313b9d00148948c","null","null","<p style=""font-size: 60px; font-family: BACS"">rGUAYvcb</p>","","","","","","","",""
"html-keyboard-response","61","189006","0.0-7.0-0.54","5cf14e1eb4397d0001f94e20","64afc2c9a8732ea92db0087d","64aff80e8313b9d00148948c","null","null","<p style=""font-size: 60px; font-family: BACS"">BATOcYBO</p>","","","","","","","",""
"html-keyboard-response","62","190031","0.0-7.0-0.55","5cf14e1eb4397d0001f94e20","64afc2c9a8732ea92db0087d","64aff80e8313b9d00148948c","null","null","<p style=""font-size: 60px; font-family: BACS"">TbKMEmCd</p>","","","","","","","",""
"html-keyboard-response","63","191033","0.0-7.0-0.56","5cf14e1eb4397d0001f94e20","64afc2c9a8732ea92db0087d","64aff80e8313b9d00148948c","null","null","<p style=""font-size: 60px; font-family: BACS"">BEPOTbk</p>","","","","","","","",""
"html-keyboard-response","64","192035","0.0-7.0-0.57","5cf14e1eb4397d0001f94e20","64afc2c9a8732ea92db0087d","64aff80e8313b9d00148948c","null","null","<p style=""font-size: 60px; font-family: BACS"">rGUAYuOAO</p>","","","","","","","",""
"html-keyboard-response","65","193038","0.0-7.0-0.58","5cf14e1eb4397d0001f94e20","64afc2c9a8732ea92db0087d","64aff80e8313b9d00148948c","null","null","<p style=""font-size: 60px; font-family: BACS"">ZcGdNlLG</p>","","","","","","","",""
"html-keyboard-response","66","194051","0.0-7.0-0.59","5cf14e1eb4397d0001f94e20","64afc2c9a8732ea92db0087d","64aff80e8313b9d00148948c","null","null","<p style=""font-size: 60px; font-family: BACS"">lrZGAld</p>","","","","","","","",""
"html-keyboard-response","67","195052","0.0-7.0-0.60","5cf14e1eb4397d0001f94e20","64afc2c9a8732ea92db0087d","64aff80e8313b9d00148948c","null","null","<p style=""font-size: 60px; font-family: BACS"">bYuQuOAO</p>","","","","","","","",""
"html-keyboard-response","68","196054","0.0-7.0-0.61","5cf14e1eb4397d0001f94e20","64afc2c9a8732ea92db0087d","64aff80e8313b9d00148948c","null","null","<p style=""font-size: 60px; font-family: BACS"">TbKMEDmh</p>","","","","","","","",""
"html-keyboard-response","69","197069","0.0-7.0-0.62","5cf14e1eb4397d0001f94e20","64afc2c9a8732ea92db0087d","64aff80e8313b9d00148948c","null","null","<p style=""font-size: 60px; font-family: BACS"">bYuQkJdr</p>","","","","","","","",""
"html-keyboard-response","70","198072","0.0-7.0-0.63","5cf14e1eb4397d0001f94e20","64afc2c9a8732ea92db0087d","64aff80e8313b9d00148948c","null","null","<p style=""font-size: 60px; font-family: BACS"">UvOGvcb</p>","","","","","","","",""
"html-keyboard-response","71","199075","0.0-7.0-0.64","5cf14e1eb4397d0001f94e20","64afc2c9a8732ea92db0087d","64aff80e8313b9d00148948c","null","null","<p style=""font-size: 60px; font-family: BACS"">YObAYBO</p>","","","","","","","",""
"html-keyboard-response","72","200091","0.0-7.0-0.65","5cf14e1eb4397d0001f94e20","64afc2c9a8732ea92db0087d","64aff80e8313b9d00148948c","null","null","<p style=""font-size: 60px; font-family: BACS"">BEPOmCd</p>","","","","","","","",""
"html-keyboard-response","73","201114","0.0-7.0-0.66","5cf14e1eb4397d0001f94e20","64afc2c9a8732ea92db0087d","64aff80e8313b9d00148948c","null","null","<p style=""font-size: 60px; font-family: BACS"">DCmhDmh</p>","","","","","","","",""
"html-keyboard-response","74","202117","0.0-7.0-0.67","5cf14e1eb4397d0001f94e20","64afc2c9a8732ea92db0087d","64aff80e8313b9d00148948c","null","null","<p style=""font-size: 60px; font-family: BACS"">thbOMCMdP</p>","","","","","","","",""
"html-keyboard-response","75","203120","0.0-7.0-0.68","5cf14e1eb4397d0001f94e20","64afc2c9a8732ea92db0087d","64aff80e8313b9d00148948c","null","null","<p style=""font-size: 60px; font-family: BACS"">hTtBbTbk</p>","","","","","","","",""
"html-keyboard-response","76","204122","0.0-7.0-0.69","5cf14e1eb4397d0001f94e20","64afc2c9a8732ea92db0087d","64aff80e8313b9d00148948c","null","null","<p style=""font-size: 60px; font-family: BACS"">bNdmGAld</p>","","","","","","","",""
"html-keyboard-response","77","205138","0.0-7.0-0.70","5cf14e1eb4397d0001f94e20","64afc2c9a8732ea92db0087d","64aff80e8313b9d00148948c","null","null","<p style=""font-size: 60px; font-family: BACS"">OEPkCMdP</p>","","","","","","","",""
"html-keyboard-response","78","206154","0.0-7.0-0.71","5cf14e1eb4397d0001f94e20","64afc2c9a8732ea92db0087d","64aff80e8313b9d00148948c","null","null","<p style=""font-size: 60px; font-family: BACS"">rGUAYlLG</p>","","","","","","","",""
"html-keyboard-response","79","207171","0.0-7.0-0.72","5cf14e1eb4397d0001f94e20","64afc2c9a8732ea92db0087d","64aff80e8313b9d00148948c","null","null","<p style=""font-size: 60px; font-family: BACS"">BATOcDmh</p>","","","","","","","",""
"html-keyboard-response","80","208174","0.0-7.0-0.73","5cf14e1eb4397d0001f94e20","64afc2c9a8732ea92db0087d","64aff80e8313b9d00148948c","null","null","<p style=""font-size: 60px; font-family: BACS"">adYrckJdr</p>","","","","","","","",""
"html-keyboard-response","81","209174","0.0-7.0-0.74","5cf14e1eb4397d0001f94e20","64afc2c9a8732ea92db0087d","64aff80e8313b9d00148948c","null","null","<p style=""font-size: 60px; font-family: BACS"">ZcGdNuOAO</p>","","","","","","","",""
"html-keyboard-response","82","210190","0.0-7.0-0.75","5cf14e1eb4397d0001f94e20","64afc2c9a8732ea92db0087d","64aff80e8313b9d00148948c","null","null","<p style=""font-size: 60px; font-family: BACS"">thbOMDmh</p>","","","","","","","",""
"html-keyboard-response","83","211206","0.0-7.0-0.76","5cf14e1eb4397d0001f94e20","64afc2c9a8732ea92db0087d","64aff80e8313b9d00148948c","null","null","<p style=""font-size: 60px; font-family: BACS"">lrZGkJdr</p>","","","","","","","",""
"html-keyboard-response","84","212215","0.0-7.0-0.77","5cf14e1eb4397d0001f94e20","64afc2c9a8732ea92db0087d","64aff80e8313b9d00148948c","null","null","<p style=""font-size: 60px; font-family: BACS"">UYZlZvcb</p>","","","","","","","",""
"html-keyboard-response","85","213232","0.0-7.0-0.78","5cf14e1eb4397d0001f94e20","64afc2c9a8732ea92db0087d","64aff80e8313b9d00148948c","null","null","<p style=""font-size: 60px; font-family: BACS"">DCmhCMdP</p>","","","","","","","",""
"html-keyboard-response","86","214245","0.0-7.0-0.79","5cf14e1eb4397d0001f94e20","64afc2c9a8732ea92db0087d","64aff80e8313b9d00148948c","null","null","<p style=""font-size: 60px; font-family: BACS"">adYrcuOAO</p>","","","","","","","",""
"html-keyboard-response","87","228926","0.0-8.0","5cf14e1eb4397d0001f94e20","64afc2c9a8732ea92db0087d","64aff80e8313b9d00148948c","14680"," ","<p>Ottimo, hai visto il primo blocco di parole. Ora puoi prenderti una piccola pausa.</p>
      <p>Premi la barra quando sei pronta/o per riprendere.</p>","","","","","","","",""
"html-keyboard-response","88","229940","0.0-9.0-0.0","5cf14e1eb4397d0001f94e20","64afc2c9a8732ea92db0087d","64aff80e8313b9d00148948c","null","null","<p style=""font-size: 60px; font-family: BACS"">UvOGlLG</p>","","","","","","","",""
"html-keyboard-response","89","230942","0.0-9.0-0.1","5cf14e1eb4397d0001f94e20","64afc2c9a8732ea92db0087d","64aff80e8313b9d00148948c","null","null","<p style=""font-size: 60px; font-family: BACS"">hTtBbTbk</p>","","","","","","","",""
"html-keyboard-response","90","231943","0.0-9.0-0.2","5cf14e1eb4397d0001f94e20","64afc2c9a8732ea92db0087d","64aff80e8313b9d00148948c","null","null","<p style=""font-size: 60px; font-family: BACS"">ZcGdNvcb</p>","","","","","","","",""
"html-keyboard-response","91","232944","0.0-9.0-0.3","5cf14e1eb4397d0001f94e20","64afc2c9a8732ea92db0087d","64aff80e8313b9d00148948c","null","null","<p style=""font-size: 60px; font-family: BACS"">lrZGuOAO</p>","","","","","","","",""
"html-keyboard-response","92","233961","0.0-9.0-0.4","5cf14e1eb4397d0001f94e20","64afc2c9a8732ea92db0087d","64aff80e8313b9d00148948c","null","null","<p style=""font-size: 60px; font-family: BACS"">OEPkYBO</p>","","","","","","","",""
"html-keyboard-response","93","234963","0.0-9.0-0.5","5cf14e1eb4397d0001f94e20","64afc2c9a8732ea92db0087d","64aff80e8313b9d00148948c","null","null","<p style=""font-size: 60px; font-family: BACS"">uAkrvcb</p>","","","","","","","",""
"html-keyboard-response","94","235964","0.0-9.0-0.6","5cf14e1eb4397d0001f94e20","64afc2c9a8732ea92db0087d","64aff80e8313b9d00148948c","null","null","<p style=""font-size: 60px; font-family: BACS"">hkRKmCd</p>","","","","","","","",""
"html-keyboard-response","95","236981","0.0-9.0-0.7","5cf14e1eb4397d0001f94e20","64afc2c9a8732ea92db0087d","64aff80e8313b9d00148948c","null","null","<p style=""font-size: 60px; font-family: BACS"">UYZlZvcb</p>","","","","","","","",""
"html-keyboard-response","96","237998","0.0-9.0-0.8","5cf14e1eb4397d0001f94e20","64afc2c9a8732ea92db0087d","64aff80e8313b9d00148948c","null","null","<p style=""font-size: 60px; font-family: BACS"">UvOGkJdr</p>","","","","","","","",""
"html-keyboard-response","97","239014","0.0-9.0-0.9","5cf14e1eb4397d0001f94e20","64afc2c9a8732ea92db0087d","64aff80e8313b9d00148948c","null","null","<p style=""font-size: 60px; font-family: BACS"">adYrcAld</p>","","","","","","","",""
"html-keyboard-response","98","240037","0.0-9.0-0.10","5cf14e1eb4397d0001f94e20","64afc2c9a8732ea92db0087d","64aff80e8313b9d00148948c","null","null","<p style=""font-size: 60px; font-family: BACS"">thbOMDmh</p>","","","","","","","",""
"html-keyboard-response","99","241053","0.0-9.0-0.11","5cf14e1eb4397d0001f94e20","64afc2c9a8732ea92db0087d","64aff80e8313b9d00148948c","null","null","<p style=""font-size: 60px; font-family: BACS"">adYrckJdr</p>","","","","","","","",""
"html-keyboard-response","100","242054","0.0-9.0-0.12","5cf14e1eb4397d0001f94e20","64afc2c9a8732ea92db0087d","64aff80e8313b9d00148948c","null","null","<p style=""font-size: 60px; font-family: BACS"">YObAmCd</p>","","","","","","","",""
"html-keyboard-response","101","243056","0.0-9.0-0.13","5cf14e1eb4397d0001f94e20","64afc2c9a8732ea92db0087d","64aff80e8313b9d00148948c","null","null","<p style=""font-size: 60px; font-family: BACS"">adYrcvcb</p>","","","","","","","",""
"html-keyboard-response","102","244059","0.0-9.0-0.14","5cf14e1eb4397d0001f94e20","64afc2c9a8732ea92db0087d","64aff80e8313b9d00148948c","null","null","<p style=""font-size: 60px; font-family: BACS"">UYZlZuOAO</p>","","","","","","","",""
"html-keyboard-response","103","245061","0.0-9.0-0.15","5cf14e1eb4397d0001f94e20","64afc2c9a8732ea92db0087d","64aff80e8313b9d00148948c","null","null","<p style=""font-size: 60px; font-family: BACS"">bYuQlLG</p>","","","","","","","",""
"html-keyboard-response","104","246076","0.0-9.0-0.16","5cf14e1eb4397d0001f94e20","64afc2c9a8732ea92db0087d","64aff80e8313b9d00148948c","null","null","<p style=""font-size: 60px; font-family: BACS"">hkRKCMdP</p>","","","","","","","",""
"html-keyboard-response","105","247078","0.0-9.0-0.17","5cf14e1eb4397d0001f94e20","64afc2c9a8732ea92db0087d","64aff80e8313b9d00148948c","null","null","<p style=""font-size: 60px; font-family: BACS"">bNdmGlLG</p>","","","","","","","",""
"html-keyboard-response","106","248094","0.0-9.0-0.18","5cf14e1eb4397d0001f94e20","64afc2c9a8732ea92db0087d","64aff80e8313b9d00148948c","null","null","<p style=""font-size: 60px; font-family: BACS"">UvOGvcb</p>","","","","","","","",""
"html-keyboard-response","107","249110","0.0-9.0-0.19","5cf14e1eb4397d0001f94e20","64afc2c9a8732ea92db0087d","64aff80e8313b9d00148948c","null","null","<p style=""font-size: 60px; font-family: BACS"">hTtBbYBO</p>","","","","","","","",""
"html-keyboard-response","108","250112","0.0-9.0-0.20","5cf14e1eb4397d0001f94e20","64afc2c9a8732ea92db0087d","64aff80e8313b9d00148948c","null","null","<p style=""font-size: 60px; font-family: BACS"">DCmhCMdP</p>","","","","","","","",""
"html-keyboard-response","109","251128","0.0-9.0-0.21","5cf14e1eb4397d0001f94e20","64afc2c9a8732ea92db0087d","64aff80e8313b9d00148948c","null","null","<p style=""font-size: 60px; font-family: BACS"">ZcGdNlLG</p>","","","","","","","",""
"html-keyboard-response","110","252145","0.0-9.0-0.22","5cf14e1eb4397d0001f94e20","64afc2c9a8732ea92db0087d","64aff80e8313b9d00148948c","null","null","<p style=""font-size: 60px; font-family: BACS"">lrZGvcb</p>","","","","","","","",""
"html-keyboard-response","111","253147","0.0-9.0-0.23","5cf14e1eb4397d0001f94e20","64afc2c9a8732ea92db0087d","64aff80e8313b9d00148948c","null","null","<p style=""font-size: 60px; font-family: BACS"">thbOMCMdP</p>","","","","","","","",""
"html-keyboard-response","112","254148","0.0-9.0-0.24","5cf14e1eb4397d0001f94e20","64afc2c9a8732ea92db0087d","64aff80e8313b9d00148948c","null","null","<p style=""font-size: 60px; font-family: BACS"">adYrcuOAO</p>","","","","","","","",""
"html-keyboard-response","113","255150","0.0-9.0-0.25","5cf14e1eb4397d0001f94e20","64afc2c9a8732ea92db0087d","64aff80e8313b9d00148948c","null","null","<p style=""font-size: 60px; font-family: BACS"">uAkrAld</p>","","","","","","","",""
"html-keyboard-response","114","256155","0.0-9.0-0.26","5cf14e1eb4397d0001f94e20","64afc2c9a8732ea92db0087d","64aff80e8313b9d00148948c","null","null","<p style=""font-size: 60px; font-family: BACS"">UYZlZkJdr</p>","","","","","","","",""
"html-keyboard-response","115","257173","0.0-9.0-0.27","5cf14e1eb4397d0001f94e20","64afc2c9a8732ea92db0087d","64aff80e8313b9d00148948c","null","null","<p style=""font-size: 60px; font-family: BACS"">MhKdCMdP</p>","","","","","","","",""
"html-keyboard-response","116","258174","0.0-9.0-0.28","5cf14e1eb4397d0001f94e20","64afc2c9a8732ea92db0087d","64aff80e8313b9d00148948c","null","null","<p style=""font-size: 60px; font-family: BACS"">bNdmGkJdr</p>","","","","","","","",""
"html-keyboard-response","117","259189","0.0-9.0-0.29","5cf14e1eb4397d0001f94e20","64afc2c9a8732ea92db0087d","64aff80e8313b9d00148948c","null","null","<p style=""font-size: 60px; font-family: BACS"">rGUAYlLG</p>","","","","","","","",""
"html-keyboard-response","118","260205","0.0-9.0-0.30","5cf14e1eb4397d0001f94e20","64afc2c9a8732ea92db0087d","64aff80e8313b9d00148948c","null","null","<p style=""font-size: 60px; font-family: BACS"">hkRKTbk</p>","","","","","","","",""
"html-keyboard-response","119","261207","0.0-9.0-0.31","5cf14e1eb4397d0001f94e20","64afc2c9a8732ea92db0087d","64aff80e8313b9d00148948c","null","null","<p style=""font-size: 60px; font-family: BACS"">uAkrlLG</p>","","","","","","","",""
"html-keyboard-response","120","262224","0.0-9.0-0.32","5cf14e1eb4397d0001f94e20","64afc2c9a8732ea92db0087d","64aff80e8313b9d00148948c","null","null","<p style=""font-size: 60px; font-family: BACS"">OEPkmCd</p>","","","","","","","",""
"html-keyboard-response","121","263240","0.0-9.0-0.33","5cf14e1eb4397d0001f94e20","64afc2c9a8732ea92db0087d","64aff80e8313b9d00148948c","null","null","<p style=""font-size: 60px; font-family: BACS"">aNYmbkJdr</p>","","","","","","","",""
"html-keyboard-response","122","264257","0.0-9.0-0.34","5cf14e1eb4397d0001f94e20","64afc2c9a8732ea92db0087d","64aff80e8313b9d00148948c","null","null","<p style=""font-size: 60px; font-family: BACS"">TbKMETbk</p>","","","","","","","",""
"html-keyboard-response","123","265280","0.0-9.0-0.35","5cf14e1eb4397d0001f94e20","64afc2c9a8732ea92db0087d","64aff80e8313b9d00148948c","null","null","<p style=""font-size: 60px; font-family: BACS"">hTtBbmCd</p>","","","","","","","",""
"html-keyboard-response","124","266296","0.0-9.0-0.36","5cf14e1eb4397d0001f94e20","64afc2c9a8732ea92db0087d","64aff80e8313b9d00148948c","null","null","<p style=""font-size: 60px; font-family: BACS"">UvOGuOAO</p>","","","","","","","",""
"html-keyboard-response","125","267303","0.0-9.0-0.37","5cf14e1eb4397d0001f94e20","64afc2c9a8732ea92db0087d","64aff80e8313b9d00148948c","null","null","<p style=""font-size: 60px; font-family: BACS"">hTtBbCMdP</p>","","","","","","","",""
"html-keyboard-response","126","268319","0.0-9.0-0.38","5cf14e1eb4397d0001f94e20","64afc2c9a8732ea92db0087d","64aff80e8313b9d00148948c","null","null","<p style=""font-size: 60px; font-family: BACS"">rGUAYvcb</p>","","","","","","","",""
"html-keyboard-response","127","269322","0.0-9.0-0.39","5cf14e1eb4397d0001f94e20","64afc2c9a8732ea92db0087d","64aff80e8313b9d00148948c","null","null","<p style=""font-size: 60px; font-family: BACS"">aNYmbAld</p>","","","","","","","",""
"html-keyboard-response","128","270326","0.0-9.0-0.40","5cf14e1eb4397d0001f94e20","64afc2c9a8732ea92db0087d","64aff80e8313b9d00148948c","null","null","<p style=""font-size: 60px; font-family: BACS"">BATOcDmh</p>","","","","","","","",""
"html-keyboard-response","129","271340","0.0-9.0-0.41","5cf14e1eb4397d0001f94e20","64afc2c9a8732ea92db0087d","64aff80e8313b9d00148948c","null","null","<p style=""font-size: 60px; font-family: BACS"">aNYmblLG</p>","","","","","","","",""
"html-keyboard-response","130","272342","0.0-9.0-0.42","5cf14e1eb4397d0001f94e20","64afc2c9a8732ea92db0087d","64aff80e8313b9d00148948c","null","null","<p style=""font-size: 60px; font-family: BACS"">DCmhTbk</p>","","","","","","","",""
"html-keyboard-response","131","273357","0.0-9.0-0.43","5cf14e1eb4397d0001f94e20","64afc2c9a8732ea92db0087d","64aff80e8313b9d00148948c","null","null","<p style=""font-size: 60px; font-family: BACS"">TbKMEmCd</p>","","","","","","","",""
"html-keyboard-response","132","274359","0.0-9.0-0.44","5cf14e1eb4397d0001f94e20","64afc2c9a8732ea92db0087d","64aff80e8313b9d00148948c","null","null","<p style=""font-size: 60px; font-family: BACS"">MhKdTbk</p>","","","","","","","",""
"html-keyboard-response","133","275375","0.0-9.0-0.45","5cf14e1eb4397d0001f94e20","64afc2c9a8732ea92db0087d","64aff80e8313b9d00148948c","null","null","<p style=""font-size: 60px; font-family: BACS"">rGUAYuOAO</p>","","","","","","","",""
"html-keyboard-response","134","276376","0.0-9.0-0.46","5cf14e1eb4397d0001f94e20","64afc2c9a8732ea92db0087d","64aff80e8313b9d00148948c","null","null","<p style=""font-size: 60px; font-family: BACS"">lrZGkJdr</p>","","","","","","","",""
"html-keyboard-response","135","277398","0.0-9.0-0.47","5cf14e1eb4397d0001f94e20","64afc2c9a8732ea92db0087d","64aff80e8313b9d00148948c","null","null","<p style=""font-size: 60px; font-family: BACS"">YObADmh</p>","","","","","","","",""
"html-keyboard-response","136","278413","0.0-9.0-0.48","5cf14e1eb4397d0001f94e20","64afc2c9a8732ea92db0087d","64aff80e8313b9d00148948c","null","null","<p style=""font-size: 60px; font-family: BACS"">UYZlZlLG</p>","","","","","","","",""
"html-keyboard-response","137","279443","0.0-9.0-0.49","5cf14e1eb4397d0001f94e20","64afc2c9a8732ea92db0087d","64aff80e8313b9d00148948c","null","null","<p style=""font-size: 60px; font-family: BACS"">lrZGAld</p>","","","","","","","",""
"html-keyboard-response","138","280447","0.0-9.0-0.50","5cf14e1eb4397d0001f94e20","64afc2c9a8732ea92db0087d","64aff80e8313b9d00148948c","null","null","<p style=""font-size: 60px; font-family: BACS"">BEPODmh</p>","","","","","","","",""
"html-keyboard-response","139","281449","0.0-9.0-0.51","5cf14e1eb4397d0001f94e20","64afc2c9a8732ea92db0087d","64aff80e8313b9d00148948c","null","null","<p style=""font-size: 60px; font-family: BACS"">BATOcTbk</p>","","","","","","","",""
"html-keyboard-response","140","282451","0.0-9.0-0.52","5cf14e1eb4397d0001f94e20","64afc2c9a8732ea92db0087d","64aff80e8313b9d00148948c","null","null","<p style=""font-size: 60px; font-family: BACS"">rGUAYAld</p>","","","","","","","",""
"html-keyboard-response","141","283467","0.0-9.0-0.53","5cf14e1eb4397d0001f94e20","64afc2c9a8732ea92db0087d","64aff80e8313b9d00148948c","null","null","<p style=""font-size: 60px; font-family: BACS"">BEPOmCd</p>","","","","","","","",""
"html-keyboard-response","142","284470","0.0-9.0-0.54","5cf14e1eb4397d0001f94e20","64afc2c9a8732ea92db0087d","64aff80e8313b9d00148948c","null","null","<p style=""font-size: 60px; font-family: BACS"">bNdmGAld</p>","","","","","","","",""
"html-keyboard-response","143","285472","0.0-9.0-0.55","5cf14e1eb4397d0001f94e20","64afc2c9a8732ea92db0087d","64aff80e8313b9d00148948c","null","null","<p style=""font-size: 60px; font-family: BACS"">YObACMdP</p>","","","","","","","",""
"html-keyboard-response","144","286489","0.0-9.0-0.56","5cf14e1eb4397d0001f94e20","64afc2c9a8732ea92db0087d","64aff80e8313b9d00148948c","null","null","<p style=""font-size: 60px; font-family: BACS"">thbOMTbk</p>","","","","","","","",""
"html-keyboard-response","145","287491","0.0-9.0-0.57","5cf14e1eb4397d0001f94e20","64afc2c9a8732ea92db0087d","64aff80e8313b9d00148948c","null","null","<p style=""font-size: 60px; font-family: BACS"">bYuQAld</p>","","","","","","","",""
"html-keyboard-response","146","288493","0.0-9.0-0.58","5cf14e1eb4397d0001f94e20","64afc2c9a8732ea92db0087d","64aff80e8313b9d00148948c","null","null","<p style=""font-size: 60px; font-family: BACS"">BEPOTbk</p>","","","","","","","",""
"html-keyboard-response","147","289516","0.0-9.0-0.59","5cf14e1eb4397d0001f94e20","64afc2c9a8732ea92db0087d","64aff80e8313b9d00148948c","null","null","<p style=""font-size: 60px; font-family: BACS"">bNdmGuOAO</p>","","","","","","","",""
"html-keyboard-response","148","290520","0.0-9.0-0.60","5cf14e1eb4397d0001f94e20","64afc2c9a8732ea92db0087d","64aff80e8313b9d00148948c","null","null","<p style=""font-size: 60px; font-family: BACS"">TbKMECMdP</p>","","","","","","","",""
"html-keyboard-response","149","291536","0.0-9.0-0.61","5cf14e1eb4397d0001f94e20","64afc2c9a8732ea92db0087d","64aff80e8313b9d00148948c","null","null","<p style=""font-size: 60px; font-family: BACS"">BATOcYBO</p>","","","","","","","",""
"html-keyboard-response","150","292553","0.0-9.0-0.62","5cf14e1eb4397d0001f94e20","64afc2c9a8732ea92db0087d","64aff80e8313b9d00148948c","null","null","<p style=""font-size: 60px; font-family: BACS"">OEPkDmh</p>","","","","","","","",""
"html-keyboard-response","151","293571","0.0-9.0-0.63","5cf14e1eb4397d0001f94e20","64afc2c9a8732ea92db0087d","64aff80e8313b9d00148948c","null","null","<p style=""font-size: 60px; font-family: BACS"">uAkrkJdr</p>","","","","","","","",""
"html-keyboard-response","152","294586","0.0-9.0-0.64","5cf14e1eb4397d0001f94e20","64afc2c9a8732ea92db0087d","64aff80e8313b9d00148948c","null","null","<p style=""font-size: 60px; font-family: BACS"">aNYmbvcb</p>","","","","","","","",""
"html-keyboard-response","153","295602","0.0-9.0-0.65","5cf14e1eb4397d0001f94e20","64afc2c9a8732ea92db0087d","64aff80e8313b9d00148948c","null","null","<p style=""font-size: 60px; font-family: BACS"">OEPkCMdP</p>","","","","","","","",""
"html-keyboard-response","154","296625","0.0-9.0-0.66","5cf14e1eb4397d0001f94e20","64afc2c9a8732ea92db0087d","64aff80e8313b9d00148948c","null","null","<p style=""font-size: 60px; font-family: BACS"">hkRKYBO</p>","","","","","","","",""
"html-keyboard-response","155","297629","0.0-9.0-0.67","5cf14e1eb4397d0001f94e20","64afc2c9a8732ea92db0087d","64aff80e8313b9d00148948c","null","null","<p style=""font-size: 60px; font-family: BACS"">MhKdDmh</p>","","","","","","","",""
"html-keyboard-response","156","298646","0.0-9.0-0.68","5cf14e1eb4397d0001f94e20","64afc2c9a8732ea92db0087d","64aff80e8313b9d00148948c","null","null","<p style=""font-size: 60px; font-family: BACS"">bYuQkJdr</p>","","","","","","","",""
"html-keyboard-response","157","299662","0.0-9.0-0.69","5cf14e1eb4397d0001f94e20","64afc2c9a8732ea92db0087d","64aff80e8313b9d00148948c","null","null","<p style=""font-size: 60px; font-family: BACS"">ZcGdNuOAO</p>","","","","","","","",""
"html-keyboard-response","158","300677","0.0-9.0-0.70","5cf14e1eb4397d0001f94e20","64afc2c9a8732ea92db0087d","64aff80e8313b9d00148948c","null","null","<p style=""font-size: 60px; font-family: BACS"">thbOMYBO</p>","","","","","","","",""
"html-keyboard-response","159","301694","0.0-9.0-0.71","5cf14e1eb4397d0001f94e20","64afc2c9a8732ea92db0087d","64aff80e8313b9d00148948c","null","null","<p style=""font-size: 60px; font-family: BACS"">DCmhDmh</p>","","","","","","","",""
"html-keyboard-response","160","302700","0.0-9.0-0.72","5cf14e1eb4397d0001f94e20","64afc2c9a8732ea92db0087d","64aff80e8313b9d00148948c","null","null","<p style=""font-size: 60px; font-family: BACS"">BEPOYBO</p>","","","","","","","",""
"html-keyboard-response","161","303712","0.0-9.0-0.73","5cf14e1eb4397d0001f94e20","64afc2c9a8732ea92db0087d","64aff80e8313b9d00148948c","null","null","<p style=""font-size: 60px; font-family: BACS"">TbKMEDmh</p>","","","","","","","",""
"html-keyboard-response","162","304715","0.0-9.0-0.74","5cf14e1eb4397d0001f94e20","64afc2c9a8732ea92db0087d","64aff80e8313b9d00148948c","null","null","<p style=""font-size: 60px; font-family: BACS"">ZcGdNAld</p>","","","","","","","",""
"html-keyboard-response","163","305716","0.0-9.0-0.75","5cf14e1eb4397d0001f94e20","64afc2c9a8732ea92db0087d","64aff80e8313b9d00148948c","null","null","<p style=""font-size: 60px; font-family: BACS"">bYuQuOAO</p>","","","","","","","",""
"html-keyboard-response","164","306718","0.0-9.0-0.76","5cf14e1eb4397d0001f94e20","64afc2c9a8732ea92db0087d","64aff80e8313b9d00148948c","null","null","<p style=""font-size: 60px; font-family: BACS"">MhKdYBO</p>","","","","","","","",""
"html-keyboard-response","165","307721","0.0-9.0-0.77","5cf14e1eb4397d0001f94e20","64afc2c9a8732ea92db0087d","64aff80e8313b9d00148948c","null","null","<p style=""font-size: 60px; font-family: BACS"">BATOcmCd</p>","","","","","","","",""
"html-keyboard-response","166","308743","0.0-9.0-0.78","5cf14e1eb4397d0001f94e20","64afc2c9a8732ea92db0087d","64aff80e8313b9d00148948c","null","null","<p style=""font-size: 60px; font-family: BACS"">YObAYBO</p>","","","","","","","",""
"html-keyboard-response","167","309752","0.0-9.0-0.79","5cf14e1eb4397d0001f94e20","64afc2c9a8732ea92db0087d","64aff80e8313b9d00148948c","null","null","<p style=""font-size: 60px; font-family: BACS"">DCmhmCd</p>","","","","","","","",""
"html-keyboard-response","168","353828","0.0-10.0","5cf14e1eb4397d0001f94e20","64afc2c9a8732ea92db0087d","64aff80e8313b9d00148948c","44076"," ","<p>Ottimo, hai visto il secondo blocco di parole. Ora puoi prenderti una piccola pausa.</p>
      <p>Premi la barra quando sei pronta/o per riprendere.</p>","","","","","","","",""
"html-keyboard-response","169","354835","0.0-11.0-0.0","5cf14e1eb4397d0001f94e20","64afc2c9a8732ea92db0087d","64aff80e8313b9d00148948c","null","null","<p style=""font-size: 60px; font-family: BACS"">hTtBbCMdP</p>","","","","","","","",""
"html-keyboard-response","170","355852","0.0-11.0-0.1","5cf14e1eb4397d0001f94e20","64afc2c9a8732ea92db0087d","64aff80e8313b9d00148948c","null","null","<p style=""font-size: 60px; font-family: BACS"">DCmhTbk</p>","","","","","","","",""
"html-keyboard-response","171","356853","0.0-11.0-0.2","5cf14e1eb4397d0001f94e20","64afc2c9a8732ea92db0087d","64aff80e8313b9d00148948c","null","null","<p style=""font-size: 60px; font-family: BACS"">aNYmbvcb</p>","","","","","","","",""
"html-keyboard-response","172","357855","0.0-11.0-0.3","5cf14e1eb4397d0001f94e20","64afc2c9a8732ea92db0087d","64aff80e8313b9d00148948c","null","null","<p style=""font-size: 60px; font-family: BACS"">YObACMdP</p>","","","","","","","",""
"html-keyboard-response","173","358877","0.0-11.0-0.4","5cf14e1eb4397d0001f94e20","64afc2c9a8732ea92db0087d","64aff80e8313b9d00148948c","null","null","<p style=""font-size: 60px; font-family: BACS"">hkRKmCd</p>","","","","","","","",""
"html-keyboard-response","174","359880","0.0-11.0-0.5","5cf14e1eb4397d0001f94e20","64afc2c9a8732ea92db0087d","64aff80e8313b9d00148948c","null","null","<p style=""font-size: 60px; font-family: BACS"">bYuQlLG</p>","","","","","","","",""
"html-keyboard-response","175","360896","0.0-11.0-0.6","5cf14e1eb4397d0001f94e20","64afc2c9a8732ea92db0087d","64aff80e8313b9d00148948c","null","null","<p style=""font-size: 60px; font-family: BACS"">TbKMECMdP</p>","","","","","","","",""
"html-keyboard-response","176","361912","0.0-11.0-0.7","5cf14e1eb4397d0001f94e20","64afc2c9a8732ea92db0087d","64aff80e8313b9d00148948c","null","null","<p style=""font-size: 60px; font-family: BACS"">UvOGkJdr</p>","","","","","","","",""
"html-keyboard-response","177","362927","0.0-11.0-0.8","5cf14e1eb4397d0001f94e20","64afc2c9a8732ea92db0087d","64aff80e8313b9d00148948c","null","null","<p style=""font-size: 60px; font-family: BACS"">ZcGdNAld</p>","","","","","","","",""
"html-keyboard-response","178","363928","0.0-11.0-0.9","5cf14e1eb4397d0001f94e20","64afc2c9a8732ea92db0087d","64aff80e8313b9d00148948c","null","null","<p style=""font-size: 60px; font-family: BACS"">UYZlZuOAO</p>","","","","","","","",""
"html-keyboard-response","179","364930","0.0-11.0-0.10","5cf14e1eb4397d0001f94e20","64afc2c9a8732ea92db0087d","64aff80e8313b9d00148948c","null","null","<p style=""font-size: 60px; font-family: BACS"">YObAmCd</p>","","","","","","","",""
"html-keyboard-response","180","365946","0.0-11.0-0.11","5cf14e1eb4397d0001f94e20","64afc2c9a8732ea92db0087d","64aff80e8313b9d00148948c","null","null","<p style=""font-size: 60px; font-family: BACS"">UvOGuOAO</p>","","","","","","","",""
"html-keyboard-response","181","366948","0.0-11.0-0.12","5cf14e1eb4397d0001f94e20","64afc2c9a8732ea92db0087d","64aff80e8313b9d00148948c","null","null","<p style=""font-size: 60px; font-family: BACS"">uAkrkJdr</p>","","","","","","","",""
"html-keyboard-response","182","367965","0.0-11.0-0.13","5cf14e1eb4397d0001f94e20","64afc2c9a8732ea92db0087d","64aff80e8313b9d00148948c","null","null","<p style=""font-size: 60px; font-family: BACS"">adYrcvcb</p>","","","","","","","",""
"html-keyboard-response","183","368966","0.0-11.0-0.14","5cf14e1eb4397d0001f94e20","64afc2c9a8732ea92db0087d","64aff80e8313b9d00148948c","null","null","<p style=""font-size: 60px; font-family: BACS"">MhKdTbk</p>","","","","","","","",""
"html-keyboard-response","184","370009","0.0-11.0-0.15","5cf14e1eb4397d0001f94e20","64afc2c9a8732ea92db0087d","64aff80e8313b9d00148948c","null","null","<p style=""font-size: 60px; font-family: BACS"">UYZlZvcb</p>","","","","","","","",""
"html-keyboard-response","185","371023","0.0-11.0-0.16","5cf14e1eb4397d0001f94e20","64afc2c9a8732ea92db0087d","64aff80e8313b9d00148948c","null","null","<p style=""font-size: 60px; font-family: BACS"">aNYmbkJdr</p>","","","","","","","",""
"html-keyboard-response","186","372040","0.0-11.0-0.17","5cf14e1eb4397d0001f94e20","64afc2c9a8732ea92db0087d","64aff80e8313b9d00148948c","null","null","<p style=""font-size: 60px; font-family: BACS"">BEPOTbk</p>","","","","","","","",""
"html-keyboard-response","187","373056","0.0-11.0-0.18","5cf14e1eb4397d0001f94e20","64afc2c9a8732ea92db0087d","64aff80e8313b9d00148948c","null","null","<p style=""font-size: 60px; font-family: BACS"">bNdmGAld</p>","","","","","","","",""
"html-keyboard-response","188","374059","0.0-11.0-0.19","5cf14e1eb4397d0001f94e20","64afc2c9a8732ea92db0087d","64aff80e8313b9d00148948c","null","null","<p style=""font-size: 60px; font-family: BACS"">lrZGkJdr</p>","","","","","","","",""
"html-keyboard-response","189","375059","0.0-11.0-0.20","5cf14e1eb4397d0001f94e20","64afc2c9a8732ea92db0087d","64aff80e8313b9d00148948c","null","null","<p style=""font-size: 60px; font-family: BACS"">rGUAYuOAO</p>","","","","","","","",""
"html-keyboard-response","190","376063","0.0-11.0-0.21","5cf14e1eb4397d0001f94e20","64afc2c9a8732ea92db0087d","64aff80e8313b9d00148948c","null","null","<p style=""font-size: 60px; font-family: BACS"">bYuQkJdr</p>","","","","","","","",""
"html-keyboard-response","191","377079","0.0-11.0-0.22","5cf14e1eb4397d0001f94e20","64afc2c9a8732ea92db0087d","64aff80e8313b9d00148948c","null","null","<p style=""font-size: 60px; font-family: BACS"">BEPOYBO</p>","","","","","","","",""
"html-keyboard-response","192","378080","0.0-11.0-0.23","5cf14e1eb4397d0001f94e20","64afc2c9a8732ea92db0087d","64aff80e8313b9d00148948c","null","null","<p style=""font-size: 60px; font-family: BACS"">hkRKTbk</p>","","","","","","","",""
"html-keyboard-response","193","379082","0.0-11.0-0.24","5cf14e1eb4397d0001f94e20","64afc2c9a8732ea92db0087d","64aff80e8313b9d00148948c","null","null","<p style=""font-size: 60px; font-family: BACS"">thbOMDmh</p>","","","","","","","",""
"html-keyboard-response","194","380099","0.0-11.0-0.25","5cf14e1eb4397d0001f94e20","64afc2c9a8732ea92db0087d","64aff80e8313b9d00148948c","null","null","<p style=""font-size: 60px; font-family: BACS"">rGUAYlLG</p>","","","","","","","",""
"html-keyboard-response","195","381116","0.0-11.0-0.26","5cf14e1eb4397d0001f94e20","64afc2c9a8732ea92db0087d","64aff80e8313b9d00148948c","null","null","<p style=""font-size: 60px; font-family: BACS"">DCmhCMdP</p>","","","","","","","",""
"html-keyboard-response","196","382122","0.0-11.0-0.27","5cf14e1eb4397d0001f94e20","64afc2c9a8732ea92db0087d","64aff80e8313b9d00148948c","null","null","<p style=""font-size: 60px; font-family: BACS"">hkRKYBO</p>","","","","","","","",""
"html-keyboard-response","197","383138","0.0-11.0-0.28","5cf14e1eb4397d0001f94e20","64afc2c9a8732ea92db0087d","64aff80e8313b9d00148948c","null","null","<p style=""font-size: 60px; font-family: BACS"">TbKMEDmh</p>","","","","","","","",""
"html-keyboard-response","198","384161","0.0-11.0-0.29","5cf14e1eb4397d0001f94e20","64afc2c9a8732ea92db0087d","64aff80e8313b9d00148948c","null","null","<p style=""font-size: 60px; font-family: BACS"">adYrckJdr</p>","","","","","","","",""
"html-keyboard-response","199","385164","0.0-11.0-0.30","5cf14e1eb4397d0001f94e20","64afc2c9a8732ea92db0087d","64aff80e8313b9d00148948c","null","null","<p style=""font-size: 60px; font-family: BACS"">hkRKCMdP</p>","","","","","","","",""
"html-keyboard-response","200","386165","0.0-11.0-0.31","5cf14e1eb4397d0001f94e20","64afc2c9a8732ea92db0087d","64aff80e8313b9d00148948c","null","null","<p style=""font-size: 60px; font-family: BACS"">hTtBbTbk</p>","","","","","","","",""
"html-keyboard-response","201","387167","0.0-11.0-0.32","5cf14e1eb4397d0001f94e20","64afc2c9a8732ea92db0087d","64aff80e8313b9d00148948c","null","null","<p style=""font-size: 60px; font-family: BACS"">adYrcAld</p>","","","","","","","",""
"html-keyboard-response","202","388170","0.0-11.0-0.33","5cf14e1eb4397d0001f94e20","64afc2c9a8732ea92db0087d","64aff80e8313b9d00148948c","null","null","<p style=""font-size: 60px; font-family: BACS"">BATOcTbk</p>","","","","","","","",""
"html-keyboard-response","203","389171","0.0-11.0-0.34","5cf14e1eb4397d0001f94e20","64afc2c9a8732ea92db0087d","64aff80e8313b9d00148948c","null","null","<p style=""font-size: 60px; font-family: BACS"">YObADmh</p>","","","","","","","",""
"html-keyboard-response","204","390187","0.0-11.0-0.35","5cf14e1eb4397d0001f94e20","64afc2c9a8732ea92db0087d","64aff80e8313b9d00148948c","null","null","<p style=""font-size: 60px; font-family: BACS"">MhKdYBO</p>","","","","","","","",""
"html-keyboard-response","205","391188","0.0-11.0-0.36","5cf14e1eb4397d0001f94e20","64afc2c9a8732ea92db0087d","64aff80e8313b9d00148948c","null","null","<p style=""font-size: 60px; font-family: BACS"">BEPODmh</p>","","","","","","","",""
"html-keyboard-response","206","392211","0.0-11.0-0.37","5cf14e1eb4397d0001f94e20","64afc2c9a8732ea92db0087d","64aff80e8313b9d00148948c","null","null","<p style=""font-size: 60px; font-family: BACS"">aNYmbAld</p>","","","","","","","",""
"html-keyboard-response","207","393226","0.0-11.0-0.38","5cf14e1eb4397d0001f94e20","64afc2c9a8732ea92db0087d","64aff80e8313b9d00148948c","null","null","<p style=""font-size: 60px; font-family: BACS"">DCmhmCd</p>","","","","","","","",""
"html-keyboard-response","208","394242","0.0-11.0-0.39","5cf14e1eb4397d0001f94e20","64afc2c9a8732ea92db0087d","64aff80e8313b9d00148948c","null","null","<p style=""font-size: 60px; font-family: BACS"">uAkrvcb</p>","","","","","","","",""
"html-keyboard-response","209","395258","0.0-11.0-0.40","5cf14e1eb4397d0001f94e20","64afc2c9a8732ea92db0087d","64aff80e8313b9d00148948c","null","null","<p style=""font-size: 60px; font-family: BACS"">DCmhDmh</p>","","","","","","","",""
"html-keyboard-response","210","396260","0.0-11.0-0.41","5cf14e1eb4397d0001f94e20","64afc2c9a8732ea92db0087d","64aff80e8313b9d00148948c","null","null","<p style=""font-size: 60px; font-family: BACS"">hTtBbYBO</p>","","","","","","","",""
"html-keyboard-response","211","397261","0.0-11.0-0.42","5cf14e1eb4397d0001f94e20","64afc2c9a8732ea92db0087d","64aff80e8313b9d00148948c","null","null","<p style=""font-size: 60px; font-family: BACS"">UYZlZlLG</p>","","","","","","","",""
"html-keyboard-response","212","398266","0.0-11.0-0.43","5cf14e1eb4397d0001f94e20","64afc2c9a8732ea92db0087d","64aff80e8313b9d00148948c","null","null","<p style=""font-size: 60px; font-family: BACS"">YObAYBO</p>","","","","","","","",""
"html-keyboard-response","213","399280","0.0-11.0-0.44","5cf14e1eb4397d0001f94e20","64afc2c9a8732ea92db0087d","64aff80e8313b9d00148948c","null","null","<p style=""font-size: 60px; font-family: BACS"">UYZlZkJdr</p>","","","","","","","",""
"html-keyboard-response","214","400288","0.0-11.0-0.45","5cf14e1eb4397d0001f94e20","64afc2c9a8732ea92db0087d","64aff80e8313b9d00148948c","null","null","<p style=""font-size: 60px; font-family: BACS"">ZcGdNlLG</p>","","","","","","","",""
"html-keyboard-response","215","401300","0.0-11.0-0.46","5cf14e1eb4397d0001f94e20","64afc2c9a8732ea92db0087d","64aff80e8313b9d00148948c","null","null","<p style=""font-size: 60px; font-family: BACS"">thbOMYBO</p>","","","","","","","",""
"html-keyboard-response","216","402307","0.0-11.0-0.47","5cf14e1eb4397d0001f94e20","64afc2c9a8732ea92db0087d","64aff80e8313b9d00148948c","null","null","<p style=""font-size: 60px; font-family: BACS"">BATOcmCd</p>","","","","","","","",""
"html-keyboard-response","217","403324","0.0-11.0-0.48","5cf14e1eb4397d0001f94e20","64afc2c9a8732ea92db0087d","64aff80e8313b9d00148948c","null","null","<p style=""font-size: 60px; font-family: BACS"">TbKMETbk</p>","","","","","","","",""
"html-keyboard-response","218","404326","0.0-11.0-0.49","5cf14e1eb4397d0001f94e20","64afc2c9a8732ea92db0087d","64aff80e8313b9d00148948c","null","null","<p style=""font-size: 60px; font-family: BACS"">BATOcYBO</p>","","","","","","","",""
"html-keyboard-response","219","405342","0.0-11.0-0.50","5cf14e1eb4397d0001f94e20","64afc2c9a8732ea92db0087d","64aff80e8313b9d00148948c","null","null","<p style=""font-size: 60px; font-family: BACS"">rGUAYvcb</p>","","","","","","","",""
"html-keyboard-response","220","406358","0.0-11.0-0.51","5cf14e1eb4397d0001f94e20","64afc2c9a8732ea92db0087d","64aff80e8313b9d00148948c","null","null","<p style=""font-size: 60px; font-family: BACS"">bNdmGlLG</p>","","","","","","","",""
"html-keyboard-response","221","407375","0.0-11.0-0.52","5cf14e1eb4397d0001f94e20","64afc2c9a8732ea92db0087d","64aff80e8313b9d00148948c","null","null","<p style=""font-size: 60px; font-family: BACS"">adYrcuOAO</p>","","","","","","","",""
"html-keyboard-response","222","408391","0.0-11.0-0.53","5cf14e1eb4397d0001f94e20","64afc2c9a8732ea92db0087d","64aff80e8313b9d00148948c","null","null","<p style=""font-size: 60px; font-family: BACS"">hTtBbmCd</p>","","","","","","","",""
"html-keyboard-response","223","409394","0.0-11.0-0.54","5cf14e1eb4397d0001f94e20","64afc2c9a8732ea92db0087d","64aff80e8313b9d00148948c","null","null","<p style=""font-size: 60px; font-family: BACS"">thbOMCMdP</p>","","","","","","","",""
"html-keyboard-response","224","410410","0.0-11.0-0.55","5cf14e1eb4397d0001f94e20","64afc2c9a8732ea92db0087d","64aff80e8313b9d00148948c","null","null","<p style=""font-size: 60px; font-family: BACS"">OEPkYBO</p>","","","","","","","",""
"html-keyboard-response","225","411412","0.0-11.0-0.56","5cf14e1eb4397d0001f94e20","64afc2c9a8732ea92db0087d","64aff80e8313b9d00148948c","null","null","<p style=""font-size: 60px; font-family: BACS"">TbKMEmCd</p>","","","","","","","",""
"html-keyboard-response","226","412435","0.0-11.0-0.57","5cf14e1eb4397d0001f94e20","64afc2c9a8732ea92db0087d","64aff80e8313b9d00148948c","null","null","<p style=""font-size: 60px; font-family: BACS"">ZcGdNvcb</p>","","","","","","","",""
"html-keyboard-response","227","413436","0.0-11.0-0.58","5cf14e1eb4397d0001f94e20","64afc2c9a8732ea92db0087d","64aff80e8313b9d00148948c","null","null","<p style=""font-size: 60px; font-family: BACS"">bNdmGkJdr</p>","","","","","","","",""
"html-keyboard-response","228","414454","0.0-11.0-0.59","5cf14e1eb4397d0001f94e20","64afc2c9a8732ea92db0087d","64aff80e8313b9d00148948c","null","null","<p style=""font-size: 60px; font-family: BACS"">bYuQuOAO</p>","","","","","","","",""
"html-keyboard-response","229","415470","0.0-11.0-0.60","5cf14e1eb4397d0001f94e20","64afc2c9a8732ea92db0087d","64aff80e8313b9d00148948c","null","null","<p style=""font-size: 60px; font-family: BACS"">OEPkDmh</p>","","","","","","","",""
"html-keyboard-response","230","416477","0.0-11.0-0.61","5cf14e1eb4397d0001f94e20","64afc2c9a8732ea92db0087d","64aff80e8313b9d00148948c","null","null","<p style=""font-size: 60px; font-family: BACS"">MhKdCMdP</p>","","","","","","","",""
"html-keyboard-response","231","417478","0.0-11.0-0.62","5cf14e1eb4397d0001f94e20","64afc2c9a8732ea92db0087d","64aff80e8313b9d00148948c","null","null","<p style=""font-size: 60px; font-family: BACS"">bNdmGuOAO</p>","","","","","","","",""
"html-keyboard-response","232","418495","0.0-11.0-0.63","5cf14e1eb4397d0001f94e20","64afc2c9a8732ea92db0087d","64aff80e8313b9d00148948c","null","null","<p style=""font-size: 60px; font-family: BACS"">lrZGAld</p>","","","","","","","",""
"html-keyboard-response","233","419497","0.0-11.0-0.64","5cf14e1eb4397d0001f94e20","64afc2c9a8732ea92db0087d","64aff80e8313b9d00148948c","null","null","<p style=""font-size: 60px; font-family: BACS"">MhKdDmh</p>","","","","","","","",""
"html-keyboard-response","234","420499","0.0-11.0-0.65","5cf14e1eb4397d0001f94e20","64afc2c9a8732ea92db0087d","64aff80e8313b9d00148948c","null","null","<p style=""font-size: 60px; font-family: BACS"">thbOMTbk</p>","","","","","","","",""
"html-keyboard-response","235","421509","0.0-11.0-0.66","5cf14e1eb4397d0001f94e20","64afc2c9a8732ea92db0087d","64aff80e8313b9d00148948c","null","null","<p style=""font-size: 60px; font-family: BACS"">OEPkCMdP</p>","","","","","","","",""
"html-keyboard-response","236","422518","0.0-11.0-0.67","5cf14e1eb4397d0001f94e20","64afc2c9a8732ea92db0087d","64aff80e8313b9d00148948c","null","null","<p style=""font-size: 60px; font-family: BACS"">aNYmblLG</p>","","","","","","","",""
"html-keyboard-response","237","423534","0.0-11.0-0.68","5cf14e1eb4397d0001f94e20","64afc2c9a8732ea92db0087d","64aff80e8313b9d00148948c","null","null","<p style=""font-size: 60px; font-family: BACS"">OEPkmCd</p>","","","","","","","",""
"html-keyboard-response","238","424551","0.0-11.0-0.69","5cf14e1eb4397d0001f94e20","64afc2c9a8732ea92db0087d","64aff80e8313b9d00148948c","null","null","<p style=""font-size: 60px; font-family: BACS"">UvOGvcb</p>","","","","","","","",""
"html-keyboard-response","239","425552","0.0-11.0-0.70","5cf14e1eb4397d0001f94e20","64afc2c9a8732ea92db0087d","64aff80e8313b9d00148948c","null","null","<p style=""font-size: 60px; font-family: BACS"">ZcGdNuOAO</p>","","","","","","","",""
"html-keyboard-response","240","426574","0.0-11.0-0.71","5cf14e1eb4397d0001f94e20","64afc2c9a8732ea92db0087d","64aff80e8313b9d00148948c","null","null","<p style=""font-size: 60px; font-family: BACS"">uAkrAld</p>","","","","","","","",""
"html-keyboard-response","241","427589","0.0-11.0-0.72","5cf14e1eb4397d0001f94e20","64afc2c9a8732ea92db0087d","64aff80e8313b9d00148948c","null","null","<p style=""font-size: 60px; font-family: BACS"">UvOGlLG</p>","","","","","","","",""
"html-keyboard-response","242","428591","0.0-11.0-0.73","5cf14e1eb4397d0001f94e20","64afc2c9a8732ea92db0087d","64aff80e8313b9d00148948c","null","null","<p style=""font-size: 60px; font-family: BACS"">rGUAYAld</p>","","","","","","","",""
"html-keyboard-response","243","429593","0.0-11.0-0.74","5cf14e1eb4397d0001f94e20","64afc2c9a8732ea92db0087d","64aff80e8313b9d00148948c","null","null","<p style=""font-size: 60px; font-family: BACS"">BEPOmCd</p>","","","","","","","",""
"html-keyboard-response","244","430596","0.0-11.0-0.75","5cf14e1eb4397d0001f94e20","64afc2c9a8732ea92db0087d","64aff80e8313b9d00148948c","null","null","<p style=""font-size: 60px; font-family: BACS"">lrZGuOAO</p>","","","","","","","",""
"html-keyboard-response","245","431612","0.0-11.0-0.76","5cf14e1eb4397d0001f94e20","64afc2c9a8732ea92db0087d","64aff80e8313b9d00148948c","null","null","<p style=""font-size: 60px; font-family: BACS"">bYuQAld</p>","","","","","","","",""
"html-keyboard-response","246","432614","0.0-11.0-0.77","5cf14e1eb4397d0001f94e20","64afc2c9a8732ea92db0087d","64aff80e8313b9d00148948c","null","null","<p style=""font-size: 60px; font-family: BACS"">BATOcDmh</p>","","","","","","","",""
"html-keyboard-response","247","433616","0.0-11.0-0.78","5cf14e1eb4397d0001f94e20","64afc2c9a8732ea92db0087d","64aff80e8313b9d00148948c","null","null","<p style=""font-size: 60px; font-family: BACS"">uAkrlLG</p>","","","","","","","",""
"html-keyboard-response","248","434632","0.0-11.0-0.79","5cf14e1eb4397d0001f94e20","64afc2c9a8732ea92db0087d","64aff80e8313b9d00148948c","null","null","<p style=""font-size: 60px; font-family: BACS"">lrZGvcb</p>","","","","","","","",""
"html-keyboard-response","249","441838","0.0-12.0","5cf14e1eb4397d0001f94e20","64afc2c9a8732ea92db0087d","64aff80e8313b9d00148948c","7205"," ","<p>Ottimo, hai visto il terzo blocco di parole. Ora puoi prenderti una piccola pausa.</p>
      <p>Premi la barra quando sei pronta/o per riprendere.</p>","","","","","","","",""
"html-keyboard-response","250","442845","0.0-13.0-0.0","5cf14e1eb4397d0001f94e20","64afc2c9a8732ea92db0087d","64aff80e8313b9d00148948c","null","null","<p style=""font-size: 60px; font-family: BACS"">lrZGuOAO</p>","","","","","","","",""
"html-keyboard-response","251","443847","0.0-13.0-0.1","5cf14e1eb4397d0001f94e20","64afc2c9a8732ea92db0087d","64aff80e8313b9d00148948c","null","null","<p style=""font-size: 60px; font-family: BACS"">MhKdYBO</p>","","","","","","","",""
"html-keyboard-response","252","444864","0.0-13.0-0.2","5cf14e1eb4397d0001f94e20","64afc2c9a8732ea92db0087d","64aff80e8313b9d00148948c","null","null","<p style=""font-size: 60px; font-family: BACS"">UvOGkJdr</p>","","","","","","","",""
"html-keyboard-response","253","445866","0.0-13.0-0.3","5cf14e1eb4397d0001f94e20","64afc2c9a8732ea92db0087d","64aff80e8313b9d00148948c","null","null","<p style=""font-size: 60px; font-family: BACS"">adYrcuOAO</p>","","","","","","","",""
"html-keyboard-response","254","446882","0.0-13.0-0.4","5cf14e1eb4397d0001f94e20","64afc2c9a8732ea92db0087d","64aff80e8313b9d00148948c","null","null","<p style=""font-size: 60px; font-family: BACS"">UvOGvcb</p>","","","","","","","",""
"html-keyboard-response","255","447904","0.0-13.0-0.5","5cf14e1eb4397d0001f94e20","64afc2c9a8732ea92db0087d","64aff80e8313b9d00148948c","null","null","<p style=""font-size: 60px; font-family: BACS"">OEPkYBO</p>","","","","","","","",""
"html-keyboard-response","256","448919","0.0-13.0-0.6","5cf14e1eb4397d0001f94e20","64afc2c9a8732ea92db0087d","64aff80e8313b9d00148948c","null","null","<p style=""font-size: 60px; font-family: BACS"">hkRKmCd</p>","","","","","","","",""
"html-keyboard-response","257","449936","0.0-13.0-0.7","5cf14e1eb4397d0001f94e20","64afc2c9a8732ea92db0087d","64aff80e8313b9d00148948c","null","null","<p style=""font-size: 60px; font-family: BACS"">UYZlZkJdr</p>","","","","","","","",""
"html-keyboard-response","258","450939","0.0-13.0-0.8","5cf14e1eb4397d0001f94e20","64afc2c9a8732ea92db0087d","64aff80e8313b9d00148948c","null","null","<p style=""font-size: 60px; font-family: BACS"">aNYmbAld</p>","","","","","","","",""
"html-keyboard-response","259","451941","0.0-13.0-0.9","5cf14e1eb4397d0001f94e20","64afc2c9a8732ea92db0087d","64aff80e8313b9d00148948c","null","null","<p style=""font-size: 60px; font-family: BACS"">TbKMEDmh</p>","","","","","","","",""
"html-keyboard-response","260","452943","0.0-13.0-0.10","5cf14e1eb4397d0001f94e20","64afc2c9a8732ea92db0087d","64aff80e8313b9d00148948c","null","null","<p style=""font-size: 60px; font-family: BACS"">uAkrvcb</p>","","","","","","","",""
"html-keyboard-response","261","453946","0.0-13.0-0.11","5cf14e1eb4397d0001f94e20","64afc2c9a8732ea92db0087d","64aff80e8313b9d00148948c","null","null","<p style=""font-size: 60px; font-family: BACS"">MhKdDmh</p>","","","","","","","",""
"html-keyboard-response","262","454951","0.0-13.0-0.12","5cf14e1eb4397d0001f94e20","64afc2c9a8732ea92db0087d","64aff80e8313b9d00148948c","null","null","<p style=""font-size: 60px; font-family: BACS"">YObACMdP</p>","","","","","","","",""
"html-keyboard-response","263","455967","0.0-13.0-0.13","5cf14e1eb4397d0001f94e20","64afc2c9a8732ea92db0087d","64aff80e8313b9d00148948c","null","null","<p style=""font-size: 60px; font-family: BACS"">TbKMEmCd</p>","","","","","","","",""
"html-keyboard-response","264","456983","0.0-13.0-0.14","5cf14e1eb4397d0001f94e20","64afc2c9a8732ea92db0087d","64aff80e8313b9d00148948c","null","null","<p style=""font-size: 60px; font-family: BACS"">UvOGuOAO</p>","","","","","","","",""
"html-keyboard-response","265","457998","0.0-13.0-0.15","5cf14e1eb4397d0001f94e20","64afc2c9a8732ea92db0087d","64aff80e8313b9d00148948c","null","null","<p style=""font-size: 60px; font-family: BACS"">bYuQAld</p>","","","","","","","",""
"html-keyboard-response","266","459020","0.0-13.0-0.16","5cf14e1eb4397d0001f94e20","64afc2c9a8732ea92db0087d","64aff80e8313b9d00148948c","null","null","<p style=""font-size: 60px; font-family: BACS"">DCmhCMdP</p>","","","","","","","",""
"html-keyboard-response","267","460035","0.0-13.0-0.17","5cf14e1eb4397d0001f94e20","64afc2c9a8732ea92db0087d","64aff80e8313b9d00148948c","null","null","<p style=""font-size: 60px; font-family: BACS"">UYZlZvcb</p>","","","","","","","",""
"html-keyboard-response","268","461051","0.0-13.0-0.18","5cf14e1eb4397d0001f94e20","64afc2c9a8732ea92db0087d","64aff80e8313b9d00148948c","null","null","<p style=""font-size: 60px; font-family: BACS"">DCmhTbk</p>","","","","","","","",""
"html-keyboard-response","269","462067","0.0-13.0-0.19","5cf14e1eb4397d0001f94e20","64afc2c9a8732ea92db0087d","64aff80e8313b9d00148948c","null","null","<p style=""font-size: 60px; font-family: BACS"">aNYmbkJdr</p>","","","","","","","",""
"html-keyboard-response","270","463070","0.0-13.0-0.20","5cf14e1eb4397d0001f94e20","64afc2c9a8732ea92db0087d","64aff80e8313b9d00148948c","null","null","<p style=""font-size: 60px; font-family: BACS"">bYuQuOAO</p>","","","","","","","",""
"html-keyboard-response","271","464071","0.0-13.0-0.21","5cf14e1eb4397d0001f94e20","64afc2c9a8732ea92db0087d","64aff80e8313b9d00148948c","null","null","<p style=""font-size: 60px; font-family: BACS"">YObAmCd</p>","","","","","","","",""
"html-keyboard-response","272","465074","0.0-13.0-0.22","5cf14e1eb4397d0001f94e20","64afc2c9a8732ea92db0087d","64aff80e8313b9d00148948c","null","null","<p style=""font-size: 60px; font-family: BACS"">uAkrAld</p>","","","","","","","",""
"html-keyboard-response","273","466076","0.0-13.0-0.23","5cf14e1eb4397d0001f94e20","64afc2c9a8732ea92db0087d","64aff80e8313b9d00148948c","null","null","<p style=""font-size: 60px; font-family: BACS"">hkRKYBO</p>","","","","","","","",""
"html-keyboard-response","274","467079","0.0-13.0-0.24","5cf14e1eb4397d0001f94e20","64afc2c9a8732ea92db0087d","64aff80e8313b9d00148948c","null","null","<p style=""font-size: 60px; font-family: BACS"">DCmhDmh</p>","","","","","","","",""
"html-keyboard-response","275","468081","0.0-13.0-0.25","5cf14e1eb4397d0001f94e20","64afc2c9a8732ea92db0087d","64aff80e8313b9d00148948c","null","null","<p style=""font-size: 60px; font-family: BACS"">uAkrkJdr</p>","","","","","","","",""
"html-keyboard-response","276","469098","0.0-13.0-0.26","5cf14e1eb4397d0001f94e20","64afc2c9a8732ea92db0087d","64aff80e8313b9d00148948c","null","null","<p style=""font-size: 60px; font-family: BACS"">bNdmGAld</p>","","","","","","","",""
"html-keyboard-response","277","470100","0.0-13.0-0.27","5cf14e1eb4397d0001f94e20","64afc2c9a8732ea92db0087d","64aff80e8313b9d00148948c","null","null","<p style=""font-size: 60px; font-family: BACS"">BEPOmCd</p>","","","","","","","",""
"html-keyboard-response","278","471103","0.0-13.0-0.28","5cf14e1eb4397d0001f94e20","64afc2c9a8732ea92db0087d","64aff80e8313b9d00148948c","null","null","<p style=""font-size: 60px; font-family: BACS"">UYZlZuOAO</p>","","","","","","","",""
"html-keyboard-response","279","472118","0.0-13.0-0.29","5cf14e1eb4397d0001f94e20","64afc2c9a8732ea92db0087d","64aff80e8313b9d00148948c","null","null","<p style=""font-size: 60px; font-family: BACS"">thbOMTbk</p>","","","","","","","",""
"html-keyboard-response","280","473120","0.0-13.0-0.30","5cf14e1eb4397d0001f94e20","64afc2c9a8732ea92db0087d","64aff80e8313b9d00148948c","null","null","<p style=""font-size: 60px; font-family: BACS"">ZcGdNuOAO</p>","","","","","","","",""
"html-keyboard-response","281","474124","0.0-13.0-0.31","5cf14e1eb4397d0001f94e20","64afc2c9a8732ea92db0087d","64aff80e8313b9d00148948c","null","null","<p style=""font-size: 60px; font-family: BACS"">BEPODmh</p>","","","","","","","",""
"html-keyboard-response","282","475126","0.0-13.0-0.32","5cf14e1eb4397d0001f94e20","64afc2c9a8732ea92db0087d","64aff80e8313b9d00148948c","null","null","<p style=""font-size: 60px; font-family: BACS"">hTtBbYBO</p>","","","","","","","",""
"html-keyboard-response","283","476148","0.0-13.0-0.33","5cf14e1eb4397d0001f94e20","64afc2c9a8732ea92db0087d","64aff80e8313b9d00148948c","null","null","<p style=""font-size: 60px; font-family: BACS"">adYrckJdr</p>","","","","","","","",""
"html-keyboard-response","284","477149","0.0-13.0-0.34","5cf14e1eb4397d0001f94e20","64afc2c9a8732ea92db0087d","64aff80e8313b9d00148948c","null","null","<p style=""font-size: 60px; font-family: BACS"">ZcGdNvcb</p>","","","","","","","",""
"html-keyboard-response","285","478152","0.0-13.0-0.35","5cf14e1eb4397d0001f94e20","64afc2c9a8732ea92db0087d","64aff80e8313b9d00148948c","null","null","<p style=""font-size: 60px; font-family: BACS"">aNYmblLG</p>","","","","","","","",""
"html-keyboard-response","286","479169","0.0-13.0-0.36","5cf14e1eb4397d0001f94e20","64afc2c9a8732ea92db0087d","64aff80e8313b9d00148948c","null","null","<p style=""font-size: 60px; font-family: BACS"">thbOMCMdP</p>","","","","","","","",""
"html-keyboard-response","287","480170","0.0-13.0-0.37","5cf14e1eb4397d0001f94e20","64afc2c9a8732ea92db0087d","64aff80e8313b9d00148948c","null","null","<p style=""font-size: 60px; font-family: BACS"">YObADmh</p>","","","","","","","",""
"html-keyboard-response","288","481172","0.0-13.0-0.38","5cf14e1eb4397d0001f94e20","64afc2c9a8732ea92db0087d","64aff80e8313b9d00148948c","null","null","<p style=""font-size: 60px; font-family: BACS"">UYZlZlLG</p>","","","","","","","",""
"html-keyboard-response","289","482173","0.0-13.0-0.39","5cf14e1eb4397d0001f94e20","64afc2c9a8732ea92db0087d","64aff80e8313b9d00148948c","null","null","<p style=""font-size: 60px; font-family: BACS"">adYrcvcb</p>","","","","","","","",""
"html-keyboard-response","290","483174","0.0-13.0-0.40","5cf14e1eb4397d0001f94e20","64afc2c9a8732ea92db0087d","64aff80e8313b9d00148948c","null","null","<p style=""font-size: 60px; font-family: BACS"">bNdmGkJdr</p>","","","","","","","",""
"html-keyboard-response","291","484190","0.0-13.0-0.41","5cf14e1eb4397d0001f94e20","64afc2c9a8732ea92db0087d","64aff80e8313b9d00148948c","null","null","<p style=""font-size: 60px; font-family: BACS"">thbOMYBO</p>","","","","","","","",""
"html-keyboard-response","292","485206","0.0-13.0-0.42","5cf14e1eb4397d0001f94e20","64afc2c9a8732ea92db0087d","64aff80e8313b9d00148948c","null","null","<p style=""font-size: 60px; font-family: BACS"">hkRKTbk</p>","","","","","","","",""
"html-keyboard-response","293","486223","0.0-13.0-0.43","5cf14e1eb4397d0001f94e20","64afc2c9a8732ea92db0087d","64aff80e8313b9d00148948c","null","null","<p style=""font-size: 60px; font-family: BACS"">hTtBbmCd</p>","","","","","","","",""
"html-keyboard-response","294","487224","0.0-13.0-0.44","5cf14e1eb4397d0001f94e20","64afc2c9a8732ea92db0087d","64aff80e8313b9d00148948c","null","null","<p style=""font-size: 60px; font-family: BACS"">TbKMETbk</p>","","","","","","","",""
"html-keyboard-response","295","488227","0.0-13.0-0.45","5cf14e1eb4397d0001f94e20","64afc2c9a8732ea92db0087d","64aff80e8313b9d00148948c","null","null","<p style=""font-size: 60px; font-family: BACS"">uAkrlLG</p>","","","","","","","",""
"html-keyboard-response","296","489229","0.0-13.0-0.46","5cf14e1eb4397d0001f94e20","64afc2c9a8732ea92db0087d","64aff80e8313b9d00148948c","null","null","<p style=""font-size: 60px; font-family: BACS"">OEPkmCd</p>","","","","","","","",""
"html-keyboard-response","297","490245","0.0-13.0-0.47","5cf14e1eb4397d0001f94e20","64afc2c9a8732ea92db0087d","64aff80e8313b9d00148948c","null","null","<p style=""font-size: 60px; font-family: BACS"">aNYmbvcb</p>","","","","","","","",""
"html-keyboard-response","298","491268","0.0-13.0-0.48","5cf14e1eb4397d0001f94e20","64afc2c9a8732ea92db0087d","64aff80e8313b9d00148948c","null","null","<p style=""font-size: 60px; font-family: BACS"">BEPOTbk</p>","","","","","","","",""
"html-keyboard-response","299","492271","0.0-13.0-0.49","5cf14e1eb4397d0001f94e20","64afc2c9a8732ea92db0087d","64aff80e8313b9d00148948c","null","null","<p style=""font-size: 60px; font-family: BACS"">BATOcmCd</p>","","","","","","","",""
"html-keyboard-response","300","493286","0.0-13.0-0.50","5cf14e1eb4397d0001f94e20","64afc2c9a8732ea92db0087d","64aff80e8313b9d00148948c","null","null","<p style=""font-size: 60px; font-family: BACS"">rGUAYuOAO</p>","","","","","","","",""
"html-keyboard-response","301","494292","0.0-13.0-0.51","5cf14e1eb4397d0001f94e20","64afc2c9a8732ea92db0087d","64aff80e8313b9d00148948c","null","null","<p style=""font-size: 60px; font-family: BACS"">bNdmGlLG</p>","","","","","","","",""
"html-keyboard-response","302","495305","0.0-13.0-0.52","5cf14e1eb4397d0001f94e20","64afc2c9a8732ea92db0087d","64aff80e8313b9d00148948c","null","null","<p style=""font-size: 60px; font-family: BACS"">TbKMECMdP</p>","","","","","","","",""
"html-keyboard-response","303","496312","0.0-13.0-0.53","5cf14e1eb4397d0001f94e20","64afc2c9a8732ea92db0087d","64aff80e8313b9d00148948c","null","null","<p style=""font-size: 60px; font-family: BACS"">lrZGAld</p>","","","","","","","",""
"html-keyboard-response","304","497323","0.0-13.0-0.54","5cf14e1eb4397d0001f94e20","64afc2c9a8732ea92db0087d","64aff80e8313b9d00148948c","null","null","<p style=""font-size: 60px; font-family: BACS"">BEPOYBO</p>","","","","","","","",""
"html-keyboard-response","305","498328","0.0-13.0-0.55","5cf14e1eb4397d0001f94e20","64afc2c9a8732ea92db0087d","64aff80e8313b9d00148948c","null","null","<p style=""font-size: 60px; font-family: BACS"">lrZGkJdr</p>","","","","","","","",""
"html-keyboard-response","306","499340","0.0-13.0-0.56","5cf14e1eb4397d0001f94e20","64afc2c9a8732ea92db0087d","64aff80e8313b9d00148948c","null","null","<p style=""font-size: 60px; font-family: BACS"">hkRKCMdP</p>","","","","","","","",""
"html-keyboard-response","307","500352","0.0-13.0-0.57","5cf14e1eb4397d0001f94e20","64afc2c9a8732ea92db0087d","64aff80e8313b9d00148948c","null","null","<p style=""font-size: 60px; font-family: BACS"">MhKdTbk</p>","","","","","","","",""
"html-keyboard-response","308","501361","0.0-13.0-0.58","5cf14e1eb4397d0001f94e20","64afc2c9a8732ea92db0087d","64aff80e8313b9d00148948c","null","null","<p style=""font-size: 60px; font-family: BACS"">bYuQlLG</p>","","","","","","","",""
"html-keyboard-response","309","502368","0.0-13.0-0.59","5cf14e1eb4397d0001f94e20","64afc2c9a8732ea92db0087d","64aff80e8313b9d00148948c","null","null","<p style=""font-size: 60px; font-family: BACS"">BATOcTbk</p>","","","","","","","",""
"html-keyboard-response","310","503387","0.0-13.0-0.60","5cf14e1eb4397d0001f94e20","64afc2c9a8732ea92db0087d","64aff80e8313b9d00148948c","null","null","<p style=""font-size: 60px; font-family: BACS"">MhKdCMdP</p>","","","","","","","",""
"html-keyboard-response","311","504404","0.0-13.0-0.61","5cf14e1eb4397d0001f94e20","64afc2c9a8732ea92db0087d","64aff80e8313b9d00148948c","null","null","<p style=""font-size: 60px; font-family: BACS"">ZcGdNlLG</p>","","","","","","","",""
"html-keyboard-response","312","505405","0.0-13.0-0.62","5cf14e1eb4397d0001f94e20","64afc2c9a8732ea92db0087d","64aff80e8313b9d00148948c","null","null","<p style=""font-size: 60px; font-family: BACS"">thbOMDmh</p>","","","","","","","",""
"html-keyboard-response","313","506421","0.0-13.0-0.63","5cf14e1eb4397d0001f94e20","64afc2c9a8732ea92db0087d","64aff80e8313b9d00148948c","null","null","<p style=""font-size: 60px; font-family: BACS"">bYuQkJdr</p>","","","","","","","",""
"html-keyboard-response","314","507438","0.0-13.0-0.64","5cf14e1eb4397d0001f94e20","64afc2c9a8732ea92db0087d","64aff80e8313b9d00148948c","null","null","<p style=""font-size: 60px; font-family: BACS"">BATOcDmh</p>","","","","","","","",""
"html-keyboard-response","315","508440","0.0-13.0-0.65","5cf14e1eb4397d0001f94e20","64afc2c9a8732ea92db0087d","64aff80e8313b9d00148948c","null","null","<p style=""font-size: 60px; font-family: BACS"">lrZGvcb</p>","","","","","","","",""
"html-keyboard-response","316","509441","0.0-13.0-0.66","5cf14e1eb4397d0001f94e20","64afc2c9a8732ea92db0087d","64aff80e8313b9d00148948c","null","null","<p style=""font-size: 60px; font-family: BACS"">hTtBbTbk</p>","","","","","","","",""
"html-keyboard-response","317","510443","0.0-13.0-0.67","5cf14e1eb4397d0001f94e20","64afc2c9a8732ea92db0087d","64aff80e8313b9d00148948c","null","null","<p style=""font-size: 60px; font-family: BACS"">rGUAYAld</p>","","","","","","","",""
"html-keyboard-response","318","511459","0.0-13.0-0.68","5cf14e1eb4397d0001f94e20","64afc2c9a8732ea92db0087d","64aff80e8313b9d00148948c","null","null","<p style=""font-size: 60px; font-family: BACS"">hTtBbCMdP</p>","","","","","","","",""
"html-keyboard-response","319","512462","0.0-13.0-0.69","5cf14e1eb4397d0001f94e20","64afc2c9a8732ea92db0087d","64aff80e8313b9d00148948c","null","null","<p style=""font-size: 60px; font-family: BACS"">bNdmGuOAO</p>","","","","","","","",""
"html-keyboard-response","320","513466","0.0-13.0-0.70","5cf14e1eb4397d0001f94e20","64afc2c9a8732ea92db0087d","64aff80e8313b9d00148948c","null","null","<p style=""font-size: 60px; font-family: BACS"">OEPkDmh</p>","","","","","","","",""
"html-keyboard-response","321","514482","0.0-13.0-0.71","5cf14e1eb4397d0001f94e20","64afc2c9a8732ea92db0087d","64aff80e8313b9d00148948c","null","null","<p style=""font-size: 60px; font-family: BACS"">ZcGdNAld</p>","","","","","","","",""
"html-keyboard-response","322","515489","0.0-13.0-0.72","5cf14e1eb4397d0001f94e20","64afc2c9a8732ea92db0087d","64aff80e8313b9d00148948c","null","null","<p style=""font-size: 60px; font-family: BACS"">OEPkCMdP</p>","","","","","","","",""
"html-keyboard-response","323","516494","0.0-13.0-0.73","5cf14e1eb4397d0001f94e20","64afc2c9a8732ea92db0087d","64aff80e8313b9d00148948c","null","null","<p style=""font-size: 60px; font-family: BACS"">YObAYBO</p>","","","","","","","",""
"html-keyboard-response","324","517510","0.0-13.0-0.74","5cf14e1eb4397d0001f94e20","64afc2c9a8732ea92db0087d","64aff80e8313b9d00148948c","null","null","<p style=""font-size: 60px; font-family: BACS"">rGUAYvcb</p>","","","","","","","",""
"html-keyboard-response","325","518527","0.0-13.0-0.75","5cf14e1eb4397d0001f94e20","64afc2c9a8732ea92db0087d","64aff80e8313b9d00148948c","null","null","<p style=""font-size: 60px; font-family: BACS"">adYrcAld</p>","","","","","","","",""
"html-keyboard-response","326","519550","0.0-13.0-0.76","5cf14e1eb4397d0001f94e20","64afc2c9a8732ea92db0087d","64aff80e8313b9d00148948c","null","null","<p style=""font-size: 60px; font-family: BACS"">UvOGlLG</p>","","","","","","","",""
"html-keyboard-response","327","520566","0.0-13.0-0.77","5cf14e1eb4397d0001f94e20","64afc2c9a8732ea92db0087d","64aff80e8313b9d00148948c","null","null","<p style=""font-size: 60px; font-family: BACS"">DCmhmCd</p>","","","","","","","",""
"html-keyboard-response","328","521567","0.0-13.0-0.78","5cf14e1eb4397d0001f94e20","64afc2c9a8732ea92db0087d","64aff80e8313b9d00148948c","null","null","<p style=""font-size: 60px; font-family: BACS"">BATOcYBO</p>","","","","","","","",""
"html-keyboard-response","329","522584","0.0-13.0-0.79","5cf14e1eb4397d0001f94e20","64afc2c9a8732ea92db0087d","64aff80e8313b9d00148948c","null","null","<p style=""font-size: 60px; font-family: BACS"">rGUAYlLG</p>","","","","","","","",""
"html-keyboard-response","330","532737","0.0-14.0","5cf14e1eb4397d0001f94e20","64afc2c9a8732ea92db0087d","64aff80e8313b9d00148948c","10153"," ","<p>Ottimo! Hai visto tutte le parole che abbiamo ricevuto dallo spazio.</p>
      <p>Premi la barra quando sei pronta/o per continuare.</p>","","","","","","","",""
"html-keyboard-response","331","566642","0.0-15.0","5cf14e1eb4397d0001f94e20","64afc2c9a8732ea92db0087d","64aff80e8313b9d00148948c","33904"," ","<p>In questa seconda parte, vedrai delle nuove parole che abbiamo ricevuto dallo stesso gruppo di alieni, e altre che invece provengono da un'altra comunicazione, con un altro gruppo di alieni. Purtroppo le due comunicazioni non arrivano a noi separatamente, per cui le parole sono mescolate tra loro. Il tuo compito sarà quello di individuare le parole che provengono dal gruppo che hai studiato nella prima parte dell'esperimento.</p>
      <p>Questo compito non è per nulla facile; le due comunicazioni infatti usano gli stessi caratteri. Il tuo meeting con i leader mondiali inizia tra poco, per cui non avrai molto tempo per prendere la tua decisione; dovrai essere veloce. Cerca di fare del tuo meglio usando la tua intuizione; non hai tempo di stare a pensare a lungo su ogni singola parola.</p>
      <p>Premi <strong>k</strong> quando pensi che la parola che stai vedendo sia degli stessi alieni che hai studiato prima, e <strong>d</strong> quando invece pensi che la parola che stai vedendo venga dall'altra comunicazione, con il nuovo gruppo di alieni.</p><p>Premi la barra quando sei pronta/o per iniziare.</p>","","","","","","","",""
"html-keyboard-response","332","567291","0.0-16.0-0.0","5cf14e1eb4397d0001f94e20","64afc2c9a8732ea92db0087d","64aff80e8313b9d00148948c","648","k","<p style=""font-size: 30px;"">La parola viene del gruppo di alieni che hai studiato prima?</p><br><p style=""font-size: 60px; font-family: BACS"">YObAvcb<p style=""font-size: 15px"">Premi <strong>k</strong> per sì, <strong>d</strong> per no.</p>","","YObAvcb","testing","d","false","","",""
"html-keyboard-response","333","568663","0.0-16.0-0.1","5cf14e1eb4397d0001f94e20","64afc2c9a8732ea92db0087d","64aff80e8313b9d00148948c","1370","d","<p style=""font-size: 30px;"">La parola viene del gruppo di alieni che hai studiato prima?</p><br><p style=""font-size: 60px; font-family: BACS"">TbKMEkJdr<p style=""font-size: 15px"">Premi <strong>k</strong> per sì, <strong>d</strong> per no.</p>","","TbKMEkJdr","testing","d","true","","",""
"html-keyboard-response","334","570176","0.0-16.0-0.2","5cf14e1eb4397d0001f94e20","64afc2c9a8732ea92db0087d","64aff80e8313b9d00148948c","1512","d","<p style=""font-size: 30px;"">La parola viene del gruppo di alieni che hai studiato prima?</p><br><p style=""font-size: 60px; font-family: BACS"">bNdmGTbk<p style=""font-size: 15px"">Premi <strong>k</strong> per sì, <strong>d</strong> per no.</p>","","bNdmGTbk","testing","d","true","","",""
"html-keyboard-response","335","571498","0.0-16.0-0.3","5cf14e1eb4397d0001f94e20","64afc2c9a8732ea92db0087d","64aff80e8313b9d00148948c","1321","d","<p style=""font-size: 30px"">&emsp;</p><br><p style=""font-size: 60px; font-family: BACS"">aNYmbmCd<p style=""font-size: 15px"">Premi <strong>k</strong> per sì, <strong>d</strong> per no.</p>","","aNYmbmCd","testing","d","true","","",""
"html-keyboard-response","336","572244","0.0-16.0-0.4","5cf14e1eb4397d0001f94e20","64afc2c9a8732ea92db0087d","64aff80e8313b9d00148948c","745","k","<p style=""font-size: 30px"">&emsp;</p><br><p style=""font-size: 60px; font-family: BACS"">bNdmGvcb<p style=""font-size: 15px"">Premi <strong>k</strong> per sì, <strong>d</strong> per no.</p>","","bNdmGvcb","testing","k","true","","",""
"html-keyboard-response","337","573313","0.0-16.0-0.5","5cf14e1eb4397d0001f94e20","64afc2c9a8732ea92db0087d","64aff80e8313b9d00148948c","1068","d","<p style=""font-size: 30px"">&emsp;</p><br><p style=""font-size: 60px; font-family: BACS"">hTtBbDmh<p style=""font-size: 15px"">Premi <strong>k</strong> per sì, <strong>d</strong> per no.</p>","","hTtBbDmh","testing","k","false","","",""
"html-keyboard-response","338","574851","0.0-16.0-0.6","5cf14e1eb4397d0001f94e20","64afc2c9a8732ea92db0087d","64aff80e8313b9d00148948c","1537","k","<p style=""font-size: 30px"">&emsp;</p><br><p style=""font-size: 60px; font-family: BACS"">BEPOlLG<p style=""font-size: 15px"">Premi <strong>k</strong> per sì, <strong>d</strong> per no.</p>","","BEPOlLG","testing","d","false","","",""
"html-keyboard-response","339","576093","0.0-16.0-0.7","5cf14e1eb4397d0001f94e20","64afc2c9a8732ea92db0087d","64aff80e8313b9d00148948c","1242","d","<p style=""font-size: 30px"">&emsp;</p><br><p style=""font-size: 60px; font-family: BACS"">rGUAYkJdr<p style=""font-size: 15px"">Premi <strong>k</strong> per sì, <strong>d</strong> per no.</p>","","rGUAYkJdr","testing","k","false","","",""
"html-keyboard-response","340","576808","0.0-16.0-0.8","5cf14e1eb4397d0001f94e20","64afc2c9a8732ea92db0087d","64aff80e8313b9d00148948c","714","k","<p style=""font-size: 30px"">&emsp;</p><br><p style=""font-size: 60px; font-family: BACS"">UvOGDmh<p style=""font-size: 15px"">Premi <strong>k</strong> per sì, <strong>d</strong> per no.</p>","","UvOGDmh","testing","d","false","","",""
"html-keyboard-response","341","577822","0.0-16.0-0.9","5cf14e1eb4397d0001f94e20","64afc2c9a8732ea92db0087d","64aff80e8313b9d00148948c","1013","k","<p style=""font-size: 30px"">&emsp;</p><br><p style=""font-size: 60px; font-family: BACS"">YObATbk<p style=""font-size: 15px"">Premi <strong>k</strong> per sì, <strong>d</strong> per no.</p>","","YObATbk","testing","k","true","","",""
"html-keyboard-response","342","578997","0.0-16.0-0.10","5cf14e1eb4397d0001f94e20","64afc2c9a8732ea92db0087d","64aff80e8313b9d00148948c","1174","k","<p style=""font-size: 30px"">&emsp;</p><br><p style=""font-size: 60px; font-family: BACS"">ZcGdNYBO<p style=""font-size: 15px"">Premi <strong>k</strong> per sì, <strong>d</strong> per no.</p>","","ZcGdNYBO","testing","d","false","","",""
"html-keyboard-response","343","581303","0.0-16.0-0.11","5cf14e1eb4397d0001f94e20","64afc2c9a8732ea92db0087d","64aff80e8313b9d00148948c","2305","k","<p style=""font-size: 30px"">&emsp;</p><br><p style=""font-size: 60px; font-family: BACS"">adYrcCMdP<p style=""font-size: 15px"">Premi <strong>k</strong> per sì, <strong>d</strong> per no.</p>","","adYrcCMdP","testing","d","false","","",""
"html-keyboard-response","344","584166","0.0-16.0-1.11-0.11","5cf14e1eb4397d0001f94e20","64afc2c9a8732ea92db0087d","64aff80e8313b9d00148948c","2863"," ","<p style=""font-size: 30px; color: red"">Attenzione! Sei stato troppo lento con questa parola.</p>
      <p style=""font-size: 30px; color: red"">Cerca di essere più veloce.</p><p></p><p>Premi la barra per continuare.</p>","","","","","","","",""
"html-keyboard-response","345","585077","0.0-16.0-0.12","5cf14e1eb4397d0001f94e20","64afc2c9a8732ea92db0087d","64aff80e8313b9d00148948c","910","k","<p style=""font-size: 30px"">&emsp;</p><br><p style=""font-size: 60px; font-family: BACS"">MhKduOAO<p style=""font-size: 15px"">Premi <strong>k</strong> per sì, <strong>d</strong> per no.</p>","","MhKduOAO","testing","d","false","","",""
"html-keyboard-response","346","585843","0.0-16.0-0.13","5cf14e1eb4397d0001f94e20","64afc2c9a8732ea92db0087d","64aff80e8313b9d00148948c","765","k","<p style=""font-size: 30px"">&emsp;</p><br><p style=""font-size: 60px; font-family: BACS"">rGUAYYBO<p style=""font-size: 15px"">Premi <strong>k</strong> per sì, <strong>d</strong> per no.</p>","","rGUAYYBO","testing","d","false","","",""
"html-keyboard-response","347","585872","0.0-16.0-0.14","5cf14e1eb4397d0001f94e20","64afc2c9a8732ea92db0087d","64aff80e8313b9d00148948c","28","k","<p style=""font-size: 30px"">&emsp;</p><br><p style=""font-size: 60px; font-family: BACS"">UYZlZDmh<p style=""font-size: 15px"">Premi <strong>k</strong> per sì, <strong>d</strong> per no.</p>","","UYZlZDmh","testing","d","false","","",""
"html-keyboard-response","348","586684","0.0-16.0-0.15","5cf14e1eb4397d0001f94e20","64afc2c9a8732ea92db0087d","64aff80e8313b9d00148948c","812","d","<p style=""font-size: 30px"">&emsp;</p><br><p style=""font-size: 60px; font-family: BACS"">uAkruOAO<p style=""font-size: 15px"">Premi <strong>k</strong> per sì, <strong>d</strong> per no.</p>","","uAkruOAO","testing","k","false","","",""
"html-keyboard-response","349","587400","0.0-16.0-0.16","5cf14e1eb4397d0001f94e20","64afc2c9a8732ea92db0087d","64aff80e8313b9d00148948c","715","k","<p style=""font-size: 30px"">&emsp;</p><br><p style=""font-size: 60px; font-family: BACS"">lrZGlLG<p style=""font-size: 15px"">Premi <strong>k</strong> per sì, <strong>d</strong> per no.</p>","","lrZGlLG","testing","k","true","","",""
"html-keyboard-response","350","588108","0.0-16.0-0.17","5cf14e1eb4397d0001f94e20","64afc2c9a8732ea92db0087d","64aff80e8313b9d00148948c","706","d","<p style=""font-size: 30px"">&emsp;</p><br><p style=""font-size: 60px; font-family: BACS"">thbOMmCd<p style=""font-size: 15px"">Premi <strong>k</strong> per sì, <strong>d</strong> per no.</p>","","thbOMmCd","testing","k","false","","",""
"html-keyboard-response","351","588808","0.0-16.0-0.18","5cf14e1eb4397d0001f94e20","64afc2c9a8732ea92db0087d","64aff80e8313b9d00148948c","699","k","<p style=""font-size: 30px"">&emsp;</p><br><p style=""font-size: 60px; font-family: BACS"">DCmhkJdr<p style=""font-size: 15px"">Premi <strong>k</strong> per sì, <strong>d</strong> per no.</p>","","DCmhkJdr","testing","d","false","","",""
"html-keyboard-response","352","589640","0.0-16.0-0.19","5cf14e1eb4397d0001f94e20","64afc2c9a8732ea92db0087d","64aff80e8313b9d00148948c","831","k","<p style=""font-size: 30px"">&emsp;</p><br><p style=""font-size: 60px; font-family: BACS"">hkRKDmh<p style=""font-size: 15px"">Premi <strong>k</strong> per sì, <strong>d</strong> per no.</p>","","hkRKDmh","testing","k","true","","",""
"html-keyboard-response","353","590268","0.0-16.0-0.20","5cf14e1eb4397d0001f94e20","64afc2c9a8732ea92db0087d","64aff80e8313b9d00148948c","626","d","<p style=""font-size: 30px"">&emsp;</p><br><p style=""font-size: 60px; font-family: BACS"">lrZGCMdP<p style=""font-size: 15px"">Premi <strong>k</strong> per sì, <strong>d</strong> per no.</p>","","lrZGCMdP","testing","d","true","","",""
"html-keyboard-response","354","591038","0.0-16.0-0.21","5cf14e1eb4397d0001f94e20","64afc2c9a8732ea92db0087d","64aff80e8313b9d00148948c","770","d","<p style=""font-size: 30px"">&emsp;</p><br><p style=""font-size: 60px; font-family: BACS"">UvOGAld<p style=""font-size: 15px"">Premi <strong>k</strong> per sì, <strong>d</strong> per no.</p>","","UvOGAld","testing","k","false","","",""
"html-keyboard-response","355","591768","0.0-16.0-0.22","5cf14e1eb4397d0001f94e20","64afc2c9a8732ea92db0087d","64aff80e8313b9d00148948c","728","k","<p style=""font-size: 30px"">&emsp;</p><br><p style=""font-size: 60px; font-family: BACS"">uAkrmCd<p style=""font-size: 15px"">Premi <strong>k</strong> per sì, <strong>d</strong> per no.</p>","","uAkrmCd","testing","d","false","","",""
"html-keyboard-response","356","592380","0.0-16.0-0.23","5cf14e1eb4397d0001f94e20","64afc2c9a8732ea92db0087d","64aff80e8313b9d00148948c","611","k","<p style=""font-size: 30px"">&emsp;</p><br><p style=""font-size: 60px; font-family: BACS"">BATOclLG<p style=""font-size: 15px"">Premi <strong>k</strong> per sì, <strong>d</strong> per no.</p>","","BATOclLG","testing","d","false","","",""
"html-keyboard-response","357","593100","0.0-16.0-0.24","5cf14e1eb4397d0001f94e20","64afc2c9a8732ea92db0087d","64aff80e8313b9d00148948c","720","k","<p style=""font-size: 30px"">&emsp;</p><br><p style=""font-size: 60px; font-family: BACS"">bYuQTbk<p style=""font-size: 15px"">Premi <strong>k</strong> per sì, <strong>d</strong> per no.</p>","","bYuQTbk","testing","d","false","","",""
"html-keyboard-response","358","593761","0.0-16.0-0.25","5cf14e1eb4397d0001f94e20","64afc2c9a8732ea92db0087d","64aff80e8313b9d00148948c","660","k","<p style=""font-size: 30px"">&emsp;</p><br><p style=""font-size: 60px; font-family: BACS"">OEPkvcb<p style=""font-size: 15px"">Premi <strong>k</strong> per sì, <strong>d</strong> per no.</p>","","OEPkvcb","testing","d","false","","",""
"html-keyboard-response","359","594500","0.0-16.0-0.26","5cf14e1eb4397d0001f94e20","64afc2c9a8732ea92db0087d","64aff80e8313b9d00148948c","738","k","<p style=""font-size: 30px"">&emsp;</p><br><p style=""font-size: 60px; font-family: BACS"">ZcGdNkJdr<p style=""font-size: 15px"">Premi <strong>k</strong> per sì, <strong>d</strong> per no.</p>","","ZcGdNkJdr","testing","k","true","","",""
"html-keyboard-response","360","595155","0.0-16.0-0.27","5cf14e1eb4397d0001f94e20","64afc2c9a8732ea92db0087d","64aff80e8313b9d00148948c","654","k","<p style=""font-size: 30px"">&emsp;</p><br><p style=""font-size: 60px; font-family: BACS"">DCmhYBO<p style=""font-size: 15px"">Premi <strong>k</strong> per sì, <strong>d</strong> per no.</p>","","DCmhYBO","testing","k","true","","",""
"html-keyboard-response","361","595800","0.0-16.0-0.28","5cf14e1eb4397d0001f94e20","64afc2c9a8732ea92db0087d","64aff80e8313b9d00148948c","644","k","<p style=""font-size: 30px"">&emsp;</p><br><p style=""font-size: 60px; font-family: BACS"">BEPOCMdP<p style=""font-size: 15px"">Premi <strong>k</strong> per sì, <strong>d</strong> per no.</p>","","BEPOCMdP","testing","k","true","","",""
"html-keyboard-response","362","596572","0.0-16.0-0.29","5cf14e1eb4397d0001f94e20","64afc2c9a8732ea92db0087d","64aff80e8313b9d00148948c","770","k","<p style=""font-size: 30px"">&emsp;</p><br><p style=""font-size: 60px; font-family: BACS"">OEPkTbk<p style=""font-size: 15px"">Premi <strong>k</strong> per sì, <strong>d</strong> per no.</p>","","OEPkTbk","testing","k","true","","",""
"html-keyboard-response","363","597483","0.0-16.0-0.30","5cf14e1eb4397d0001f94e20","64afc2c9a8732ea92db0087d","64aff80e8313b9d00148948c","910","k","<p style=""font-size: 30px"">&emsp;</p><br><p style=""font-size: 60px; font-family: BACS"">hTtBbAld<p style=""font-size: 15px"">Premi <strong>k</strong> per sì, <strong>d</strong> per no.</p>","","hTtBbAld","testing","d","false","","",""
"html-keyboard-response","364","598286","0.0-16.0-0.31","5cf14e1eb4397d0001f94e20","64afc2c9a8732ea92db0087d","64aff80e8313b9d00148948c","802","d","<p style=""font-size: 30px"">&emsp;</p><br><p style=""font-size: 60px; font-family: BACS"">aNYmbuOAO<p style=""font-size: 15px"">Premi <strong>k</strong> per sì, <strong>d</strong> per no.</p>","","aNYmbuOAO","testing","k","false","","",""
"html-keyboard-response","365","599015","0.0-16.0-0.32","5cf14e1eb4397d0001f94e20","64afc2c9a8732ea92db0087d","64aff80e8313b9d00148948c","729","k","<p style=""font-size: 30px"">&emsp;</p><br><p style=""font-size: 60px; font-family: BACS"">BATOcCMdP<p style=""font-size: 15px"">Premi <strong>k</strong> per sì, <strong>d</strong> per no.</p>","","BATOcCMdP","testing","k","true","","",""
"html-keyboard-response","366","599579","0.0-16.0-0.33","5cf14e1eb4397d0001f94e20","64afc2c9a8732ea92db0087d","64aff80e8313b9d00148948c","562","d","<p style=""font-size: 30px"">&emsp;</p><br><p style=""font-size: 60px; font-family: BACS"">bYuQvcb<p style=""font-size: 15px"">Premi <strong>k</strong> per sì, <strong>d</strong> per no.</p>","","bYuQvcb","testing","k","false","","",""
"html-keyboard-response","367","600141","0.0-16.0-0.34","5cf14e1eb4397d0001f94e20","64afc2c9a8732ea92db0087d","64aff80e8313b9d00148948c","561","d","<p style=""font-size: 30px"">&emsp;</p><br><p style=""font-size: 60px; font-family: BACS"">adYrclLG<p style=""font-size: 15px"">Premi <strong>k</strong> per sì, <strong>d</strong> per no.</p>","","adYrclLG","testing","k","false","","",""
"html-keyboard-response","368","600826","0.0-16.0-0.35","5cf14e1eb4397d0001f94e20","64afc2c9a8732ea92db0087d","64aff80e8313b9d00148948c","684","d","<p style=""font-size: 30px"">&emsp;</p><br><p style=""font-size: 60px; font-family: BACS"">hkRKAld<p style=""font-size: 15px"">Premi <strong>k</strong> per sì, <strong>d</strong> per no.</p>","","hkRKAld","testing","d","true","","",""
"html-keyboard-response","369","601539","0.0-16.0-0.36","5cf14e1eb4397d0001f94e20","64afc2c9a8732ea92db0087d","64aff80e8313b9d00148948c","713","k","<p style=""font-size: 30px"">&emsp;</p><br><p style=""font-size: 60px; font-family: BACS"">TbKMEYBO<p style=""font-size: 15px"">Premi <strong>k</strong> per sì, <strong>d</strong> per no.</p>","","TbKMEYBO","testing","k","true","","",""
"html-keyboard-response","370","602080","0.0-16.0-0.37","5cf14e1eb4397d0001f94e20","64afc2c9a8732ea92db0087d","64aff80e8313b9d00148948c","540","d","<p style=""font-size: 30px"">&emsp;</p><br><p style=""font-size: 60px; font-family: BACS"">UYZlZAld<p style=""font-size: 15px"">Premi <strong>k</strong> per sì, <strong>d</strong> per no.</p>","","UYZlZAld","testing","k","false","","",""
"html-keyboard-response","371","602774","0.0-16.0-0.38","5cf14e1eb4397d0001f94e20","64afc2c9a8732ea92db0087d","64aff80e8313b9d00148948c","694","d","<p style=""font-size: 30px"">&emsp;</p><br><p style=""font-size: 60px; font-family: BACS"">MhKdmCd<p style=""font-size: 15px"">Premi <strong>k</strong> per sì, <strong>d</strong> per no.</p>","","MhKdmCd","testing","k","false","","",""
