"trial_type","trial_index","time_elapsed","internal_node_id","subject_id","study_id","session_id","rt","response","stimulus","success","item","task","correct_response","testing_condition","correct","target","confound","name"
"pavlovia","0","1785","0.0-0.0","60f56f0103876eae7c0d870f","650c16f0f2faf8d7a0d14c09","651c1c5023aeb7f8313b287a","","","","","","","","","","","",""
"survey-html-form","1","6469","0.0-1.0","60f56f0103876eae7c0d870f","650c16f0f2faf8d7a0d14c09","651c1c5023aeb7f8313b287a","4680","{""ID"":""60f56f0103876eae7c0d870f""}","","","","","","","","","",""
"html-keyboard-response","2","9985","0.0-2.0","60f56f0103876eae7c0d870f","650c16f0f2faf8d7a0d14c09","651c1c5023aeb7f8313b287a","3510"," ","<p style=""font-size: 15px;"">Before beginning, we ask that you read the consent information and confirm your agreement to participate in the experiment.</p>
      <p style=""font-size: 15px;""> We ask that you remember that this is a research project and that your participation is entirely voluntary. You can stop your participation at any time, without needing to provide any explanation. The study we're asking you to participate in aims at examining how readers process written words. You will be engaged in a session of apprximately 20 minutes, followed by a brief questionnaire. You will have the opportunity to take a few breaks during the experiment. You will be paid £4 for your participation, corresponding to a rate of £8/hour. While this experiment looks at cognitive faculties, this experiment doesn't constitute clinical proof of eventual pathologies.</p>
      <p style=""font-size: 15px;"">All of the information collected thanks to yours and others' participation will be held in a secure password-protected server, and will not be shared with anyone not authorised to view it. Your personal information will be kept with an arbitrary participant ID. Thanks to this data anonymity process, any researcher analysing the data won't be able to track the information back to a specific participant. Therefore, this process will make identifying you impossibile, even when results from the study will be published in scientific reviews, presented at congresses, or at any other public forum. More generally, the collected data will be treated in accordance with the laws on privacy and conformity to the Legislative Degree n. 196 ""Code regarding the protection of personal data"" of the 30th of June 2003 and to the European Regulation 2016/670 (General Data Protection Regulation - GDPR). The Data Protection Officer is Avv. Valentina Carollo, who can be contacted at the following email addresses: <a href=""mailto:dpo@sissa.it"">dpo@sissa.it</a> or <a href=""mailto:rpd@sissa.it"">rpd@sissa.it</a> - PEC: <a href=""mailto:protocollo@pec.sissa.it"">protocollo@pec.sissa.it</a>.</p>
      <p style=""font-size: 15px;""> Before expressing your consent to participate, we would like to remind you again that in case you need explanations on any aspect of the experimental procedure, the researcher is at your disposition (<a href=""mailto:aliebelt@sissa.it"">aliebelt@sissa.it</a>, <a href=""mailto:davide.crepaldi@sissa.it"">davide.crepaldi@sissa.it</a>).</p>
      <p style=""font-size: 15px;"">If you would like to download the informed consent form, you can do so here: <a href=""BASL-Informed_Consent.pdf"" download>informed consent form</a>.</p>
      <p style=""font-size: 15px;"">We ask that you press the spacebar to proceed to the consent section.</p>","","","","","","","","",""
"survey-html-form","3","26527","0.0-3.0","60f56f0103876eae7c0d870f","650c16f0f2faf8d7a0d14c09","651c1c5023aeb7f8313b287a","16540","{""consent1"":""YES"",""consent2"":""YES"",""consent3"":""YES"",""consent4"":""YES"",""consent5"":""YES"",""consent6"":""YES""}","","","","","","","","","",""
"fullscreen","4","30780","0.0-4.0","60f56f0103876eae7c0d870f","650c16f0f2faf8d7a0d14c09","651c1c5023aeb7f8313b287a","","","","true","","","","","","","",""
"html-keyboard-response","5","68338","0.0-5.0","60f56f0103876eae7c0d870f","650c16f0f2faf8d7a0d14c09","651c1c5023aeb7f8313b287a","37555"," ","<p>Welcome, and thank you very much for your time!</p>
      <p>In this experiment, you'll be a language expert who's been asked to take a look at words that Earth has received in its first communication with aliens. Your task, in this first part of the experiment, is to pay close attention to the words you'll be shown; later, world leaders will ask you questions on what you saw. The words will be shown to you quite quickly; it seems that the aliens were in a hurry :-)</p>
      <p>Press the spacebar to continue.<p>","","","","","","","","",""
"html-keyboard-response","6","68390","0.0-6.0","60f56f0103876eae7c0d870f","650c16f0f2faf8d7a0d14c09","651c1c5023aeb7f8313b287a","null","null","<p style=""font-size: 120px; font-family: BACS""> </p>","","","","","","","","",""
"html-keyboard-response","7","85931","0.0-7.0","60f56f0103876eae7c0d870f","650c16f0f2faf8d7a0d14c09","651c1c5023aeb7f8313b287a","17540"," ","<p>Here is an example of the words you'll see:</p>
      <img src='esempio.png' height='400px'>
      <p>When you're ready to begin, press the spacebar.</p></div>","","","","","","","","",""
"html-keyboard-response","8","86944","0.0-8.0-0.0","60f56f0103876eae7c0d870f","650c16f0f2faf8d7a0d14c09","651c1c5023aeb7f8313b287a","null","null","<p style=""font-size: 60px; font-family: BACS"">lBlEmAM</p>","","","","","","","","",""
"html-keyboard-response","9","87947","0.0-8.0-0.1","60f56f0103876eae7c0d870f","650c16f0f2faf8d7a0d14c09","651c1c5023aeb7f8313b287a","null","null","<p style=""font-size: 60px; font-family: BACS"">dRhtTAm</p>","","","","","","","","",""
"html-keyboard-response","10","88954","0.0-8.0-0.2","60f56f0103876eae7c0d870f","650c16f0f2faf8d7a0d14c09","651c1c5023aeb7f8313b287a","null","null","<p style=""font-size: 60px; font-family: BACS"">lRckAmtKP</p>","","","","","","","","",""
"html-keyboard-response","11","89958","0.0-8.0-0.3","60f56f0103876eae7c0d870f","650c16f0f2faf8d7a0d14c09","651c1c5023aeb7f8313b287a","null","null","<p style=""font-size: 60px; font-family: BACS"">AmQOYvJQ</p>","","","","","","","","",""
"html-keyboard-response","12","90978","0.0-8.0-0.4","60f56f0103876eae7c0d870f","650c16f0f2faf8d7a0d14c09","651c1c5023aeb7f8313b287a","null","null","<p style=""font-size: 60px; font-family: BACS"">lRckAbdtK</p>","","","","","","","","",""
"html-keyboard-response","13","91993","0.0-8.0-0.5","60f56f0103876eae7c0d870f","650c16f0f2faf8d7a0d14c09","651c1c5023aeb7f8313b287a","null","null","<p style=""font-size: 60px; font-family: BACS"">bcbMTAm</p>","","","","","","","","",""
"html-keyboard-response","14","93018","0.0-8.0-0.6","60f56f0103876eae7c0d870f","650c16f0f2faf8d7a0d14c09","651c1c5023aeb7f8313b287a","null","null","<p style=""font-size: 60px; font-family: BACS"">YOZNrULv</p>","","","","","","","","",""
"html-keyboard-response","15","94039","0.0-8.0-0.7","60f56f0103876eae7c0d870f","650c16f0f2faf8d7a0d14c09","651c1c5023aeb7f8313b287a","null","null","<p style=""font-size: 60px; font-family: BACS"">hBmMCbdtK</p>","","","","","","","","",""
"html-keyboard-response","16","95044","0.0-8.0-0.8","60f56f0103876eae7c0d870f","650c16f0f2faf8d7a0d14c09","651c1c5023aeb7f8313b287a","null","null","<p style=""font-size: 60px; font-family: BACS"">lRckAmAM</p>","","","","","","","","",""
"html-keyboard-response","17","96054","0.0-8.0-0.9","60f56f0103876eae7c0d870f","650c16f0f2faf8d7a0d14c09","651c1c5023aeb7f8313b287a","null","null","<p style=""font-size: 60px; font-family: BACS"">dRhtbdtK</p>","","","","","","","","",""
"html-keyboard-response","18","97062","0.0-8.0-0.10","60f56f0103876eae7c0d870f","650c16f0f2faf8d7a0d14c09","651c1c5023aeb7f8313b287a","null","null","<p style=""font-size: 60px; font-family: BACS"">ObOQlvJQ</p>","","","","","","","","",""
"html-keyboard-response","19","98077","0.0-8.0-0.11","60f56f0103876eae7c0d870f","650c16f0f2faf8d7a0d14c09","651c1c5023aeb7f8313b287a","null","null","<p style=""font-size: 60px; font-family: BACS"">cuOJbuUmb</p>","","","","","","","","",""
"html-keyboard-response","20","99086","0.0-8.0-0.12","60f56f0103876eae7c0d870f","650c16f0f2faf8d7a0d14c09","651c1c5023aeb7f8313b287a","null","null","<p style=""font-size: 60px; font-family: BACS"">bcbMbdtK</p>","","","","","","","","",""
"html-keyboard-response","21","100106","0.0-8.0-0.13","60f56f0103876eae7c0d870f","650c16f0f2faf8d7a0d14c09","651c1c5023aeb7f8313b287a","null","null","<p style=""font-size: 60px; font-family: BACS"">YOZNuUmb</p>","","","","","","","","",""
"html-keyboard-response","22","101134","0.0-8.0-0.14","60f56f0103876eae7c0d870f","650c16f0f2faf8d7a0d14c09","651c1c5023aeb7f8313b287a","null","null","<p style=""font-size: 60px; font-family: BACS"">lBlEbdtK</p>","","","","","","","","",""
"html-keyboard-response","23","102151","0.0-8.0-0.15","60f56f0103876eae7c0d870f","650c16f0f2faf8d7a0d14c09","651c1c5023aeb7f8313b287a","null","null","<p style=""font-size: 60px; font-family: BACS"">bcbMmtKP</p>","","","","","","","","",""
"html-keyboard-response","24","103173","0.0-8.0-0.16","60f56f0103876eae7c0d870f","650c16f0f2faf8d7a0d14c09","651c1c5023aeb7f8313b287a","null","null","<p style=""font-size: 60px; font-family: BACS"">lBlElRE</p>","","","","","","","","",""
"html-keyboard-response","25","104183","0.0-8.0-0.17","60f56f0103876eae7c0d870f","650c16f0f2faf8d7a0d14c09","651c1c5023aeb7f8313b287a","null","null","<p style=""font-size: 60px; font-family: BACS"">YNrAmGUa</p>","","","","","","","","",""
"html-keyboard-response","26","105187","0.0-8.0-0.18","60f56f0103876eae7c0d870f","650c16f0f2faf8d7a0d14c09","651c1c5023aeb7f8313b287a","null","null","<p style=""font-size: 60px; font-family: BACS"">OkGYAvdk</p>","","","","","","","","",""
"html-keyboard-response","27","106202","0.0-8.0-0.19","60f56f0103876eae7c0d870f","650c16f0f2faf8d7a0d14c09","651c1c5023aeb7f8313b287a","null","null","<p style=""font-size: 60px; font-family: BACS"">GQrcGUa</p>","","","","","","","","",""
"html-keyboard-response","28","107205","0.0-8.0-0.20","60f56f0103876eae7c0d870f","650c16f0f2faf8d7a0d14c09","651c1c5023aeb7f8313b287a","null","null","<p style=""font-size: 60px; font-family: BACS"">cuOJbrULv</p>","","","","","","","","",""
"html-keyboard-response","29","108229","0.0-8.0-0.21","60f56f0103876eae7c0d870f","650c16f0f2faf8d7a0d14c09","651c1c5023aeb7f8313b287a","null","null","<p style=""font-size: 60px; font-family: BACS"">kMbTRlRE</p>","","","","","","","","",""
"html-keyboard-response","30","109234","0.0-8.0-0.22","60f56f0103876eae7c0d870f","650c16f0f2faf8d7a0d14c09","651c1c5023aeb7f8313b287a","null","null","<p style=""font-size: 60px; font-family: BACS"">aOLZUuUmb</p>","","","","","","","","",""
"html-keyboard-response","31","110237","0.0-8.0-0.23","60f56f0103876eae7c0d870f","650c16f0f2faf8d7a0d14c09","651c1c5023aeb7f8313b287a","null","null","<p style=""font-size: 60px; font-family: BACS"">ObOQlAvdk</p>","","","","","","","","",""
"html-keyboard-response","32","111248","0.0-8.0-0.24","60f56f0103876eae7c0d870f","650c16f0f2faf8d7a0d14c09","651c1c5023aeb7f8313b287a","null","null","<p style=""font-size: 60px; font-family: BACS"">MDKPlRE</p>","","","","","","","","",""
"html-keyboard-response","33","112264","0.0-8.0-0.25","60f56f0103876eae7c0d870f","650c16f0f2faf8d7a0d14c09","651c1c5023aeb7f8313b287a","null","null","<p style=""font-size: 60px; font-family: BACS"">ktBdbdtK</p>","","","","","","","","",""
"html-keyboard-response","34","113293","0.0-8.0-0.26","60f56f0103876eae7c0d870f","650c16f0f2faf8d7a0d14c09","651c1c5023aeb7f8313b287a","null","null","<p style=""font-size: 60px; font-family: BACS"">MBKRETAm</p>","","","","","","","","",""
"html-keyboard-response","35","114298","0.0-8.0-0.27","60f56f0103876eae7c0d870f","650c16f0f2faf8d7a0d14c09","651c1c5023aeb7f8313b287a","null","null","<p style=""font-size: 60px; font-family: BACS"">GQrcAvdk</p>","","","","","","","","",""
"html-keyboard-response","36","115301","0.0-8.0-0.28","60f56f0103876eae7c0d870f","650c16f0f2faf8d7a0d14c09","651c1c5023aeb7f8313b287a","null","null","<p style=""font-size: 60px; font-family: BACS"">OLJbluUmb</p>","","","","","","","","",""
"html-keyboard-response","37","116312","0.0-8.0-0.29","60f56f0103876eae7c0d870f","650c16f0f2faf8d7a0d14c09","651c1c5023aeb7f8313b287a","null","null","<p style=""font-size: 60px; font-family: BACS"">AmQOYGUa</p>","","","","","","","","",""
"html-keyboard-response","38","117324","0.0-8.0-0.30","60f56f0103876eae7c0d870f","650c16f0f2faf8d7a0d14c09","651c1c5023aeb7f8313b287a","null","null","<p style=""font-size: 60px; font-family: BACS"">ObOQlrULv</p>","","","","","","","","",""
"html-keyboard-response","39","118345","0.0-8.0-0.31","60f56f0103876eae7c0d870f","650c16f0f2faf8d7a0d14c09","651c1c5023aeb7f8313b287a","null","null","<p style=""font-size: 60px; font-family: BACS"">lRckAlRE</p>","","","","","","","","",""
"html-keyboard-response","40","119359","0.0-8.0-0.32","60f56f0103876eae7c0d870f","650c16f0f2faf8d7a0d14c09","651c1c5023aeb7f8313b287a","null","null","<p style=""font-size: 60px; font-family: BACS"">ktBdmtKP</p>","","","","","","","","",""
"html-keyboard-response","41","120373","0.0-8.0-0.33","60f56f0103876eae7c0d870f","650c16f0f2faf8d7a0d14c09","651c1c5023aeb7f8313b287a","null","null","<p style=""font-size: 60px; font-family: BACS"">YOZNGUa</p>","","","","","","","","",""
"html-keyboard-response","42","121381","0.0-8.0-0.34","60f56f0103876eae7c0d870f","650c16f0f2faf8d7a0d14c09","651c1c5023aeb7f8313b287a","null","null","<p style=""font-size: 60px; font-family: BACS"">bcbMmAM</p>","","","","","","","","",""
"html-keyboard-response","43","122400","0.0-8.0-0.35","60f56f0103876eae7c0d870f","650c16f0f2faf8d7a0d14c09","651c1c5023aeb7f8313b287a","null","null","<p style=""font-size: 60px; font-family: BACS"">RlAKcmtKP</p>","","","","","","","","",""
"html-keyboard-response","44","123416","0.0-8.0-0.36","60f56f0103876eae7c0d870f","650c16f0f2faf8d7a0d14c09","651c1c5023aeb7f8313b287a","null","null","<p style=""font-size: 60px; font-family: BACS"">AmQOYAvdk</p>","","","","","","","","",""
"html-keyboard-response","45","124435","0.0-8.0-0.37","60f56f0103876eae7c0d870f","650c16f0f2faf8d7a0d14c09","651c1c5023aeb7f8313b287a","null","null","<p style=""font-size: 60px; font-family: BACS"">MDKPmAM</p>","","","","","","","","",""
"html-keyboard-response","46","125446","0.0-8.0-0.38","60f56f0103876eae7c0d870f","650c16f0f2faf8d7a0d14c09","651c1c5023aeb7f8313b287a","null","null","<p style=""font-size: 60px; font-family: BACS"">lBlETAm</p>","","","","","","","","",""
"html-keyboard-response","47","126459","0.0-8.0-0.39","60f56f0103876eae7c0d870f","650c16f0f2faf8d7a0d14c09","651c1c5023aeb7f8313b287a","null","null","<p style=""font-size: 60px; font-family: BACS"">LOLkUuUmb</p>","","","","","","","","",""
"html-keyboard-response","48","127467","0.0-8.0-0.40","60f56f0103876eae7c0d870f","650c16f0f2faf8d7a0d14c09","651c1c5023aeb7f8313b287a","null","null","<p style=""font-size: 60px; font-family: BACS"">aOLZUAvdk</p>","","","","","","","","",""
"html-keyboard-response","49","128483","0.0-8.0-0.41","60f56f0103876eae7c0d870f","650c16f0f2faf8d7a0d14c09","651c1c5023aeb7f8313b287a","null","null","<p style=""font-size: 60px; font-family: BACS"">YNrAmvJQ</p>","","","","","","","","",""
"html-keyboard-response","50","129496","0.0-8.0-0.42","60f56f0103876eae7c0d870f","650c16f0f2faf8d7a0d14c09","651c1c5023aeb7f8313b287a","null","null","<p style=""font-size: 60px; font-family: BACS"">aOLZUrULv</p>","","","","","","","","",""
"html-keyboard-response","51","130511","0.0-8.0-0.43","60f56f0103876eae7c0d870f","650c16f0f2faf8d7a0d14c09","651c1c5023aeb7f8313b287a","null","null","<p style=""font-size: 60px; font-family: BACS"">OLJblvJQ</p>","","","","","","","","",""
"html-keyboard-response","52","131515","0.0-8.0-0.44","60f56f0103876eae7c0d870f","650c16f0f2faf8d7a0d14c09","651c1c5023aeb7f8313b287a","null","null","<p style=""font-size: 60px; font-family: BACS"">aOLZUGUa</p>","","","","","","","","",""
"html-keyboard-response","53","132529","0.0-8.0-0.45","60f56f0103876eae7c0d870f","650c16f0f2faf8d7a0d14c09","651c1c5023aeb7f8313b287a","null","null","<p style=""font-size: 60px; font-family: BACS"">GQrcvJQ</p>","","","","","","","","",""
"html-keyboard-response","54","133531","0.0-8.0-0.46","60f56f0103876eae7c0d870f","650c16f0f2faf8d7a0d14c09","651c1c5023aeb7f8313b287a","null","null","<p style=""font-size: 60px; font-family: BACS"">ktBdmAM</p>","","","","","","","","",""
"html-keyboard-response","55","134536","0.0-8.0-0.47","60f56f0103876eae7c0d870f","650c16f0f2faf8d7a0d14c09","651c1c5023aeb7f8313b287a","null","null","<p style=""font-size: 60px; font-family: BACS"">dRhtlRE</p>","","","","","","","","",""
"html-keyboard-response","56","135550","0.0-8.0-0.48","60f56f0103876eae7c0d870f","650c16f0f2faf8d7a0d14c09","651c1c5023aeb7f8313b287a","null","null","<p style=""font-size: 60px; font-family: BACS"">RlAKcbdtK</p>","","","","","","","","",""
"html-keyboard-response","57","136563","0.0-8.0-0.49","60f56f0103876eae7c0d870f","650c16f0f2faf8d7a0d14c09","651c1c5023aeb7f8313b287a","null","null","<p style=""font-size: 60px; font-family: BACS"">kMbTRmAM</p>","","","","","","","","",""
"html-keyboard-response","58","137573","0.0-8.0-0.50","60f56f0103876eae7c0d870f","650c16f0f2faf8d7a0d14c09","651c1c5023aeb7f8313b287a","null","null","<p style=""font-size: 60px; font-family: BACS"">MDKPbdtK</p>","","","","","","","","",""
"html-keyboard-response","59","138578","0.0-8.0-0.51","60f56f0103876eae7c0d870f","650c16f0f2faf8d7a0d14c09","651c1c5023aeb7f8313b287a","null","null","<p style=""font-size: 60px; font-family: BACS"">LOLkUvJQ</p>","","","","","","","","",""
"html-keyboard-response","60","139587","0.0-8.0-0.52","60f56f0103876eae7c0d870f","650c16f0f2faf8d7a0d14c09","651c1c5023aeb7f8313b287a","null","null","<p style=""font-size: 60px; font-family: BACS"">ktBdlRE</p>","","","","","","","","",""
"html-keyboard-response","61","140608","0.0-8.0-0.53","60f56f0103876eae7c0d870f","650c16f0f2faf8d7a0d14c09","651c1c5023aeb7f8313b287a","null","null","<p style=""font-size: 60px; font-family: BACS"">YOZNAvdk</p>","","","","","","","","",""
"html-keyboard-response","62","141627","0.0-8.0-0.54","60f56f0103876eae7c0d870f","650c16f0f2faf8d7a0d14c09","651c1c5023aeb7f8313b287a","null","null","<p style=""font-size: 60px; font-family: BACS"">kMbTRTAm</p>","","","","","","","","",""
"html-keyboard-response","63","142631","0.0-8.0-0.55","60f56f0103876eae7c0d870f","650c16f0f2faf8d7a0d14c09","651c1c5023aeb7f8313b287a","null","null","<p style=""font-size: 60px; font-family: BACS"">AmQOYrULv</p>","","","","","","","","",""
"html-keyboard-response","64","143634","0.0-8.0-0.56","60f56f0103876eae7c0d870f","650c16f0f2faf8d7a0d14c09","651c1c5023aeb7f8313b287a","null","null","<p style=""font-size: 60px; font-family: BACS"">ObOQlGUa</p>","","","","","","","","",""
"html-keyboard-response","65","144639","0.0-8.0-0.57","60f56f0103876eae7c0d870f","650c16f0f2faf8d7a0d14c09","651c1c5023aeb7f8313b287a","null","null","<p style=""font-size: 60px; font-family: BACS"">LOLkUAvdk</p>","","","","","","","","",""
"html-keyboard-response","66","145654","0.0-8.0-0.58","60f56f0103876eae7c0d870f","650c16f0f2faf8d7a0d14c09","651c1c5023aeb7f8313b287a","null","null","<p style=""font-size: 60px; font-family: BACS"">hBmMClRE</p>","","","","","","","","",""
"html-keyboard-response","67","146666","0.0-8.0-0.59","60f56f0103876eae7c0d870f","650c16f0f2faf8d7a0d14c09","651c1c5023aeb7f8313b287a","null","null","<p style=""font-size: 60px; font-family: BACS"">OkGYrULv</p>","","","","","","","","",""
"html-keyboard-response","68","147685","0.0-8.0-0.60","60f56f0103876eae7c0d870f","650c16f0f2faf8d7a0d14c09","651c1c5023aeb7f8313b287a","null","null","<p style=""font-size: 60px; font-family: BACS"">MBKRElRE</p>","","","","","","","","",""
"html-keyboard-response","69","148701","0.0-8.0-0.61","60f56f0103876eae7c0d870f","650c16f0f2faf8d7a0d14c09","651c1c5023aeb7f8313b287a","null","null","<p style=""font-size: 60px; font-family: BACS"">cuOJbvJQ</p>","","","","","","","","",""
"html-keyboard-response","70","149704","0.0-8.0-0.62","60f56f0103876eae7c0d870f","650c16f0f2faf8d7a0d14c09","651c1c5023aeb7f8313b287a","null","null","<p style=""font-size: 60px; font-family: BACS"">OLJblGUa</p>","","","","","","","","",""
"html-keyboard-response","71","150714","0.0-8.0-0.63","60f56f0103876eae7c0d870f","650c16f0f2faf8d7a0d14c09","651c1c5023aeb7f8313b287a","null","null","<p style=""font-size: 60px; font-family: BACS"">GQrcuUmb</p>","","","","","","","","",""
"html-keyboard-response","72","151729","0.0-8.0-0.64","60f56f0103876eae7c0d870f","650c16f0f2faf8d7a0d14c09","651c1c5023aeb7f8313b287a","null","null","<p style=""font-size: 60px; font-family: BACS"">OkGYvJQ</p>","","","","","","","","",""
"html-keyboard-response","73","152746","0.0-8.0-0.65","60f56f0103876eae7c0d870f","650c16f0f2faf8d7a0d14c09","651c1c5023aeb7f8313b287a","null","null","<p style=""font-size: 60px; font-family: BACS"">RlAKcTAm</p>","","","","","","","","",""
"html-keyboard-response","74","153755","0.0-8.0-0.66","60f56f0103876eae7c0d870f","650c16f0f2faf8d7a0d14c09","651c1c5023aeb7f8313b287a","null","null","<p style=""font-size: 60px; font-family: BACS"">hBmMCmtKP</p>","","","","","","","","",""
"html-keyboard-response","75","154764","0.0-8.0-0.67","60f56f0103876eae7c0d870f","650c16f0f2faf8d7a0d14c09","651c1c5023aeb7f8313b287a","null","null","<p style=""font-size: 60px; font-family: BACS"">LOLkUGUa</p>","","","","","","","","",""
"html-keyboard-response","76","155770","0.0-8.0-0.68","60f56f0103876eae7c0d870f","650c16f0f2faf8d7a0d14c09","651c1c5023aeb7f8313b287a","null","null","<p style=""font-size: 60px; font-family: BACS"">OkGYuUmb</p>","","","","","","","","",""
"html-keyboard-response","77","156787","0.0-8.0-0.69","60f56f0103876eae7c0d870f","650c16f0f2faf8d7a0d14c09","651c1c5023aeb7f8313b287a","null","null","<p style=""font-size: 60px; font-family: BACS"">YNrAmrULv</p>","","","","","","","","",""
"html-keyboard-response","78","157797","0.0-8.0-0.70","60f56f0103876eae7c0d870f","650c16f0f2faf8d7a0d14c09","651c1c5023aeb7f8313b287a","null","null","<p style=""font-size: 60px; font-family: BACS"">hBmMCTAm</p>","","","","","","","","",""
"html-keyboard-response","79","158806","0.0-8.0-0.71","60f56f0103876eae7c0d870f","650c16f0f2faf8d7a0d14c09","651c1c5023aeb7f8313b287a","null","null","<p style=""font-size: 60px; font-family: BACS"">OLJblrULv</p>","","","","","","","","",""
"html-keyboard-response","80","159819","0.0-8.0-0.72","60f56f0103876eae7c0d870f","650c16f0f2faf8d7a0d14c09","651c1c5023aeb7f8313b287a","null","null","<p style=""font-size: 60px; font-family: BACS"">cuOJbAvdk</p>","","","","","","","","",""
"html-keyboard-response","81","160823","0.0-8.0-0.73","60f56f0103876eae7c0d870f","650c16f0f2faf8d7a0d14c09","651c1c5023aeb7f8313b287a","null","null","<p style=""font-size: 60px; font-family: BACS"">MBKREmtKP</p>","","","","","","","","",""
"html-keyboard-response","82","161833","0.0-8.0-0.74","60f56f0103876eae7c0d870f","650c16f0f2faf8d7a0d14c09","651c1c5023aeb7f8313b287a","null","null","<p style=""font-size: 60px; font-family: BACS"">RlAKcmAM</p>","","","","","","","","",""
"html-keyboard-response","83","162846","0.0-8.0-0.75","60f56f0103876eae7c0d870f","650c16f0f2faf8d7a0d14c09","651c1c5023aeb7f8313b287a","null","null","<p style=""font-size: 60px; font-family: BACS"">dRhtmtKP</p>","","","","","","","","",""
"html-keyboard-response","84","163858","0.0-8.0-0.76","60f56f0103876eae7c0d870f","650c16f0f2faf8d7a0d14c09","651c1c5023aeb7f8313b287a","null","null","<p style=""font-size: 60px; font-family: BACS"">MDKPTAm</p>","","","","","","","","",""
"html-keyboard-response","85","164879","0.0-8.0-0.77","60f56f0103876eae7c0d870f","650c16f0f2faf8d7a0d14c09","651c1c5023aeb7f8313b287a","null","null","<p style=""font-size: 60px; font-family: BACS"">YNrAmuUmb</p>","","","","","","","","",""
"html-keyboard-response","86","165891","0.0-8.0-0.78","60f56f0103876eae7c0d870f","650c16f0f2faf8d7a0d14c09","651c1c5023aeb7f8313b287a","null","null","<p style=""font-size: 60px; font-family: BACS"">MBKREmAM</p>","","","","","","","","",""
"html-keyboard-response","87","166904","0.0-8.0-0.79","60f56f0103876eae7c0d870f","650c16f0f2faf8d7a0d14c09","651c1c5023aeb7f8313b287a","null","null","<p style=""font-size: 60px; font-family: BACS"">kMbTRmtKP</p>","","","","","","","","",""
"html-keyboard-response","88","568142","0.0-9.0","60f56f0103876eae7c0d870f","650c16f0f2faf8d7a0d14c09","651c1c5023aeb7f8313b287a","401235"," ","<p>Great, you've seen the first block of words. You may now take a short break.</p>
      <p>Press the spacebar when you're ready to continue.</p>","","","","","","","","",""
"html-keyboard-response","89","569147","0.0-10.0-0.0","60f56f0103876eae7c0d870f","650c16f0f2faf8d7a0d14c09","651c1c5023aeb7f8313b287a","null","null","<p style=""font-size: 60px; font-family: BACS"">LOLkUGUa</p>","","","","","","","","",""
"html-keyboard-response","90","570153","0.0-10.0-0.1","60f56f0103876eae7c0d870f","650c16f0f2faf8d7a0d14c09","651c1c5023aeb7f8313b287a","null","null","<p style=""font-size: 60px; font-family: BACS"">YNrAmvJQ</p>","","","","","","","","",""
"html-keyboard-response","91","571163","0.0-10.0-0.2","60f56f0103876eae7c0d870f","650c16f0f2faf8d7a0d14c09","651c1c5023aeb7f8313b287a","null","null","<p style=""font-size: 60px; font-family: BACS"">kMbTRmtKP</p>","","","","","","","","",""
"html-keyboard-response","92","572173","0.0-10.0-0.3","60f56f0103876eae7c0d870f","650c16f0f2faf8d7a0d14c09","651c1c5023aeb7f8313b287a","null","null","<p style=""font-size: 60px; font-family: BACS"">MBKREmAM</p>","","","","","","","","",""
"html-keyboard-response","93","573176","0.0-10.0-0.4","60f56f0103876eae7c0d870f","650c16f0f2faf8d7a0d14c09","651c1c5023aeb7f8313b287a","null","null","<p style=""font-size: 60px; font-family: BACS"">aOLZUAvdk</p>","","","","","","","","",""
"html-keyboard-response","94","574192","0.0-10.0-0.5","60f56f0103876eae7c0d870f","650c16f0f2faf8d7a0d14c09","651c1c5023aeb7f8313b287a","null","null","<p style=""font-size: 60px; font-family: BACS"">RlAKcmAM</p>","","","","","","","","",""
"html-keyboard-response","95","575208","0.0-10.0-0.6","60f56f0103876eae7c0d870f","650c16f0f2faf8d7a0d14c09","651c1c5023aeb7f8313b287a","null","null","<p style=""font-size: 60px; font-family: BACS"">lRckAbdtK</p>","","","","","","","","",""
"html-keyboard-response","96","576216","0.0-10.0-0.7","60f56f0103876eae7c0d870f","650c16f0f2faf8d7a0d14c09","651c1c5023aeb7f8313b287a","null","null","<p style=""font-size: 60px; font-family: BACS"">MBKREmtKP</p>","","","","","","","","",""
"html-keyboard-response","97","577225","0.0-10.0-0.8","60f56f0103876eae7c0d870f","650c16f0f2faf8d7a0d14c09","651c1c5023aeb7f8313b287a","null","null","<p style=""font-size: 60px; font-family: BACS"">RlAKcbdtK</p>","","","","","","","","",""
"html-keyboard-response","98","578239","0.0-10.0-0.9","60f56f0103876eae7c0d870f","650c16f0f2faf8d7a0d14c09","651c1c5023aeb7f8313b287a","null","null","<p style=""font-size: 60px; font-family: BACS"">ktBdlRE</p>","","","","","","","","",""
"html-keyboard-response","99","579254","0.0-10.0-0.10","60f56f0103876eae7c0d870f","650c16f0f2faf8d7a0d14c09","651c1c5023aeb7f8313b287a","null","null","<p style=""font-size: 60px; font-family: BACS"">cuOJbvJQ</p>","","","","","","","","",""
"html-keyboard-response","100","580270","0.0-10.0-0.11","60f56f0103876eae7c0d870f","650c16f0f2faf8d7a0d14c09","651c1c5023aeb7f8313b287a","null","null","<p style=""font-size: 60px; font-family: BACS"">OkGYuUmb</p>","","","","","","","","",""
"html-keyboard-response","101","581287","0.0-10.0-0.12","60f56f0103876eae7c0d870f","650c16f0f2faf8d7a0d14c09","651c1c5023aeb7f8313b287a","null","null","<p style=""font-size: 60px; font-family: BACS"">cuOJbrULv</p>","","","","","","","","",""
"html-keyboard-response","102","582298","0.0-10.0-0.13","60f56f0103876eae7c0d870f","650c16f0f2faf8d7a0d14c09","651c1c5023aeb7f8313b287a","null","null","<p style=""font-size: 60px; font-family: BACS"">GQrcvJQ</p>","","","","","","","","",""
"html-keyboard-response","103","583305","0.0-10.0-0.14","60f56f0103876eae7c0d870f","650c16f0f2faf8d7a0d14c09","651c1c5023aeb7f8313b287a","null","null","<p style=""font-size: 60px; font-family: BACS"">OLJblrULv</p>","","","","","","","","",""
"html-keyboard-response","104","584314","0.0-10.0-0.15","60f56f0103876eae7c0d870f","650c16f0f2faf8d7a0d14c09","651c1c5023aeb7f8313b287a","null","null","<p style=""font-size: 60px; font-family: BACS"">MBKRElRE</p>","","","","","","","","",""
"html-keyboard-response","105","585326","0.0-10.0-0.16","60f56f0103876eae7c0d870f","650c16f0f2faf8d7a0d14c09","651c1c5023aeb7f8313b287a","null","null","<p style=""font-size: 60px; font-family: BACS"">YOZNGUa</p>","","","","","","","","",""
"html-keyboard-response","106","586328","0.0-10.0-0.17","60f56f0103876eae7c0d870f","650c16f0f2faf8d7a0d14c09","651c1c5023aeb7f8313b287a","null","null","<p style=""font-size: 60px; font-family: BACS"">LOLkUuUmb</p>","","","","","","","","",""
"html-keyboard-response","107","587346","0.0-10.0-0.18","60f56f0103876eae7c0d870f","650c16f0f2faf8d7a0d14c09","651c1c5023aeb7f8313b287a","null","null","<p style=""font-size: 60px; font-family: BACS"">hBmMClRE</p>","","","","","","","","",""
"html-keyboard-response","108","588348","0.0-10.0-0.19","60f56f0103876eae7c0d870f","650c16f0f2faf8d7a0d14c09","651c1c5023aeb7f8313b287a","null","null","<p style=""font-size: 60px; font-family: BACS"">OkGYAvdk</p>","","","","","","","","",""
"html-keyboard-response","109","589367","0.0-10.0-0.20","60f56f0103876eae7c0d870f","650c16f0f2faf8d7a0d14c09","651c1c5023aeb7f8313b287a","null","null","<p style=""font-size: 60px; font-family: BACS"">ObOQlvJQ</p>","","","","","","","","",""
"html-keyboard-response","110","590375","0.0-10.0-0.21","60f56f0103876eae7c0d870f","650c16f0f2faf8d7a0d14c09","651c1c5023aeb7f8313b287a","null","null","<p style=""font-size: 60px; font-family: BACS"">YOZNAvdk</p>","","","","","","","","",""
"html-keyboard-response","111","591392","0.0-10.0-0.22","60f56f0103876eae7c0d870f","650c16f0f2faf8d7a0d14c09","651c1c5023aeb7f8313b287a","null","null","<p style=""font-size: 60px; font-family: BACS"">dRhtbdtK</p>","","","","","","","","",""
"html-keyboard-response","112","592398","0.0-10.0-0.23","60f56f0103876eae7c0d870f","650c16f0f2faf8d7a0d14c09","651c1c5023aeb7f8313b287a","null","null","<p style=""font-size: 60px; font-family: BACS"">aOLZUrULv</p>","","","","","","","","",""
"html-keyboard-response","113","593410","0.0-10.0-0.24","60f56f0103876eae7c0d870f","650c16f0f2faf8d7a0d14c09","651c1c5023aeb7f8313b287a","null","null","<p style=""font-size: 60px; font-family: BACS"">AmQOYAvdk</p>","","","","","","","","",""
"html-keyboard-response","114","594426","0.0-10.0-0.25","60f56f0103876eae7c0d870f","650c16f0f2faf8d7a0d14c09","651c1c5023aeb7f8313b287a","null","null","<p style=""font-size: 60px; font-family: BACS"">ObOQlrULv</p>","","","","","","","","",""
"html-keyboard-response","115","595430","0.0-10.0-0.26","60f56f0103876eae7c0d870f","650c16f0f2faf8d7a0d14c09","651c1c5023aeb7f8313b287a","null","null","<p style=""font-size: 60px; font-family: BACS"">MDKPTAm</p>","","","","","","","","",""
"html-keyboard-response","116","596443","0.0-10.0-0.27","60f56f0103876eae7c0d870f","650c16f0f2faf8d7a0d14c09","651c1c5023aeb7f8313b287a","null","null","<p style=""font-size: 60px; font-family: BACS"">GQrcAvdk</p>","","","","","","","","",""
"html-keyboard-response","117","597457","0.0-10.0-0.28","60f56f0103876eae7c0d870f","650c16f0f2faf8d7a0d14c09","651c1c5023aeb7f8313b287a","null","null","<p style=""font-size: 60px; font-family: BACS"">dRhtmtKP</p>","","","","","","","","",""
"html-keyboard-response","118","598463","0.0-10.0-0.29","60f56f0103876eae7c0d870f","650c16f0f2faf8d7a0d14c09","651c1c5023aeb7f8313b287a","null","null","<p style=""font-size: 60px; font-family: BACS"">lBlETAm</p>","","","","","","","","",""
"html-keyboard-response","119","599479","0.0-10.0-0.30","60f56f0103876eae7c0d870f","650c16f0f2faf8d7a0d14c09","651c1c5023aeb7f8313b287a","null","null","<p style=""font-size: 60px; font-family: BACS"">AmQOYrULv</p>","","","","","","","","",""
"html-keyboard-response","120","600497","0.0-10.0-0.31","60f56f0103876eae7c0d870f","650c16f0f2faf8d7a0d14c09","651c1c5023aeb7f8313b287a","null","null","<p style=""font-size: 60px; font-family: BACS"">LOLkUvJQ</p>","","","","","","","","",""
"html-keyboard-response","121","601505","0.0-10.0-0.32","60f56f0103876eae7c0d870f","650c16f0f2faf8d7a0d14c09","651c1c5023aeb7f8313b287a","null","null","<p style=""font-size: 60px; font-family: BACS"">ktBdmAM</p>","","","","","","","","",""
"html-keyboard-response","122","602508","0.0-10.0-0.33","60f56f0103876eae7c0d870f","650c16f0f2faf8d7a0d14c09","651c1c5023aeb7f8313b287a","null","null","<p style=""font-size: 60px; font-family: BACS"">RlAKcTAm</p>","","","","","","","","",""
"html-keyboard-response","123","603510","0.0-10.0-0.34","60f56f0103876eae7c0d870f","650c16f0f2faf8d7a0d14c09","651c1c5023aeb7f8313b287a","null","null","<p style=""font-size: 60px; font-family: BACS"">aOLZUuUmb</p>","","","","","","","","",""
"html-keyboard-response","124","604523","0.0-10.0-0.35","60f56f0103876eae7c0d870f","650c16f0f2faf8d7a0d14c09","651c1c5023aeb7f8313b287a","null","null","<p style=""font-size: 60px; font-family: BACS"">hBmMCmtKP</p>","","","","","","","","",""
"html-keyboard-response","125","605531","0.0-10.0-0.36","60f56f0103876eae7c0d870f","650c16f0f2faf8d7a0d14c09","651c1c5023aeb7f8313b287a","null","null","<p style=""font-size: 60px; font-family: BACS"">ObOQlGUa</p>","","","","","","","","",""
"html-keyboard-response","126","606533","0.0-10.0-0.37","60f56f0103876eae7c0d870f","650c16f0f2faf8d7a0d14c09","651c1c5023aeb7f8313b287a","null","null","<p style=""font-size: 60px; font-family: BACS"">dRhtlRE</p>","","","","","","","","",""
"html-keyboard-response","127","607549","0.0-10.0-0.38","60f56f0103876eae7c0d870f","650c16f0f2faf8d7a0d14c09","651c1c5023aeb7f8313b287a","null","null","<p style=""font-size: 60px; font-family: BACS"">YNrAmrULv</p>","","","","","","","","",""
"html-keyboard-response","128","608558","0.0-10.0-0.39","60f56f0103876eae7c0d870f","650c16f0f2faf8d7a0d14c09","651c1c5023aeb7f8313b287a","null","null","<p style=""font-size: 60px; font-family: BACS"">OLJblvJQ</p>","","","","","","","","",""
"html-keyboard-response","129","609576","0.0-10.0-0.40","60f56f0103876eae7c0d870f","650c16f0f2faf8d7a0d14c09","651c1c5023aeb7f8313b287a","null","null","<p style=""font-size: 60px; font-family: BACS"">cuOJbuUmb</p>","","","","","","","","",""
"html-keyboard-response","130","610590","0.0-10.0-0.41","60f56f0103876eae7c0d870f","650c16f0f2faf8d7a0d14c09","651c1c5023aeb7f8313b287a","null","null","<p style=""font-size: 60px; font-family: BACS"">YOZNrULv</p>","","","","","","","","",""
"html-keyboard-response","131","611604","0.0-10.0-0.42","60f56f0103876eae7c0d870f","650c16f0f2faf8d7a0d14c09","651c1c5023aeb7f8313b287a","null","null","<p style=""font-size: 60px; font-family: BACS"">hBmMCTAm</p>","","","","","","","","",""
"html-keyboard-response","132","612612","0.0-10.0-0.43","60f56f0103876eae7c0d870f","650c16f0f2faf8d7a0d14c09","651c1c5023aeb7f8313b287a","null","null","<p style=""font-size: 60px; font-family: BACS"">OLJbluUmb</p>","","","","","","","","",""
"html-keyboard-response","133","613620","0.0-10.0-0.44","60f56f0103876eae7c0d870f","650c16f0f2faf8d7a0d14c09","651c1c5023aeb7f8313b287a","null","null","<p style=""font-size: 60px; font-family: BACS"">lBlEbdtK</p>","","","","","","","","",""
"html-keyboard-response","134","614627","0.0-10.0-0.45","60f56f0103876eae7c0d870f","650c16f0f2faf8d7a0d14c09","651c1c5023aeb7f8313b287a","null","null","<p style=""font-size: 60px; font-family: BACS"">AmQOYGUa</p>","","","","","","","","",""
"html-keyboard-response","135","615638","0.0-10.0-0.46","60f56f0103876eae7c0d870f","650c16f0f2faf8d7a0d14c09","651c1c5023aeb7f8313b287a","null","null","<p style=""font-size: 60px; font-family: BACS"">MDKPbdtK</p>","","","","","","","","",""
"html-keyboard-response","136","616645","0.0-10.0-0.47","60f56f0103876eae7c0d870f","650c16f0f2faf8d7a0d14c09","651c1c5023aeb7f8313b287a","null","null","<p style=""font-size: 60px; font-family: BACS"">lRckAmAM</p>","","","","","","","","",""
"html-keyboard-response","137","617662","0.0-10.0-0.48","60f56f0103876eae7c0d870f","650c16f0f2faf8d7a0d14c09","651c1c5023aeb7f8313b287a","null","null","<p style=""font-size: 60px; font-family: BACS"">GQrcuUmb</p>","","","","","","","","",""
"html-keyboard-response","138","618678","0.0-10.0-0.49","60f56f0103876eae7c0d870f","650c16f0f2faf8d7a0d14c09","651c1c5023aeb7f8313b287a","null","null","<p style=""font-size: 60px; font-family: BACS"">lBlElRE</p>","","","","","","","","",""
"html-keyboard-response","139","619702","0.0-10.0-0.50","60f56f0103876eae7c0d870f","650c16f0f2faf8d7a0d14c09","651c1c5023aeb7f8313b287a","null","null","<p style=""font-size: 60px; font-family: BACS"">GQrcGUa</p>","","","","","","","","",""
"html-keyboard-response","140","620717","0.0-10.0-0.51","60f56f0103876eae7c0d870f","650c16f0f2faf8d7a0d14c09","651c1c5023aeb7f8313b287a","null","null","<p style=""font-size: 60px; font-family: BACS"">kMbTRlRE</p>","","","","","","","","",""
"html-keyboard-response","141","621734","0.0-10.0-0.52","60f56f0103876eae7c0d870f","650c16f0f2faf8d7a0d14c09","651c1c5023aeb7f8313b287a","null","null","<p style=""font-size: 60px; font-family: BACS"">aOLZUGUa</p>","","","","","","","","",""
"html-keyboard-response","142","622750","0.0-10.0-0.53","60f56f0103876eae7c0d870f","650c16f0f2faf8d7a0d14c09","651c1c5023aeb7f8313b287a","null","null","<p style=""font-size: 60px; font-family: BACS"">YOZNuUmb</p>","","","","","","","","",""
"html-keyboard-response","143","623757","0.0-10.0-0.54","60f56f0103876eae7c0d870f","650c16f0f2faf8d7a0d14c09","651c1c5023aeb7f8313b287a","null","null","<p style=""font-size: 60px; font-family: BACS"">lRckAlRE</p>","","","","","","","","",""
"html-keyboard-response","144","624760","0.0-10.0-0.55","60f56f0103876eae7c0d870f","650c16f0f2faf8d7a0d14c09","651c1c5023aeb7f8313b287a","null","null","<p style=""font-size: 60px; font-family: BACS"">ktBdmtKP</p>","","","","","","","","",""
"html-keyboard-response","145","625771","0.0-10.0-0.56","60f56f0103876eae7c0d870f","650c16f0f2faf8d7a0d14c09","651c1c5023aeb7f8313b287a","null","null","<p style=""font-size: 60px; font-family: BACS"">OkGYvJQ</p>","","","","","","","","",""
"html-keyboard-response","146","626778","0.0-10.0-0.57","60f56f0103876eae7c0d870f","650c16f0f2faf8d7a0d14c09","651c1c5023aeb7f8313b287a","null","null","<p style=""font-size: 60px; font-family: BACS"">kMbTRmAM</p>","","","","","","","","",""
"html-keyboard-response","147","627791","0.0-10.0-0.58","60f56f0103876eae7c0d870f","650c16f0f2faf8d7a0d14c09","651c1c5023aeb7f8313b287a","null","null","<p style=""font-size: 60px; font-family: BACS"">ObOQlAvdk</p>","","","","","","","","",""
"html-keyboard-response","148","628795","0.0-10.0-0.59","60f56f0103876eae7c0d870f","650c16f0f2faf8d7a0d14c09","651c1c5023aeb7f8313b287a","null","null","<p style=""font-size: 60px; font-family: BACS"">RlAKcmtKP</p>","","","","","","","","",""
"html-keyboard-response","149","629807","0.0-10.0-0.60","60f56f0103876eae7c0d870f","650c16f0f2faf8d7a0d14c09","651c1c5023aeb7f8313b287a","null","null","<p style=""font-size: 60px; font-family: BACS"">hBmMCbdtK</p>","","","","","","","","",""
"html-keyboard-response","150","630825","0.0-10.0-0.61","60f56f0103876eae7c0d870f","650c16f0f2faf8d7a0d14c09","651c1c5023aeb7f8313b287a","null","null","<p style=""font-size: 60px; font-family: BACS"">OLJblGUa</p>","","","","","","","","",""
"html-keyboard-response","151","631846","0.0-10.0-0.62","60f56f0103876eae7c0d870f","650c16f0f2faf8d7a0d14c09","651c1c5023aeb7f8313b287a","null","null","<p style=""font-size: 60px; font-family: BACS"">MDKPmAM</p>","","","","","","","","",""
"html-keyboard-response","152","632851","0.0-10.0-0.63","60f56f0103876eae7c0d870f","650c16f0f2faf8d7a0d14c09","651c1c5023aeb7f8313b287a","null","null","<p style=""font-size: 60px; font-family: BACS"">YNrAmGUa</p>","","","","","","","","",""
"html-keyboard-response","153","633855","0.0-10.0-0.64","60f56f0103876eae7c0d870f","650c16f0f2faf8d7a0d14c09","651c1c5023aeb7f8313b287a","null","null","<p style=""font-size: 60px; font-family: BACS"">MBKRETAm</p>","","","","","","","","",""
"html-keyboard-response","154","634872","0.0-10.0-0.65","60f56f0103876eae7c0d870f","650c16f0f2faf8d7a0d14c09","651c1c5023aeb7f8313b287a","null","null","<p style=""font-size: 60px; font-family: BACS"">lBlEmAM</p>","","","","","","","","",""
"html-keyboard-response","155","635900","0.0-10.0-0.66","60f56f0103876eae7c0d870f","650c16f0f2faf8d7a0d14c09","651c1c5023aeb7f8313b287a","null","null","<p style=""font-size: 60px; font-family: BACS"">kMbTRTAm</p>","","","","","","","","",""
"html-keyboard-response","156","636913","0.0-10.0-0.67","60f56f0103876eae7c0d870f","650c16f0f2faf8d7a0d14c09","651c1c5023aeb7f8313b287a","null","null","<p style=""font-size: 60px; font-family: BACS"">ktBdbdtK</p>","","","","","","","","",""
"html-keyboard-response","157","637914","0.0-10.0-0.68","60f56f0103876eae7c0d870f","650c16f0f2faf8d7a0d14c09","651c1c5023aeb7f8313b287a","null","null","<p style=""font-size: 60px; font-family: BACS"">LOLkUAvdk</p>","","","","","","","","",""
"html-keyboard-response","158","638927","0.0-10.0-0.69","60f56f0103876eae7c0d870f","650c16f0f2faf8d7a0d14c09","651c1c5023aeb7f8313b287a","null","null","<p style=""font-size: 60px; font-family: BACS"">OkGYrULv</p>","","","","","","","","",""
"html-keyboard-response","159","639943","0.0-10.0-0.70","60f56f0103876eae7c0d870f","650c16f0f2faf8d7a0d14c09","651c1c5023aeb7f8313b287a","null","null","<p style=""font-size: 60px; font-family: BACS"">MDKPlRE</p>","","","","","","","","",""
"html-keyboard-response","160","640956","0.0-10.0-0.71","60f56f0103876eae7c0d870f","650c16f0f2faf8d7a0d14c09","651c1c5023aeb7f8313b287a","null","null","<p style=""font-size: 60px; font-family: BACS"">bcbMmtKP</p>","","","","","","","","",""
"html-keyboard-response","161","641959","0.0-10.0-0.72","60f56f0103876eae7c0d870f","650c16f0f2faf8d7a0d14c09","651c1c5023aeb7f8313b287a","null","null","<p style=""font-size: 60px; font-family: BACS"">AmQOYvJQ</p>","","","","","","","","",""
"html-keyboard-response","162","642975","0.0-10.0-0.73","60f56f0103876eae7c0d870f","650c16f0f2faf8d7a0d14c09","651c1c5023aeb7f8313b287a","null","null","<p style=""font-size: 60px; font-family: BACS"">bcbMmAM</p>","","","","","","","","",""
"html-keyboard-response","163","643988","0.0-10.0-0.74","60f56f0103876eae7c0d870f","650c16f0f2faf8d7a0d14c09","651c1c5023aeb7f8313b287a","null","null","<p style=""font-size: 60px; font-family: BACS"">lRckAmtKP</p>","","","","","","","","",""
"html-keyboard-response","164","644992","0.0-10.0-0.75","60f56f0103876eae7c0d870f","650c16f0f2faf8d7a0d14c09","651c1c5023aeb7f8313b287a","null","null","<p style=""font-size: 60px; font-family: BACS"">YNrAmuUmb</p>","","","","","","","","",""
"html-keyboard-response","165","646005","0.0-10.0-0.76","60f56f0103876eae7c0d870f","650c16f0f2faf8d7a0d14c09","651c1c5023aeb7f8313b287a","null","null","<p style=""font-size: 60px; font-family: BACS"">dRhtTAm</p>","","","","","","","","",""
"html-keyboard-response","166","647010","0.0-10.0-0.77","60f56f0103876eae7c0d870f","650c16f0f2faf8d7a0d14c09","651c1c5023aeb7f8313b287a","null","null","<p style=""font-size: 60px; font-family: BACS"">bcbMbdtK</p>","","","","","","","","",""
"html-keyboard-response","167","648025","0.0-10.0-0.78","60f56f0103876eae7c0d870f","650c16f0f2faf8d7a0d14c09","651c1c5023aeb7f8313b287a","null","null","<p style=""font-size: 60px; font-family: BACS"">cuOJbAvdk</p>","","","","","","","","",""
"html-keyboard-response","168","649037","0.0-10.0-0.79","60f56f0103876eae7c0d870f","650c16f0f2faf8d7a0d14c09","651c1c5023aeb7f8313b287a","null","null","<p style=""font-size: 60px; font-family: BACS"">bcbMTAm</p>","","","","","","","","",""
"html-keyboard-response","169","1200144","0.0-11.0","60f56f0103876eae7c0d870f","650c16f0f2faf8d7a0d14c09","651c1c5023aeb7f8313b287a","551106"," ","<p>Great, you've seen the second block of words. You may now take a short break.</p>
      <p>Press the spacebar when you're ready to continue.</p>","","","","","","","","",""
"html-keyboard-response","170","1201159","0.0-12.0-0.0","60f56f0103876eae7c0d870f","650c16f0f2faf8d7a0d14c09","651c1c5023aeb7f8313b287a","null","null","<p style=""font-size: 60px; font-family: BACS"">kMbTRTAm</p>","","","","","","","","",""
"html-keyboard-response","171","1202167","0.0-12.0-0.1","60f56f0103876eae7c0d870f","650c16f0f2faf8d7a0d14c09","651c1c5023aeb7f8313b287a","null","null","<p style=""font-size: 60px; font-family: BACS"">YNrAmrULv</p>","","","","","","","","",""
"html-keyboard-response","172","1203195","0.0-12.0-0.2","60f56f0103876eae7c0d870f","650c16f0f2faf8d7a0d14c09","651c1c5023aeb7f8313b287a","null","null","<p style=""font-size: 60px; font-family: BACS"">kMbTRmAM</p>","","","","","","","","",""
"html-keyboard-response","173","1204208","0.0-12.0-0.3","60f56f0103876eae7c0d870f","650c16f0f2faf8d7a0d14c09","651c1c5023aeb7f8313b287a","null","null","<p style=""font-size: 60px; font-family: BACS"">lRckAmtKP</p>","","","","","","","","",""
"html-keyboard-response","174","1205219","0.0-12.0-0.4","60f56f0103876eae7c0d870f","650c16f0f2faf8d7a0d14c09","651c1c5023aeb7f8313b287a","null","null","<p style=""font-size: 60px; font-family: BACS"">AmQOYrULv</p>","","","","","","","","",""
"html-keyboard-response","175","1206229","0.0-12.0-0.5","60f56f0103876eae7c0d870f","650c16f0f2faf8d7a0d14c09","651c1c5023aeb7f8313b287a","null","null","<p style=""font-size: 60px; font-family: BACS"">RlAKcTAm</p>","","","","","","","","",""
"html-keyboard-response","176","1207248","0.0-12.0-0.6","60f56f0103876eae7c0d870f","650c16f0f2faf8d7a0d14c09","651c1c5023aeb7f8313b287a","null","null","<p style=""font-size: 60px; font-family: BACS"">kMbTRmtKP</p>","","","","","","","","",""
"html-keyboard-response","177","1208262","0.0-12.0-0.7","60f56f0103876eae7c0d870f","650c16f0f2faf8d7a0d14c09","651c1c5023aeb7f8313b287a","null","null","<p style=""font-size: 60px; font-family: BACS"">lBlETAm</p>","","","","","","","","",""
"html-keyboard-response","178","1209277","0.0-12.0-0.8","60f56f0103876eae7c0d870f","650c16f0f2faf8d7a0d14c09","651c1c5023aeb7f8313b287a","null","null","<p style=""font-size: 60px; font-family: BACS"">YOZNuUmb</p>","","","","","","","","",""
"html-keyboard-response","179","1210297","0.0-12.0-0.9","60f56f0103876eae7c0d870f","650c16f0f2faf8d7a0d14c09","651c1c5023aeb7f8313b287a","null","null","<p style=""font-size: 60px; font-family: BACS"">OLJblGUa</p>","","","","","","","","",""
"html-keyboard-response","180","1211309","0.0-12.0-0.10","60f56f0103876eae7c0d870f","650c16f0f2faf8d7a0d14c09","651c1c5023aeb7f8313b287a","null","null","<p style=""font-size: 60px; font-family: BACS"">hBmMCmtKP</p>","","","","","","","","",""
"html-keyboard-response","181","1212330","0.0-12.0-0.11","60f56f0103876eae7c0d870f","650c16f0f2faf8d7a0d14c09","651c1c5023aeb7f8313b287a","null","null","<p style=""font-size: 60px; font-family: BACS"">aOLZUrULv</p>","","","","","","","","",""
"html-keyboard-response","182","1213332","0.0-12.0-0.12","60f56f0103876eae7c0d870f","650c16f0f2faf8d7a0d14c09","651c1c5023aeb7f8313b287a","null","null","<p style=""font-size: 60px; font-family: BACS"">kMbTRlRE</p>","","","","","","","","",""
"html-keyboard-response","183","1214336","0.0-12.0-0.13","60f56f0103876eae7c0d870f","650c16f0f2faf8d7a0d14c09","651c1c5023aeb7f8313b287a","null","null","<p style=""font-size: 60px; font-family: BACS"">LOLkUvJQ</p>","","","","","","","","",""
"html-keyboard-response","184","1215351","0.0-12.0-0.14","60f56f0103876eae7c0d870f","650c16f0f2faf8d7a0d14c09","651c1c5023aeb7f8313b287a","null","null","<p style=""font-size: 60px; font-family: BACS"">lBlEbdtK</p>","","","","","","","","",""
"html-keyboard-response","185","1216354","0.0-12.0-0.15","60f56f0103876eae7c0d870f","650c16f0f2faf8d7a0d14c09","651c1c5023aeb7f8313b287a","null","null","<p style=""font-size: 60px; font-family: BACS"">OkGYAvdk</p>","","","","","","","","",""
"html-keyboard-response","186","1217367","0.0-12.0-0.16","60f56f0103876eae7c0d870f","650c16f0f2faf8d7a0d14c09","651c1c5023aeb7f8313b287a","null","null","<p style=""font-size: 60px; font-family: BACS"">YNrAmuUmb</p>","","","","","","","","",""
"html-keyboard-response","187","1218383","0.0-12.0-0.17","60f56f0103876eae7c0d870f","650c16f0f2faf8d7a0d14c09","651c1c5023aeb7f8313b287a","null","null","<p style=""font-size: 60px; font-family: BACS"">bcbMmtKP</p>","","","","","","","","",""
"html-keyboard-response","188","1219399","0.0-12.0-0.18","60f56f0103876eae7c0d870f","650c16f0f2faf8d7a0d14c09","651c1c5023aeb7f8313b287a","null","null","<p style=""font-size: 60px; font-family: BACS"">MBKREmAM</p>","","","","","","","","",""
"html-keyboard-response","189","1220405","0.0-12.0-0.19","60f56f0103876eae7c0d870f","650c16f0f2faf8d7a0d14c09","651c1c5023aeb7f8313b287a","null","null","<p style=""font-size: 60px; font-family: BACS"">RlAKcbdtK</p>","","","","","","","","",""
"html-keyboard-response","190","1221415","0.0-12.0-0.20","60f56f0103876eae7c0d870f","650c16f0f2faf8d7a0d14c09","651c1c5023aeb7f8313b287a","null","null","<p style=""font-size: 60px; font-family: BACS"">lRckAmAM</p>","","","","","","","","",""
"html-keyboard-response","191","1222433","0.0-12.0-0.21","60f56f0103876eae7c0d870f","650c16f0f2faf8d7a0d14c09","651c1c5023aeb7f8313b287a","null","null","<p style=""font-size: 60px; font-family: BACS"">dRhtmtKP</p>","","","","","","","","",""
"html-keyboard-response","192","1223446","0.0-12.0-0.22","60f56f0103876eae7c0d870f","650c16f0f2faf8d7a0d14c09","651c1c5023aeb7f8313b287a","null","null","<p style=""font-size: 60px; font-family: BACS"">MBKRETAm</p>","","","","","","","","",""
"html-keyboard-response","193","1224448","0.0-12.0-0.23","60f56f0103876eae7c0d870f","650c16f0f2faf8d7a0d14c09","651c1c5023aeb7f8313b287a","null","null","<p style=""font-size: 60px; font-family: BACS"">ObOQlvJQ</p>","","","","","","","","",""
"html-keyboard-response","194","1225462","0.0-12.0-0.24","60f56f0103876eae7c0d870f","650c16f0f2faf8d7a0d14c09","651c1c5023aeb7f8313b287a","null","null","<p style=""font-size: 60px; font-family: BACS"">hBmMCTAm</p>","","","","","","","","",""
"html-keyboard-response","195","1226466","0.0-12.0-0.25","60f56f0103876eae7c0d870f","650c16f0f2faf8d7a0d14c09","651c1c5023aeb7f8313b287a","null","null","<p style=""font-size: 60px; font-family: BACS"">AmQOYvJQ</p>","","","","","","","","",""
"html-keyboard-response","196","1227481","0.0-12.0-0.26","60f56f0103876eae7c0d870f","650c16f0f2faf8d7a0d14c09","651c1c5023aeb7f8313b287a","null","null","<p style=""font-size: 60px; font-family: BACS"">GQrcGUa</p>","","","","","","","","",""
"html-keyboard-response","197","1228497","0.0-12.0-0.27","60f56f0103876eae7c0d870f","650c16f0f2faf8d7a0d14c09","651c1c5023aeb7f8313b287a","null","null","<p style=""font-size: 60px; font-family: BACS"">ObOQlAvdk</p>","","","","","","","","",""
"html-keyboard-response","198","1229517","0.0-12.0-0.28","60f56f0103876eae7c0d870f","650c16f0f2faf8d7a0d14c09","651c1c5023aeb7f8313b287a","null","null","<p style=""font-size: 60px; font-family: BACS"">AmQOYGUa</p>","","","","","","","","",""
"html-keyboard-response","199","1230528","0.0-12.0-0.29","60f56f0103876eae7c0d870f","650c16f0f2faf8d7a0d14c09","651c1c5023aeb7f8313b287a","null","null","<p style=""font-size: 60px; font-family: BACS"">lRckAbdtK</p>","","","","","","","","",""
"html-keyboard-response","200","1231530","0.0-12.0-0.30","60f56f0103876eae7c0d870f","650c16f0f2faf8d7a0d14c09","651c1c5023aeb7f8313b287a","null","null","<p style=""font-size: 60px; font-family: BACS"">AmQOYAvdk</p>","","","","","","","","",""
"html-keyboard-response","201","1232543","0.0-12.0-0.31","60f56f0103876eae7c0d870f","650c16f0f2faf8d7a0d14c09","651c1c5023aeb7f8313b287a","null","null","<p style=""font-size: 60px; font-family: BACS"">GQrcvJQ</p>","","","","","","","","",""
"html-keyboard-response","202","1233557","0.0-12.0-0.32","60f56f0103876eae7c0d870f","650c16f0f2faf8d7a0d14c09","651c1c5023aeb7f8313b287a","null","null","<p style=""font-size: 60px; font-family: BACS"">MDKPmAM</p>","","","","","","","","",""
"html-keyboard-response","203","1234565","0.0-12.0-0.33","60f56f0103876eae7c0d870f","650c16f0f2faf8d7a0d14c09","651c1c5023aeb7f8313b287a","null","null","<p style=""font-size: 60px; font-family: BACS"">MBKREmtKP</p>","","","","","","","","",""
"html-keyboard-response","204","1235568","0.0-12.0-0.34","60f56f0103876eae7c0d870f","650c16f0f2faf8d7a0d14c09","651c1c5023aeb7f8313b287a","null","null","<p style=""font-size: 60px; font-family: BACS"">ktBdlRE</p>","","","","","","","","",""
"html-keyboard-response","205","1236576","0.0-12.0-0.35","60f56f0103876eae7c0d870f","650c16f0f2faf8d7a0d14c09","651c1c5023aeb7f8313b287a","null","null","<p style=""font-size: 60px; font-family: BACS"">YOZNAvdk</p>","","","","","","","","",""
"html-keyboard-response","206","1237585","0.0-12.0-0.36","60f56f0103876eae7c0d870f","650c16f0f2faf8d7a0d14c09","651c1c5023aeb7f8313b287a","null","null","<p style=""font-size: 60px; font-family: BACS"">lBlEmAM</p>","","","","","","","","",""
"html-keyboard-response","207","1238595","0.0-12.0-0.37","60f56f0103876eae7c0d870f","650c16f0f2faf8d7a0d14c09","651c1c5023aeb7f8313b287a","null","null","<p style=""font-size: 60px; font-family: BACS"">dRhtlRE</p>","","","","","","","","",""
"html-keyboard-response","208","1239609","0.0-12.0-0.38","60f56f0103876eae7c0d870f","650c16f0f2faf8d7a0d14c09","651c1c5023aeb7f8313b287a","null","null","<p style=""font-size: 60px; font-family: BACS"">RlAKcmAM</p>","","","","","","","","",""
"html-keyboard-response","209","1240623","0.0-12.0-0.39","60f56f0103876eae7c0d870f","650c16f0f2faf8d7a0d14c09","651c1c5023aeb7f8313b287a","null","null","<p style=""font-size: 60px; font-family: BACS"">cuOJbvJQ</p>","","","","","","","","",""
"html-keyboard-response","210","1241637","0.0-12.0-0.40","60f56f0103876eae7c0d870f","650c16f0f2faf8d7a0d14c09","651c1c5023aeb7f8313b287a","null","null","<p style=""font-size: 60px; font-family: BACS"">OkGYuUmb</p>","","","","","","","","",""
"html-keyboard-response","211","1242650","0.0-12.0-0.41","60f56f0103876eae7c0d870f","650c16f0f2faf8d7a0d14c09","651c1c5023aeb7f8313b287a","null","null","<p style=""font-size: 60px; font-family: BACS"">hBmMCbdtK</p>","","","","","","","","",""
"html-keyboard-response","212","1243655","0.0-12.0-0.42","60f56f0103876eae7c0d870f","650c16f0f2faf8d7a0d14c09","651c1c5023aeb7f8313b287a","null","null","<p style=""font-size: 60px; font-family: BACS"">YOZNrULv</p>","","","","","","","","",""
"html-keyboard-response","213","1244670","0.0-12.0-0.43","60f56f0103876eae7c0d870f","650c16f0f2faf8d7a0d14c09","651c1c5023aeb7f8313b287a","null","null","<p style=""font-size: 60px; font-family: BACS"">ktBdbdtK</p>","","","","","","","","",""
"html-keyboard-response","214","1245675","0.0-12.0-0.44","60f56f0103876eae7c0d870f","650c16f0f2faf8d7a0d14c09","651c1c5023aeb7f8313b287a","null","null","<p style=""font-size: 60px; font-family: BACS"">LOLkUGUa</p>","","","","","","","","",""
"html-keyboard-response","215","1246679","0.0-12.0-0.45","60f56f0103876eae7c0d870f","650c16f0f2faf8d7a0d14c09","651c1c5023aeb7f8313b287a","null","null","<p style=""font-size: 60px; font-family: BACS"">MDKPTAm</p>","","","","","","","","",""
"html-keyboard-response","216","1247697","0.0-12.0-0.46","60f56f0103876eae7c0d870f","650c16f0f2faf8d7a0d14c09","651c1c5023aeb7f8313b287a","null","null","<p style=""font-size: 60px; font-family: BACS"">cuOJbuUmb</p>","","","","","","","","",""
"html-keyboard-response","217","1248713","0.0-12.0-0.47","60f56f0103876eae7c0d870f","650c16f0f2faf8d7a0d14c09","651c1c5023aeb7f8313b287a","null","null","<p style=""font-size: 60px; font-family: BACS"">dRhtTAm</p>","","","","","","","","",""
"html-keyboard-response","218","1249716","0.0-12.0-0.48","60f56f0103876eae7c0d870f","650c16f0f2faf8d7a0d14c09","651c1c5023aeb7f8313b287a","null","null","<p style=""font-size: 60px; font-family: BACS"">LOLkUuUmb</p>","","","","","","","","",""
"html-keyboard-response","219","1250719","0.0-12.0-0.49","60f56f0103876eae7c0d870f","650c16f0f2faf8d7a0d14c09","651c1c5023aeb7f8313b287a","null","null","<p style=""font-size: 60px; font-family: BACS"">YNrAmGUa</p>","","","","","","","","",""
"html-keyboard-response","220","1251732","0.0-12.0-0.50","60f56f0103876eae7c0d870f","650c16f0f2faf8d7a0d14c09","651c1c5023aeb7f8313b287a","null","null","<p style=""font-size: 60px; font-family: BACS"">MDKPlRE</p>","","","","","","","","",""
"html-keyboard-response","221","1252748","0.0-12.0-0.51","60f56f0103876eae7c0d870f","650c16f0f2faf8d7a0d14c09","651c1c5023aeb7f8313b287a","null","null","<p style=""font-size: 60px; font-family: BACS"">RlAKcmtKP</p>","","","","","","","","",""
"html-keyboard-response","222","1253761","0.0-12.0-0.52","60f56f0103876eae7c0d870f","650c16f0f2faf8d7a0d14c09","651c1c5023aeb7f8313b287a","null","null","<p style=""font-size: 60px; font-family: BACS"">cuOJbAvdk</p>","","","","","","","","",""
"html-keyboard-response","223","1254766","0.0-12.0-0.53","60f56f0103876eae7c0d870f","650c16f0f2faf8d7a0d14c09","651c1c5023aeb7f8313b287a","null","null","<p style=""font-size: 60px; font-family: BACS"">aOLZUuUmb</p>","","","","","","","","",""
"html-keyboard-response","224","1255774","0.0-12.0-0.54","60f56f0103876eae7c0d870f","650c16f0f2faf8d7a0d14c09","651c1c5023aeb7f8313b287a","null","null","<p style=""font-size: 60px; font-family: BACS"">YNrAmvJQ</p>","","","","","","","","",""
"html-keyboard-response","225","1256778","0.0-12.0-0.55","60f56f0103876eae7c0d870f","650c16f0f2faf8d7a0d14c09","651c1c5023aeb7f8313b287a","null","null","<p style=""font-size: 60px; font-family: BACS"">LOLkUAvdk</p>","","","","","","","","",""
"html-keyboard-response","226","1257786","0.0-12.0-0.56","60f56f0103876eae7c0d870f","650c16f0f2faf8d7a0d14c09","651c1c5023aeb7f8313b287a","null","null","<p style=""font-size: 60px; font-family: BACS"">GQrcuUmb</p>","","","","","","","","",""
"html-keyboard-response","227","1258801","0.0-12.0-0.57","60f56f0103876eae7c0d870f","650c16f0f2faf8d7a0d14c09","651c1c5023aeb7f8313b287a","null","null","<p style=""font-size: 60px; font-family: BACS"">aOLZUGUa</p>","","","","","","","","",""
"html-keyboard-response","228","1259819","0.0-12.0-0.58","60f56f0103876eae7c0d870f","650c16f0f2faf8d7a0d14c09","651c1c5023aeb7f8313b287a","null","null","<p style=""font-size: 60px; font-family: BACS"">OkGYrULv</p>","","","","","","","","",""
"html-keyboard-response","229","1260832","0.0-12.0-0.59","60f56f0103876eae7c0d870f","650c16f0f2faf8d7a0d14c09","651c1c5023aeb7f8313b287a","null","null","<p style=""font-size: 60px; font-family: BACS"">lRckAlRE</p>","","","","","","","","",""
"html-keyboard-response","230","1261853","0.0-12.0-0.60","60f56f0103876eae7c0d870f","650c16f0f2faf8d7a0d14c09","651c1c5023aeb7f8313b287a","null","null","<p style=""font-size: 60px; font-family: BACS"">bcbMTAm</p>","","","","","","","","",""
"html-keyboard-response","231","1262871","0.0-12.0-0.61","60f56f0103876eae7c0d870f","650c16f0f2faf8d7a0d14c09","651c1c5023aeb7f8313b287a","null","null","<p style=""font-size: 60px; font-family: BACS"">MDKPbdtK</p>","","","","","","","","",""
"html-keyboard-response","232","1263877","0.0-12.0-0.62","60f56f0103876eae7c0d870f","650c16f0f2faf8d7a0d14c09","651c1c5023aeb7f8313b287a","null","null","<p style=""font-size: 60px; font-family: BACS"">cuOJbrULv</p>","","","","","","","","",""
"html-keyboard-response","233","1264890","0.0-12.0-0.63","60f56f0103876eae7c0d870f","650c16f0f2faf8d7a0d14c09","651c1c5023aeb7f8313b287a","null","null","<p style=""font-size: 60px; font-family: BACS"">aOLZUAvdk</p>","","","","","","","","",""
"html-keyboard-response","234","1265897","0.0-12.0-0.64","60f56f0103876eae7c0d870f","650c16f0f2faf8d7a0d14c09","651c1c5023aeb7f8313b287a","null","null","<p style=""font-size: 60px; font-family: BACS"">lBlElRE</p>","","","","","","","","",""
"html-keyboard-response","235","1266911","0.0-12.0-0.65","60f56f0103876eae7c0d870f","650c16f0f2faf8d7a0d14c09","651c1c5023aeb7f8313b287a","null","null","<p style=""font-size: 60px; font-family: BACS"">OkGYvJQ</p>","","","","","","","","",""
"html-keyboard-response","236","1267918","0.0-12.0-0.66","60f56f0103876eae7c0d870f","650c16f0f2faf8d7a0d14c09","651c1c5023aeb7f8313b287a","null","null","<p style=""font-size: 60px; font-family: BACS"">dRhtbdtK</p>","","","","","","","","",""
"html-keyboard-response","237","1268933","0.0-12.0-0.67","60f56f0103876eae7c0d870f","650c16f0f2faf8d7a0d14c09","651c1c5023aeb7f8313b287a","null","null","<p style=""font-size: 60px; font-family: BACS"">OLJbluUmb</p>","","","","","","","","",""
"html-keyboard-response","238","1269946","0.0-12.0-0.68","60f56f0103876eae7c0d870f","650c16f0f2faf8d7a0d14c09","651c1c5023aeb7f8313b287a","null","null","<p style=""font-size: 60px; font-family: BACS"">bcbMmAM</p>","","","","","","","","",""
"html-keyboard-response","239","1270953","0.0-12.0-0.69","60f56f0103876eae7c0d870f","650c16f0f2faf8d7a0d14c09","651c1c5023aeb7f8313b287a","null","null","<p style=""font-size: 60px; font-family: BACS"">OLJblrULv</p>","","","","","","","","",""
"html-keyboard-response","240","1271967","0.0-12.0-0.70","60f56f0103876eae7c0d870f","650c16f0f2faf8d7a0d14c09","651c1c5023aeb7f8313b287a","null","null","<p style=""font-size: 60px; font-family: BACS"">bcbMbdtK</p>","","","","","","","","",""
"html-keyboard-response","241","1272978","0.0-12.0-0.71","60f56f0103876eae7c0d870f","650c16f0f2faf8d7a0d14c09","651c1c5023aeb7f8313b287a","null","null","<p style=""font-size: 60px; font-family: BACS"">ktBdmAM</p>","","","","","","","","",""
"html-keyboard-response","242","1273983","0.0-12.0-0.72","60f56f0103876eae7c0d870f","650c16f0f2faf8d7a0d14c09","651c1c5023aeb7f8313b287a","null","null","<p style=""font-size: 60px; font-family: BACS"">YOZNGUa</p>","","","","","","","","",""
"html-keyboard-response","243","1274998","0.0-12.0-0.73","60f56f0103876eae7c0d870f","650c16f0f2faf8d7a0d14c09","651c1c5023aeb7f8313b287a","null","null","<p style=""font-size: 60px; font-family: BACS"">GQrcAvdk</p>","","","","","","","","",""
"html-keyboard-response","244","1276012","0.0-12.0-0.74","60f56f0103876eae7c0d870f","650c16f0f2faf8d7a0d14c09","651c1c5023aeb7f8313b287a","null","null","<p style=""font-size: 60px; font-family: BACS"">ObOQlrULv</p>","","","","","","","","",""
"html-keyboard-response","245","1277018","0.0-12.0-0.75","60f56f0103876eae7c0d870f","650c16f0f2faf8d7a0d14c09","651c1c5023aeb7f8313b287a","null","null","<p style=""font-size: 60px; font-family: BACS"">MBKRElRE</p>","","","","","","","","",""
"html-keyboard-response","246","1278037","0.0-12.0-0.76","60f56f0103876eae7c0d870f","650c16f0f2faf8d7a0d14c09","651c1c5023aeb7f8313b287a","null","null","<p style=""font-size: 60px; font-family: BACS"">ObOQlGUa</p>","","","","","","","","",""
"html-keyboard-response","247","1279055","0.0-12.0-0.77","60f56f0103876eae7c0d870f","650c16f0f2faf8d7a0d14c09","651c1c5023aeb7f8313b287a","null","null","<p style=""font-size: 60px; font-family: BACS"">ktBdmtKP</p>","","","","","","","","",""
"html-keyboard-response","248","1280068","0.0-12.0-0.78","60f56f0103876eae7c0d870f","650c16f0f2faf8d7a0d14c09","651c1c5023aeb7f8313b287a","null","null","<p style=""font-size: 60px; font-family: BACS"">OLJblvJQ</p>","","","","","","","","",""
"html-keyboard-response","249","1281082","0.0-12.0-0.79","60f56f0103876eae7c0d870f","650c16f0f2faf8d7a0d14c09","651c1c5023aeb7f8313b287a","null","null","<p style=""font-size: 60px; font-family: BACS"">hBmMClRE</p>","","","","","","","","",""
"html-keyboard-response","250","1287341","0.0-13.0","60f56f0103876eae7c0d870f","650c16f0f2faf8d7a0d14c09","651c1c5023aeb7f8313b287a","6258"," ","<p>Great, you've seen the third block of words. You may now take a short break.</p>
      <p>Press the spacebar when you're ready to continue.</p>","","","","","","","","",""
"html-keyboard-response","251","1288347","0.0-14.0-0.0","60f56f0103876eae7c0d870f","650c16f0f2faf8d7a0d14c09","651c1c5023aeb7f8313b287a","null","null","<p style=""font-size: 60px; font-family: BACS"">AmQOYvJQ</p>","","","","","","","","",""
"html-keyboard-response","252","1289366","0.0-14.0-0.1","60f56f0103876eae7c0d870f","650c16f0f2faf8d7a0d14c09","651c1c5023aeb7f8313b287a","null","null","<p style=""font-size: 60px; font-family: BACS"">LOLkUAvdk</p>","","","","","","","","",""
"html-keyboard-response","253","1290375","0.0-14.0-0.2","60f56f0103876eae7c0d870f","650c16f0f2faf8d7a0d14c09","651c1c5023aeb7f8313b287a","null","null","<p style=""font-size: 60px; font-family: BACS"">ktBdmAM</p>","","","","","","","","",""
"html-keyboard-response","254","1291392","0.0-14.0-0.3","60f56f0103876eae7c0d870f","650c16f0f2faf8d7a0d14c09","651c1c5023aeb7f8313b287a","null","null","<p style=""font-size: 60px; font-family: BACS"">GQrcvJQ</p>","","","","","","","","",""
"html-keyboard-response","255","1292407","0.0-14.0-0.4","60f56f0103876eae7c0d870f","650c16f0f2faf8d7a0d14c09","651c1c5023aeb7f8313b287a","null","null","<p style=""font-size: 60px; font-family: BACS"">lRckAmtKP</p>","","","","","","","","",""
"html-keyboard-response","256","1293424","0.0-14.0-0.5","60f56f0103876eae7c0d870f","650c16f0f2faf8d7a0d14c09","651c1c5023aeb7f8313b287a","null","null","<p style=""font-size: 60px; font-family: BACS"">lBlETAm</p>","","","","","","","","",""
"html-keyboard-response","257","1294426","0.0-14.0-0.6","60f56f0103876eae7c0d870f","650c16f0f2faf8d7a0d14c09","651c1c5023aeb7f8313b287a","null","null","<p style=""font-size: 60px; font-family: BACS"">bcbMmtKP</p>","","","","","","","","",""
"html-keyboard-response","258","1295441","0.0-14.0-0.7","60f56f0103876eae7c0d870f","650c16f0f2faf8d7a0d14c09","651c1c5023aeb7f8313b287a","null","null","<p style=""font-size: 60px; font-family: BACS"">ktBdbdtK</p>","","","","","","","","",""
"html-keyboard-response","259","1296459","0.0-14.0-0.8","60f56f0103876eae7c0d870f","650c16f0f2faf8d7a0d14c09","651c1c5023aeb7f8313b287a","null","null","<p style=""font-size: 60px; font-family: BACS"">OkGYrULv</p>","","","","","","","","",""
"html-keyboard-response","260","1297461","0.0-14.0-0.9","60f56f0103876eae7c0d870f","650c16f0f2faf8d7a0d14c09","651c1c5023aeb7f8313b287a","null","null","<p style=""font-size: 60px; font-family: BACS"">dRhtlRE</p>","","","","","","","","",""
"html-keyboard-response","261","1298477","0.0-14.0-0.10","60f56f0103876eae7c0d870f","650c16f0f2faf8d7a0d14c09","651c1c5023aeb7f8313b287a","null","null","<p style=""font-size: 60px; font-family: BACS"">GQrcAvdk</p>","","","","","","","","",""
"html-keyboard-response","262","1299497","0.0-14.0-0.11","60f56f0103876eae7c0d870f","650c16f0f2faf8d7a0d14c09","651c1c5023aeb7f8313b287a","null","null","<p style=""font-size: 60px; font-family: BACS"">AmQOYrULv</p>","","","","","","","","",""
"html-keyboard-response","263","1300512","0.0-14.0-0.12","60f56f0103876eae7c0d870f","650c16f0f2faf8d7a0d14c09","651c1c5023aeb7f8313b287a","null","null","<p style=""font-size: 60px; font-family: BACS"">cuOJbAvdk</p>","","","","","","","","",""
"html-keyboard-response","264","1301516","0.0-14.0-0.13","60f56f0103876eae7c0d870f","650c16f0f2faf8d7a0d14c09","651c1c5023aeb7f8313b287a","null","null","<p style=""font-size: 60px; font-family: BACS"">GQrcGUa</p>","","","","","","","","",""
"html-keyboard-response","265","1302527","0.0-14.0-0.14","60f56f0103876eae7c0d870f","650c16f0f2faf8d7a0d14c09","651c1c5023aeb7f8313b287a","null","null","<p style=""font-size: 60px; font-family: BACS"">ktBdlRE</p>","","","","","","","","",""
"html-keyboard-response","266","1303537","0.0-14.0-0.15","60f56f0103876eae7c0d870f","650c16f0f2faf8d7a0d14c09","651c1c5023aeb7f8313b287a","null","null","<p style=""font-size: 60px; font-family: BACS"">OLJblvJQ</p>","","","","","","","","",""
"html-keyboard-response","267","1304543","0.0-14.0-0.16","60f56f0103876eae7c0d870f","650c16f0f2faf8d7a0d14c09","651c1c5023aeb7f8313b287a","null","null","<p style=""font-size: 60px; font-family: BACS"">RlAKcmAM</p>","","","","","","","","",""
"html-keyboard-response","268","1305558","0.0-14.0-0.17","60f56f0103876eae7c0d870f","650c16f0f2faf8d7a0d14c09","651c1c5023aeb7f8313b287a","null","null","<p style=""font-size: 60px; font-family: BACS"">YOZNrULv</p>","","","","","","","","",""
"html-keyboard-response","269","1306564","0.0-14.0-0.18","60f56f0103876eae7c0d870f","650c16f0f2faf8d7a0d14c09","651c1c5023aeb7f8313b287a","null","null","<p style=""font-size: 60px; font-family: BACS"">RlAKcbdtK</p>","","","","","","","","",""
"html-keyboard-response","270","1307577","0.0-14.0-0.19","60f56f0103876eae7c0d870f","650c16f0f2faf8d7a0d14c09","651c1c5023aeb7f8313b287a","null","null","<p style=""font-size: 60px; font-family: BACS"">hBmMCmtKP</p>","","","","","","","","",""
"html-keyboard-response","271","1308589","0.0-14.0-0.20","60f56f0103876eae7c0d870f","650c16f0f2faf8d7a0d14c09","651c1c5023aeb7f8313b287a","null","null","<p style=""font-size: 60px; font-family: BACS"">kMbTRTAm</p>","","","","","","","","",""
"html-keyboard-response","272","1309595","0.0-14.0-0.21","60f56f0103876eae7c0d870f","650c16f0f2faf8d7a0d14c09","651c1c5023aeb7f8313b287a","null","null","<p style=""font-size: 60px; font-family: BACS"">MDKPmAM</p>","","","","","","","","",""
"html-keyboard-response","273","1310605","0.0-14.0-0.22","60f56f0103876eae7c0d870f","650c16f0f2faf8d7a0d14c09","651c1c5023aeb7f8313b287a","null","null","<p style=""font-size: 60px; font-family: BACS"">LOLkUvJQ</p>","","","","","","","","",""
"html-keyboard-response","274","1311624","0.0-14.0-0.23","60f56f0103876eae7c0d870f","650c16f0f2faf8d7a0d14c09","651c1c5023aeb7f8313b287a","null","null","<p style=""font-size: 60px; font-family: BACS"">aOLZUGUa</p>","","","","","","","","",""
"html-keyboard-response","275","1312630","0.0-14.0-0.24","60f56f0103876eae7c0d870f","650c16f0f2faf8d7a0d14c09","651c1c5023aeb7f8313b287a","null","null","<p style=""font-size: 60px; font-family: BACS"">ObOQlrULv</p>","","","","","","","","",""
"html-keyboard-response","276","1313645","0.0-14.0-0.25","60f56f0103876eae7c0d870f","650c16f0f2faf8d7a0d14c09","651c1c5023aeb7f8313b287a","null","null","<p style=""font-size: 60px; font-family: BACS"">RlAKcTAm</p>","","","","","","","","",""
"html-keyboard-response","277","1314667","0.0-14.0-0.26","60f56f0103876eae7c0d870f","650c16f0f2faf8d7a0d14c09","651c1c5023aeb7f8313b287a","null","null","<p style=""font-size: 60px; font-family: BACS"">MBKRElRE</p>","","","","","","","","",""
"html-keyboard-response","278","1315678","0.0-14.0-0.27","60f56f0103876eae7c0d870f","650c16f0f2faf8d7a0d14c09","651c1c5023aeb7f8313b287a","null","null","<p style=""font-size: 60px; font-family: BACS"">kMbTRmAM</p>","","","","","","","","",""
"html-keyboard-response","279","1316693","0.0-14.0-0.28","60f56f0103876eae7c0d870f","650c16f0f2faf8d7a0d14c09","651c1c5023aeb7f8313b287a","null","null","<p style=""font-size: 60px; font-family: BACS"">cuOJbvJQ</p>","","","","","","","","",""
"html-keyboard-response","280","1317711","0.0-14.0-0.29","60f56f0103876eae7c0d870f","650c16f0f2faf8d7a0d14c09","651c1c5023aeb7f8313b287a","null","null","<p style=""font-size: 60px; font-family: BACS"">lBlEbdtK</p>","","","","","","","","",""
"html-keyboard-response","281","1318723","0.0-14.0-0.30","60f56f0103876eae7c0d870f","650c16f0f2faf8d7a0d14c09","651c1c5023aeb7f8313b287a","null","null","<p style=""font-size: 60px; font-family: BACS"">ktBdmtKP</p>","","","","","","","","",""
"html-keyboard-response","282","1319739","0.0-14.0-0.31","60f56f0103876eae7c0d870f","650c16f0f2faf8d7a0d14c09","651c1c5023aeb7f8313b287a","null","null","<p style=""font-size: 60px; font-family: BACS"">hBmMCbdtK</p>","","","","","","","","",""
"html-keyboard-response","283","1320744","0.0-14.0-0.32","60f56f0103876eae7c0d870f","650c16f0f2faf8d7a0d14c09","651c1c5023aeb7f8313b287a","null","null","<p style=""font-size: 60px; font-family: BACS"">YNrAmuUmb</p>","","","","","","","","",""
"html-keyboard-response","284","1321760","0.0-14.0-0.33","60f56f0103876eae7c0d870f","650c16f0f2faf8d7a0d14c09","651c1c5023aeb7f8313b287a","null","null","<p style=""font-size: 60px; font-family: BACS"">OLJblGUa</p>","","","","","","","","",""
"html-keyboard-response","285","1322778","0.0-14.0-0.34","60f56f0103876eae7c0d870f","650c16f0f2faf8d7a0d14c09","651c1c5023aeb7f8313b287a","null","null","<p style=""font-size: 60px; font-family: BACS"">aOLZUrULv</p>","","","","","","","","",""
"html-keyboard-response","286","1323794","0.0-14.0-0.35","60f56f0103876eae7c0d870f","650c16f0f2faf8d7a0d14c09","651c1c5023aeb7f8313b287a","null","null","<p style=""font-size: 60px; font-family: BACS"">lRckAbdtK</p>","","","","","","","","",""
"html-keyboard-response","287","1324808","0.0-14.0-0.36","60f56f0103876eae7c0d870f","650c16f0f2faf8d7a0d14c09","651c1c5023aeb7f8313b287a","null","null","<p style=""font-size: 60px; font-family: BACS"">YNrAmvJQ</p>","","","","","","","","",""
"html-keyboard-response","288","1325813","0.0-14.0-0.37","60f56f0103876eae7c0d870f","650c16f0f2faf8d7a0d14c09","651c1c5023aeb7f8313b287a","null","null","<p style=""font-size: 60px; font-family: BACS"">aOLZUAvdk</p>","","","","","","","","",""
"html-keyboard-response","289","1326821","0.0-14.0-0.38","60f56f0103876eae7c0d870f","650c16f0f2faf8d7a0d14c09","651c1c5023aeb7f8313b287a","null","null","<p style=""font-size: 60px; font-family: BACS"">MDKPlRE</p>","","","","","","","","",""
"html-keyboard-response","290","1327824","0.0-14.0-0.39","60f56f0103876eae7c0d870f","650c16f0f2faf8d7a0d14c09","651c1c5023aeb7f8313b287a","null","null","<p style=""font-size: 60px; font-family: BACS"">ObOQlAvdk</p>","","","","","","","","",""
"html-keyboard-response","291","1328827","0.0-14.0-0.40","60f56f0103876eae7c0d870f","650c16f0f2faf8d7a0d14c09","651c1c5023aeb7f8313b287a","null","null","<p style=""font-size: 60px; font-family: BACS"">dRhtmtKP</p>","","","","","","","","",""
"html-keyboard-response","292","1329831","0.0-14.0-0.41","60f56f0103876eae7c0d870f","650c16f0f2faf8d7a0d14c09","651c1c5023aeb7f8313b287a","null","null","<p style=""font-size: 60px; font-family: BACS"">OLJbluUmb</p>","","","","","","","","",""
"html-keyboard-response","293","1330839","0.0-14.0-0.42","60f56f0103876eae7c0d870f","650c16f0f2faf8d7a0d14c09","651c1c5023aeb7f8313b287a","null","null","<p style=""font-size: 60px; font-family: BACS"">lBlElRE</p>","","","","","","","","",""
"html-keyboard-response","294","1331857","0.0-14.0-0.43","60f56f0103876eae7c0d870f","650c16f0f2faf8d7a0d14c09","651c1c5023aeb7f8313b287a","null","null","<p style=""font-size: 60px; font-family: BACS"">GQrcuUmb</p>","","","","","","","","",""
"html-keyboard-response","295","1332873","0.0-14.0-0.44","60f56f0103876eae7c0d870f","650c16f0f2faf8d7a0d14c09","651c1c5023aeb7f8313b287a","null","null","<p style=""font-size: 60px; font-family: BACS"">bcbMTAm</p>","","","","","","","","",""
"html-keyboard-response","296","1333890","0.0-14.0-0.45","60f56f0103876eae7c0d870f","650c16f0f2faf8d7a0d14c09","651c1c5023aeb7f8313b287a","null","null","<p style=""font-size: 60px; font-family: BACS"">YOZNuUmb</p>","","","","","","","","",""
"html-keyboard-response","297","1334907","0.0-14.0-0.46","60f56f0103876eae7c0d870f","650c16f0f2faf8d7a0d14c09","651c1c5023aeb7f8313b287a","null","null","<p style=""font-size: 60px; font-family: BACS"">bcbMbdtK</p>","","","","","","","","",""
"html-keyboard-response","298","1335925","0.0-14.0-0.47","60f56f0103876eae7c0d870f","650c16f0f2faf8d7a0d14c09","651c1c5023aeb7f8313b287a","null","null","<p style=""font-size: 60px; font-family: BACS"">cuOJbuUmb</p>","","","","","","","","",""
"html-keyboard-response","299","1336940","0.0-14.0-0.48","60f56f0103876eae7c0d870f","650c16f0f2faf8d7a0d14c09","651c1c5023aeb7f8313b287a","null","null","<p style=""font-size: 60px; font-family: BACS"">YOZNGUa</p>","","","","","","","","",""
"html-keyboard-response","300","1337950","0.0-14.0-0.49","60f56f0103876eae7c0d870f","650c16f0f2faf8d7a0d14c09","651c1c5023aeb7f8313b287a","null","null","<p style=""font-size: 60px; font-family: BACS"">dRhtTAm</p>","","","","","","","","",""
"html-keyboard-response","301","1338958","0.0-14.0-0.50","60f56f0103876eae7c0d870f","650c16f0f2faf8d7a0d14c09","651c1c5023aeb7f8313b287a","null","null","<p style=""font-size: 60px; font-family: BACS"">MBKREmtKP</p>","","","","","","","","",""
"html-keyboard-response","302","1339975","0.0-14.0-0.51","60f56f0103876eae7c0d870f","650c16f0f2faf8d7a0d14c09","651c1c5023aeb7f8313b287a","null","null","<p style=""font-size: 60px; font-family: BACS"">hBmMCTAm</p>","","","","","","","","",""
"html-keyboard-response","303","1340991","0.0-14.0-0.52","60f56f0103876eae7c0d870f","650c16f0f2faf8d7a0d14c09","651c1c5023aeb7f8313b287a","null","null","<p style=""font-size: 60px; font-family: BACS"">MBKREmAM</p>","","","","","","","","",""
"html-keyboard-response","304","1342006","0.0-14.0-0.53","60f56f0103876eae7c0d870f","650c16f0f2faf8d7a0d14c09","651c1c5023aeb7f8313b287a","null","null","<p style=""font-size: 60px; font-family: BACS"">ObOQlGUa</p>","","","","","","","","",""
"html-keyboard-response","305","1343012","0.0-14.0-0.54","60f56f0103876eae7c0d870f","650c16f0f2faf8d7a0d14c09","651c1c5023aeb7f8313b287a","null","null","<p style=""font-size: 60px; font-family: BACS"">OkGYuUmb</p>","","","","","","","","",""
"html-keyboard-response","306","1344025","0.0-14.0-0.55","60f56f0103876eae7c0d870f","650c16f0f2faf8d7a0d14c09","651c1c5023aeb7f8313b287a","null","null","<p style=""font-size: 60px; font-family: BACS"">RlAKcmtKP</p>","","","","","","","","",""
"html-keyboard-response","307","1345027","0.0-14.0-0.56","60f56f0103876eae7c0d870f","650c16f0f2faf8d7a0d14c09","651c1c5023aeb7f8313b287a","null","null","<p style=""font-size: 60px; font-family: BACS"">MDKPTAm</p>","","","","","","","","",""
"html-keyboard-response","308","1346033","0.0-14.0-0.57","60f56f0103876eae7c0d870f","650c16f0f2faf8d7a0d14c09","651c1c5023aeb7f8313b287a","null","null","<p style=""font-size: 60px; font-family: BACS"">kMbTRlRE</p>","","","","","","","","",""
"html-keyboard-response","309","1347047","0.0-14.0-0.58","60f56f0103876eae7c0d870f","650c16f0f2faf8d7a0d14c09","651c1c5023aeb7f8313b287a","null","null","<p style=""font-size: 60px; font-family: BACS"">YNrAmrULv</p>","","","","","","","","",""
"html-keyboard-response","310","1348062","0.0-14.0-0.59","60f56f0103876eae7c0d870f","650c16f0f2faf8d7a0d14c09","651c1c5023aeb7f8313b287a","null","null","<p style=""font-size: 60px; font-family: BACS"">OkGYvJQ</p>","","","","","","","","",""
"html-keyboard-response","311","1349070","0.0-14.0-0.60","60f56f0103876eae7c0d870f","650c16f0f2faf8d7a0d14c09","651c1c5023aeb7f8313b287a","null","null","<p style=""font-size: 60px; font-family: BACS"">AmQOYAvdk</p>","","","","","","","","",""
"html-keyboard-response","312","1350078","0.0-14.0-0.61","60f56f0103876eae7c0d870f","650c16f0f2faf8d7a0d14c09","651c1c5023aeb7f8313b287a","null","null","<p style=""font-size: 60px; font-family: BACS"">LOLkUuUmb</p>","","","","","","","","",""
"html-keyboard-response","313","1351081","0.0-14.0-0.62","60f56f0103876eae7c0d870f","650c16f0f2faf8d7a0d14c09","651c1c5023aeb7f8313b287a","null","null","<p style=""font-size: 60px; font-family: BACS"">kMbTRmtKP</p>","","","","","","","","",""
"html-keyboard-response","314","1352095","0.0-14.0-0.63","60f56f0103876eae7c0d870f","650c16f0f2faf8d7a0d14c09","651c1c5023aeb7f8313b287a","null","null","<p style=""font-size: 60px; font-family: BACS"">YOZNAvdk</p>","","","","","","","","",""
"html-keyboard-response","315","1353110","0.0-14.0-0.64","60f56f0103876eae7c0d870f","650c16f0f2faf8d7a0d14c09","651c1c5023aeb7f8313b287a","null","null","<p style=""font-size: 60px; font-family: BACS"">YNrAmGUa</p>","","","","","","","","",""
"html-keyboard-response","316","1354115","0.0-14.0-0.65","60f56f0103876eae7c0d870f","650c16f0f2faf8d7a0d14c09","651c1c5023aeb7f8313b287a","null","null","<p style=""font-size: 60px; font-family: BACS"">lRckAmAM</p>","","","","","","","","",""
"html-keyboard-response","317","1355127","0.0-14.0-0.66","60f56f0103876eae7c0d870f","650c16f0f2faf8d7a0d14c09","651c1c5023aeb7f8313b287a","null","null","<p style=""font-size: 60px; font-family: BACS"">cuOJbrULv</p>","","","","","","","","",""
"html-keyboard-response","318","1356144","0.0-14.0-0.67","60f56f0103876eae7c0d870f","650c16f0f2faf8d7a0d14c09","651c1c5023aeb7f8313b287a","null","null","<p style=""font-size: 60px; font-family: BACS"">MBKRETAm</p>","","","","","","","","",""
"html-keyboard-response","319","1357148","0.0-14.0-0.68","60f56f0103876eae7c0d870f","650c16f0f2faf8d7a0d14c09","651c1c5023aeb7f8313b287a","null","null","<p style=""font-size: 60px; font-family: BACS"">AmQOYGUa</p>","","","","","","","","",""
"html-keyboard-response","320","1358162","0.0-14.0-0.69","60f56f0103876eae7c0d870f","650c16f0f2faf8d7a0d14c09","651c1c5023aeb7f8313b287a","null","null","<p style=""font-size: 60px; font-family: BACS"">lBlEmAM</p>","","","","","","","","",""
"html-keyboard-response","321","1359164","0.0-14.0-0.70","60f56f0103876eae7c0d870f","650c16f0f2faf8d7a0d14c09","651c1c5023aeb7f8313b287a","null","null","<p style=""font-size: 60px; font-family: BACS"">dRhtbdtK</p>","","","","","","","","",""
"html-keyboard-response","322","1360175","0.0-14.0-0.71","60f56f0103876eae7c0d870f","650c16f0f2faf8d7a0d14c09","651c1c5023aeb7f8313b287a","null","null","<p style=""font-size: 60px; font-family: BACS"">bcbMmAM</p>","","","","","","","","",""
"html-keyboard-response","323","1361184","0.0-14.0-0.72","60f56f0103876eae7c0d870f","650c16f0f2faf8d7a0d14c09","651c1c5023aeb7f8313b287a","null","null","<p style=""font-size: 60px; font-family: BACS"">LOLkUGUa</p>","","","","","","","","",""
"html-keyboard-response","324","1362192","0.0-14.0-0.73","60f56f0103876eae7c0d870f","650c16f0f2faf8d7a0d14c09","651c1c5023aeb7f8313b287a","null","null","<p style=""font-size: 60px; font-family: BACS"">hBmMClRE</p>","","","","","","","","",""
"html-keyboard-response","325","1363205","0.0-14.0-0.74","60f56f0103876eae7c0d870f","650c16f0f2faf8d7a0d14c09","651c1c5023aeb7f8313b287a","null","null","<p style=""font-size: 60px; font-family: BACS"">OLJblrULv</p>","","","","","","","","",""
"html-keyboard-response","326","1364211","0.0-14.0-0.75","60f56f0103876eae7c0d870f","650c16f0f2faf8d7a0d14c09","651c1c5023aeb7f8313b287a","null","null","<p style=""font-size: 60px; font-family: BACS"">OkGYAvdk</p>","","","","","","","","",""
"html-keyboard-response","327","1365218","0.0-14.0-0.76","60f56f0103876eae7c0d870f","650c16f0f2faf8d7a0d14c09","651c1c5023aeb7f8313b287a","null","null","<p style=""font-size: 60px; font-family: BACS"">lRckAlRE</p>","","","","","","","","",""
"html-keyboard-response","328","1366226","0.0-14.0-0.77","60f56f0103876eae7c0d870f","650c16f0f2faf8d7a0d14c09","651c1c5023aeb7f8313b287a","null","null","<p style=""font-size: 60px; font-family: BACS"">MDKPbdtK</p>","","","","","","","","",""
"html-keyboard-response","329","1367237","0.0-14.0-0.78","60f56f0103876eae7c0d870f","650c16f0f2faf8d7a0d14c09","651c1c5023aeb7f8313b287a","null","null","<p style=""font-size: 60px; font-family: BACS"">aOLZUuUmb</p>","","","","","","","","",""
"html-keyboard-response","330","1368254","0.0-14.0-0.79","60f56f0103876eae7c0d870f","650c16f0f2faf8d7a0d14c09","651c1c5023aeb7f8313b287a","null","null","<p style=""font-size: 60px; font-family: BACS"">ObOQlvJQ</p>","","","","","","","","",""
"html-keyboard-response","331","1375503","0.0-15.0","60f56f0103876eae7c0d870f","650c16f0f2faf8d7a0d14c09","651c1c5023aeb7f8313b287a","7248"," ","<p>Great, you've seen the fourth block of words. You may now take a short break.</p>
      <p>Press the spacebar when you're ready to continue.</p>","","","","","","","","",""
"html-keyboard-response","332","1376520","0.0-16.0-0.0","60f56f0103876eae7c0d870f","650c16f0f2faf8d7a0d14c09","651c1c5023aeb7f8313b287a","null","null","<p style=""font-size: 60px; font-family: BACS"">kMbTRmtKP</p>","","","","","","","","",""
"html-keyboard-response","333","1377528","0.0-16.0-0.1","60f56f0103876eae7c0d870f","650c16f0f2faf8d7a0d14c09","651c1c5023aeb7f8313b287a","null","null","<p style=""font-size: 60px; font-family: BACS"">kMbTRmtKP</p>","","","","","","","","",""
"html-keyboard-response","334","1378541","0.0-16.0-0.2","60f56f0103876eae7c0d870f","650c16f0f2faf8d7a0d14c09","651c1c5023aeb7f8313b287a","null","null","<p style=""font-size: 60px; font-family: BACS"">kMbTRmtKP</p>","","","","","","","","",""
"html-keyboard-response","335","1379545","0.0-16.0-0.3","60f56f0103876eae7c0d870f","650c16f0f2faf8d7a0d14c09","651c1c5023aeb7f8313b287a","null","null","<p style=""font-size: 60px; font-family: BACS"">kMbTRmtKP</p>","","","","","","","","",""
"html-keyboard-response","336","1380558","0.0-16.0-0.4","60f56f0103876eae7c0d870f","650c16f0f2faf8d7a0d14c09","651c1c5023aeb7f8313b287a","null","null","<p style=""font-size: 60px; font-family: BACS"">kMbTRmtKP</p>","","","","","","","","",""
"html-keyboard-response","337","1381563","0.0-16.0-0.5","60f56f0103876eae7c0d870f","650c16f0f2faf8d7a0d14c09","651c1c5023aeb7f8313b287a","null","null","<p style=""font-size: 60px; font-family: BACS"">kMbTRmtKP</p>","","","","","","","","",""
"html-keyboard-response","338","1382572","0.0-16.0-0.6","60f56f0103876eae7c0d870f","650c16f0f2faf8d7a0d14c09","651c1c5023aeb7f8313b287a","null","null","<p style=""font-size: 60px; font-family: BACS"">kMbTRmtKP</p>","","","","","","","","",""
"html-keyboard-response","339","1383587","0.0-16.0-0.7","60f56f0103876eae7c0d870f","650c16f0f2faf8d7a0d14c09","651c1c5023aeb7f8313b287a","null","null","<p style=""font-size: 60px; font-family: BACS"">kMbTRmtKP</p>","","","","","","","","",""
"html-keyboard-response","340","1384604","0.0-16.0-0.8","60f56f0103876eae7c0d870f","650c16f0f2faf8d7a0d14c09","651c1c5023aeb7f8313b287a","null","null","<p style=""font-size: 60px; font-family: BACS"">kMbTRmtKP</p>","","","","","","","","",""
"html-keyboard-response","341","1385608","0.0-16.0-0.9","60f56f0103876eae7c0d870f","650c16f0f2faf8d7a0d14c09","651c1c5023aeb7f8313b287a","null","null","<p style=""font-size: 60px; font-family: BACS"">kMbTRmtKP</p>","","","","","","","","",""
"html-keyboard-response","342","1386626","0.0-16.0-0.10","60f56f0103876eae7c0d870f","650c16f0f2faf8d7a0d14c09","651c1c5023aeb7f8313b287a","null","null","<p style=""font-size: 60px; font-family: BACS"">kMbTRmtKP</p>","","","","","","","","",""
"html-keyboard-response","343","1387629","0.0-16.0-0.11","60f56f0103876eae7c0d870f","650c16f0f2faf8d7a0d14c09","651c1c5023aeb7f8313b287a","null","null","<p style=""font-size: 60px; font-family: BACS"">kMbTRmtKP</p>","","","","","","","","",""
"html-keyboard-response","344","1388647","0.0-16.0-0.12","60f56f0103876eae7c0d870f","650c16f0f2faf8d7a0d14c09","651c1c5023aeb7f8313b287a","null","null","<p style=""font-size: 60px; font-family: BACS"">kMbTRmtKP</p>","","","","","","","","",""
"html-keyboard-response","345","1389658","0.0-16.0-0.13","60f56f0103876eae7c0d870f","650c16f0f2faf8d7a0d14c09","651c1c5023aeb7f8313b287a","null","null","<p style=""font-size: 60px; font-family: BACS"">kMbTRmtKP</p>","","","","","","","","",""
"html-keyboard-response","346","1390675","0.0-16.0-0.14","60f56f0103876eae7c0d870f","650c16f0f2faf8d7a0d14c09","651c1c5023aeb7f8313b287a","null","null","<p style=""font-size: 60px; font-family: BACS"">kMbTRmtKP</p>","","","","","","","","",""
"html-keyboard-response","347","1391688","0.0-16.0-0.15","60f56f0103876eae7c0d870f","650c16f0f2faf8d7a0d14c09","651c1c5023aeb7f8313b287a","null","null","<p style=""font-size: 60px; font-family: BACS"">kMbTRmtKP</p>","","","","","","","","",""
"html-keyboard-response","348","1392702","0.0-16.0-0.16","60f56f0103876eae7c0d870f","650c16f0f2faf8d7a0d14c09","651c1c5023aeb7f8313b287a","null","null","<p style=""font-size: 60px; font-family: BACS"">kMbTRmtKP</p>","","","","","","","","",""
"html-keyboard-response","349","1393705","0.0-16.0-0.17","60f56f0103876eae7c0d870f","650c16f0f2faf8d7a0d14c09","651c1c5023aeb7f8313b287a","null","null","<p style=""font-size: 60px; font-family: BACS"">kMbTRmtKP</p>","","","","","","","","",""
"html-keyboard-response","350","1394725","0.0-16.0-0.18","60f56f0103876eae7c0d870f","650c16f0f2faf8d7a0d14c09","651c1c5023aeb7f8313b287a","null","null","<p style=""font-size: 60px; font-family: BACS"">kMbTRmtKP</p>","","","","","","","","",""
"html-keyboard-response","351","1395738","0.0-16.0-0.19","60f56f0103876eae7c0d870f","650c16f0f2faf8d7a0d14c09","651c1c5023aeb7f8313b287a","null","null","<p style=""font-size: 60px; font-family: BACS"">kMbTRmtKP</p>","","","","","","","","",""
"html-keyboard-response","352","1396753","0.0-16.0-0.20","60f56f0103876eae7c0d870f","650c16f0f2faf8d7a0d14c09","651c1c5023aeb7f8313b287a","null","null","<p style=""font-size: 60px; font-family: BACS"">kMbTRmtKP</p>","","","","","","","","",""
"html-keyboard-response","353","1397771","0.0-16.0-0.21","60f56f0103876eae7c0d870f","650c16f0f2faf8d7a0d14c09","651c1c5023aeb7f8313b287a","null","null","<p style=""font-size: 60px; font-family: BACS"">kMbTRmtKP</p>","","","","","","","","",""
"html-keyboard-response","354","1398773","0.0-16.0-0.22","60f56f0103876eae7c0d870f","650c16f0f2faf8d7a0d14c09","651c1c5023aeb7f8313b287a","null","null","<p style=""font-size: 60px; font-family: BACS"">kMbTRmtKP</p>","","","","","","","","",""
"html-keyboard-response","355","1399783","0.0-16.0-0.23","60f56f0103876eae7c0d870f","650c16f0f2faf8d7a0d14c09","651c1c5023aeb7f8313b287a","null","null","<p style=""font-size: 60px; font-family: BACS"">kMbTRmtKP</p>","","","","","","","","",""
"html-keyboard-response","356","1400792","0.0-16.0-0.24","60f56f0103876eae7c0d870f","650c16f0f2faf8d7a0d14c09","651c1c5023aeb7f8313b287a","null","null","<p style=""font-size: 60px; font-family: BACS"">kMbTRmtKP</p>","","","","","","","","",""
"html-keyboard-response","357","1401804","0.0-16.0-0.25","60f56f0103876eae7c0d870f","650c16f0f2faf8d7a0d14c09","651c1c5023aeb7f8313b287a","null","null","<p style=""font-size: 60px; font-family: BACS"">kMbTRmtKP</p>","","","","","","","","",""
"html-keyboard-response","358","1402822","0.0-16.0-0.26","60f56f0103876eae7c0d870f","650c16f0f2faf8d7a0d14c09","651c1c5023aeb7f8313b287a","null","null","<p style=""font-size: 60px; font-family: BACS"">kMbTRmtKP</p>","","","","","","","","",""
"html-keyboard-response","359","1403826","0.0-16.0-0.27","60f56f0103876eae7c0d870f","650c16f0f2faf8d7a0d14c09","651c1c5023aeb7f8313b287a","null","null","<p style=""font-size: 60px; font-family: BACS"">kMbTRmtKP</p>","","","","","","","","",""
"html-keyboard-response","360","1404839","0.0-16.0-0.28","60f56f0103876eae7c0d870f","650c16f0f2faf8d7a0d14c09","651c1c5023aeb7f8313b287a","null","null","<p style=""font-size: 60px; font-family: BACS"">kMbTRmtKP</p>","","","","","","","","",""
"html-keyboard-response","361","1405843","0.0-16.0-0.29","60f56f0103876eae7c0d870f","650c16f0f2faf8d7a0d14c09","651c1c5023aeb7f8313b287a","null","null","<p style=""font-size: 60px; font-family: BACS"">kMbTRmtKP</p>","","","","","","","","",""
"html-keyboard-response","362","1406846","0.0-16.0-0.30","60f56f0103876eae7c0d870f","650c16f0f2faf8d7a0d14c09","651c1c5023aeb7f8313b287a","null","null","<p style=""font-size: 60px; font-family: BACS"">kMbTRmtKP</p>","","","","","","","","",""
"html-keyboard-response","363","1407861","0.0-16.0-0.31","60f56f0103876eae7c0d870f","650c16f0f2faf8d7a0d14c09","651c1c5023aeb7f8313b287a","null","null","<p style=""font-size: 60px; font-family: BACS"">kMbTRmtKP</p>","","","","","","","","",""
"html-keyboard-response","364","1408879","0.0-16.0-0.32","60f56f0103876eae7c0d870f","650c16f0f2faf8d7a0d14c09","651c1c5023aeb7f8313b287a","null","null","<p style=""font-size: 60px; font-family: BACS"">kMbTRmtKP</p>","","","","","","","","",""
"html-keyboard-response","365","1409890","0.0-16.0-0.33","60f56f0103876eae7c0d870f","650c16f0f2faf8d7a0d14c09","651c1c5023aeb7f8313b287a","null","null","<p style=""font-size: 60px; font-family: BACS"">kMbTRmtKP</p>","","","","","","","","",""
"html-keyboard-response","366","1410905","0.0-16.0-0.34","60f56f0103876eae7c0d870f","650c16f0f2faf8d7a0d14c09","651c1c5023aeb7f8313b287a","null","null","<p style=""font-size: 60px; font-family: BACS"">kMbTRmtKP</p>","","","","","","","","",""
"html-keyboard-response","367","1411912","0.0-16.0-0.35","60f56f0103876eae7c0d870f","650c16f0f2faf8d7a0d14c09","651c1c5023aeb7f8313b287a","null","null","<p style=""font-size: 60px; font-family: BACS"">kMbTRmtKP</p>","","","","","","","","",""
"html-keyboard-response","368","1412924","0.0-16.0-0.36","60f56f0103876eae7c0d870f","650c16f0f2faf8d7a0d14c09","651c1c5023aeb7f8313b287a","null","null","<p style=""font-size: 60px; font-family: BACS"">kMbTRmtKP</p>","","","","","","","","",""
"html-keyboard-response","369","1413939","0.0-16.0-0.37","60f56f0103876eae7c0d870f","650c16f0f2faf8d7a0d14c09","651c1c5023aeb7f8313b287a","null","null","<p style=""font-size: 60px; font-family: BACS"">kMbTRmtKP</p>","","","","","","","","",""
"html-keyboard-response","370","1414954","0.0-16.0-0.38","60f56f0103876eae7c0d870f","650c16f0f2faf8d7a0d14c09","651c1c5023aeb7f8313b287a","null","null","<p style=""font-size: 60px; font-family: BACS"">kMbTRmtKP</p>","","","","","","","","",""
"html-keyboard-response","371","1415964","0.0-16.0-0.39","60f56f0103876eae7c0d870f","650c16f0f2faf8d7a0d14c09","651c1c5023aeb7f8313b287a","null","null","<p style=""font-size: 60px; font-family: BACS"">kMbTRmtKP</p>","","","","","","","","",""
"html-keyboard-response","372","1416971","0.0-16.0-0.40","60f56f0103876eae7c0d870f","650c16f0f2faf8d7a0d14c09","651c1c5023aeb7f8313b287a","null","null","<p style=""font-size: 60px; font-family: BACS"">kMbTRmtKP</p>","","","","","","","","",""
"html-keyboard-response","373","1417985","0.0-16.0-0.41","60f56f0103876eae7c0d870f","650c16f0f2faf8d7a0d14c09","651c1c5023aeb7f8313b287a","null","null","<p style=""font-size: 60px; font-family: BACS"">kMbTRmtKP</p>","","","","","","","","",""
"html-keyboard-response","374","1418989","0.0-16.0-0.42","60f56f0103876eae7c0d870f","650c16f0f2faf8d7a0d14c09","651c1c5023aeb7f8313b287a","null","null","<p style=""font-size: 60px; font-family: BACS"">kMbTRmtKP</p>","","","","","","","","",""
"html-keyboard-response","375","1420004","0.0-16.0-0.43","60f56f0103876eae7c0d870f","650c16f0f2faf8d7a0d14c09","651c1c5023aeb7f8313b287a","null","null","<p style=""font-size: 60px; font-family: BACS"">kMbTRmtKP</p>","","","","","","","","",""
"html-keyboard-response","376","1421024","0.0-16.0-0.44","60f56f0103876eae7c0d870f","650c16f0f2faf8d7a0d14c09","651c1c5023aeb7f8313b287a","null","null","<p style=""font-size: 60px; font-family: BACS"">kMbTRmtKP</p>","","","","","","","","",""
"html-keyboard-response","377","1422040","0.0-16.0-0.45","60f56f0103876eae7c0d870f","650c16f0f2faf8d7a0d14c09","651c1c5023aeb7f8313b287a","null","null","<p style=""font-size: 60px; font-family: BACS"">kMbTRmtKP</p>","","","","","","","","",""
"html-keyboard-response","378","1423045","0.0-16.0-0.46","60f56f0103876eae7c0d870f","650c16f0f2faf8d7a0d14c09","651c1c5023aeb7f8313b287a","null","null","<p style=""font-size: 60px; font-family: BACS"">kMbTRmtKP</p>","","","","","","","","",""
"html-keyboard-response","379","1424056","0.0-16.0-0.47","60f56f0103876eae7c0d870f","650c16f0f2faf8d7a0d14c09","651c1c5023aeb7f8313b287a","null","null","<p style=""font-size: 60px; font-family: BACS"">kMbTRmtKP</p>","","","","","","","","",""
"html-keyboard-response","380","1425062","0.0-16.0-0.48","60f56f0103876eae7c0d870f","650c16f0f2faf8d7a0d14c09","651c1c5023aeb7f8313b287a","null","null","<p style=""font-size: 60px; font-family: BACS"">kMbTRmtKP</p>","","","","","","","","",""
"html-keyboard-response","381","1426076","0.0-16.0-0.49","60f56f0103876eae7c0d870f","650c16f0f2faf8d7a0d14c09","651c1c5023aeb7f8313b287a","null","null","<p style=""font-size: 60px; font-family: BACS"">kMbTRmtKP</p>","","","","","","","","",""
"html-keyboard-response","382","1427091","0.0-16.0-0.50","60f56f0103876eae7c0d870f","650c16f0f2faf8d7a0d14c09","651c1c5023aeb7f8313b287a","null","null","<p style=""font-size: 60px; font-family: BACS"">kMbTRmtKP</p>","","","","","","","","",""
"html-keyboard-response","383","1428095","0.0-16.0-0.51","60f56f0103876eae7c0d870f","650c16f0f2faf8d7a0d14c09","651c1c5023aeb7f8313b287a","null","null","<p style=""font-size: 60px; font-family: BACS"">kMbTRmtKP</p>","","","","","","","","",""
"html-keyboard-response","384","1429112","0.0-16.0-0.52","60f56f0103876eae7c0d870f","650c16f0f2faf8d7a0d14c09","651c1c5023aeb7f8313b287a","null","null","<p style=""font-size: 60px; font-family: BACS"">kMbTRmtKP</p>","","","","","","","","",""
"html-keyboard-response","385","1430125","0.0-16.0-0.53","60f56f0103876eae7c0d870f","650c16f0f2faf8d7a0d14c09","651c1c5023aeb7f8313b287a","null","null","<p style=""font-size: 60px; font-family: BACS"">kMbTRmtKP</p>","","","","","","","","",""
"html-keyboard-response","386","1431129","0.0-16.0-0.54","60f56f0103876eae7c0d870f","650c16f0f2faf8d7a0d14c09","651c1c5023aeb7f8313b287a","null","null","<p style=""font-size: 60px; font-family: BACS"">kMbTRmtKP</p>","","","","","","","","",""
"html-keyboard-response","387","1432144","0.0-16.0-0.55","60f56f0103876eae7c0d870f","650c16f0f2faf8d7a0d14c09","651c1c5023aeb7f8313b287a","null","null","<p style=""font-size: 60px; font-family: BACS"">kMbTRmtKP</p>","","","","","","","","",""
"html-keyboard-response","388","1433152","0.0-16.0-0.56","60f56f0103876eae7c0d870f","650c16f0f2faf8d7a0d14c09","651c1c5023aeb7f8313b287a","null","null","<p style=""font-size: 60px; font-family: BACS"">kMbTRmtKP</p>","","","","","","","","",""
"html-keyboard-response","389","1434165","0.0-16.0-0.57","60f56f0103876eae7c0d870f","650c16f0f2faf8d7a0d14c09","651c1c5023aeb7f8313b287a","null","null","<p style=""font-size: 60px; font-family: BACS"">kMbTRmtKP</p>","","","","","","","","",""
"html-keyboard-response","390","1435169","0.0-16.0-0.58","60f56f0103876eae7c0d870f","650c16f0f2faf8d7a0d14c09","651c1c5023aeb7f8313b287a","null","null","<p style=""font-size: 60px; font-family: BACS"">kMbTRmtKP</p>","","","","","","","","",""
"html-keyboard-response","391","1436174","0.0-16.0-0.59","60f56f0103876eae7c0d870f","650c16f0f2faf8d7a0d14c09","651c1c5023aeb7f8313b287a","null","null","<p style=""font-size: 60px; font-family: BACS"">kMbTRmtKP</p>","","","","","","","","",""
"html-keyboard-response","392","1437190","0.0-16.0-0.60","60f56f0103876eae7c0d870f","650c16f0f2faf8d7a0d14c09","651c1c5023aeb7f8313b287a","null","null","<p style=""font-size: 60px; font-family: BACS"">kMbTRmtKP</p>","","","","","","","","",""
"html-keyboard-response","393","1438201","0.0-16.0-0.61","60f56f0103876eae7c0d870f","650c16f0f2faf8d7a0d14c09","651c1c5023aeb7f8313b287a","null","null","<p style=""font-size: 60px; font-family: BACS"">kMbTRmtKP</p>","","","","","","","","",""
"html-keyboard-response","394","1439206","0.0-16.0-0.62","60f56f0103876eae7c0d870f","650c16f0f2faf8d7a0d14c09","651c1c5023aeb7f8313b287a","null","null","<p style=""font-size: 60px; font-family: BACS"">kMbTRmtKP</p>","","","","","","","","",""
"html-keyboard-response","395","1440221","0.0-16.0-0.63","60f56f0103876eae7c0d870f","650c16f0f2faf8d7a0d14c09","651c1c5023aeb7f8313b287a","null","null","<p style=""font-size: 60px; font-family: BACS"">kMbTRmtKP</p>","","","","","","","","",""
"html-keyboard-response","396","1441237","0.0-16.0-0.64","60f56f0103876eae7c0d870f","650c16f0f2faf8d7a0d14c09","651c1c5023aeb7f8313b287a","null","null","<p style=""font-size: 60px; font-family: BACS"">kMbTRmtKP</p>","","","","","","","","",""
