"trial_type","trial_index","time_elapsed","internal_node_id","subject_id","study_id","session_id","rt","response","stimulus","success","item","task","correct_response","testing_condition","correct","target","confound","name"
"pavlovia","0","949","0.0-0.0","5e2c6968e97bec29709a53c6","650c16f0f2faf8d7a0d14c09","651c1bfa687bb1febdc60fb6","","","","","","","","","","","",""
"survey-html-form","1","7492","0.0-1.0","5e2c6968e97bec29709a53c6","650c16f0f2faf8d7a0d14c09","651c1bfa687bb1febdc60fb6","6542","{""ID"":""5e2c6968e97bec29709a53c6""}","","","","","","","","","",""
"html-keyboard-response","2","43201","0.0-2.0","5e2c6968e97bec29709a53c6","650c16f0f2faf8d7a0d14c09","651c1bfa687bb1febdc60fb6","35708"," ","<p style=""font-size: 15px;"">Before beginning, we ask that you read the consent information and confirm your agreement to participate in the experiment.</p>
      <p style=""font-size: 15px;""> We ask that you remember that this is a research project and that your participation is entirely voluntary. You can stop your participation at any time, without needing to provide any explanation. The study we're asking you to participate in aims at examining how readers process written words. You will be engaged in a session of apprximately 20 minutes, followed by a brief questionnaire. You will have the opportunity to take a few breaks during the experiment. You will be paid £4 for your participation, corresponding to a rate of £8/hour. While this experiment looks at cognitive faculties, this experiment doesn't constitute clinical proof of eventual pathologies.</p>
      <p style=""font-size: 15px;"">All of the information collected thanks to yours and others' participation will be held in a secure password-protected server, and will not be shared with anyone not authorised to view it. Your personal information will be kept with an arbitrary participant ID. Thanks to this data anonymity process, any researcher analysing the data won't be able to track the information back to a specific participant. Therefore, this process will make identifying you impossibile, even when results from the study will be published in scientific reviews, presented at congresses, or at any other public forum. More generally, the collected data will be treated in accordance with the laws on privacy and conformity to the Legislative Degree n. 196 ""Code regarding the protection of personal data"" of the 30th of June 2003 and to the European Regulation 2016/670 (General Data Protection Regulation - GDPR). The Data Protection Officer is Avv. Valentina Carollo, who can be contacted at the following email addresses: <a href=""mailto:dpo@sissa.it"">dpo@sissa.it</a> or <a href=""mailto:rpd@sissa.it"">rpd@sissa.it</a> - PEC: <a href=""mailto:protocollo@pec.sissa.it"">protocollo@pec.sissa.it</a>.</p>
      <p style=""font-size: 15px;""> Before expressing your consent to participate, we would like to remind you again that in case you need explanations on any aspect of the experimental procedure, the researcher is at your disposition (<a href=""mailto:aliebelt@sissa.it"">aliebelt@sissa.it</a>, <a href=""mailto:davide.crepaldi@sissa.it"">davide.crepaldi@sissa.it</a>).</p>
      <p style=""font-size: 15px;"">If you would like to download the informed consent form, you can do so here: <a href=""BASL-Informed_Consent.pdf"" download>informed consent form</a>.</p>
      <p style=""font-size: 15px;"">We ask that you press the spacebar to proceed to the consent section.</p>","","","","","","","","",""
"survey-html-form","3","74945","0.0-3.0","5e2c6968e97bec29709a53c6","650c16f0f2faf8d7a0d14c09","651c1bfa687bb1febdc60fb6","31743","{""consent1"":""YES"",""consent2"":""YES"",""consent3"":""YES"",""consent4"":""YES"",""consent5"":""YES"",""consent6"":""YES""}","","","","","","","","","",""
"fullscreen","4","82234","0.0-4.0","5e2c6968e97bec29709a53c6","650c16f0f2faf8d7a0d14c09","651c1bfa687bb1febdc60fb6","","","","true","","","","","","","",""
"html-keyboard-response","5","104567","0.0-5.0","5e2c6968e97bec29709a53c6","650c16f0f2faf8d7a0d14c09","651c1bfa687bb1febdc60fb6","22332"," ","<p>Welcome, and thank you very much for your time!</p>
      <p>In this experiment, you'll be a language expert who's been asked to take a look at words that Earth has received in its first communication with aliens. Your task, in this first part of the experiment, is to pay close attention to the words you'll be shown; later, world leaders will ask you questions on what you saw. The words will be shown to you quite quickly; it seems that the aliens were in a hurry :-)</p>
      <p>Press the spacebar to continue.<p>","","","","","","","","",""
"html-keyboard-response","6","104629","0.0-6.0","5e2c6968e97bec29709a53c6","650c16f0f2faf8d7a0d14c09","651c1bfa687bb1febdc60fb6","null","null","<p style=""font-size: 120px; font-family: BACS""> </p>","","","","","","","","",""
"html-keyboard-response","7","111502","0.0-7.0","5e2c6968e97bec29709a53c6","650c16f0f2faf8d7a0d14c09","651c1bfa687bb1febdc60fb6","6873"," ","<p>Here is an example of the words you'll see:</p>
      <img src='esempio.png' height='400px'>
      <p>When you're ready to begin, press the spacebar.</p></div>","","","","","","","","",""
"html-keyboard-response","8","112504","0.0-8.0-0.0","5e2c6968e97bec29709a53c6","650c16f0f2faf8d7a0d14c09","651c1bfa687bb1febdc60fb6","null","null","<p style=""font-size: 60px; font-family: BACS"">RYtkcbAMO</p>","","","","","","","","",""
"html-keyboard-response","9","113514","0.0-8.0-0.1","5e2c6968e97bec29709a53c6","650c16f0f2faf8d7a0d14c09","651c1bfa687bb1febdc60fb6","null","null","<p style=""font-size: 60px; font-family: BACS"">aONdmvG</p>","","","","","","","","",""
"html-keyboard-response","10","114528","0.0-8.0-0.2","5e2c6968e97bec29709a53c6","650c16f0f2faf8d7a0d14c09","651c1bfa687bb1febdc60fb6","null","null","<p style=""font-size: 60px; font-family: BACS"">DOchlAdYl</p>","","","","","","","","",""
"html-keyboard-response","11","115537","0.0-8.0-0.3","5e2c6968e97bec29709a53c6","650c16f0f2faf8d7a0d14c09","651c1bfa687bb1febdc60fb6","null","null","<p style=""font-size: 60px; font-family: BACS"">JrGvuUmb</p>","","","","","","","","",""
"html-keyboard-response","12","116553","0.0-8.0-0.4","5e2c6968e97bec29709a53c6","650c16f0f2faf8d7a0d14c09","651c1bfa687bb1febdc60fb6","null","null","<p style=""font-size: 60px; font-family: BACS"">bmbNuUY</p>","","","","","","","","",""
"html-keyboard-response","13","117567","0.0-8.0-0.5","5e2c6968e97bec29709a53c6","650c16f0f2faf8d7a0d14c09","651c1bfa687bb1febdc60fb6","null","null","<p style=""font-size: 60px; font-family: BACS"">ZdNmUuvJ</p>","","","","","","","","",""
"html-keyboard-response","14","118581","0.0-8.0-0.6","5e2c6968e97bec29709a53c6","650c16f0f2faf8d7a0d14c09","651c1bfa687bb1febdc60fb6","null","null","<p style=""font-size: 60px; font-family: BACS"">mdkKbAMO</p>","","","","","","","","",""
"html-keyboard-response","15","119582","0.0-8.0-0.7","5e2c6968e97bec29709a53c6","650c16f0f2faf8d7a0d14c09","651c1bfa687bb1febdc60fb6","null","null","<p style=""font-size: 60px; font-family: BACS"">MlthAdYl</p>","","","","","","","","",""
"html-keyboard-response","16","120582","0.0-8.0-0.8","5e2c6968e97bec29709a53c6","650c16f0f2faf8d7a0d14c09","651c1bfa687bb1febdc60fb6","null","null","<p style=""font-size: 60px; font-family: BACS"">JrGvuZc</p>","","","","","","","","",""
"html-keyboard-response","17","121596","0.0-8.0-0.9","5e2c6968e97bec29709a53c6","650c16f0f2faf8d7a0d14c09","651c1bfa687bb1febdc60fb6","null","null","<p style=""font-size: 60px; font-family: BACS"">cRElDBbM</p>","","","","","","","","",""
"html-keyboard-response","18","122610","0.0-8.0-0.10","5e2c6968e97bec29709a53c6","650c16f0f2faf8d7a0d14c09","651c1bfa687bb1febdc60fb6","null","null","<p style=""font-size: 60px; font-family: BACS"">rkYLuvJ</p>","","","","","","","","",""
"html-keyboard-response","19","123622","0.0-8.0-0.11","5e2c6968e97bec29709a53c6","650c16f0f2faf8d7a0d14c09","651c1bfa687bb1febdc60fb6","null","null","<p style=""font-size: 60px; font-family: BACS"">YQbcmvG</p>","","","","","","","","",""
"html-keyboard-response","20","124635","0.0-8.0-0.12","5e2c6968e97bec29709a53c6","650c16f0f2faf8d7a0d14c09","651c1bfa687bb1febdc60fb6","null","null","<p style=""font-size: 60px; font-family: BACS"">RYtkcPEdK</p>","","","","","","","","",""
"html-keyboard-response","21","125649","0.0-8.0-0.13","5e2c6968e97bec29709a53c6","650c16f0f2faf8d7a0d14c09","651c1bfa687bb1febdc60fb6","null","null","<p style=""font-size: 60px; font-family: BACS"">YQbcuUmb</p>","","","","","","","","",""
"html-keyboard-response","22","126660","0.0-8.0-0.14","5e2c6968e97bec29709a53c6","650c16f0f2faf8d7a0d14c09","651c1bfa687bb1febdc60fb6","null","null","<p style=""font-size: 60px; font-family: BACS"">bvuZmvG</p>","","","","","","","","",""
"html-keyboard-response","23","127674","0.0-8.0-0.15","5e2c6968e97bec29709a53c6","650c16f0f2faf8d7a0d14c09","651c1bfa687bb1febdc60fb6","null","null","<p style=""font-size: 60px; font-family: BACS"">lhCTCbAMO</p>","","","","","","","","",""
"html-keyboard-response","24","128675","0.0-8.0-0.16","5e2c6968e97bec29709a53c6","650c16f0f2faf8d7a0d14c09","651c1bfa687bb1febdc60fb6","null","null","<p style=""font-size: 60px; font-family: BACS"">bAdkOtM</p>","","","","","","","","",""
"html-keyboard-response","25","129683","0.0-8.0-0.17","5e2c6968e97bec29709a53c6","650c16f0f2faf8d7a0d14c09","651c1bfa687bb1febdc60fb6","null","null","<p style=""font-size: 60px; font-family: BACS"">bmbNuUmb</p>","","","","","","","","",""
"html-keyboard-response","26","130694","0.0-8.0-0.18","5e2c6968e97bec29709a53c6","650c16f0f2faf8d7a0d14c09","651c1bfa687bb1febdc60fb6","null","null","<p style=""font-size: 60px; font-family: BACS"">cRElDAdYl</p>","","","","","","","","",""
"html-keyboard-response","27","131704","0.0-8.0-0.19","5e2c6968e97bec29709a53c6","650c16f0f2faf8d7a0d14c09","651c1bfa687bb1febdc60fb6","null","null","<p style=""font-size: 60px; font-family: BACS"">EMYKOtM</p>","","","","","","","","",""
"html-keyboard-response","28","132717","0.0-8.0-0.20","5e2c6968e97bec29709a53c6","650c16f0f2faf8d7a0d14c09","651c1bfa687bb1febdc60fb6","null","null","<p style=""font-size: 60px; font-family: BACS"">PhktkbAMO</p>","","","","","","","","",""
"html-keyboard-response","29","133729","0.0-8.0-0.21","5e2c6968e97bec29709a53c6","650c16f0f2faf8d7a0d14c09","651c1bfa687bb1febdc60fb6","null","null","<p style=""font-size: 60px; font-family: BACS"">DOchlBbM</p>","","","","","","","","",""
"html-keyboard-response","30","134744","0.0-8.0-0.22","5e2c6968e97bec29709a53c6","650c16f0f2faf8d7a0d14c09","651c1bfa687bb1febdc60fb6","null","null","<p style=""font-size: 60px; font-family: BACS"">GLYrAmvG</p>","","","","","","","","",""
"html-keyboard-response","31","135758","0.0-8.0-0.23","5e2c6968e97bec29709a53c6","650c16f0f2faf8d7a0d14c09","651c1bfa687bb1febdc60fb6","null","null","<p style=""font-size: 60px; font-family: BACS"">LdQvuUmb</p>","","","","","","","","",""
"html-keyboard-response","32","136769","0.0-8.0-0.24","5e2c6968e97bec29709a53c6","650c16f0f2faf8d7a0d14c09","651c1bfa687bb1febdc60fb6","null","null","<p style=""font-size: 60px; font-family: BACS"">PhktkOtM</p>","","","","","","","","",""
"html-keyboard-response","33","137782","0.0-8.0-0.25","5e2c6968e97bec29709a53c6","650c16f0f2faf8d7a0d14c09","651c1bfa687bb1febdc60fb6","null","null","<p style=""font-size: 60px; font-family: BACS"">ZdNmUmvG</p>","","","","","","","","",""
"html-keyboard-response","34","138795","0.0-8.0-0.26","5e2c6968e97bec29709a53c6","650c16f0f2faf8d7a0d14c09","651c1bfa687bb1febdc60fb6","null","null","<p style=""font-size: 60px; font-family: BACS"">EMYKbAMO</p>","","","","","","","","",""
"html-keyboard-response","35","139807","0.0-8.0-0.27","5e2c6968e97bec29709a53c6","650c16f0f2faf8d7a0d14c09","651c1bfa687bb1febdc60fb6","null","null","<p style=""font-size: 60px; font-family: BACS"">PCPDhPEdK</p>","","","","","","","","",""
"html-keyboard-response","36","140821","0.0-8.0-0.28","5e2c6968e97bec29709a53c6","650c16f0f2faf8d7a0d14c09","651c1bfa687bb1febdc60fb6","null","null","<p style=""font-size: 60px; font-family: BACS"">lhCTCAdYl</p>","","","","","","","","",""
"html-keyboard-response","37","141834","0.0-8.0-0.29","5e2c6968e97bec29709a53c6","650c16f0f2faf8d7a0d14c09","651c1bfa687bb1febdc60fb6","null","null","<p style=""font-size: 60px; font-family: BACS"">rkYLuUY</p>","","","","","","","","",""
"html-keyboard-response","38","142846","0.0-8.0-0.30","5e2c6968e97bec29709a53c6","650c16f0f2faf8d7a0d14c09","651c1bfa687bb1febdc60fb6","null","null","<p style=""font-size: 60px; font-family: BACS"">PCPDhBbM</p>","","","","","","","","",""
"html-keyboard-response","39","143861","0.0-8.0-0.31","5e2c6968e97bec29709a53c6","650c16f0f2faf8d7a0d14c09","651c1bfa687bb1febdc60fb6","null","null","<p style=""font-size: 60px; font-family: BACS"">bAdkPEdK</p>","","","","","","","","",""
"html-keyboard-response","40","144875","0.0-8.0-0.32","5e2c6968e97bec29709a53c6","650c16f0f2faf8d7a0d14c09","651c1bfa687bb1febdc60fb6","null","null","<p style=""font-size: 60px; font-family: BACS"">bvuZuvJ</p>","","","","","","","","",""
"html-keyboard-response","41","145876","0.0-8.0-0.33","5e2c6968e97bec29709a53c6","650c16f0f2faf8d7a0d14c09","651c1bfa687bb1febdc60fb6","null","null","<p style=""font-size: 60px; font-family: BACS"">JrGvmvG</p>","","","","","","","","",""
"html-keyboard-response","42","146885","0.0-8.0-0.34","5e2c6968e97bec29709a53c6","650c16f0f2faf8d7a0d14c09","651c1bfa687bb1febdc60fb6","null","null","<p style=""font-size: 60px; font-family: BACS"">mdkKOtM</p>","","","","","","","","",""
"html-keyboard-response","43","147898","0.0-8.0-0.35","5e2c6968e97bec29709a53c6","650c16f0f2faf8d7a0d14c09","651c1bfa687bb1febdc60fb6","null","null","<p style=""font-size: 60px; font-family: BACS"">DOchlbAMO</p>","","","","","","","","",""
"html-keyboard-response","44","148910","0.0-8.0-0.36","5e2c6968e97bec29709a53c6","650c16f0f2faf8d7a0d14c09","651c1bfa687bb1febdc60fb6","null","null","<p style=""font-size: 60px; font-family: BACS"">bmbNuvJ</p>","","","","","","","","",""
"html-keyboard-response","45","149925","0.0-8.0-0.37","5e2c6968e97bec29709a53c6","650c16f0f2faf8d7a0d14c09","651c1bfa687bb1febdc60fb6","null","null","<p style=""font-size: 60px; font-family: BACS"">rkYLmvG</p>","","","","","","","","",""
"html-keyboard-response","46","150926","0.0-8.0-0.38","5e2c6968e97bec29709a53c6","650c16f0f2faf8d7a0d14c09","651c1bfa687bb1febdc60fb6","null","null","<p style=""font-size: 60px; font-family: BACS"">uAkruUY</p>","","","","","","","","",""
"html-keyboard-response","47","151935","0.0-8.0-0.39","5e2c6968e97bec29709a53c6","650c16f0f2faf8d7a0d14c09","651c1bfa687bb1febdc60fb6","null","null","<p style=""font-size: 60px; font-family: BACS"">DOchlPEdK</p>","","","","","","","","",""
"html-keyboard-response","48","152947","0.0-8.0-0.40","5e2c6968e97bec29709a53c6","650c16f0f2faf8d7a0d14c09","651c1bfa687bb1febdc60fb6","null","null","<p style=""font-size: 60px; font-family: BACS"">mdkKBbM</p>","","","","","","","","",""
"html-keyboard-response","49","153961","0.0-8.0-0.41","5e2c6968e97bec29709a53c6","650c16f0f2faf8d7a0d14c09","651c1bfa687bb1febdc60fb6","null","null","<p style=""font-size: 60px; font-family: BACS"">bvuZuUmb</p>","","","","","","","","",""
"html-keyboard-response","50","154975","0.0-8.0-0.42","5e2c6968e97bec29709a53c6","650c16f0f2faf8d7a0d14c09","651c1bfa687bb1febdc60fb6","null","null","<p style=""font-size: 60px; font-family: BACS"">LdQvuvJ</p>","","","","","","","","",""
"html-keyboard-response","51","155985","0.0-8.0-0.43","5e2c6968e97bec29709a53c6","650c16f0f2faf8d7a0d14c09","651c1bfa687bb1febdc60fb6","null","null","<p style=""font-size: 60px; font-family: BACS"">MlthOtM</p>","","","","","","","","",""
"html-keyboard-response","52","156997","0.0-8.0-0.44","5e2c6968e97bec29709a53c6","650c16f0f2faf8d7a0d14c09","651c1bfa687bb1febdc60fb6","null","null","<p style=""font-size: 60px; font-family: BACS"">GLYrAuUY</p>","","","","","","","","",""
"html-keyboard-response","53","158009","0.0-8.0-0.45","5e2c6968e97bec29709a53c6","650c16f0f2faf8d7a0d14c09","651c1bfa687bb1febdc60fb6","null","null","<p style=""font-size: 60px; font-family: BACS"">RYtkcBbM</p>","","","","","","","","",""
"html-keyboard-response","54","159023","0.0-8.0-0.46","5e2c6968e97bec29709a53c6","650c16f0f2faf8d7a0d14c09","651c1bfa687bb1febdc60fb6","null","null","<p style=""font-size: 60px; font-family: BACS"">aONduUmb</p>","","","","","","","","",""
"html-keyboard-response","55","160037","0.0-8.0-0.47","5e2c6968e97bec29709a53c6","650c16f0f2faf8d7a0d14c09","651c1bfa687bb1febdc60fb6","null","null","<p style=""font-size: 60px; font-family: BACS"">PhktkAdYl</p>","","","","","","","","",""
"html-keyboard-response","56","161050","0.0-8.0-0.48","5e2c6968e97bec29709a53c6","650c16f0f2faf8d7a0d14c09","651c1bfa687bb1febdc60fb6","null","null","<p style=""font-size: 60px; font-family: BACS"">cRElDOtM</p>","","","","","","","","",""
"html-keyboard-response","57","162066","0.0-8.0-0.49","5e2c6968e97bec29709a53c6","650c16f0f2faf8d7a0d14c09","651c1bfa687bb1febdc60fb6","null","null","<p style=""font-size: 60px; font-family: BACS"">ZdNmUuZc</p>","","","","","","","","",""
"html-keyboard-response","58","163079","0.0-8.0-0.50","5e2c6968e97bec29709a53c6","650c16f0f2faf8d7a0d14c09","651c1bfa687bb1febdc60fb6","null","null","<p style=""font-size: 60px; font-family: BACS"">RYtkcOtM</p>","","","","","","","","",""
"html-keyboard-response","59","164089","0.0-8.0-0.51","5e2c6968e97bec29709a53c6","650c16f0f2faf8d7a0d14c09","651c1bfa687bb1febdc60fb6","null","null","<p style=""font-size: 60px; font-family: BACS"">PhktkBbM</p>","","","","","","","","",""
"html-keyboard-response","60","165090","0.0-8.0-0.52","5e2c6968e97bec29709a53c6","650c16f0f2faf8d7a0d14c09","651c1bfa687bb1febdc60fb6","null","null","<p style=""font-size: 60px; font-family: BACS"">LdQvmvG</p>","","","","","","","","",""
"html-keyboard-response","61","166099","0.0-8.0-0.53","5e2c6968e97bec29709a53c6","650c16f0f2faf8d7a0d14c09","651c1bfa687bb1febdc60fb6","null","null","<p style=""font-size: 60px; font-family: BACS"">bAdkBbM</p>","","","","","","","","",""
"html-keyboard-response","62","167109","0.0-8.0-0.54","5e2c6968e97bec29709a53c6","650c16f0f2faf8d7a0d14c09","651c1bfa687bb1febdc60fb6","null","null","<p style=""font-size: 60px; font-family: BACS"">uAkruUmb</p>","","","","","","","","",""
"html-keyboard-response","63","168119","0.0-8.0-0.55","5e2c6968e97bec29709a53c6","650c16f0f2faf8d7a0d14c09","651c1bfa687bb1febdc60fb6","null","null","<p style=""font-size: 60px; font-family: BACS"">YQbcuUY</p>","","","","","","","","",""
"html-keyboard-response","64","169121","0.0-8.0-0.56","5e2c6968e97bec29709a53c6","650c16f0f2faf8d7a0d14c09","651c1bfa687bb1febdc60fb6","null","null","<p style=""font-size: 60px; font-family: BACS"">EMYKPEdK</p>","","","","","","","","",""
"html-keyboard-response","65","170122","0.0-8.0-0.57","5e2c6968e97bec29709a53c6","650c16f0f2faf8d7a0d14c09","651c1bfa687bb1febdc60fb6","null","null","<p style=""font-size: 60px; font-family: BACS"">MlthbAMO</p>","","","","","","","","",""
"html-keyboard-response","66","171123","0.0-8.0-0.58","5e2c6968e97bec29709a53c6","650c16f0f2faf8d7a0d14c09","651c1bfa687bb1febdc60fb6","null","null","<p style=""font-size: 60px; font-family: BACS"">aONduvJ</p>","","","","","","","","",""
"html-keyboard-response","67","172139","0.0-8.0-0.59","5e2c6968e97bec29709a53c6","650c16f0f2faf8d7a0d14c09","651c1bfa687bb1febdc60fb6","null","null","<p style=""font-size: 60px; font-family: BACS"">bmbNuZc</p>","","","","","","","","",""
"html-keyboard-response","68","173140","0.0-8.0-0.60","5e2c6968e97bec29709a53c6","650c16f0f2faf8d7a0d14c09","651c1bfa687bb1febdc60fb6","null","null","<p style=""font-size: 60px; font-family: BACS"">PCPDhbAMO</p>","","","","","","","","",""
"html-keyboard-response","69","174148","0.0-8.0-0.61","5e2c6968e97bec29709a53c6","650c16f0f2faf8d7a0d14c09","651c1bfa687bb1febdc60fb6","null","null","<p style=""font-size: 60px; font-family: BACS"">LdQvuZc</p>","","","","","","","","",""
"html-keyboard-response","70","175161","0.0-8.0-0.62","5e2c6968e97bec29709a53c6","650c16f0f2faf8d7a0d14c09","651c1bfa687bb1febdc60fb6","null","null","<p style=""font-size: 60px; font-family: BACS"">lhCTCBbM</p>","","","","","","","","",""
"html-keyboard-response","71","176177","0.0-8.0-0.63","5e2c6968e97bec29709a53c6","650c16f0f2faf8d7a0d14c09","651c1bfa687bb1febdc60fb6","null","null","<p style=""font-size: 60px; font-family: BACS"">bvuZuUY</p>","","","","","","","","",""
"html-keyboard-response","72","177188","0.0-8.0-0.64","5e2c6968e97bec29709a53c6","650c16f0f2faf8d7a0d14c09","651c1bfa687bb1febdc60fb6","null","null","<p style=""font-size: 60px; font-family: BACS"">MlthPEdK</p>","","","","","","","","",""
"html-keyboard-response","73","178198","0.0-8.0-0.65","5e2c6968e97bec29709a53c6","650c16f0f2faf8d7a0d14c09","651c1bfa687bb1febdc60fb6","null","null","<p style=""font-size: 60px; font-family: BACS"">EMYKAdYl</p>","","","","","","","","",""
"html-keyboard-response","74","179210","0.0-8.0-0.66","5e2c6968e97bec29709a53c6","650c16f0f2faf8d7a0d14c09","651c1bfa687bb1febdc60fb6","null","null","<p style=""font-size: 60px; font-family: BACS"">JrGvuvJ</p>","","","","","","","","",""
"html-keyboard-response","75","180221","0.0-8.0-0.67","5e2c6968e97bec29709a53c6","650c16f0f2faf8d7a0d14c09","651c1bfa687bb1febdc60fb6","null","null","<p style=""font-size: 60px; font-family: BACS"">bAdkAdYl</p>","","","","","","","","",""
"html-keyboard-response","76","181234","0.0-8.0-0.68","5e2c6968e97bec29709a53c6","650c16f0f2faf8d7a0d14c09","651c1bfa687bb1febdc60fb6","null","null","<p style=""font-size: 60px; font-family: BACS"">uAkruvJ</p>","","","","","","","","",""
"html-keyboard-response","77","182247","0.0-8.0-0.69","5e2c6968e97bec29709a53c6","650c16f0f2faf8d7a0d14c09","651c1bfa687bb1febdc60fb6","null","null","<p style=""font-size: 60px; font-family: BACS"">rkYLuZc</p>","","","","","","","","",""
"html-keyboard-response","78","183248","0.0-8.0-0.70","5e2c6968e97bec29709a53c6","650c16f0f2faf8d7a0d14c09","651c1bfa687bb1febdc60fb6","null","null","<p style=""font-size: 60px; font-family: BACS"">ZdNmUuUY</p>","","","","","","","","",""
"html-keyboard-response","79","184258","0.0-8.0-0.71","5e2c6968e97bec29709a53c6","650c16f0f2faf8d7a0d14c09","651c1bfa687bb1febdc60fb6","null","null","<p style=""font-size: 60px; font-family: BACS"">cRElDPEdK</p>","","","","","","","","",""
"html-keyboard-response","80","185273","0.0-8.0-0.72","5e2c6968e97bec29709a53c6","650c16f0f2faf8d7a0d14c09","651c1bfa687bb1febdc60fb6","null","null","<p style=""font-size: 60px; font-family: BACS"">aONduUY</p>","","","","","","","","",""
"html-keyboard-response","81","186286","0.0-8.0-0.73","5e2c6968e97bec29709a53c6","650c16f0f2faf8d7a0d14c09","651c1bfa687bb1febdc60fb6","null","null","<p style=""font-size: 60px; font-family: BACS"">YQbcuZc</p>","","","","","","","","",""
"html-keyboard-response","82","187287","0.0-8.0-0.74","5e2c6968e97bec29709a53c6","650c16f0f2faf8d7a0d14c09","651c1bfa687bb1febdc60fb6","null","null","<p style=""font-size: 60px; font-family: BACS"">lhCTCOtM</p>","","","","","","","","",""
"html-keyboard-response","83","188294","0.0-8.0-0.75","5e2c6968e97bec29709a53c6","650c16f0f2faf8d7a0d14c09","651c1bfa687bb1febdc60fb6","null","null","<p style=""font-size: 60px; font-family: BACS"">GLYrAuZc</p>","","","","","","","","",""
"html-keyboard-response","84","189305","0.0-8.0-0.76","5e2c6968e97bec29709a53c6","650c16f0f2faf8d7a0d14c09","651c1bfa687bb1febdc60fb6","null","null","<p style=""font-size: 60px; font-family: BACS"">PCPDhAdYl</p>","","","","","","","","",""
"html-keyboard-response","85","190319","0.0-8.0-0.77","5e2c6968e97bec29709a53c6","650c16f0f2faf8d7a0d14c09","651c1bfa687bb1febdc60fb6","null","null","<p style=""font-size: 60px; font-family: BACS"">GLYrAuUmb</p>","","","","","","","","",""
"html-keyboard-response","86","191333","0.0-8.0-0.78","5e2c6968e97bec29709a53c6","650c16f0f2faf8d7a0d14c09","651c1bfa687bb1febdc60fb6","null","null","<p style=""font-size: 60px; font-family: BACS"">uAkruZc</p>","","","","","","","","",""
"html-keyboard-response","87","192334","0.0-8.0-0.79","5e2c6968e97bec29709a53c6","650c16f0f2faf8d7a0d14c09","651c1bfa687bb1febdc60fb6","null","null","<p style=""font-size: 60px; font-family: BACS"">mdkKPEdK</p>","","","","","","","","",""
"html-keyboard-response","88","265054","0.0-9.0","5e2c6968e97bec29709a53c6","650c16f0f2faf8d7a0d14c09","651c1bfa687bb1febdc60fb6","72719"," ","<p>Great, you've seen the first block of words. You may now take a short break.</p>
      <p>Press the spacebar when you're ready to continue.</p>","","","","","","","","",""
"html-keyboard-response","89","266066","0.0-10.0-0.0","5e2c6968e97bec29709a53c6","650c16f0f2faf8d7a0d14c09","651c1bfa687bb1febdc60fb6","null","null","<p style=""font-size: 60px; font-family: BACS"">GLYrAuUmb</p>","","","","","","","","",""
"html-keyboard-response","90","267080","0.0-10.0-0.1","5e2c6968e97bec29709a53c6","650c16f0f2faf8d7a0d14c09","651c1bfa687bb1febdc60fb6","null","null","<p style=""font-size: 60px; font-family: BACS"">cRElDAdYl</p>","","","","","","","","",""
"html-keyboard-response","91","268093","0.0-10.0-0.2","5e2c6968e97bec29709a53c6","650c16f0f2faf8d7a0d14c09","651c1bfa687bb1febdc60fb6","null","null","<p style=""font-size: 60px; font-family: BACS"">ZdNmUmvG</p>","","","","","","","","",""
"html-keyboard-response","92","269106","0.0-10.0-0.3","5e2c6968e97bec29709a53c6","650c16f0f2faf8d7a0d14c09","651c1bfa687bb1febdc60fb6","null","null","<p style=""font-size: 60px; font-family: BACS"">EMYKbAMO</p>","","","","","","","","",""
"html-keyboard-response","93","270119","0.0-10.0-0.4","5e2c6968e97bec29709a53c6","650c16f0f2faf8d7a0d14c09","651c1bfa687bb1febdc60fb6","null","null","<p style=""font-size: 60px; font-family: BACS"">bvuZmvG</p>","","","","","","","","",""
"html-keyboard-response","94","271134","0.0-10.0-0.5","5e2c6968e97bec29709a53c6","650c16f0f2faf8d7a0d14c09","651c1bfa687bb1febdc60fb6","null","null","<p style=""font-size: 60px; font-family: BACS"">bmbNuvJ</p>","","","","","","","","",""
"html-keyboard-response","95","272146","0.0-10.0-0.6","5e2c6968e97bec29709a53c6","650c16f0f2faf8d7a0d14c09","651c1bfa687bb1febdc60fb6","null","null","<p style=""font-size: 60px; font-family: BACS"">lhCTCbAMO</p>","","","","","","","","",""
"html-keyboard-response","96","273159","0.0-10.0-0.7","5e2c6968e97bec29709a53c6","650c16f0f2faf8d7a0d14c09","651c1bfa687bb1febdc60fb6","null","null","<p style=""font-size: 60px; font-family: BACS"">RYtkcOtM</p>","","","","","","","","",""
"html-keyboard-response","97","274170","0.0-10.0-0.8","5e2c6968e97bec29709a53c6","650c16f0f2faf8d7a0d14c09","651c1bfa687bb1febdc60fb6","null","null","<p style=""font-size: 60px; font-family: BACS"">MlthPEdK</p>","","","","","","","","",""
"html-keyboard-response","98","275183","0.0-10.0-0.9","5e2c6968e97bec29709a53c6","650c16f0f2faf8d7a0d14c09","651c1bfa687bb1febdc60fb6","null","null","<p style=""font-size: 60px; font-family: BACS"">bAdkAdYl</p>","","","","","","","","",""
"html-keyboard-response","99","276194","0.0-10.0-0.10","5e2c6968e97bec29709a53c6","650c16f0f2faf8d7a0d14c09","651c1bfa687bb1febdc60fb6","null","null","<p style=""font-size: 60px; font-family: BACS"">ZdNmUuUY</p>","","","","","","","","",""
"html-keyboard-response","100","277207","0.0-10.0-0.11","5e2c6968e97bec29709a53c6","650c16f0f2faf8d7a0d14c09","651c1bfa687bb1febdc60fb6","null","null","<p style=""font-size: 60px; font-family: BACS"">YQbcuUmb</p>","","","","","","","","",""
"html-keyboard-response","101","278220","0.0-10.0-0.12","5e2c6968e97bec29709a53c6","650c16f0f2faf8d7a0d14c09","651c1bfa687bb1febdc60fb6","null","null","<p style=""font-size: 60px; font-family: BACS"">EMYKOtM</p>","","","","","","","","",""
"html-keyboard-response","102","279222","0.0-10.0-0.13","5e2c6968e97bec29709a53c6","650c16f0f2faf8d7a0d14c09","651c1bfa687bb1febdc60fb6","null","null","<p style=""font-size: 60px; font-family: BACS"">RYtkcPEdK</p>","","","","","","","","",""
"html-keyboard-response","103","280231","0.0-10.0-0.14","5e2c6968e97bec29709a53c6","650c16f0f2faf8d7a0d14c09","651c1bfa687bb1febdc60fb6","null","null","<p style=""font-size: 60px; font-family: BACS"">lhCTCOtM</p>","","","","","","","","",""
"html-keyboard-response","104","281243","0.0-10.0-0.15","5e2c6968e97bec29709a53c6","650c16f0f2faf8d7a0d14c09","651c1bfa687bb1febdc60fb6","null","null","<p style=""font-size: 60px; font-family: BACS"">uAkruUmb</p>","","","","","","","","",""
"html-keyboard-response","105","282245","0.0-10.0-0.16","5e2c6968e97bec29709a53c6","650c16f0f2faf8d7a0d14c09","651c1bfa687bb1febdc60fb6","null","null","<p style=""font-size: 60px; font-family: BACS"">PhktkBbM</p>","","","","","","","","",""
"html-keyboard-response","106","283255","0.0-10.0-0.17","5e2c6968e97bec29709a53c6","650c16f0f2faf8d7a0d14c09","651c1bfa687bb1febdc60fb6","null","null","<p style=""font-size: 60px; font-family: BACS"">bAdkPEdK</p>","","","","","","","","",""
"html-keyboard-response","107","284266","0.0-10.0-0.18","5e2c6968e97bec29709a53c6","650c16f0f2faf8d7a0d14c09","651c1bfa687bb1febdc60fb6","null","null","<p style=""font-size: 60px; font-family: BACS"">cRElDBbM</p>","","","","","","","","",""
"html-keyboard-response","108","285277","0.0-10.0-0.19","5e2c6968e97bec29709a53c6","650c16f0f2faf8d7a0d14c09","651c1bfa687bb1febdc60fb6","null","null","<p style=""font-size: 60px; font-family: BACS"">DOchlPEdK</p>","","","","","","","","",""
"html-keyboard-response","109","286291","0.0-10.0-0.20","5e2c6968e97bec29709a53c6","650c16f0f2faf8d7a0d14c09","651c1bfa687bb1febdc60fb6","null","null","<p style=""font-size: 60px; font-family: BACS"">PhktkAdYl</p>","","","","","","","","",""
"html-keyboard-response","110","287301","0.0-10.0-0.21","5e2c6968e97bec29709a53c6","650c16f0f2faf8d7a0d14c09","651c1bfa687bb1febdc60fb6","null","null","<p style=""font-size: 60px; font-family: BACS"">bAdkBbM</p>","","","","","","","","",""
"html-keyboard-response","111","288312","0.0-10.0-0.22","5e2c6968e97bec29709a53c6","650c16f0f2faf8d7a0d14c09","651c1bfa687bb1febdc60fb6","null","null","<p style=""font-size: 60px; font-family: BACS"">YQbcuZc</p>","","","","","","","","",""
"html-keyboard-response","112","289325","0.0-10.0-0.23","5e2c6968e97bec29709a53c6","650c16f0f2faf8d7a0d14c09","651c1bfa687bb1febdc60fb6","null","null","<p style=""font-size: 60px; font-family: BACS"">rkYLmvG</p>","","","","","","","","",""
"html-keyboard-response","113","290338","0.0-10.0-0.24","5e2c6968e97bec29709a53c6","650c16f0f2faf8d7a0d14c09","651c1bfa687bb1febdc60fb6","null","null","<p style=""font-size: 60px; font-family: BACS"">PCPDhAdYl</p>","","","","","","","","",""
"html-keyboard-response","114","291351","0.0-10.0-0.25","5e2c6968e97bec29709a53c6","650c16f0f2faf8d7a0d14c09","651c1bfa687bb1febdc60fb6","null","null","<p style=""font-size: 60px; font-family: BACS"">aONduUY</p>","","","","","","","","",""
"html-keyboard-response","115","292353","0.0-10.0-0.26","5e2c6968e97bec29709a53c6","650c16f0f2faf8d7a0d14c09","651c1bfa687bb1febdc60fb6","null","null","<p style=""font-size: 60px; font-family: BACS"">GLYrAuZc</p>","","","","","","","","",""
"html-keyboard-response","116","293354","0.0-10.0-0.27","5e2c6968e97bec29709a53c6","650c16f0f2faf8d7a0d14c09","651c1bfa687bb1febdc60fb6","null","null","<p style=""font-size: 60px; font-family: BACS"">JrGvuvJ</p>","","","","","","","","",""
"html-keyboard-response","117","294360","0.0-10.0-0.28","5e2c6968e97bec29709a53c6","650c16f0f2faf8d7a0d14c09","651c1bfa687bb1febdc60fb6","null","null","<p style=""font-size: 60px; font-family: BACS"">LdQvuZc</p>","","","","","","","","",""
"html-keyboard-response","118","295375","0.0-10.0-0.29","5e2c6968e97bec29709a53c6","650c16f0f2faf8d7a0d14c09","651c1bfa687bb1febdc60fb6","null","null","<p style=""font-size: 60px; font-family: BACS"">bvuZuUmb</p>","","","","","","","","",""
"html-keyboard-response","119","296387","0.0-10.0-0.30","5e2c6968e97bec29709a53c6","650c16f0f2faf8d7a0d14c09","651c1bfa687bb1febdc60fb6","null","null","<p style=""font-size: 60px; font-family: BACS"">aONdmvG</p>","","","","","","","","",""
"html-keyboard-response","120","297395","0.0-10.0-0.31","5e2c6968e97bec29709a53c6","650c16f0f2faf8d7a0d14c09","651c1bfa687bb1febdc60fb6","null","null","<p style=""font-size: 60px; font-family: BACS"">RYtkcBbM</p>","","","","","","","","",""
"html-keyboard-response","121","298408","0.0-10.0-0.32","5e2c6968e97bec29709a53c6","650c16f0f2faf8d7a0d14c09","651c1bfa687bb1febdc60fb6","null","null","<p style=""font-size: 60px; font-family: BACS"">bmbNuZc</p>","","","","","","","","",""
"html-keyboard-response","122","299417","0.0-10.0-0.33","5e2c6968e97bec29709a53c6","650c16f0f2faf8d7a0d14c09","651c1bfa687bb1febdc60fb6","null","null","<p style=""font-size: 60px; font-family: BACS"">ZdNmUuvJ</p>","","","","","","","","",""
"html-keyboard-response","123","300429","0.0-10.0-0.34","5e2c6968e97bec29709a53c6","650c16f0f2faf8d7a0d14c09","651c1bfa687bb1febdc60fb6","null","null","<p style=""font-size: 60px; font-family: BACS"">PCPDhPEdK</p>","","","","","","","","",""
"html-keyboard-response","124","301442","0.0-10.0-0.35","5e2c6968e97bec29709a53c6","650c16f0f2faf8d7a0d14c09","651c1bfa687bb1febdc60fb6","null","null","<p style=""font-size: 60px; font-family: BACS"">rkYLuZc</p>","","","","","","","","",""
"html-keyboard-response","125","302456","0.0-10.0-0.36","5e2c6968e97bec29709a53c6","650c16f0f2faf8d7a0d14c09","651c1bfa687bb1febdc60fb6","null","null","<p style=""font-size: 60px; font-family: BACS"">RYtkcbAMO</p>","","","","","","","","",""
"html-keyboard-response","126","303469","0.0-10.0-0.37","5e2c6968e97bec29709a53c6","650c16f0f2faf8d7a0d14c09","651c1bfa687bb1febdc60fb6","null","null","<p style=""font-size: 60px; font-family: BACS"">GLYrAmvG</p>","","","","","","","","",""
"html-keyboard-response","127","304482","0.0-10.0-0.38","5e2c6968e97bec29709a53c6","650c16f0f2faf8d7a0d14c09","651c1bfa687bb1febdc60fb6","null","null","<p style=""font-size: 60px; font-family: BACS"">PhktkbAMO</p>","","","","","","","","",""
"html-keyboard-response","128","305495","0.0-10.0-0.39","5e2c6968e97bec29709a53c6","650c16f0f2faf8d7a0d14c09","651c1bfa687bb1febdc60fb6","null","null","<p style=""font-size: 60px; font-family: BACS"">uAkruZc</p>","","","","","","","","",""
"html-keyboard-response","129","306506","0.0-10.0-0.40","5e2c6968e97bec29709a53c6","650c16f0f2faf8d7a0d14c09","651c1bfa687bb1febdc60fb6","null","null","<p style=""font-size: 60px; font-family: BACS"">mdkKbAMO</p>","","","","","","","","",""
"html-keyboard-response","130","307519","0.0-10.0-0.41","5e2c6968e97bec29709a53c6","650c16f0f2faf8d7a0d14c09","651c1bfa687bb1febdc60fb6","null","null","<p style=""font-size: 60px; font-family: BACS"">LdQvuvJ</p>","","","","","","","","",""
"html-keyboard-response","131","308521","0.0-10.0-0.42","5e2c6968e97bec29709a53c6","650c16f0f2faf8d7a0d14c09","651c1bfa687bb1febdc60fb6","null","null","<p style=""font-size: 60px; font-family: BACS"">YQbcuUY</p>","","","","","","","","",""
"html-keyboard-response","132","309523","0.0-10.0-0.43","5e2c6968e97bec29709a53c6","650c16f0f2faf8d7a0d14c09","651c1bfa687bb1febdc60fb6","null","null","<p style=""font-size: 60px; font-family: BACS"">MlthAdYl</p>","","","","","","","","",""
"html-keyboard-response","133","310524","0.0-10.0-0.44","5e2c6968e97bec29709a53c6","650c16f0f2faf8d7a0d14c09","651c1bfa687bb1febdc60fb6","null","null","<p style=""font-size: 60px; font-family: BACS"">bvuZuUY</p>","","","","","","","","",""
"html-keyboard-response","134","311525","0.0-10.0-0.45","5e2c6968e97bec29709a53c6","650c16f0f2faf8d7a0d14c09","651c1bfa687bb1febdc60fb6","null","null","<p style=""font-size: 60px; font-family: BACS"">lhCTCAdYl</p>","","","","","","","","",""
"html-keyboard-response","135","312526","0.0-10.0-0.46","5e2c6968e97bec29709a53c6","650c16f0f2faf8d7a0d14c09","651c1bfa687bb1febdc60fb6","null","null","<p style=""font-size: 60px; font-family: BACS"">PCPDhBbM</p>","","","","","","","","",""
"html-keyboard-response","136","313527","0.0-10.0-0.47","5e2c6968e97bec29709a53c6","650c16f0f2faf8d7a0d14c09","651c1bfa687bb1febdc60fb6","null","null","<p style=""font-size: 60px; font-family: BACS"">bvuZuvJ</p>","","","","","","","","",""
"html-keyboard-response","137","314533","0.0-10.0-0.48","5e2c6968e97bec29709a53c6","650c16f0f2faf8d7a0d14c09","651c1bfa687bb1febdc60fb6","null","null","<p style=""font-size: 60px; font-family: BACS"">LdQvmvG</p>","","","","","","","","",""
"html-keyboard-response","138","315545","0.0-10.0-0.49","5e2c6968e97bec29709a53c6","650c16f0f2faf8d7a0d14c09","651c1bfa687bb1febdc60fb6","null","null","<p style=""font-size: 60px; font-family: BACS"">DOchlbAMO</p>","","","","","","","","",""
"html-keyboard-response","139","316547","0.0-10.0-0.50","5e2c6968e97bec29709a53c6","650c16f0f2faf8d7a0d14c09","651c1bfa687bb1febdc60fb6","null","null","<p style=""font-size: 60px; font-family: BACS"">uAkruvJ</p>","","","","","","","","",""
"html-keyboard-response","140","317548","0.0-10.0-0.51","5e2c6968e97bec29709a53c6","650c16f0f2faf8d7a0d14c09","651c1bfa687bb1febdc60fb6","null","null","<p style=""font-size: 60px; font-family: BACS"">rkYLuUY</p>","","","","","","","","",""
"html-keyboard-response","141","318549","0.0-10.0-0.52","5e2c6968e97bec29709a53c6","650c16f0f2faf8d7a0d14c09","651c1bfa687bb1febdc60fb6","null","null","<p style=""font-size: 60px; font-family: BACS"">JrGvuUmb</p>","","","","","","","","",""
"html-keyboard-response","142","319553","0.0-10.0-0.53","5e2c6968e97bec29709a53c6","650c16f0f2faf8d7a0d14c09","651c1bfa687bb1febdc60fb6","null","null","<p style=""font-size: 60px; font-family: BACS"">cRElDPEdK</p>","","","","","","","","",""
"html-keyboard-response","143","320567","0.0-10.0-0.54","5e2c6968e97bec29709a53c6","650c16f0f2faf8d7a0d14c09","651c1bfa687bb1febdc60fb6","null","null","<p style=""font-size: 60px; font-family: BACS"">mdkKBbM</p>","","","","","","","","",""
"html-keyboard-response","144","321580","0.0-10.0-0.55","5e2c6968e97bec29709a53c6","650c16f0f2faf8d7a0d14c09","651c1bfa687bb1febdc60fb6","null","null","<p style=""font-size: 60px; font-family: BACS"">EMYKAdYl</p>","","","","","","","","",""
"html-keyboard-response","145","322595","0.0-10.0-0.56","5e2c6968e97bec29709a53c6","650c16f0f2faf8d7a0d14c09","651c1bfa687bb1febdc60fb6","null","null","<p style=""font-size: 60px; font-family: BACS"">mdkKPEdK</p>","","","","","","","","",""
"html-keyboard-response","146","323608","0.0-10.0-0.57","5e2c6968e97bec29709a53c6","650c16f0f2faf8d7a0d14c09","651c1bfa687bb1febdc60fb6","null","null","<p style=""font-size: 60px; font-family: BACS"">cRElDOtM</p>","","","","","","","","",""
"html-keyboard-response","147","324609","0.0-10.0-0.58","5e2c6968e97bec29709a53c6","650c16f0f2faf8d7a0d14c09","651c1bfa687bb1febdc60fb6","null","null","<p style=""font-size: 60px; font-family: BACS"">lhCTCBbM</p>","","","","","","","","",""
"html-keyboard-response","148","325614","0.0-10.0-0.59","5e2c6968e97bec29709a53c6","650c16f0f2faf8d7a0d14c09","651c1bfa687bb1febdc60fb6","null","null","<p style=""font-size: 60px; font-family: BACS"">MlthbAMO</p>","","","","","","","","",""
"html-keyboard-response","149","326626","0.0-10.0-0.60","5e2c6968e97bec29709a53c6","650c16f0f2faf8d7a0d14c09","651c1bfa687bb1febdc60fb6","null","null","<p style=""font-size: 60px; font-family: BACS"">LdQvuUmb</p>","","","","","","","","",""
"html-keyboard-response","150","327627","0.0-10.0-0.61","5e2c6968e97bec29709a53c6","650c16f0f2faf8d7a0d14c09","651c1bfa687bb1febdc60fb6","null","null","<p style=""font-size: 60px; font-family: BACS"">YQbcmvG</p>","","","","","","","","",""
"html-keyboard-response","151","328636","0.0-10.0-0.62","5e2c6968e97bec29709a53c6","650c16f0f2faf8d7a0d14c09","651c1bfa687bb1febdc60fb6","null","null","<p style=""font-size: 60px; font-family: BACS"">PCPDhbAMO</p>","","","","","","","","",""
"html-keyboard-response","152","329646","0.0-10.0-0.63","5e2c6968e97bec29709a53c6","650c16f0f2faf8d7a0d14c09","651c1bfa687bb1febdc60fb6","null","null","<p style=""font-size: 60px; font-family: BACS"">JrGvuZc</p>","","","","","","","","",""
"html-keyboard-response","153","330648","0.0-10.0-0.64","5e2c6968e97bec29709a53c6","650c16f0f2faf8d7a0d14c09","651c1bfa687bb1febdc60fb6","null","null","<p style=""font-size: 60px; font-family: BACS"">uAkruUY</p>","","","","","","","","",""
"html-keyboard-response","154","331653","0.0-10.0-0.65","5e2c6968e97bec29709a53c6","650c16f0f2faf8d7a0d14c09","651c1bfa687bb1febdc60fb6","null","null","<p style=""font-size: 60px; font-family: BACS"">PhktkOtM</p>","","","","","","","","",""
"html-keyboard-response","155","332654","0.0-10.0-0.66","5e2c6968e97bec29709a53c6","650c16f0f2faf8d7a0d14c09","651c1bfa687bb1febdc60fb6","null","null","<p style=""font-size: 60px; font-family: BACS"">rkYLuvJ</p>","","","","","","","","",""
"html-keyboard-response","156","333658","0.0-10.0-0.67","5e2c6968e97bec29709a53c6","650c16f0f2faf8d7a0d14c09","651c1bfa687bb1febdc60fb6","null","null","<p style=""font-size: 60px; font-family: BACS"">EMYKPEdK</p>","","","","","","","","",""
"html-keyboard-response","157","334661","0.0-10.0-0.68","5e2c6968e97bec29709a53c6","650c16f0f2faf8d7a0d14c09","651c1bfa687bb1febdc60fb6","null","null","<p style=""font-size: 60px; font-family: BACS"">bmbNuUmb</p>","","","","","","","","",""
"html-keyboard-response","158","335672","0.0-10.0-0.69","5e2c6968e97bec29709a53c6","650c16f0f2faf8d7a0d14c09","651c1bfa687bb1febdc60fb6","null","null","<p style=""font-size: 60px; font-family: BACS"">GLYrAuUY</p>","","","","","","","","",""
"html-keyboard-response","159","336673","0.0-10.0-0.70","5e2c6968e97bec29709a53c6","650c16f0f2faf8d7a0d14c09","651c1bfa687bb1febdc60fb6","null","null","<p style=""font-size: 60px; font-family: BACS"">aONduUmb</p>","","","","","","","","",""
"html-keyboard-response","160","337683","0.0-10.0-0.71","5e2c6968e97bec29709a53c6","650c16f0f2faf8d7a0d14c09","651c1bfa687bb1febdc60fb6","null","null","<p style=""font-size: 60px; font-family: BACS"">DOchlAdYl</p>","","","","","","","","",""
"html-keyboard-response","161","338693","0.0-10.0-0.72","5e2c6968e97bec29709a53c6","650c16f0f2faf8d7a0d14c09","651c1bfa687bb1febdc60fb6","null","null","<p style=""font-size: 60px; font-family: BACS"">ZdNmUuZc</p>","","","","","","","","",""
"html-keyboard-response","162","339706","0.0-10.0-0.73","5e2c6968e97bec29709a53c6","650c16f0f2faf8d7a0d14c09","651c1bfa687bb1febdc60fb6","null","null","<p style=""font-size: 60px; font-family: BACS"">JrGvmvG</p>","","","","","","","","",""
"html-keyboard-response","163","340719","0.0-10.0-0.74","5e2c6968e97bec29709a53c6","650c16f0f2faf8d7a0d14c09","651c1bfa687bb1febdc60fb6","null","null","<p style=""font-size: 60px; font-family: BACS"">bAdkOtM</p>","","","","","","","","",""
"html-keyboard-response","164","341720","0.0-10.0-0.75","5e2c6968e97bec29709a53c6","650c16f0f2faf8d7a0d14c09","651c1bfa687bb1febdc60fb6","null","null","<p style=""font-size: 60px; font-family: BACS"">bmbNuUY</p>","","","","","","","","",""
"html-keyboard-response","165","342722","0.0-10.0-0.76","5e2c6968e97bec29709a53c6","650c16f0f2faf8d7a0d14c09","651c1bfa687bb1febdc60fb6","null","null","<p style=""font-size: 60px; font-family: BACS"">mdkKOtM</p>","","","","","","","","",""
"html-keyboard-response","166","343724","0.0-10.0-0.77","5e2c6968e97bec29709a53c6","650c16f0f2faf8d7a0d14c09","651c1bfa687bb1febdc60fb6","null","null","<p style=""font-size: 60px; font-family: BACS"">aONduvJ</p>","","","","","","","","",""
"html-keyboard-response","167","344739","0.0-10.0-0.78","5e2c6968e97bec29709a53c6","650c16f0f2faf8d7a0d14c09","651c1bfa687bb1febdc60fb6","null","null","<p style=""font-size: 60px; font-family: BACS"">MlthOtM</p>","","","","","","","","",""
"html-keyboard-response","168","345750","0.0-10.0-0.79","5e2c6968e97bec29709a53c6","650c16f0f2faf8d7a0d14c09","651c1bfa687bb1febdc60fb6","null","null","<p style=""font-size: 60px; font-family: BACS"">DOchlBbM</p>","","","","","","","","",""
"html-keyboard-response","169","356359","0.0-11.0","5e2c6968e97bec29709a53c6","650c16f0f2faf8d7a0d14c09","651c1bfa687bb1febdc60fb6","10608"," ","<p>Great, you've seen the second block of words. You may now take a short break.</p>
      <p>Press the spacebar when you're ready to continue.</p>","","","","","","","","",""
"html-keyboard-response","170","357370","0.0-12.0-0.0","5e2c6968e97bec29709a53c6","650c16f0f2faf8d7a0d14c09","651c1bfa687bb1febdc60fb6","null","null","<p style=""font-size: 60px; font-family: BACS"">ZdNmUuvJ</p>","","","","","","","","",""
"html-keyboard-response","171","358384","0.0-12.0-0.1","5e2c6968e97bec29709a53c6","650c16f0f2faf8d7a0d14c09","651c1bfa687bb1febdc60fb6","null","null","<p style=""font-size: 60px; font-family: BACS"">bvuZuUmb</p>","","","","","","","","",""
"html-keyboard-response","172","359398","0.0-12.0-0.2","5e2c6968e97bec29709a53c6","650c16f0f2faf8d7a0d14c09","651c1bfa687bb1febdc60fb6","null","null","<p style=""font-size: 60px; font-family: BACS"">rkYLuvJ</p>","","","","","","","","",""
"html-keyboard-response","173","360400","0.0-12.0-0.3","5e2c6968e97bec29709a53c6","650c16f0f2faf8d7a0d14c09","651c1bfa687bb1febdc60fb6","null","null","<p style=""font-size: 60px; font-family: BACS"">PCPDhBbM</p>","","","","","","","","",""
"html-keyboard-response","174","361409","0.0-12.0-0.4","5e2c6968e97bec29709a53c6","650c16f0f2faf8d7a0d14c09","651c1bfa687bb1febdc60fb6","null","null","<p style=""font-size: 60px; font-family: BACS"">LdQvuUmb</p>","","","","","","","","",""
"html-keyboard-response","175","362421","0.0-12.0-0.5","5e2c6968e97bec29709a53c6","650c16f0f2faf8d7a0d14c09","651c1bfa687bb1febdc60fb6","null","null","<p style=""font-size: 60px; font-family: BACS"">PhktkOtM</p>","","","","","","","","",""
"html-keyboard-response","176","363433","0.0-12.0-0.6","5e2c6968e97bec29709a53c6","650c16f0f2faf8d7a0d14c09","651c1bfa687bb1febdc60fb6","null","null","<p style=""font-size: 60px; font-family: BACS"">uAkruZc</p>","","","","","","","","",""
"html-keyboard-response","177","364444","0.0-12.0-0.7","5e2c6968e97bec29709a53c6","650c16f0f2faf8d7a0d14c09","651c1bfa687bb1febdc60fb6","null","null","<p style=""font-size: 60px; font-family: BACS"">DOchlAdYl</p>","","","","","","","","",""
"html-keyboard-response","178","365457","0.0-12.0-0.8","5e2c6968e97bec29709a53c6","650c16f0f2faf8d7a0d14c09","651c1bfa687bb1febdc60fb6","null","null","<p style=""font-size: 60px; font-family: BACS"">bvuZuvJ</p>","","","","","","","","",""
"html-keyboard-response","179","366469","0.0-12.0-0.9","5e2c6968e97bec29709a53c6","650c16f0f2faf8d7a0d14c09","651c1bfa687bb1febdc60fb6","null","null","<p style=""font-size: 60px; font-family: BACS"">PCPDhbAMO</p>","","","","","","","","",""
"html-keyboard-response","180","367483","0.0-12.0-0.10","5e2c6968e97bec29709a53c6","650c16f0f2faf8d7a0d14c09","651c1bfa687bb1febdc60fb6","null","null","<p style=""font-size: 60px; font-family: BACS"">LdQvuZc</p>","","","","","","","","",""
"html-keyboard-response","181","368494","0.0-12.0-0.11","5e2c6968e97bec29709a53c6","650c16f0f2faf8d7a0d14c09","651c1bfa687bb1febdc60fb6","null","null","<p style=""font-size: 60px; font-family: BACS"">ZdNmUmvG</p>","","","","","","","","",""
"html-keyboard-response","182","369505","0.0-12.0-0.12","5e2c6968e97bec29709a53c6","650c16f0f2faf8d7a0d14c09","651c1bfa687bb1febdc60fb6","null","null","<p style=""font-size: 60px; font-family: BACS"">lhCTCBbM</p>","","","","","","","","",""
"html-keyboard-response","183","370519","0.0-12.0-0.13","5e2c6968e97bec29709a53c6","650c16f0f2faf8d7a0d14c09","651c1bfa687bb1febdc60fb6","null","null","<p style=""font-size: 60px; font-family: BACS"">PhktkAdYl</p>","","","","","","","","",""
"html-keyboard-response","184","371531","0.0-12.0-0.14","5e2c6968e97bec29709a53c6","650c16f0f2faf8d7a0d14c09","651c1bfa687bb1febdc60fb6","null","null","<p style=""font-size: 60px; font-family: BACS"">aONduUY</p>","","","","","","","","",""
"html-keyboard-response","185","372545","0.0-12.0-0.15","5e2c6968e97bec29709a53c6","650c16f0f2faf8d7a0d14c09","651c1bfa687bb1febdc60fb6","null","null","<p style=""font-size: 60px; font-family: BACS"">bvuZmvG</p>","","","","","","","","",""
"html-keyboard-response","186","373558","0.0-12.0-0.16","5e2c6968e97bec29709a53c6","650c16f0f2faf8d7a0d14c09","651c1bfa687bb1febdc60fb6","null","null","<p style=""font-size: 60px; font-family: BACS"">aONduvJ</p>","","","","","","","","",""
"html-keyboard-response","187","374571","0.0-12.0-0.17","5e2c6968e97bec29709a53c6","650c16f0f2faf8d7a0d14c09","651c1bfa687bb1febdc60fb6","null","null","<p style=""font-size: 60px; font-family: BACS"">mdkKbAMO</p>","","","","","","","","",""
"html-keyboard-response","188","375584","0.0-12.0-0.18","5e2c6968e97bec29709a53c6","650c16f0f2faf8d7a0d14c09","651c1bfa687bb1febdc60fb6","null","null","<p style=""font-size: 60px; font-family: BACS"">bmbNuZc</p>","","","","","","","","",""
"html-keyboard-response","189","376595","0.0-12.0-0.19","5e2c6968e97bec29709a53c6","650c16f0f2faf8d7a0d14c09","651c1bfa687bb1febdc60fb6","null","null","<p style=""font-size: 60px; font-family: BACS"">EMYKPEdK</p>","","","","","","","","",""
"html-keyboard-response","190","377609","0.0-12.0-0.20","5e2c6968e97bec29709a53c6","650c16f0f2faf8d7a0d14c09","651c1bfa687bb1febdc60fb6","null","null","<p style=""font-size: 60px; font-family: BACS"">JrGvuvJ</p>","","","","","","","","",""
"html-keyboard-response","191","378620","0.0-12.0-0.21","5e2c6968e97bec29709a53c6","650c16f0f2faf8d7a0d14c09","651c1bfa687bb1febdc60fb6","null","null","<p style=""font-size: 60px; font-family: BACS"">lhCTCOtM</p>","","","","","","","","",""
"html-keyboard-response","192","379633","0.0-12.0-0.22","5e2c6968e97bec29709a53c6","650c16f0f2faf8d7a0d14c09","651c1bfa687bb1febdc60fb6","null","null","<p style=""font-size: 60px; font-family: BACS"">GLYrAuUmb</p>","","","","","","","","",""
"html-keyboard-response","193","380644","0.0-12.0-0.23","5e2c6968e97bec29709a53c6","650c16f0f2faf8d7a0d14c09","651c1bfa687bb1febdc60fb6","null","null","<p style=""font-size: 60px; font-family: BACS"">EMYKAdYl</p>","","","","","","","","",""
"html-keyboard-response","194","381658","0.0-12.0-0.24","5e2c6968e97bec29709a53c6","650c16f0f2faf8d7a0d14c09","651c1bfa687bb1febdc60fb6","null","null","<p style=""font-size: 60px; font-family: BACS"">cRElDOtM</p>","","","","","","","","",""
"html-keyboard-response","195","382672","0.0-12.0-0.25","5e2c6968e97bec29709a53c6","650c16f0f2faf8d7a0d14c09","651c1bfa687bb1febdc60fb6","null","null","<p style=""font-size: 60px; font-family: BACS"">GLYrAmvG</p>","","","","","","","","",""
"html-keyboard-response","196","383682","0.0-12.0-0.26","5e2c6968e97bec29709a53c6","650c16f0f2faf8d7a0d14c09","651c1bfa687bb1febdc60fb6","null","null","<p style=""font-size: 60px; font-family: BACS"">bAdkBbM</p>","","","","","","","","",""
"html-keyboard-response","197","384683","0.0-12.0-0.27","5e2c6968e97bec29709a53c6","650c16f0f2faf8d7a0d14c09","651c1bfa687bb1febdc60fb6","null","null","<p style=""font-size: 60px; font-family: BACS"">PCPDhAdYl</p>","","","","","","","","",""
"html-keyboard-response","198","385690","0.0-12.0-0.28","5e2c6968e97bec29709a53c6","650c16f0f2faf8d7a0d14c09","651c1bfa687bb1febdc60fb6","null","null","<p style=""font-size: 60px; font-family: BACS"">YQbcmvG</p>","","","","","","","","",""
"html-keyboard-response","199","386691","0.0-12.0-0.29","5e2c6968e97bec29709a53c6","650c16f0f2faf8d7a0d14c09","651c1bfa687bb1febdc60fb6","null","null","<p style=""font-size: 60px; font-family: BACS"">EMYKbAMO</p>","","","","","","","","",""
"html-keyboard-response","200","387698","0.0-12.0-0.30","5e2c6968e97bec29709a53c6","650c16f0f2faf8d7a0d14c09","651c1bfa687bb1febdc60fb6","null","null","<p style=""font-size: 60px; font-family: BACS"">bAdkPEdK</p>","","","","","","","","",""
"html-keyboard-response","201","388702","0.0-12.0-0.31","5e2c6968e97bec29709a53c6","650c16f0f2faf8d7a0d14c09","651c1bfa687bb1febdc60fb6","null","null","<p style=""font-size: 60px; font-family: BACS"">DOchlbAMO</p>","","","","","","","","",""
"html-keyboard-response","202","389706","0.0-12.0-0.32","5e2c6968e97bec29709a53c6","650c16f0f2faf8d7a0d14c09","651c1bfa687bb1febdc60fb6","null","null","<p style=""font-size: 60px; font-family: BACS"">uAkruUY</p>","","","","","","","","",""
"html-keyboard-response","203","390714","0.0-12.0-0.33","5e2c6968e97bec29709a53c6","650c16f0f2faf8d7a0d14c09","651c1bfa687bb1febdc60fb6","null","null","<p style=""font-size: 60px; font-family: BACS"">YQbcuZc</p>","","","","","","","","",""
"html-keyboard-response","204","391726","0.0-12.0-0.34","5e2c6968e97bec29709a53c6","650c16f0f2faf8d7a0d14c09","651c1bfa687bb1febdc60fb6","null","null","<p style=""font-size: 60px; font-family: BACS"">bvuZuUY</p>","","","","","","","","",""
"html-keyboard-response","205","392727","0.0-12.0-0.35","5e2c6968e97bec29709a53c6","650c16f0f2faf8d7a0d14c09","651c1bfa687bb1febdc60fb6","null","null","<p style=""font-size: 60px; font-family: BACS"">lhCTCAdYl</p>","","","","","","","","",""
"html-keyboard-response","206","393740","0.0-12.0-0.36","5e2c6968e97bec29709a53c6","650c16f0f2faf8d7a0d14c09","651c1bfa687bb1febdc60fb6","null","null","<p style=""font-size: 60px; font-family: BACS"">RYtkcOtM</p>","","","","","","","","",""
"html-keyboard-response","207","394743","0.0-12.0-0.37","5e2c6968e97bec29709a53c6","650c16f0f2faf8d7a0d14c09","651c1bfa687bb1febdc60fb6","null","null","<p style=""font-size: 60px; font-family: BACS"">DOchlPEdK</p>","","","","","","","","",""
"html-keyboard-response","208","395750","0.0-12.0-0.38","5e2c6968e97bec29709a53c6","650c16f0f2faf8d7a0d14c09","651c1bfa687bb1febdc60fb6","null","null","<p style=""font-size: 60px; font-family: BACS"">uAkruUmb</p>","","","","","","","","",""
"html-keyboard-response","209","396752","0.0-12.0-0.39","5e2c6968e97bec29709a53c6","650c16f0f2faf8d7a0d14c09","651c1bfa687bb1febdc60fb6","null","null","<p style=""font-size: 60px; font-family: BACS"">lhCTCbAMO</p>","","","","","","","","",""
"html-keyboard-response","210","397753","0.0-12.0-0.40","5e2c6968e97bec29709a53c6","650c16f0f2faf8d7a0d14c09","651c1bfa687bb1febdc60fb6","null","null","<p style=""font-size: 60px; font-family: BACS"">PhktkBbM</p>","","","","","","","","",""
"html-keyboard-response","211","398758","0.0-12.0-0.41","5e2c6968e97bec29709a53c6","650c16f0f2faf8d7a0d14c09","651c1bfa687bb1febdc60fb6","null","null","<p style=""font-size: 60px; font-family: BACS"">GLYrAuUY</p>","","","","","","","","",""
"html-keyboard-response","212","399771","0.0-12.0-0.42","5e2c6968e97bec29709a53c6","650c16f0f2faf8d7a0d14c09","651c1bfa687bb1febdc60fb6","null","null","<p style=""font-size: 60px; font-family: BACS"">mdkKOtM</p>","","","","","","","","",""
"html-keyboard-response","213","400784","0.0-12.0-0.43","5e2c6968e97bec29709a53c6","650c16f0f2faf8d7a0d14c09","651c1bfa687bb1febdc60fb6","null","null","<p style=""font-size: 60px; font-family: BACS"">bAdkAdYl</p>","","","","","","","","",""
"html-keyboard-response","214","401785","0.0-12.0-0.44","5e2c6968e97bec29709a53c6","650c16f0f2faf8d7a0d14c09","651c1bfa687bb1febdc60fb6","null","null","<p style=""font-size: 60px; font-family: BACS"">cRElDPEdK</p>","","","","","","","","",""
"html-keyboard-response","215","402798","0.0-12.0-0.45","5e2c6968e97bec29709a53c6","650c16f0f2faf8d7a0d14c09","651c1bfa687bb1febdc60fb6","null","null","<p style=""font-size: 60px; font-family: BACS"">YQbcuUmb</p>","","","","","","","","",""
"html-keyboard-response","216","403811","0.0-12.0-0.46","5e2c6968e97bec29709a53c6","650c16f0f2faf8d7a0d14c09","651c1bfa687bb1febdc60fb6","null","null","<p style=""font-size: 60px; font-family: BACS"">MlthAdYl</p>","","","","","","","","",""
"html-keyboard-response","217","404825","0.0-12.0-0.47","5e2c6968e97bec29709a53c6","650c16f0f2faf8d7a0d14c09","651c1bfa687bb1febdc60fb6","null","null","<p style=""font-size: 60px; font-family: BACS"">PCPDhPEdK</p>","","","","","","","","",""
"html-keyboard-response","218","405840","0.0-12.0-0.48","5e2c6968e97bec29709a53c6","650c16f0f2faf8d7a0d14c09","651c1bfa687bb1febdc60fb6","null","null","<p style=""font-size: 60px; font-family: BACS"">JrGvmvG</p>","","","","","","","","",""
"html-keyboard-response","219","406854","0.0-12.0-0.49","5e2c6968e97bec29709a53c6","650c16f0f2faf8d7a0d14c09","651c1bfa687bb1febdc60fb6","null","null","<p style=""font-size: 60px; font-family: BACS"">PhktkbAMO</p>","","","","","","","","",""
"html-keyboard-response","220","407867","0.0-12.0-0.50","5e2c6968e97bec29709a53c6","650c16f0f2faf8d7a0d14c09","651c1bfa687bb1febdc60fb6","null","null","<p style=""font-size: 60px; font-family: BACS"">LdQvmvG</p>","","","","","","","","",""
"html-keyboard-response","221","408880","0.0-12.0-0.51","5e2c6968e97bec29709a53c6","650c16f0f2faf8d7a0d14c09","651c1bfa687bb1febdc60fb6","null","null","<p style=""font-size: 60px; font-family: BACS"">bmbNuUmb</p>","","","","","","","","",""
"html-keyboard-response","222","409893","0.0-12.0-0.52","5e2c6968e97bec29709a53c6","650c16f0f2faf8d7a0d14c09","651c1bfa687bb1febdc60fb6","null","null","<p style=""font-size: 60px; font-family: BACS"">rkYLmvG</p>","","","","","","","","",""
"html-keyboard-response","223","410904","0.0-12.0-0.53","5e2c6968e97bec29709a53c6","650c16f0f2faf8d7a0d14c09","651c1bfa687bb1febdc60fb6","null","null","<p style=""font-size: 60px; font-family: BACS"">RYtkcbAMO</p>","","","","","","","","",""
"html-keyboard-response","224","411920","0.0-12.0-0.54","5e2c6968e97bec29709a53c6","650c16f0f2faf8d7a0d14c09","651c1bfa687bb1febdc60fb6","null","null","<p style=""font-size: 60px; font-family: BACS"">uAkruvJ</p>","","","","","","","","",""
"html-keyboard-response","225","412933","0.0-12.0-0.55","5e2c6968e97bec29709a53c6","650c16f0f2faf8d7a0d14c09","651c1bfa687bb1febdc60fb6","null","null","<p style=""font-size: 60px; font-family: BACS"">bAdkOtM</p>","","","","","","","","",""
"html-keyboard-response","226","413946","0.0-12.0-0.56","5e2c6968e97bec29709a53c6","650c16f0f2faf8d7a0d14c09","651c1bfa687bb1febdc60fb6","null","null","<p style=""font-size: 60px; font-family: BACS"">MlthbAMO</p>","","","","","","","","",""
"html-keyboard-response","227","414958","0.0-12.0-0.57","5e2c6968e97bec29709a53c6","650c16f0f2faf8d7a0d14c09","651c1bfa687bb1febdc60fb6","null","null","<p style=""font-size: 60px; font-family: BACS"">JrGvuUmb</p>","","","","","","","","",""
"html-keyboard-response","228","415969","0.0-12.0-0.58","5e2c6968e97bec29709a53c6","650c16f0f2faf8d7a0d14c09","651c1bfa687bb1febdc60fb6","null","null","<p style=""font-size: 60px; font-family: BACS"">ZdNmUuZc</p>","","","","","","","","",""
"html-keyboard-response","229","416983","0.0-12.0-0.59","5e2c6968e97bec29709a53c6","650c16f0f2faf8d7a0d14c09","651c1bfa687bb1febdc60fb6","null","null","<p style=""font-size: 60px; font-family: BACS"">YQbcuUY</p>","","","","","","","","",""
"html-keyboard-response","230","417997","0.0-12.0-0.60","5e2c6968e97bec29709a53c6","650c16f0f2faf8d7a0d14c09","651c1bfa687bb1febdc60fb6","null","null","<p style=""font-size: 60px; font-family: BACS"">rkYLuZc</p>","","","","","","","","",""
"html-keyboard-response","231","419009","0.0-12.0-0.61","5e2c6968e97bec29709a53c6","650c16f0f2faf8d7a0d14c09","651c1bfa687bb1febdc60fb6","null","null","<p style=""font-size: 60px; font-family: BACS"">EMYKOtM</p>","","","","","","","","",""
"html-keyboard-response","232","420022","0.0-12.0-0.62","5e2c6968e97bec29709a53c6","650c16f0f2faf8d7a0d14c09","651c1bfa687bb1febdc60fb6","null","null","<p style=""font-size: 60px; font-family: BACS"">rkYLuUY</p>","","","","","","","","",""
"html-keyboard-response","233","421034","0.0-12.0-0.63","5e2c6968e97bec29709a53c6","650c16f0f2faf8d7a0d14c09","651c1bfa687bb1febdc60fb6","null","null","<p style=""font-size: 60px; font-family: BACS"">RYtkcPEdK</p>","","","","","","","","",""
"html-keyboard-response","234","422035","0.0-12.0-0.64","5e2c6968e97bec29709a53c6","650c16f0f2faf8d7a0d14c09","651c1bfa687bb1febdc60fb6","null","null","<p style=""font-size: 60px; font-family: BACS"">cRElDBbM</p>","","","","","","","","",""
"html-keyboard-response","235","423036","0.0-12.0-0.65","5e2c6968e97bec29709a53c6","650c16f0f2faf8d7a0d14c09","651c1bfa687bb1febdc60fb6","null","null","<p style=""font-size: 60px; font-family: BACS"">LdQvuvJ</p>","","","","","","","","",""
"html-keyboard-response","236","424042","0.0-12.0-0.66","5e2c6968e97bec29709a53c6","650c16f0f2faf8d7a0d14c09","651c1bfa687bb1febdc60fb6","null","null","<p style=""font-size: 60px; font-family: BACS"">aONduUmb</p>","","","","","","","","",""
"html-keyboard-response","237","425053","0.0-12.0-0.67","5e2c6968e97bec29709a53c6","650c16f0f2faf8d7a0d14c09","651c1bfa687bb1febdc60fb6","null","null","<p style=""font-size: 60px; font-family: BACS"">cRElDAdYl</p>","","","","","","","","",""
"html-keyboard-response","238","426054","0.0-12.0-0.68","5e2c6968e97bec29709a53c6","650c16f0f2faf8d7a0d14c09","651c1bfa687bb1febdc60fb6","null","null","<p style=""font-size: 60px; font-family: BACS"">bmbNuUY</p>","","","","","","","","",""
"html-keyboard-response","239","427060","0.0-12.0-0.69","5e2c6968e97bec29709a53c6","650c16f0f2faf8d7a0d14c09","651c1bfa687bb1febdc60fb6","null","null","<p style=""font-size: 60px; font-family: BACS"">DOchlBbM</p>","","","","","","","","",""
"html-keyboard-response","240","428074","0.0-12.0-0.70","5e2c6968e97bec29709a53c6","650c16f0f2faf8d7a0d14c09","651c1bfa687bb1febdc60fb6","null","null","<p style=""font-size: 60px; font-family: BACS"">ZdNmUuUY</p>","","","","","","","","",""
"html-keyboard-response","241","429076","0.0-12.0-0.71","5e2c6968e97bec29709a53c6","650c16f0f2faf8d7a0d14c09","651c1bfa687bb1febdc60fb6","null","null","<p style=""font-size: 60px; font-family: BACS"">bmbNuvJ</p>","","","","","","","","",""
"html-keyboard-response","242","430087","0.0-12.0-0.72","5e2c6968e97bec29709a53c6","650c16f0f2faf8d7a0d14c09","651c1bfa687bb1febdc60fb6","null","null","<p style=""font-size: 60px; font-family: BACS"">JrGvuZc</p>","","","","","","","","",""
"html-keyboard-response","243","431088","0.0-12.0-0.73","5e2c6968e97bec29709a53c6","650c16f0f2faf8d7a0d14c09","651c1bfa687bb1febdc60fb6","null","null","<p style=""font-size: 60px; font-family: BACS"">MlthOtM</p>","","","","","","","","",""
"html-keyboard-response","244","432095","0.0-12.0-0.74","5e2c6968e97bec29709a53c6","650c16f0f2faf8d7a0d14c09","651c1bfa687bb1febdc60fb6","null","null","<p style=""font-size: 60px; font-family: BACS"">GLYrAuZc</p>","","","","","","","","",""
"html-keyboard-response","245","433104","0.0-12.0-0.75","5e2c6968e97bec29709a53c6","650c16f0f2faf8d7a0d14c09","651c1bfa687bb1febdc60fb6","null","null","<p style=""font-size: 60px; font-family: BACS"">aONdmvG</p>","","","","","","","","",""
"html-keyboard-response","246","434116","0.0-12.0-0.76","5e2c6968e97bec29709a53c6","650c16f0f2faf8d7a0d14c09","651c1bfa687bb1febdc60fb6","null","null","<p style=""font-size: 60px; font-family: BACS"">mdkKPEdK</p>","","","","","","","","",""
"html-keyboard-response","247","435128","0.0-12.0-0.77","5e2c6968e97bec29709a53c6","650c16f0f2faf8d7a0d14c09","651c1bfa687bb1febdc60fb6","null","null","<p style=""font-size: 60px; font-family: BACS"">RYtkcBbM</p>","","","","","","","","",""
"html-keyboard-response","248","436141","0.0-12.0-0.78","5e2c6968e97bec29709a53c6","650c16f0f2faf8d7a0d14c09","651c1bfa687bb1febdc60fb6","null","null","<p style=""font-size: 60px; font-family: BACS"">MlthPEdK</p>","","","","","","","","",""
"html-keyboard-response","249","437155","0.0-12.0-0.79","5e2c6968e97bec29709a53c6","650c16f0f2faf8d7a0d14c09","651c1bfa687bb1febdc60fb6","null","null","<p style=""font-size: 60px; font-family: BACS"">mdkKBbM</p>","","","","","","","","",""
"html-keyboard-response","250","442369","0.0-13.0","5e2c6968e97bec29709a53c6","650c16f0f2faf8d7a0d14c09","651c1bfa687bb1febdc60fb6","5214"," ","<p>Great, you've seen the third block of words. You may now take a short break.</p>
      <p>Press the spacebar when you're ready to continue.</p>","","","","","","","","",""
"html-keyboard-response","251","443390","0.0-14.0-0.0","5e2c6968e97bec29709a53c6","650c16f0f2faf8d7a0d14c09","651c1bfa687bb1febdc60fb6","null","null","<p style=""font-size: 60px; font-family: BACS"">GLYrAmvG</p>","","","","","","","","",""
"html-keyboard-response","252","444400","0.0-14.0-0.1","5e2c6968e97bec29709a53c6","650c16f0f2faf8d7a0d14c09","651c1bfa687bb1febdc60fb6","null","null","<p style=""font-size: 60px; font-family: BACS"">PhktkOtM</p>","","","","","","","","",""
"html-keyboard-response","253","445417","0.0-14.0-0.2","5e2c6968e97bec29709a53c6","650c16f0f2faf8d7a0d14c09","651c1bfa687bb1febdc60fb6","null","null","<p style=""font-size: 60px; font-family: BACS"">DOchlPEdK</p>","","","","","","","","",""
"html-keyboard-response","254","446418","0.0-14.0-0.3","5e2c6968e97bec29709a53c6","650c16f0f2faf8d7a0d14c09","651c1bfa687bb1febdc60fb6","null","null","<p style=""font-size: 60px; font-family: BACS"">PhktkbAMO</p>","","","","","","","","",""
"html-keyboard-response","255","447427","0.0-14.0-0.4","5e2c6968e97bec29709a53c6","650c16f0f2faf8d7a0d14c09","651c1bfa687bb1febdc60fb6","null","null","<p style=""font-size: 60px; font-family: BACS"">uAkruUmb</p>","","","","","","","","",""
"html-keyboard-response","256","448441","0.0-14.0-0.5","5e2c6968e97bec29709a53c6","650c16f0f2faf8d7a0d14c09","651c1bfa687bb1febdc60fb6","null","null","<p style=""font-size: 60px; font-family: BACS"">mdkKBbM</p>","","","","","","","","",""
"html-keyboard-response","257","449442","0.0-14.0-0.6","5e2c6968e97bec29709a53c6","650c16f0f2faf8d7a0d14c09","651c1bfa687bb1febdc60fb6","null","null","<p style=""font-size: 60px; font-family: BACS"">PhktkAdYl</p>","","","","","","","","",""
"html-keyboard-response","258","450449","0.0-14.0-0.7","5e2c6968e97bec29709a53c6","650c16f0f2faf8d7a0d14c09","651c1bfa687bb1febdc60fb6","null","null","<p style=""font-size: 60px; font-family: BACS"">bvuZuUmb</p>","","","","","","","","",""
"html-keyboard-response","259","451463","0.0-14.0-0.8","5e2c6968e97bec29709a53c6","650c16f0f2faf8d7a0d14c09","651c1bfa687bb1febdc60fb6","null","null","<p style=""font-size: 60px; font-family: BACS"">DOchlAdYl</p>","","","","","","","","",""
"html-keyboard-response","260","452464","0.0-14.0-0.9","5e2c6968e97bec29709a53c6","650c16f0f2faf8d7a0d14c09","651c1bfa687bb1febdc60fb6","null","null","<p style=""font-size: 60px; font-family: BACS"">aONduUY</p>","","","","","","","","",""
"html-keyboard-response","261","453472","0.0-14.0-0.10","5e2c6968e97bec29709a53c6","650c16f0f2faf8d7a0d14c09","651c1bfa687bb1febdc60fb6","null","null","<p style=""font-size: 60px; font-family: BACS"">JrGvuUmb</p>","","","","","","","","",""
"html-keyboard-response","262","454474","0.0-14.0-0.11","5e2c6968e97bec29709a53c6","650c16f0f2faf8d7a0d14c09","651c1bfa687bb1febdc60fb6","null","null","<p style=""font-size: 60px; font-family: BACS"">bAdkBbM</p>","","","","","","","","",""
"html-keyboard-response","263","455482","0.0-14.0-0.12","5e2c6968e97bec29709a53c6","650c16f0f2faf8d7a0d14c09","651c1bfa687bb1febdc60fb6","null","null","<p style=""font-size: 60px; font-family: BACS"">YQbcmvG</p>","","","","","","","","",""
"html-keyboard-response","264","456494","0.0-14.0-0.13","5e2c6968e97bec29709a53c6","650c16f0f2faf8d7a0d14c09","651c1bfa687bb1febdc60fb6","null","null","<p style=""font-size: 60px; font-family: BACS"">aONduvJ</p>","","","","","","","","",""
"html-keyboard-response","265","457506","0.0-14.0-0.14","5e2c6968e97bec29709a53c6","650c16f0f2faf8d7a0d14c09","651c1bfa687bb1febdc60fb6","null","null","<p style=""font-size: 60px; font-family: BACS"">PCPDhBbM</p>","","","","","","","","",""
"html-keyboard-response","266","458515","0.0-14.0-0.15","5e2c6968e97bec29709a53c6","650c16f0f2faf8d7a0d14c09","651c1bfa687bb1febdc60fb6","null","null","<p style=""font-size: 60px; font-family: BACS"">MlthAdYl</p>","","","","","","","","",""
"html-keyboard-response","267","459523","0.0-14.0-0.16","5e2c6968e97bec29709a53c6","650c16f0f2faf8d7a0d14c09","651c1bfa687bb1febdc60fb6","null","null","<p style=""font-size: 60px; font-family: BACS"">LdQvuUmb</p>","","","","","","","","",""
"html-keyboard-response","268","460535","0.0-14.0-0.17","5e2c6968e97bec29709a53c6","650c16f0f2faf8d7a0d14c09","651c1bfa687bb1febdc60fb6","null","null","<p style=""font-size: 60px; font-family: BACS"">EMYKPEdK</p>","","","","","","","","",""
"html-keyboard-response","269","461536","0.0-14.0-0.18","5e2c6968e97bec29709a53c6","650c16f0f2faf8d7a0d14c09","651c1bfa687bb1febdc60fb6","null","null","<p style=""font-size: 60px; font-family: BACS"">bmbNuUY</p>","","","","","","","","",""
"html-keyboard-response","270","462536","0.0-14.0-0.19","5e2c6968e97bec29709a53c6","650c16f0f2faf8d7a0d14c09","651c1bfa687bb1febdc60fb6","null","null","<p style=""font-size: 60px; font-family: BACS"">rkYLuvJ</p>","","","","","","","","",""
"html-keyboard-response","271","463547","0.0-14.0-0.20","5e2c6968e97bec29709a53c6","650c16f0f2faf8d7a0d14c09","651c1bfa687bb1febdc60fb6","null","null","<p style=""font-size: 60px; font-family: BACS"">mdkKOtM</p>","","","","","","","","",""
"html-keyboard-response","272","464562","0.0-14.0-0.21","5e2c6968e97bec29709a53c6","650c16f0f2faf8d7a0d14c09","651c1bfa687bb1febdc60fb6","null","null","<p style=""font-size: 60px; font-family: BACS"">cRElDPEdK</p>","","","","","","","","",""
"html-keyboard-response","273","465570","0.0-14.0-0.22","5e2c6968e97bec29709a53c6","650c16f0f2faf8d7a0d14c09","651c1bfa687bb1febdc60fb6","null","null","<p style=""font-size: 60px; font-family: BACS"">RYtkcbAMO</p>","","","","","","","","",""
"html-keyboard-response","274","466583","0.0-14.0-0.23","5e2c6968e97bec29709a53c6","650c16f0f2faf8d7a0d14c09","651c1bfa687bb1febdc60fb6","null","null","<p style=""font-size: 60px; font-family: BACS"">LdQvuZc</p>","","","","","","","","",""
"html-keyboard-response","275","467584","0.0-14.0-0.24","5e2c6968e97bec29709a53c6","650c16f0f2faf8d7a0d14c09","651c1bfa687bb1febdc60fb6","null","null","<p style=""font-size: 60px; font-family: BACS"">ZdNmUuUY</p>","","","","","","","","",""
"html-keyboard-response","276","468592","0.0-14.0-0.25","5e2c6968e97bec29709a53c6","650c16f0f2faf8d7a0d14c09","651c1bfa687bb1febdc60fb6","null","null","<p style=""font-size: 60px; font-family: BACS"">bvuZuvJ</p>","","","","","","","","",""
"html-keyboard-response","277","469602","0.0-14.0-0.26","5e2c6968e97bec29709a53c6","650c16f0f2faf8d7a0d14c09","651c1bfa687bb1febdc60fb6","null","null","<p style=""font-size: 60px; font-family: BACS"">bAdkAdYl</p>","","","","","","","","",""
"html-keyboard-response","278","470615","0.0-14.0-0.27","5e2c6968e97bec29709a53c6","650c16f0f2faf8d7a0d14c09","651c1bfa687bb1febdc60fb6","null","null","<p style=""font-size: 60px; font-family: BACS"">RYtkcOtM</p>","","","","","","","","",""
"html-keyboard-response","279","471630","0.0-14.0-0.28","5e2c6968e97bec29709a53c6","650c16f0f2faf8d7a0d14c09","651c1bfa687bb1febdc60fb6","null","null","<p style=""font-size: 60px; font-family: BACS"">uAkruvJ</p>","","","","","","","","",""
"html-keyboard-response","280","472642","0.0-14.0-0.29","5e2c6968e97bec29709a53c6","650c16f0f2faf8d7a0d14c09","651c1bfa687bb1febdc60fb6","null","null","<p style=""font-size: 60px; font-family: BACS"">MlthOtM</p>","","","","","","","","",""
"html-keyboard-response","281","473655","0.0-14.0-0.30","5e2c6968e97bec29709a53c6","650c16f0f2faf8d7a0d14c09","651c1bfa687bb1febdc60fb6","null","null","<p style=""font-size: 60px; font-family: BACS"">RYtkcBbM</p>","","","","","","","","",""
"html-keyboard-response","282","474665","0.0-14.0-0.31","5e2c6968e97bec29709a53c6","650c16f0f2faf8d7a0d14c09","651c1bfa687bb1febdc60fb6","null","null","<p style=""font-size: 60px; font-family: BACS"">JrGvuZc</p>","","","","","","","","",""
"html-keyboard-response","283","475681","0.0-14.0-0.32","5e2c6968e97bec29709a53c6","650c16f0f2faf8d7a0d14c09","651c1bfa687bb1febdc60fb6","null","null","<p style=""font-size: 60px; font-family: BACS"">YQbcuUmb</p>","","","","","","","","",""
"html-keyboard-response","284","476691","0.0-14.0-0.33","5e2c6968e97bec29709a53c6","650c16f0f2faf8d7a0d14c09","651c1bfa687bb1febdc60fb6","null","null","<p style=""font-size: 60px; font-family: BACS"">PCPDhAdYl</p>","","","","","","","","",""
"html-keyboard-response","285","477705","0.0-14.0-0.34","5e2c6968e97bec29709a53c6","650c16f0f2faf8d7a0d14c09","651c1bfa687bb1febdc60fb6","null","null","<p style=""font-size: 60px; font-family: BACS"">JrGvuvJ</p>","","","","","","","","",""
"html-keyboard-response","286","478715","0.0-14.0-0.35","5e2c6968e97bec29709a53c6","650c16f0f2faf8d7a0d14c09","651c1bfa687bb1febdc60fb6","null","null","<p style=""font-size: 60px; font-family: BACS"">DOchlBbM</p>","","","","","","","","",""
"html-keyboard-response","287","479729","0.0-14.0-0.36","5e2c6968e97bec29709a53c6","650c16f0f2faf8d7a0d14c09","651c1bfa687bb1febdc60fb6","null","null","<p style=""font-size: 60px; font-family: BACS"">MlthbAMO</p>","","","","","","","","",""
"html-keyboard-response","288","480742","0.0-14.0-0.37","5e2c6968e97bec29709a53c6","650c16f0f2faf8d7a0d14c09","651c1bfa687bb1febdc60fb6","null","null","<p style=""font-size: 60px; font-family: BACS"">EMYKAdYl</p>","","","","","","","","",""
"html-keyboard-response","289","481755","0.0-14.0-0.38","5e2c6968e97bec29709a53c6","650c16f0f2faf8d7a0d14c09","651c1bfa687bb1febdc60fb6","null","null","<p style=""font-size: 60px; font-family: BACS"">LdQvuvJ</p>","","","","","","","","",""
"html-keyboard-response","290","482770","0.0-14.0-0.39","5e2c6968e97bec29709a53c6","650c16f0f2faf8d7a0d14c09","651c1bfa687bb1febdc60fb6","null","null","<p style=""font-size: 60px; font-family: BACS"">GLYrAuUY</p>","","","","","","","","",""
"html-keyboard-response","291","483783","0.0-14.0-0.40","5e2c6968e97bec29709a53c6","650c16f0f2faf8d7a0d14c09","651c1bfa687bb1febdc60fb6","null","null","<p style=""font-size: 60px; font-family: BACS"">DOchlbAMO</p>","","","","","","","","",""
"html-keyboard-response","292","484797","0.0-14.0-0.41","5e2c6968e97bec29709a53c6","650c16f0f2faf8d7a0d14c09","651c1bfa687bb1febdc60fb6","null","null","<p style=""font-size: 60px; font-family: BACS"">LdQvmvG</p>","","","","","","","","",""
"html-keyboard-response","293","485811","0.0-14.0-0.42","5e2c6968e97bec29709a53c6","650c16f0f2faf8d7a0d14c09","651c1bfa687bb1febdc60fb6","null","null","<p style=""font-size: 60px; font-family: BACS"">PCPDhPEdK</p>","","","","","","","","",""
"html-keyboard-response","294","486823","0.0-14.0-0.43","5e2c6968e97bec29709a53c6","650c16f0f2faf8d7a0d14c09","651c1bfa687bb1febdc60fb6","null","null","<p style=""font-size: 60px; font-family: BACS"">GLYrAuUmb</p>","","","","","","","","",""
"html-keyboard-response","295","487839","0.0-14.0-0.44","5e2c6968e97bec29709a53c6","650c16f0f2faf8d7a0d14c09","651c1bfa687bb1febdc60fb6","null","null","<p style=""font-size: 60px; font-family: BACS"">EMYKbAMO</p>","","","","","","","","",""
"html-keyboard-response","296","488851","0.0-14.0-0.45","5e2c6968e97bec29709a53c6","650c16f0f2faf8d7a0d14c09","651c1bfa687bb1febdc60fb6","null","null","<p style=""font-size: 60px; font-family: BACS"">ZdNmUuZc</p>","","","","","","","","",""
"html-keyboard-response","297","489862","0.0-14.0-0.46","5e2c6968e97bec29709a53c6","650c16f0f2faf8d7a0d14c09","651c1bfa687bb1febdc60fb6","null","null","<p style=""font-size: 60px; font-family: BACS"">mdkKbAMO</p>","","","","","","","","",""
"html-keyboard-response","298","490872","0.0-14.0-0.47","5e2c6968e97bec29709a53c6","650c16f0f2faf8d7a0d14c09","651c1bfa687bb1febdc60fb6","null","null","<p style=""font-size: 60px; font-family: BACS"">lhCTCBbM</p>","","","","","","","","",""
"html-keyboard-response","299","491885","0.0-14.0-0.48","5e2c6968e97bec29709a53c6","650c16f0f2faf8d7a0d14c09","651c1bfa687bb1febdc60fb6","null","null","<p style=""font-size: 60px; font-family: BACS"">cRElDOtM</p>","","","","","","","","",""
"html-keyboard-response","300","492886","0.0-14.0-0.49","5e2c6968e97bec29709a53c6","650c16f0f2faf8d7a0d14c09","651c1bfa687bb1febdc60fb6","null","null","<p style=""font-size: 60px; font-family: BACS"">rkYLuUY</p>","","","","","","","","",""
"html-keyboard-response","301","493897","0.0-14.0-0.50","5e2c6968e97bec29709a53c6","650c16f0f2faf8d7a0d14c09","651c1bfa687bb1febdc60fb6","null","null","<p style=""font-size: 60px; font-family: BACS"">MlthPEdK</p>","","","","","","","","",""
"html-keyboard-response","302","494911","0.0-14.0-0.51","5e2c6968e97bec29709a53c6","650c16f0f2faf8d7a0d14c09","651c1bfa687bb1febdc60fb6","null","null","<p style=""font-size: 60px; font-family: BACS"">bvuZmvG</p>","","","","","","","","",""
"html-keyboard-response","303","495923","0.0-14.0-0.52","5e2c6968e97bec29709a53c6","650c16f0f2faf8d7a0d14c09","651c1bfa687bb1febdc60fb6","null","null","<p style=""font-size: 60px; font-family: BACS"">PCPDhbAMO</p>","","","","","","","","",""
"html-keyboard-response","304","496935","0.0-14.0-0.53","5e2c6968e97bec29709a53c6","650c16f0f2faf8d7a0d14c09","651c1bfa687bb1febdc60fb6","null","null","<p style=""font-size: 60px; font-family: BACS"">cRElDBbM</p>","","","","","","","","",""
"html-keyboard-response","305","497948","0.0-14.0-0.54","5e2c6968e97bec29709a53c6","650c16f0f2faf8d7a0d14c09","651c1bfa687bb1febdc60fb6","null","null","<p style=""font-size: 60px; font-family: BACS"">uAkruUY</p>","","","","","","","","",""
"html-keyboard-response","306","498961","0.0-14.0-0.55","5e2c6968e97bec29709a53c6","650c16f0f2faf8d7a0d14c09","651c1bfa687bb1febdc60fb6","null","null","<p style=""font-size: 60px; font-family: BACS"">bAdkOtM</p>","","","","","","","","",""
"html-keyboard-response","307","499974","0.0-14.0-0.56","5e2c6968e97bec29709a53c6","650c16f0f2faf8d7a0d14c09","651c1bfa687bb1febdc60fb6","null","null","<p style=""font-size: 60px; font-family: BACS"">rkYLmvG</p>","","","","","","","","",""
"html-keyboard-response","308","500985","0.0-14.0-0.57","5e2c6968e97bec29709a53c6","650c16f0f2faf8d7a0d14c09","651c1bfa687bb1febdc60fb6","null","null","<p style=""font-size: 60px; font-family: BACS"">YQbcuZc</p>","","","","","","","","",""
"html-keyboard-response","309","501997","0.0-14.0-0.58","5e2c6968e97bec29709a53c6","650c16f0f2faf8d7a0d14c09","651c1bfa687bb1febdc60fb6","null","null","<p style=""font-size: 60px; font-family: BACS"">bAdkPEdK</p>","","","","","","","","",""
"html-keyboard-response","310","503011","0.0-14.0-0.59","5e2c6968e97bec29709a53c6","650c16f0f2faf8d7a0d14c09","651c1bfa687bb1febdc60fb6","null","null","<p style=""font-size: 60px; font-family: BACS"">bmbNuZc</p>","","","","","","","","",""
"html-keyboard-response","311","504021","0.0-14.0-0.60","5e2c6968e97bec29709a53c6","650c16f0f2faf8d7a0d14c09","651c1bfa687bb1febdc60fb6","null","null","<p style=""font-size: 60px; font-family: BACS"">mdkKPEdK</p>","","","","","","","","",""
"html-keyboard-response","312","505036","0.0-14.0-0.61","5e2c6968e97bec29709a53c6","650c16f0f2faf8d7a0d14c09","651c1bfa687bb1febdc60fb6","null","null","<p style=""font-size: 60px; font-family: BACS"">bmbNuUmb</p>","","","","","","","","",""
"html-keyboard-response","313","506048","0.0-14.0-0.62","5e2c6968e97bec29709a53c6","650c16f0f2faf8d7a0d14c09","651c1bfa687bb1febdc60fb6","null","null","<p style=""font-size: 60px; font-family: BACS"">bvuZuUY</p>","","","","","","","","",""
"html-keyboard-response","314","507059","0.0-14.0-0.63","5e2c6968e97bec29709a53c6","650c16f0f2faf8d7a0d14c09","651c1bfa687bb1febdc60fb6","null","null","<p style=""font-size: 60px; font-family: BACS"">aONduUmb</p>","","","","","","","","",""
"html-keyboard-response","315","508071","0.0-14.0-0.64","5e2c6968e97bec29709a53c6","650c16f0f2faf8d7a0d14c09","651c1bfa687bb1febdc60fb6","null","null","<p style=""font-size: 60px; font-family: BACS"">lhCTCAdYl</p>","","","","","","","","",""
"html-keyboard-response","316","509081","0.0-14.0-0.65","5e2c6968e97bec29709a53c6","650c16f0f2faf8d7a0d14c09","651c1bfa687bb1febdc60fb6","null","null","<p style=""font-size: 60px; font-family: BACS"">ZdNmUuvJ</p>","","","","","","","","",""
"html-keyboard-response","317","510094","0.0-14.0-0.66","5e2c6968e97bec29709a53c6","650c16f0f2faf8d7a0d14c09","651c1bfa687bb1febdc60fb6","null","null","<p style=""font-size: 60px; font-family: BACS"">RYtkcPEdK</p>","","","","","","","","",""
"html-keyboard-response","318","511108","0.0-14.0-0.67","5e2c6968e97bec29709a53c6","650c16f0f2faf8d7a0d14c09","651c1bfa687bb1febdc60fb6","null","null","<p style=""font-size: 60px; font-family: BACS"">JrGvmvG</p>","","","","","","","","",""
"html-keyboard-response","319","512110","0.0-14.0-0.68","5e2c6968e97bec29709a53c6","650c16f0f2faf8d7a0d14c09","651c1bfa687bb1febdc60fb6","null","null","<p style=""font-size: 60px; font-family: BACS"">EMYKOtM</p>","","","","","","","","",""
"html-keyboard-response","320","513123","0.0-14.0-0.69","5e2c6968e97bec29709a53c6","650c16f0f2faf8d7a0d14c09","651c1bfa687bb1febdc60fb6","null","null","<p style=""font-size: 60px; font-family: BACS"">GLYrAuZc</p>","","","","","","","","",""
"html-keyboard-response","321","514137","0.0-14.0-0.70","5e2c6968e97bec29709a53c6","650c16f0f2faf8d7a0d14c09","651c1bfa687bb1febdc60fb6","null","null","<p style=""font-size: 60px; font-family: BACS"">lhCTCOtM</p>","","","","","","","","",""
"html-keyboard-response","322","515151","0.0-14.0-0.71","5e2c6968e97bec29709a53c6","650c16f0f2faf8d7a0d14c09","651c1bfa687bb1febdc60fb6","null","null","<p style=""font-size: 60px; font-family: BACS"">cRElDAdYl</p>","","","","","","","","",""
"html-keyboard-response","323","516164","0.0-14.0-0.72","5e2c6968e97bec29709a53c6","650c16f0f2faf8d7a0d14c09","651c1bfa687bb1febdc60fb6","null","null","<p style=""font-size: 60px; font-family: BACS"">lhCTCbAMO</p>","","","","","","","","",""
"html-keyboard-response","324","517174","0.0-14.0-0.73","5e2c6968e97bec29709a53c6","650c16f0f2faf8d7a0d14c09","651c1bfa687bb1febdc60fb6","null","null","<p style=""font-size: 60px; font-family: BACS"">YQbcuUY</p>","","","","","","","","",""
"html-keyboard-response","325","518187","0.0-14.0-0.74","5e2c6968e97bec29709a53c6","650c16f0f2faf8d7a0d14c09","651c1bfa687bb1febdc60fb6","null","null","<p style=""font-size: 60px; font-family: BACS"">aONdmvG</p>","","","","","","","","",""
"html-keyboard-response","326","519198","0.0-14.0-0.75","5e2c6968e97bec29709a53c6","650c16f0f2faf8d7a0d14c09","651c1bfa687bb1febdc60fb6","null","null","<p style=""font-size: 60px; font-family: BACS"">bmbNuvJ</p>","","","","","","","","",""
"html-keyboard-response","327","520209","0.0-14.0-0.76","5e2c6968e97bec29709a53c6","650c16f0f2faf8d7a0d14c09","651c1bfa687bb1febdc60fb6","null","null","<p style=""font-size: 60px; font-family: BACS"">PhktkBbM</p>","","","","","","","","",""
"html-keyboard-response","328","521221","0.0-14.0-0.77","5e2c6968e97bec29709a53c6","650c16f0f2faf8d7a0d14c09","651c1bfa687bb1febdc60fb6","null","null","<p style=""font-size: 60px; font-family: BACS"">uAkruZc</p>","","","","","","","","",""
"html-keyboard-response","329","522231","0.0-14.0-0.78","5e2c6968e97bec29709a53c6","650c16f0f2faf8d7a0d14c09","651c1bfa687bb1febdc60fb6","null","null","<p style=""font-size: 60px; font-family: BACS"">ZdNmUmvG</p>","","","","","","","","",""
"html-keyboard-response","330","523245","0.0-14.0-0.79","5e2c6968e97bec29709a53c6","650c16f0f2faf8d7a0d14c09","651c1bfa687bb1febdc60fb6","null","null","<p style=""font-size: 60px; font-family: BACS"">rkYLuZc</p>","","","","","","","","",""
"html-keyboard-response","331","533001","0.0-15.0","5e2c6968e97bec29709a53c6","650c16f0f2faf8d7a0d14c09","651c1bfa687bb1febdc60fb6","9755"," ","<p>Great, you've seen the fourth block of words. You may now take a short break.</p>
      <p>Press the spacebar when you're ready to continue.</p>","","","","","","","","",""
"html-keyboard-response","332","534003","0.0-16.0-0.0","5e2c6968e97bec29709a53c6","650c16f0f2faf8d7a0d14c09","651c1bfa687bb1febdc60fb6","null","null","<p style=""font-size: 60px; font-family: BACS"">mdkKPEdK</p>","","","","","","","","",""
"html-keyboard-response","333","535019","0.0-16.0-0.1","5e2c6968e97bec29709a53c6","650c16f0f2faf8d7a0d14c09","651c1bfa687bb1febdc60fb6","null","null","<p style=""font-size: 60px; font-family: BACS"">mdkKPEdK</p>","","","","","","","","",""
"html-keyboard-response","334","536021","0.0-16.0-0.2","5e2c6968e97bec29709a53c6","650c16f0f2faf8d7a0d14c09","651c1bfa687bb1febdc60fb6","null","null","<p style=""font-size: 60px; font-family: BACS"">mdkKPEdK</p>","","","","","","","","",""
"html-keyboard-response","335","537030","0.0-16.0-0.3","5e2c6968e97bec29709a53c6","650c16f0f2faf8d7a0d14c09","651c1bfa687bb1febdc60fb6","null","null","<p style=""font-size: 60px; font-family: BACS"">mdkKPEdK</p>","","","","","","","","",""
"html-keyboard-response","336","538041","0.0-16.0-0.4","5e2c6968e97bec29709a53c6","650c16f0f2faf8d7a0d14c09","651c1bfa687bb1febdc60fb6","null","null","<p style=""font-size: 60px; font-family: BACS"">mdkKPEdK</p>","","","","","","","","",""
"html-keyboard-response","337","539056","0.0-16.0-0.5","5e2c6968e97bec29709a53c6","650c16f0f2faf8d7a0d14c09","651c1bfa687bb1febdc60fb6","null","null","<p style=""font-size: 60px; font-family: BACS"">mdkKPEdK</p>","","","","","","","","",""
"html-keyboard-response","338","540071","0.0-16.0-0.6","5e2c6968e97bec29709a53c6","650c16f0f2faf8d7a0d14c09","651c1bfa687bb1febdc60fb6","null","null","<p style=""font-size: 60px; font-family: BACS"">mdkKPEdK</p>","","","","","","","","",""
"html-keyboard-response","339","541085","0.0-16.0-0.7","5e2c6968e97bec29709a53c6","650c16f0f2faf8d7a0d14c09","651c1bfa687bb1febdc60fb6","null","null","<p style=""font-size: 60px; font-family: BACS"">mdkKPEdK</p>","","","","","","","","",""
"html-keyboard-response","340","542099","0.0-16.0-0.8","5e2c6968e97bec29709a53c6","650c16f0f2faf8d7a0d14c09","651c1bfa687bb1febdc60fb6","null","null","<p style=""font-size: 60px; font-family: BACS"">mdkKPEdK</p>","","","","","","","","",""
"html-keyboard-response","341","543100","0.0-16.0-0.9","5e2c6968e97bec29709a53c6","650c16f0f2faf8d7a0d14c09","651c1bfa687bb1febdc60fb6","null","null","<p style=""font-size: 60px; font-family: BACS"">mdkKPEdK</p>","","","","","","","","",""
"html-keyboard-response","342","544106","0.0-16.0-0.10","5e2c6968e97bec29709a53c6","650c16f0f2faf8d7a0d14c09","651c1bfa687bb1febdc60fb6","null","null","<p style=""font-size: 60px; font-family: BACS"">mdkKPEdK</p>","","","","","","","","",""
"html-keyboard-response","343","545117","0.0-16.0-0.11","5e2c6968e97bec29709a53c6","650c16f0f2faf8d7a0d14c09","651c1bfa687bb1febdc60fb6","null","null","<p style=""font-size: 60px; font-family: BACS"">mdkKPEdK</p>","","","","","","","","",""
"html-keyboard-response","344","546129","0.0-16.0-0.12","5e2c6968e97bec29709a53c6","650c16f0f2faf8d7a0d14c09","651c1bfa687bb1febdc60fb6","null","null","<p style=""font-size: 60px; font-family: BACS"">mdkKPEdK</p>","","","","","","","","",""
"html-keyboard-response","345","547142","0.0-16.0-0.13","5e2c6968e97bec29709a53c6","650c16f0f2faf8d7a0d14c09","651c1bfa687bb1febdc60fb6","null","null","<p style=""font-size: 60px; font-family: BACS"">mdkKPEdK</p>","","","","","","","","",""
"html-keyboard-response","346","548156","0.0-16.0-0.14","5e2c6968e97bec29709a53c6","650c16f0f2faf8d7a0d14c09","651c1bfa687bb1febdc60fb6","null","null","<p style=""font-size: 60px; font-family: BACS"">mdkKPEdK</p>","","","","","","","","",""
"html-keyboard-response","347","549166","0.0-16.0-0.15","5e2c6968e97bec29709a53c6","650c16f0f2faf8d7a0d14c09","651c1bfa687bb1febdc60fb6","null","null","<p style=""font-size: 60px; font-family: BACS"">mdkKPEdK</p>","","","","","","","","",""
"html-keyboard-response","348","550169","0.0-16.0-0.16","5e2c6968e97bec29709a53c6","650c16f0f2faf8d7a0d14c09","651c1bfa687bb1febdc60fb6","null","null","<p style=""font-size: 60px; font-family: BACS"">mdkKPEdK</p>","","","","","","","","",""
"html-keyboard-response","349","551175","0.0-16.0-0.17","5e2c6968e97bec29709a53c6","650c16f0f2faf8d7a0d14c09","651c1bfa687bb1febdc60fb6","null","null","<p style=""font-size: 60px; font-family: BACS"">mdkKPEdK</p>","","","","","","","","",""
"html-keyboard-response","350","552187","0.0-16.0-0.18","5e2c6968e97bec29709a53c6","650c16f0f2faf8d7a0d14c09","651c1bfa687bb1febdc60fb6","null","null","<p style=""font-size: 60px; font-family: BACS"">mdkKPEdK</p>","","","","","","","","",""
"html-keyboard-response","351","553198","0.0-16.0-0.19","5e2c6968e97bec29709a53c6","650c16f0f2faf8d7a0d14c09","651c1bfa687bb1febdc60fb6","null","null","<p style=""font-size: 60px; font-family: BACS"">mdkKPEdK</p>","","","","","","","","",""
"html-keyboard-response","352","554210","0.0-16.0-0.20","5e2c6968e97bec29709a53c6","650c16f0f2faf8d7a0d14c09","651c1bfa687bb1febdc60fb6","null","null","<p style=""font-size: 60px; font-family: BACS"">mdkKPEdK</p>","","","","","","","","",""
"html-keyboard-response","353","555223","0.0-16.0-0.21","5e2c6968e97bec29709a53c6","650c16f0f2faf8d7a0d14c09","651c1bfa687bb1febdc60fb6","null","null","<p style=""font-size: 60px; font-family: BACS"">mdkKPEdK</p>","","","","","","","","",""
"html-keyboard-response","354","556236","0.0-16.0-0.22","5e2c6968e97bec29709a53c6","650c16f0f2faf8d7a0d14c09","651c1bfa687bb1febdc60fb6","null","null","<p style=""font-size: 60px; font-family: BACS"">mdkKPEdK</p>","","","","","","","","",""
"html-keyboard-response","355","557237","0.0-16.0-0.23","5e2c6968e97bec29709a53c6","650c16f0f2faf8d7a0d14c09","651c1bfa687bb1febdc60fb6","null","null","<p style=""font-size: 60px; font-family: BACS"">mdkKPEdK</p>","","","","","","","","",""
"html-keyboard-response","356","558238","0.0-16.0-0.24","5e2c6968e97bec29709a53c6","650c16f0f2faf8d7a0d14c09","651c1bfa687bb1febdc60fb6","null","null","<p style=""font-size: 60px; font-family: BACS"">mdkKPEdK</p>","","","","","","","","",""
"html-keyboard-response","357","559250","0.0-16.0-0.25","5e2c6968e97bec29709a53c6","650c16f0f2faf8d7a0d14c09","651c1bfa687bb1febdc60fb6","null","null","<p style=""font-size: 60px; font-family: BACS"">mdkKPEdK</p>","","","","","","","","",""
"html-keyboard-response","358","560261","0.0-16.0-0.26","5e2c6968e97bec29709a53c6","650c16f0f2faf8d7a0d14c09","651c1bfa687bb1febdc60fb6","null","null","<p style=""font-size: 60px; font-family: BACS"">mdkKPEdK</p>","","","","","","","","",""
"html-keyboard-response","359","561274","0.0-16.0-0.27","5e2c6968e97bec29709a53c6","650c16f0f2faf8d7a0d14c09","651c1bfa687bb1febdc60fb6","null","null","<p style=""font-size: 60px; font-family: BACS"">mdkKPEdK</p>","","","","","","","","",""
"html-keyboard-response","360","562289","0.0-16.0-0.28","5e2c6968e97bec29709a53c6","650c16f0f2faf8d7a0d14c09","651c1bfa687bb1febdc60fb6","null","null","<p style=""font-size: 60px; font-family: BACS"">mdkKPEdK</p>","","","","","","","","",""
"html-keyboard-response","361","563299","0.0-16.0-0.29","5e2c6968e97bec29709a53c6","650c16f0f2faf8d7a0d14c09","651c1bfa687bb1febdc60fb6","null","null","<p style=""font-size: 60px; font-family: BACS"">mdkKPEdK</p>","","","","","","","","",""
"html-keyboard-response","362","564314","0.0-16.0-0.30","5e2c6968e97bec29709a53c6","650c16f0f2faf8d7a0d14c09","651c1bfa687bb1febdc60fb6","null","null","<p style=""font-size: 60px; font-family: BACS"">mdkKPEdK</p>","","","","","","","","",""
"html-keyboard-response","363","565325","0.0-16.0-0.31","5e2c6968e97bec29709a53c6","650c16f0f2faf8d7a0d14c09","651c1bfa687bb1febdc60fb6","null","null","<p style=""font-size: 60px; font-family: BACS"">mdkKPEdK</p>","","","","","","","","",""
"html-keyboard-response","364","566337","0.0-16.0-0.32","5e2c6968e97bec29709a53c6","650c16f0f2faf8d7a0d14c09","651c1bfa687bb1febdc60fb6","null","null","<p style=""font-size: 60px; font-family: BACS"">mdkKPEdK</p>","","","","","","","","",""
"html-keyboard-response","365","567339","0.0-16.0-0.33","5e2c6968e97bec29709a53c6","650c16f0f2faf8d7a0d14c09","651c1bfa687bb1febdc60fb6","null","null","<p style=""font-size: 60px; font-family: BACS"">mdkKPEdK</p>","","","","","","","","",""
"html-keyboard-response","366","568347","0.0-16.0-0.34","5e2c6968e97bec29709a53c6","650c16f0f2faf8d7a0d14c09","651c1bfa687bb1febdc60fb6","null","null","<p style=""font-size: 60px; font-family: BACS"">mdkKPEdK</p>","","","","","","","","",""
"html-keyboard-response","367","569348","0.0-16.0-0.35","5e2c6968e97bec29709a53c6","650c16f0f2faf8d7a0d14c09","651c1bfa687bb1febdc60fb6","null","null","<p style=""font-size: 60px; font-family: BACS"">mdkKPEdK</p>","","","","","","","","",""
"html-keyboard-response","368","570354","0.0-16.0-0.36","5e2c6968e97bec29709a53c6","650c16f0f2faf8d7a0d14c09","651c1bfa687bb1febdc60fb6","null","null","<p style=""font-size: 60px; font-family: BACS"">mdkKPEdK</p>","","","","","","","","",""
"html-keyboard-response","369","571365","0.0-16.0-0.37","5e2c6968e97bec29709a53c6","650c16f0f2faf8d7a0d14c09","651c1bfa687bb1febdc60fb6","null","null","<p style=""font-size: 60px; font-family: BACS"">mdkKPEdK</p>","","","","","","","","",""
"html-keyboard-response","370","572379","0.0-16.0-0.38","5e2c6968e97bec29709a53c6","650c16f0f2faf8d7a0d14c09","651c1bfa687bb1febdc60fb6","null","null","<p style=""font-size: 60px; font-family: BACS"">mdkKPEdK</p>","","","","","","","","",""
"html-keyboard-response","371","573391","0.0-16.0-0.39","5e2c6968e97bec29709a53c6","650c16f0f2faf8d7a0d14c09","651c1bfa687bb1febdc60fb6","null","null","<p style=""font-size: 60px; font-family: BACS"">mdkKPEdK</p>","","","","","","","","",""
"html-keyboard-response","372","574402","0.0-16.0-0.40","5e2c6968e97bec29709a53c6","650c16f0f2faf8d7a0d14c09","651c1bfa687bb1febdc60fb6","null","null","<p style=""font-size: 60px; font-family: BACS"">mdkKPEdK</p>","","","","","","","","",""
"html-keyboard-response","373","575411","0.0-16.0-0.41","5e2c6968e97bec29709a53c6","650c16f0f2faf8d7a0d14c09","651c1bfa687bb1febdc60fb6","null","null","<p style=""font-size: 60px; font-family: BACS"">mdkKPEdK</p>","","","","","","","","",""
"html-keyboard-response","374","576426","0.0-16.0-0.42","5e2c6968e97bec29709a53c6","650c16f0f2faf8d7a0d14c09","651c1bfa687bb1febdc60fb6","null","null","<p style=""font-size: 60px; font-family: BACS"">mdkKPEdK</p>","","","","","","","","",""
"html-keyboard-response","375","577439","0.0-16.0-0.43","5e2c6968e97bec29709a53c6","650c16f0f2faf8d7a0d14c09","651c1bfa687bb1febdc60fb6","null","null","<p style=""font-size: 60px; font-family: BACS"">mdkKPEdK</p>","","","","","","","","",""
"html-keyboard-response","376","578450","0.0-16.0-0.44","5e2c6968e97bec29709a53c6","650c16f0f2faf8d7a0d14c09","651c1bfa687bb1febdc60fb6","null","null","<p style=""font-size: 60px; font-family: BACS"">mdkKPEdK</p>","","","","","","","","",""
"html-keyboard-response","377","579452","0.0-16.0-0.45","5e2c6968e97bec29709a53c6","650c16f0f2faf8d7a0d14c09","651c1bfa687bb1febdc60fb6","null","null","<p style=""font-size: 60px; font-family: BACS"">mdkKPEdK</p>","","","","","","","","",""
"html-keyboard-response","378","580461","0.0-16.0-0.46","5e2c6968e97bec29709a53c6","650c16f0f2faf8d7a0d14c09","651c1bfa687bb1febdc60fb6","null","null","<p style=""font-size: 60px; font-family: BACS"">mdkKPEdK</p>","","","","","","","","",""
"html-keyboard-response","379","581475","0.0-16.0-0.47","5e2c6968e97bec29709a53c6","650c16f0f2faf8d7a0d14c09","651c1bfa687bb1febdc60fb6","null","null","<p style=""font-size: 60px; font-family: BACS"">mdkKPEdK</p>","","","","","","","","",""
"html-keyboard-response","380","582486","0.0-16.0-0.48","5e2c6968e97bec29709a53c6","650c16f0f2faf8d7a0d14c09","651c1bfa687bb1febdc60fb6","null","null","<p style=""font-size: 60px; font-family: BACS"">mdkKPEdK</p>","","","","","","","","",""
"html-keyboard-response","381","583502","0.0-16.0-0.49","5e2c6968e97bec29709a53c6","650c16f0f2faf8d7a0d14c09","651c1bfa687bb1febdc60fb6","null","null","<p style=""font-size: 60px; font-family: BACS"">mdkKPEdK</p>","","","","","","","","",""
"html-keyboard-response","382","584503","0.0-16.0-0.50","5e2c6968e97bec29709a53c6","650c16f0f2faf8d7a0d14c09","651c1bfa687bb1febdc60fb6","null","null","<p style=""font-size: 60px; font-family: BACS"">mdkKPEdK</p>","","","","","","","","",""
"html-keyboard-response","383","585517","0.0-16.0-0.51","5e2c6968e97bec29709a53c6","650c16f0f2faf8d7a0d14c09","651c1bfa687bb1febdc60fb6","null","null","<p style=""font-size: 60px; font-family: BACS"">mdkKPEdK</p>","","","","","","","","",""
"html-keyboard-response","384","586530","0.0-16.0-0.52","5e2c6968e97bec29709a53c6","650c16f0f2faf8d7a0d14c09","651c1bfa687bb1febdc60fb6","null","null","<p style=""font-size: 60px; font-family: BACS"">mdkKPEdK</p>","","","","","","","","",""
"html-keyboard-response","385","587541","0.0-16.0-0.53","5e2c6968e97bec29709a53c6","650c16f0f2faf8d7a0d14c09","651c1bfa687bb1febdc60fb6","null","null","<p style=""font-size: 60px; font-family: BACS"">mdkKPEdK</p>","","","","","","","","",""
"html-keyboard-response","386","588554","0.0-16.0-0.54","5e2c6968e97bec29709a53c6","650c16f0f2faf8d7a0d14c09","651c1bfa687bb1febdc60fb6","null","null","<p style=""font-size: 60px; font-family: BACS"">mdkKPEdK</p>","","","","","","","","",""
"html-keyboard-response","387","589555","0.0-16.0-0.55","5e2c6968e97bec29709a53c6","650c16f0f2faf8d7a0d14c09","651c1bfa687bb1febdc60fb6","null","null","<p style=""font-size: 60px; font-family: BACS"">mdkKPEdK</p>","","","","","","","","",""
"html-keyboard-response","388","590562","0.0-16.0-0.56","5e2c6968e97bec29709a53c6","650c16f0f2faf8d7a0d14c09","651c1bfa687bb1febdc60fb6","null","null","<p style=""font-size: 60px; font-family: BACS"">mdkKPEdK</p>","","","","","","","","",""
"html-keyboard-response","389","591575","0.0-16.0-0.57","5e2c6968e97bec29709a53c6","650c16f0f2faf8d7a0d14c09","651c1bfa687bb1febdc60fb6","null","null","<p style=""font-size: 60px; font-family: BACS"">mdkKPEdK</p>","","","","","","","","",""
"html-keyboard-response","390","592585","0.0-16.0-0.58","5e2c6968e97bec29709a53c6","650c16f0f2faf8d7a0d14c09","651c1bfa687bb1febdc60fb6","null","null","<p style=""font-size: 60px; font-family: BACS"">mdkKPEdK</p>","","","","","","","","",""
"html-keyboard-response","391","593597","0.0-16.0-0.59","5e2c6968e97bec29709a53c6","650c16f0f2faf8d7a0d14c09","651c1bfa687bb1febdc60fb6","null","null","<p style=""font-size: 60px; font-family: BACS"">mdkKPEdK</p>","","","","","","","","",""
"html-keyboard-response","392","594609","0.0-16.0-0.60","5e2c6968e97bec29709a53c6","650c16f0f2faf8d7a0d14c09","651c1bfa687bb1febdc60fb6","null","null","<p style=""font-size: 60px; font-family: BACS"">mdkKPEdK</p>","","","","","","","","",""
"html-keyboard-response","393","595624","0.0-16.0-0.61","5e2c6968e97bec29709a53c6","650c16f0f2faf8d7a0d14c09","651c1bfa687bb1febdc60fb6","null","null","<p style=""font-size: 60px; font-family: BACS"">mdkKPEdK</p>","","","","","","","","",""
"html-keyboard-response","394","596626","0.0-16.0-0.62","5e2c6968e97bec29709a53c6","650c16f0f2faf8d7a0d14c09","651c1bfa687bb1febdc60fb6","null","null","<p style=""font-size: 60px; font-family: BACS"">mdkKPEdK</p>","","","","","","","","",""
"html-keyboard-response","395","597636","0.0-16.0-0.63","5e2c6968e97bec29709a53c6","650c16f0f2faf8d7a0d14c09","651c1bfa687bb1febdc60fb6","null","null","<p style=""font-size: 60px; font-family: BACS"">mdkKPEdK</p>","","","","","","","","",""
"html-keyboard-response","396","598648","0.0-16.0-0.64","5e2c6968e97bec29709a53c6","650c16f0f2faf8d7a0d14c09","651c1bfa687bb1febdc60fb6","null","null","<p style=""font-size: 60px; font-family: BACS"">mdkKPEdK</p>","","","","","","","","",""
"html-keyboard-response","397","599660","0.0-16.0-0.65","5e2c6968e97bec29709a53c6","650c16f0f2faf8d7a0d14c09","651c1bfa687bb1febdc60fb6","null","null","<p style=""font-size: 60px; font-family: BACS"">mdkKPEdK</p>","","","","","","","","",""
"html-keyboard-response","398","600674","0.0-16.0-0.66","5e2c6968e97bec29709a53c6","650c16f0f2faf8d7a0d14c09","651c1bfa687bb1febdc60fb6","null","null","<p style=""font-size: 60px; font-family: BACS"">mdkKPEdK</p>","","","","","","","","",""
