"trial_type","trial_index","time_elapsed","internal_node_id","subject_id","study_id","session_id","rt","response","stimulus","success","item","task","correct_response","testing_condition","correct","target","confound","name"
"pavlovia","0","706","0.0-0.0","600e0dadada7da69afc5b3de","650c16f0f2faf8d7a0d14c09","651c0aadc6eaf8f5c63ff23d","","","","","","","","","","","",""
"survey-html-form","1","4420","0.0-1.0","600e0dadada7da69afc5b3de","650c16f0f2faf8d7a0d14c09","651c0aadc6eaf8f5c63ff23d","3713","{""ID"":""600e0dadada7da69afc5b3de""}","","","","","","","","","",""
"html-keyboard-response","2","6747","0.0-2.0","600e0dadada7da69afc5b3de","650c16f0f2faf8d7a0d14c09","651c0aadc6eaf8f5c63ff23d","2326"," ","<p style=""font-size: 15px;"">Before beginning, we ask that you read the consent information and confirm your agreement to participate in the experiment.</p>
      <p style=""font-size: 15px;""> We ask that you remember that this is a research project and that your participation is entirely voluntary. You can stop your participation at any time, without needing to provide any explanation. The study we're asking you to participate in aims at examining how readers process written words. You will be engaged in a session of apprximately 20 minutes, followed by a brief questionnaire. You will have the opportunity to take a few breaks during the experiment. You will be paid £4 for your participation, corresponding to a rate of £8/hour. While this experiment looks at cognitive faculties, this experiment doesn't constitute clinical proof of eventual pathologies.</p>
      <p style=""font-size: 15px;"">All of the information collected thanks to yours and others' participation will be held in a secure password-protected server, and will not be shared with anyone not authorised to view it. Your personal information will be kept with an arbitrary participant ID. Thanks to this data anonymity process, any researcher analysing the data won't be able to track the information back to a specific participant. Therefore, this process will make identifying you impossibile, even when results from the study will be published in scientific reviews, presented at congresses, or at any other public forum. More generally, the collected data will be treated in accordance with the laws on privacy and conformity to the Legislative Degree n. 196 ""Code regarding the protection of personal data"" of the 30th of June 2003 and to the European Regulation 2016/670 (General Data Protection Regulation - GDPR). The Data Protection Officer is Avv. Valentina Carollo, who can be contacted at the following email addresses: <a href=""mailto:dpo@sissa.it"">dpo@sissa.it</a> or <a href=""mailto:rpd@sissa.it"">rpd@sissa.it</a> - PEC: <a href=""mailto:protocollo@pec.sissa.it"">protocollo@pec.sissa.it</a>.</p>
      <p style=""font-size: 15px;""> Before expressing your consent to participate, we would like to remind you again that in case you need explanations on any aspect of the experimental procedure, the researcher is at your disposition (<a href=""mailto:aliebelt@sissa.it"">aliebelt@sissa.it</a>, <a href=""mailto:davide.crepaldi@sissa.it"">davide.crepaldi@sissa.it</a>).</p>
      <p style=""font-size: 15px;"">If you would like to download the informed consent form, you can do so here: <a href=""BASL-Informed_Consent.pdf"" download>informed consent form</a>.</p>
      <p style=""font-size: 15px;"">We ask that you press the spacebar to proceed to the consent section.</p>","","","","","","","","",""
"survey-html-form","3","18794","0.0-3.0","600e0dadada7da69afc5b3de","650c16f0f2faf8d7a0d14c09","651c0aadc6eaf8f5c63ff23d","12046","{""consent1"":""YES"",""consent2"":""YES"",""consent3"":""YES"",""consent4"":""YES"",""consent5"":""YES"",""consent6"":""YES""}","","","","","","","","","",""
"fullscreen","4","20892","0.0-4.0","600e0dadada7da69afc5b3de","650c16f0f2faf8d7a0d14c09","651c0aadc6eaf8f5c63ff23d","","","","true","","","","","","","",""
"html-keyboard-response","5","31382","0.0-5.0","600e0dadada7da69afc5b3de","650c16f0f2faf8d7a0d14c09","651c0aadc6eaf8f5c63ff23d","10489"," ","<p>Welcome, and thank you very much for your time!</p>
      <p>In this experiment, you'll be a language expert who's been asked to take a look at words that Earth has received in its first communication with aliens. Your task, in this first part of the experiment, is to pay close attention to the words you'll be shown; later, world leaders will ask you questions on what you saw. The words will be shown to you quite quickly; it seems that the aliens were in a hurry :-)</p>
      <p>Press the spacebar to continue.<p>","","","","","","","","",""
"html-keyboard-response","6","31448","0.0-6.0","600e0dadada7da69afc5b3de","650c16f0f2faf8d7a0d14c09","651c0aadc6eaf8f5c63ff23d","null","null","<p style=""font-size: 120px; font-family: BACS""> </p>","","","","","","","","",""
"html-keyboard-response","7","35722","0.0-7.0","600e0dadada7da69afc5b3de","650c16f0f2faf8d7a0d14c09","651c0aadc6eaf8f5c63ff23d","4274"," ","<p>Here is an example of the words you'll see:</p>
      <img src='esempio.png' height='400px'>
      <p>When you're ready to begin, press the spacebar.</p></div>","","","","","","","","",""
"html-keyboard-response","8","36728","0.0-8.0-0.0","600e0dadada7da69afc5b3de","650c16f0f2faf8d7a0d14c09","651c0aadc6eaf8f5c63ff23d","null","null","<p style=""font-size: 60px; font-family: BACS"">dKRDPMd</p>","","","","","","","","",""
"html-keyboard-response","9","37737","0.0-8.0-0.1","600e0dadada7da69afc5b3de","650c16f0f2faf8d7a0d14c09","651c0aadc6eaf8f5c63ff23d","null","null","<p style=""font-size: 60px; font-family: BACS"">GQrcGrub</p>","","","","","","","","",""
"html-keyboard-response","10","38748","0.0-8.0-0.2","600e0dadada7da69afc5b3de","650c16f0f2faf8d7a0d14c09","651c0aadc6eaf8f5c63ff23d","null","null","<p style=""font-size: 60px; font-family: BACS"">UdbdNmAG</p>","","","","","","","","",""
"html-keyboard-response","11","39757","0.0-8.0-0.3","600e0dadada7da69afc5b3de","650c16f0f2faf8d7a0d14c09","651c0aadc6eaf8f5c63ff23d","null","null","<p style=""font-size: 60px; font-family: BACS"">dKDthMKmY</p>","","","","","","","","",""
"html-keyboard-response","12","40769","0.0-8.0-0.4","600e0dadada7da69afc5b3de","650c16f0f2faf8d7a0d14c09","651c0aadc6eaf8f5c63ff23d","null","null","<p style=""font-size: 60px; font-family: BACS"">UrOQNmAG</p>","","","","","","","","",""
"html-keyboard-response","13","41782","0.0-8.0-0.5","600e0dadada7da69afc5b3de","650c16f0f2faf8d7a0d14c09","651c0aadc6eaf8f5c63ff23d","null","null","<p style=""font-size: 60px; font-family: BACS"">vQdOGrub</p>","","","","","","","","",""
"html-keyboard-response","14","42794","0.0-8.0-0.6","600e0dadada7da69afc5b3de","650c16f0f2faf8d7a0d14c09","651c0aadc6eaf8f5c63ff23d","null","null","<p style=""font-size: 60px; font-family: BACS"">TDKhRdCc</p>","","","","","","","","",""
"html-keyboard-response","15","43809","0.0-8.0-0.7","600e0dadada7da69afc5b3de","650c16f0f2faf8d7a0d14c09","651c0aadc6eaf8f5c63ff23d","null","null","<p style=""font-size: 60px; font-family: BACS"">NvYJGrub</p>","","","","","","","","",""
"html-keyboard-response","16","44820","0.0-8.0-0.8","600e0dadada7da69afc5b3de","650c16f0f2faf8d7a0d14c09","651c0aadc6eaf8f5c63ff23d","null","null","<p style=""font-size: 60px; font-family: BACS"">vQdOLkNc</p>","","","","","","","","",""
"html-keyboard-response","17","45833","0.0-8.0-0.9","600e0dadada7da69afc5b3de","650c16f0f2faf8d7a0d14c09","651c0aadc6eaf8f5c63ff23d","null","null","<p style=""font-size: 60px; font-family: BACS"">lZcuGrub</p>","","","","","","","","",""
"html-keyboard-response","18","46836","0.0-8.0-0.10","600e0dadada7da69afc5b3de","650c16f0f2faf8d7a0d14c09","651c0aadc6eaf8f5c63ff23d","null","null","<p style=""font-size: 60px; font-family: BACS"">NvYJNmAG</p>","","","","","","","","",""
"html-keyboard-response","19","47846","0.0-8.0-0.11","600e0dadada7da69afc5b3de","650c16f0f2faf8d7a0d14c09","651c0aadc6eaf8f5c63ff23d","null","null","<p style=""font-size: 60px; font-family: BACS"">GQrcZvkL</p>","","","","","","","","",""
"html-keyboard-response","20","48856","0.0-8.0-0.12","600e0dadada7da69afc5b3de","650c16f0f2faf8d7a0d14c09","651c0aadc6eaf8f5c63ff23d","null","null","<p style=""font-size: 60px; font-family: BACS"">lcOcNmAG</p>","","","","","","","","",""
"html-keyboard-response","21","49868","0.0-8.0-0.13","600e0dadada7da69afc5b3de","650c16f0f2faf8d7a0d14c09","651c0aadc6eaf8f5c63ff23d","null","null","<p style=""font-size: 60px; font-family: BACS"">dYdAcMRl</p>","","","","","","","","",""
"html-keyboard-response","22","50884","0.0-8.0-0.14","600e0dadada7da69afc5b3de","650c16f0f2faf8d7a0d14c09","651c0aadc6eaf8f5c63ff23d","null","null","<p style=""font-size: 60px; font-family: BACS"">lcOcYUYa</p>","","","","","","","","",""
"html-keyboard-response","23","51892","0.0-8.0-0.15","600e0dadada7da69afc5b3de","650c16f0f2faf8d7a0d14c09","651c0aadc6eaf8f5c63ff23d","null","null","<p style=""font-size: 60px; font-family: BACS"">UrOQLkNc</p>","","","","","","","","",""
"html-keyboard-response","24","52902","0.0-8.0-0.16","600e0dadada7da69afc5b3de","650c16f0f2faf8d7a0d14c09","651c0aadc6eaf8f5c63ff23d","null","null","<p style=""font-size: 60px; font-family: BACS"">lZcuYUYa</p>","","","","","","","","",""
"html-keyboard-response","25","53913","0.0-8.0-0.17","600e0dadada7da69afc5b3de","650c16f0f2faf8d7a0d14c09","651c0aadc6eaf8f5c63ff23d","null","null","<p style=""font-size: 60px; font-family: BACS"">mdlaLkNc</p>","","","","","","","","",""
"html-keyboard-response","26","54926","0.0-8.0-0.18","600e0dadada7da69afc5b3de","650c16f0f2faf8d7a0d14c09","651c0aadc6eaf8f5c63ff23d","null","null","<p style=""font-size: 60px; font-family: BACS"">hTtBbCMdP</p>","","","","","","","","",""
"html-keyboard-response","27","55939","0.0-8.0-0.19","600e0dadada7da69afc5b3de","650c16f0f2faf8d7a0d14c09","651c0aadc6eaf8f5c63ff23d","null","null","<p style=""font-size: 60px; font-family: BACS"">lZcuNmAG</p>","","","","","","","","",""
"html-keyboard-response","28","56949","0.0-8.0-0.20","600e0dadada7da69afc5b3de","650c16f0f2faf8d7a0d14c09","651c0aadc6eaf8f5c63ff23d","null","null","<p style=""font-size: 60px; font-family: BACS"">GQrcLkNc</p>","","","","","","","","",""
"html-keyboard-response","29","57964","0.0-8.0-0.21","600e0dadada7da69afc5b3de","650c16f0f2faf8d7a0d14c09","651c0aadc6eaf8f5c63ff23d","null","null","<p style=""font-size: 60px; font-family: BACS"">RhPmcMRl</p>","","","","","","","","",""
"html-keyboard-response","30","58974","0.0-8.0-0.22","600e0dadada7da69afc5b3de","650c16f0f2faf8d7a0d14c09","651c0aadc6eaf8f5c63ff23d","null","null","<p style=""font-size: 60px; font-family: BACS"">ldAaNmAG</p>","","","","","","","","",""
"html-keyboard-response","31","59984","0.0-8.0-0.23","600e0dadada7da69afc5b3de","650c16f0f2faf8d7a0d14c09","651c0aadc6eaf8f5c63ff23d","null","null","<p style=""font-size: 60px; font-family: BACS"">RhPmRdCc</p>","","","","","","","","",""
"html-keyboard-response","32","60989","0.0-8.0-0.24","600e0dadada7da69afc5b3de","650c16f0f2faf8d7a0d14c09","651c0aadc6eaf8f5c63ff23d","null","null","<p style=""font-size: 60px; font-family: BACS"">EltMBMKmY</p>","","","","","","","","",""
"html-keyboard-response","33","62005","0.0-8.0-0.25","600e0dadada7da69afc5b3de","650c16f0f2faf8d7a0d14c09","651c0aadc6eaf8f5c63ff23d","null","null","<p style=""font-size: 60px; font-family: BACS"">UrOQYUYa</p>","","","","","","","","",""
"html-keyboard-response","34","63012","0.0-8.0-0.26","600e0dadada7da69afc5b3de","650c16f0f2faf8d7a0d14c09","651c0aadc6eaf8f5c63ff23d","null","null","<p style=""font-size: 60px; font-family: BACS"">OmtlDCMdP</p>","","","","","","","","",""
"html-keyboard-response","35","64025","0.0-8.0-0.27","600e0dadada7da69afc5b3de","650c16f0f2faf8d7a0d14c09","651c0aadc6eaf8f5c63ff23d","null","null","<p style=""font-size: 60px; font-family: BACS"">TDKhPMd</p>","","","","","","","","",""
"html-keyboard-response","36","65037","0.0-8.0-0.28","600e0dadada7da69afc5b3de","650c16f0f2faf8d7a0d14c09","651c0aadc6eaf8f5c63ff23d","null","null","<p style=""font-size: 60px; font-family: BACS"">EltMBCMdP</p>","","","","","","","","",""
"html-keyboard-response","37","66048","0.0-8.0-0.29","600e0dadada7da69afc5b3de","650c16f0f2faf8d7a0d14c09","651c0aadc6eaf8f5c63ff23d","null","null","<p style=""font-size: 60px; font-family: BACS"">ObOQlYUYa</p>","","","","","","","","",""
"html-keyboard-response","38","67056","0.0-8.0-0.30","600e0dadada7da69afc5b3de","650c16f0f2faf8d7a0d14c09","651c0aadc6eaf8f5c63ff23d","null","null","<p style=""font-size: 60px; font-family: BACS"">lcOcGrub</p>","","","","","","","","",""
"html-keyboard-response","39","68065","0.0-8.0-0.31","600e0dadada7da69afc5b3de","650c16f0f2faf8d7a0d14c09","651c0aadc6eaf8f5c63ff23d","null","null","<p style=""font-size: 60px; font-family: BACS"">dKDthCMdP</p>","","","","","","","","",""
"html-keyboard-response","40","69076","0.0-8.0-0.32","600e0dadada7da69afc5b3de","650c16f0f2faf8d7a0d14c09","651c0aadc6eaf8f5c63ff23d","null","null","<p style=""font-size: 60px; font-family: BACS"">vQdOYUYa</p>","","","","","","","","",""
"html-keyboard-response","41","70086","0.0-8.0-0.33","600e0dadada7da69afc5b3de","650c16f0f2faf8d7a0d14c09","651c0aadc6eaf8f5c63ff23d","null","null","<p style=""font-size: 60px; font-family: BACS"">OmtlDRdCc</p>","","","","","","","","",""
"html-keyboard-response","42","71095","0.0-8.0-0.34","600e0dadada7da69afc5b3de","650c16f0f2faf8d7a0d14c09","651c0aadc6eaf8f5c63ff23d","null","null","<p style=""font-size: 60px; font-family: BACS"">RCcEMKmY</p>","","","","","","","","",""
"html-keyboard-response","43","72107","0.0-8.0-0.35","600e0dadada7da69afc5b3de","650c16f0f2faf8d7a0d14c09","651c0aadc6eaf8f5c63ff23d","null","null","<p style=""font-size: 60px; font-family: BACS"">UrOQZvkL</p>","","","","","","","","",""
"html-keyboard-response","44","73118","0.0-8.0-0.36","600e0dadada7da69afc5b3de","650c16f0f2faf8d7a0d14c09","651c0aadc6eaf8f5c63ff23d","null","null","<p style=""font-size: 60px; font-family: BACS"">dYdARdCc</p>","","","","","","","","",""
"html-keyboard-response","45","74130","0.0-8.0-0.37","600e0dadada7da69afc5b3de","650c16f0f2faf8d7a0d14c09","651c0aadc6eaf8f5c63ff23d","null","null","<p style=""font-size: 60px; font-family: BACS"">vQdOZvkL</p>","","","","","","","","",""
"html-keyboard-response","46","75142","0.0-8.0-0.38","600e0dadada7da69afc5b3de","650c16f0f2faf8d7a0d14c09","651c0aadc6eaf8f5c63ff23d","null","null","<p style=""font-size: 60px; font-family: BACS"">dYdAPMd</p>","","","","","","","","",""
"html-keyboard-response","47","76151","0.0-8.0-0.39","600e0dadada7da69afc5b3de","650c16f0f2faf8d7a0d14c09","651c0aadc6eaf8f5c63ff23d","null","null","<p style=""font-size: 60px; font-family: BACS"">ldAaZvkL</p>","","","","","","","","",""
"html-keyboard-response","48","77161","0.0-8.0-0.40","600e0dadada7da69afc5b3de","650c16f0f2faf8d7a0d14c09","651c0aadc6eaf8f5c63ff23d","null","null","<p style=""font-size: 60px; font-family: BACS"">EltMBPMd</p>","","","","","","","","",""
"html-keyboard-response","49","78175","0.0-8.0-0.41","600e0dadada7da69afc5b3de","650c16f0f2faf8d7a0d14c09","651c0aadc6eaf8f5c63ff23d","null","null","<p style=""font-size: 60px; font-family: BACS"">dKRDcMRl</p>","","","","","","","","",""
"html-keyboard-response","50","79185","0.0-8.0-0.42","600e0dadada7da69afc5b3de","650c16f0f2faf8d7a0d14c09","651c0aadc6eaf8f5c63ff23d","null","null","<p style=""font-size: 60px; font-family: BACS"">hTtBbMKmY</p>","","","","","","","","",""
"html-keyboard-response","51","80195","0.0-8.0-0.43","600e0dadada7da69afc5b3de","650c16f0f2faf8d7a0d14c09","651c0aadc6eaf8f5c63ff23d","null","null","<p style=""font-size: 60px; font-family: BACS"">NvYJZvkL</p>","","","","","","","","",""
"html-keyboard-response","52","81203","0.0-8.0-0.44","600e0dadada7da69afc5b3de","650c16f0f2faf8d7a0d14c09","651c0aadc6eaf8f5c63ff23d","null","null","<p style=""font-size: 60px; font-family: BACS"">dKRDRdCc</p>","","","","","","","","",""
"html-keyboard-response","53","82212","0.0-8.0-0.45","600e0dadada7da69afc5b3de","650c16f0f2faf8d7a0d14c09","651c0aadc6eaf8f5c63ff23d","null","null","<p style=""font-size: 60px; font-family: BACS"">hTtBbcMRl</p>","","","","","","","","",""
"html-keyboard-response","54","83228","0.0-8.0-0.46","600e0dadada7da69afc5b3de","650c16f0f2faf8d7a0d14c09","651c0aadc6eaf8f5c63ff23d","null","null","<p style=""font-size: 60px; font-family: BACS"">TDKhMKmY</p>","","","","","","","","",""
"html-keyboard-response","55","84240","0.0-8.0-0.47","600e0dadada7da69afc5b3de","650c16f0f2faf8d7a0d14c09","651c0aadc6eaf8f5c63ff23d","null","null","<p style=""font-size: 60px; font-family: BACS"">UdbdLkNc</p>","","","","","","","","",""
"html-keyboard-response","56","85250","0.0-8.0-0.48","600e0dadada7da69afc5b3de","650c16f0f2faf8d7a0d14c09","651c0aadc6eaf8f5c63ff23d","null","null","<p style=""font-size: 60px; font-family: BACS"">TklDcMRl</p>","","","","","","","","",""
"html-keyboard-response","57","86264","0.0-8.0-0.49","600e0dadada7da69afc5b3de","650c16f0f2faf8d7a0d14c09","651c0aadc6eaf8f5c63ff23d","null","null","<p style=""font-size: 60px; font-family: BACS"">mdlaYUYa</p>","","","","","","","","",""
"html-keyboard-response","58","87275","0.0-8.0-0.50","600e0dadada7da69afc5b3de","650c16f0f2faf8d7a0d14c09","651c0aadc6eaf8f5c63ff23d","null","null","<p style=""font-size: 60px; font-family: BACS"">EltMBRdCc</p>","","","","","","","","",""
"html-keyboard-response","59","88285","0.0-8.0-0.51","600e0dadada7da69afc5b3de","650c16f0f2faf8d7a0d14c09","651c0aadc6eaf8f5c63ff23d","null","null","<p style=""font-size: 60px; font-family: BACS"">TDKhcMRl</p>","","","","","","","","",""
"html-keyboard-response","60","89294","0.0-8.0-0.52","600e0dadada7da69afc5b3de","650c16f0f2faf8d7a0d14c09","651c0aadc6eaf8f5c63ff23d","null","null","<p style=""font-size: 60px; font-family: BACS"">hTtBbRdCc</p>","","","","","","","","",""
"html-keyboard-response","61","90307","0.0-8.0-0.53","600e0dadada7da69afc5b3de","650c16f0f2faf8d7a0d14c09","651c0aadc6eaf8f5c63ff23d","null","null","<p style=""font-size: 60px; font-family: BACS"">lcOcZvkL</p>","","","","","","","","",""
"html-keyboard-response","62","91318","0.0-8.0-0.54","600e0dadada7da69afc5b3de","650c16f0f2faf8d7a0d14c09","651c0aadc6eaf8f5c63ff23d","null","null","<p style=""font-size: 60px; font-family: BACS"">OmtlDMKmY</p>","","","","","","","","",""
"html-keyboard-response","63","92325","0.0-8.0-0.55","600e0dadada7da69afc5b3de","650c16f0f2faf8d7a0d14c09","651c0aadc6eaf8f5c63ff23d","null","null","<p style=""font-size: 60px; font-family: BACS"">mdlaZvkL</p>","","","","","","","","",""
"html-keyboard-response","64","93334","0.0-8.0-0.56","600e0dadada7da69afc5b3de","650c16f0f2faf8d7a0d14c09","651c0aadc6eaf8f5c63ff23d","null","null","<p style=""font-size: 60px; font-family: BACS"">dKDthPMd</p>","","","","","","","","",""
"html-keyboard-response","65","94346","0.0-8.0-0.57","600e0dadada7da69afc5b3de","650c16f0f2faf8d7a0d14c09","651c0aadc6eaf8f5c63ff23d","null","null","<p style=""font-size: 60px; font-family: BACS"">GQrcNmAG</p>","","","","","","","","",""
"html-keyboard-response","66","95359","0.0-8.0-0.58","600e0dadada7da69afc5b3de","650c16f0f2faf8d7a0d14c09","651c0aadc6eaf8f5c63ff23d","null","null","<p style=""font-size: 60px; font-family: BACS"">RCcEPMd</p>","","","","","","","","",""
"html-keyboard-response","67","96367","0.0-8.0-0.59","600e0dadada7da69afc5b3de","650c16f0f2faf8d7a0d14c09","651c0aadc6eaf8f5c63ff23d","null","null","<p style=""font-size: 60px; font-family: BACS"">ObOQlNmAG</p>","","","","","","","","",""
"html-keyboard-response","68","97377","0.0-8.0-0.60","600e0dadada7da69afc5b3de","650c16f0f2faf8d7a0d14c09","651c0aadc6eaf8f5c63ff23d","null","null","<p style=""font-size: 60px; font-family: BACS"">ldAaLkNc</p>","","","","","","","","",""
"html-keyboard-response","69","98388","0.0-8.0-0.61","600e0dadada7da69afc5b3de","650c16f0f2faf8d7a0d14c09","651c0aadc6eaf8f5c63ff23d","null","null","<p style=""font-size: 60px; font-family: BACS"">TklDMKmY</p>","","","","","","","","",""
"html-keyboard-response","70","99399","0.0-8.0-0.62","600e0dadada7da69afc5b3de","650c16f0f2faf8d7a0d14c09","651c0aadc6eaf8f5c63ff23d","null","null","<p style=""font-size: 60px; font-family: BACS"">mdlaGrub</p>","","","","","","","","",""
"html-keyboard-response","71","100406","0.0-8.0-0.63","600e0dadada7da69afc5b3de","650c16f0f2faf8d7a0d14c09","651c0aadc6eaf8f5c63ff23d","null","null","<p style=""font-size: 60px; font-family: BACS"">RCcECMdP</p>","","","","","","","","",""
"html-keyboard-response","72","101415","0.0-8.0-0.64","600e0dadada7da69afc5b3de","650c16f0f2faf8d7a0d14c09","651c0aadc6eaf8f5c63ff23d","null","null","<p style=""font-size: 60px; font-family: BACS"">ldAaYUYa</p>","","","","","","","","",""
"html-keyboard-response","73","102421","0.0-8.0-0.65","600e0dadada7da69afc5b3de","650c16f0f2faf8d7a0d14c09","651c0aadc6eaf8f5c63ff23d","null","null","<p style=""font-size: 60px; font-family: BACS"">ObOQlGrub</p>","","","","","","","","",""
"html-keyboard-response","74","103432","0.0-8.0-0.66","600e0dadada7da69afc5b3de","650c16f0f2faf8d7a0d14c09","651c0aadc6eaf8f5c63ff23d","null","null","<p style=""font-size: 60px; font-family: BACS"">lZcuLkNc</p>","","","","","","","","",""
"html-keyboard-response","75","104442","0.0-8.0-0.67","600e0dadada7da69afc5b3de","650c16f0f2faf8d7a0d14c09","651c0aadc6eaf8f5c63ff23d","null","null","<p style=""font-size: 60px; font-family: BACS"">OmtlDcMRl</p>","","","","","","","","",""
"html-keyboard-response","76","105455","0.0-8.0-0.68","600e0dadada7da69afc5b3de","650c16f0f2faf8d7a0d14c09","651c0aadc6eaf8f5c63ff23d","null","null","<p style=""font-size: 60px; font-family: BACS"">UdbdGrub</p>","","","","","","","","",""
"html-keyboard-response","77","106465","0.0-8.0-0.69","600e0dadada7da69afc5b3de","650c16f0f2faf8d7a0d14c09","651c0aadc6eaf8f5c63ff23d","null","null","<p style=""font-size: 60px; font-family: BACS"">RhPmCMdP</p>","","","","","","","","",""
"html-keyboard-response","78","107468","0.0-8.0-0.70","600e0dadada7da69afc5b3de","650c16f0f2faf8d7a0d14c09","651c0aadc6eaf8f5c63ff23d","null","null","<p style=""font-size: 60px; font-family: BACS"">UdbdYUYa</p>","","","","","","","","",""
"html-keyboard-response","79","108478","0.0-8.0-0.71","600e0dadada7da69afc5b3de","650c16f0f2faf8d7a0d14c09","651c0aadc6eaf8f5c63ff23d","null","null","<p style=""font-size: 60px; font-family: BACS"">ObOQlZvkL</p>","","","","","","","","",""
"html-keyboard-response","80","109483","0.0-8.0-0.72","600e0dadada7da69afc5b3de","650c16f0f2faf8d7a0d14c09","651c0aadc6eaf8f5c63ff23d","null","null","<p style=""font-size: 60px; font-family: BACS"">TklDCMdP</p>","","","","","","","","",""
"html-keyboard-response","81","110498","0.0-8.0-0.73","600e0dadada7da69afc5b3de","650c16f0f2faf8d7a0d14c09","651c0aadc6eaf8f5c63ff23d","null","null","<p style=""font-size: 60px; font-family: BACS"">dKRDMKmY</p>","","","","","","","","",""
"html-keyboard-response","82","111506","0.0-8.0-0.74","600e0dadada7da69afc5b3de","650c16f0f2faf8d7a0d14c09","651c0aadc6eaf8f5c63ff23d","null","null","<p style=""font-size: 60px; font-family: BACS"">NvYJLkNc</p>","","","","","","","","",""
"html-keyboard-response","83","112516","0.0-8.0-0.75","600e0dadada7da69afc5b3de","650c16f0f2faf8d7a0d14c09","651c0aadc6eaf8f5c63ff23d","null","null","<p style=""font-size: 60px; font-family: BACS"">dKDthRdCc</p>","","","","","","","","",""
"html-keyboard-response","84","113529","0.0-8.0-0.76","600e0dadada7da69afc5b3de","650c16f0f2faf8d7a0d14c09","651c0aadc6eaf8f5c63ff23d","null","null","<p style=""font-size: 60px; font-family: BACS"">TklDPMd</p>","","","","","","","","",""
"html-keyboard-response","85","114544","0.0-8.0-0.77","600e0dadada7da69afc5b3de","650c16f0f2faf8d7a0d14c09","651c0aadc6eaf8f5c63ff23d","null","null","<p style=""font-size: 60px; font-family: BACS"">dYdACMdP</p>","","","","","","","","",""
"html-keyboard-response","86","115556","0.0-8.0-0.78","600e0dadada7da69afc5b3de","650c16f0f2faf8d7a0d14c09","651c0aadc6eaf8f5c63ff23d","null","null","<p style=""font-size: 60px; font-family: BACS"">RhPmPMd</p>","","","","","","","","",""
"html-keyboard-response","87","116565","0.0-8.0-0.79","600e0dadada7da69afc5b3de","650c16f0f2faf8d7a0d14c09","651c0aadc6eaf8f5c63ff23d","null","null","<p style=""font-size: 60px; font-family: BACS"">RCcEcMRl</p>","","","","","","","","",""
"html-keyboard-response","88","120221","0.0-9.0","600e0dadada7da69afc5b3de","650c16f0f2faf8d7a0d14c09","651c0aadc6eaf8f5c63ff23d","3655"," ","<p>Great, you've seen the first block of words. You may now take a short break.</p>
      <p>Press the spacebar when you're ready to continue.</p>","","","","","","","","",""
"html-keyboard-response","89","121227","0.0-10.0-0.0","600e0dadada7da69afc5b3de","650c16f0f2faf8d7a0d14c09","651c0aadc6eaf8f5c63ff23d","null","null","<p style=""font-size: 60px; font-family: BACS"">ObOQlGrub</p>","","","","","","","","",""
"html-keyboard-response","90","122239","0.0-10.0-0.1","600e0dadada7da69afc5b3de","650c16f0f2faf8d7a0d14c09","651c0aadc6eaf8f5c63ff23d","null","null","<p style=""font-size: 60px; font-family: BACS"">vQdOZvkL</p>","","","","","","","","",""
"html-keyboard-response","91","123251","0.0-10.0-0.2","600e0dadada7da69afc5b3de","650c16f0f2faf8d7a0d14c09","651c0aadc6eaf8f5c63ff23d","null","null","<p style=""font-size: 60px; font-family: BACS"">UrOQYUYa</p>","","","","","","","","",""
"html-keyboard-response","92","124264","0.0-10.0-0.3","600e0dadada7da69afc5b3de","650c16f0f2faf8d7a0d14c09","651c0aadc6eaf8f5c63ff23d","null","null","<p style=""font-size: 60px; font-family: BACS"">TDKhcMRl</p>","","","","","","","","",""
"html-keyboard-response","93","125274","0.0-10.0-0.4","600e0dadada7da69afc5b3de","650c16f0f2faf8d7a0d14c09","651c0aadc6eaf8f5c63ff23d","null","null","<p style=""font-size: 60px; font-family: BACS"">RCcECMdP</p>","","","","","","","","",""
"html-keyboard-response","94","126285","0.0-10.0-0.5","600e0dadada7da69afc5b3de","650c16f0f2faf8d7a0d14c09","651c0aadc6eaf8f5c63ff23d","null","null","<p style=""font-size: 60px; font-family: BACS"">TklDcMRl</p>","","","","","","","","",""
"html-keyboard-response","95","127296","0.0-10.0-0.6","600e0dadada7da69afc5b3de","650c16f0f2faf8d7a0d14c09","651c0aadc6eaf8f5c63ff23d","null","null","<p style=""font-size: 60px; font-family: BACS"">lZcuLkNc</p>","","","","","","","","",""
"html-keyboard-response","96","128308","0.0-10.0-0.7","600e0dadada7da69afc5b3de","650c16f0f2faf8d7a0d14c09","651c0aadc6eaf8f5c63ff23d","null","null","<p style=""font-size: 60px; font-family: BACS"">ldAaNmAG</p>","","","","","","","","",""
"html-keyboard-response","97","129319","0.0-10.0-0.8","600e0dadada7da69afc5b3de","650c16f0f2faf8d7a0d14c09","651c0aadc6eaf8f5c63ff23d","null","null","<p style=""font-size: 60px; font-family: BACS"">RCcEMKmY</p>","","","","","","","","",""
"html-keyboard-response","98","130331","0.0-10.0-0.9","600e0dadada7da69afc5b3de","650c16f0f2faf8d7a0d14c09","651c0aadc6eaf8f5c63ff23d","null","null","<p style=""font-size: 60px; font-family: BACS"">TklDCMdP</p>","","","","","","","","",""
"html-keyboard-response","99","131345","0.0-10.0-0.10","600e0dadada7da69afc5b3de","650c16f0f2faf8d7a0d14c09","651c0aadc6eaf8f5c63ff23d","null","null","<p style=""font-size: 60px; font-family: BACS"">NvYJLkNc</p>","","","","","","","","",""
"html-keyboard-response","100","132356","0.0-10.0-0.11","600e0dadada7da69afc5b3de","650c16f0f2faf8d7a0d14c09","651c0aadc6eaf8f5c63ff23d","null","null","<p style=""font-size: 60px; font-family: BACS"">EltMBMKmY</p>","","","","","","","","",""
"html-keyboard-response","101","133368","0.0-10.0-0.12","600e0dadada7da69afc5b3de","650c16f0f2faf8d7a0d14c09","651c0aadc6eaf8f5c63ff23d","null","null","<p style=""font-size: 60px; font-family: BACS"">dYdAPMd</p>","","","","","","","","",""
"html-keyboard-response","102","134375","0.0-10.0-0.13","600e0dadada7da69afc5b3de","650c16f0f2faf8d7a0d14c09","651c0aadc6eaf8f5c63ff23d","null","null","<p style=""font-size: 60px; font-family: BACS"">mdlaZvkL</p>","","","","","","","","",""
"html-keyboard-response","103","135382","0.0-10.0-0.14","600e0dadada7da69afc5b3de","650c16f0f2faf8d7a0d14c09","651c0aadc6eaf8f5c63ff23d","null","null","<p style=""font-size: 60px; font-family: BACS"">RhPmRdCc</p>","","","","","","","","",""
"html-keyboard-response","104","136390","0.0-10.0-0.15","600e0dadada7da69afc5b3de","650c16f0f2faf8d7a0d14c09","651c0aadc6eaf8f5c63ff23d","null","null","<p style=""font-size: 60px; font-family: BACS"">vQdOGrub</p>","","","","","","","","",""
"html-keyboard-response","105","137399","0.0-10.0-0.16","600e0dadada7da69afc5b3de","650c16f0f2faf8d7a0d14c09","651c0aadc6eaf8f5c63ff23d","null","null","<p style=""font-size: 60px; font-family: BACS"">ObOQlYUYa</p>","","","","","","","","",""
"html-keyboard-response","106","138408","0.0-10.0-0.17","600e0dadada7da69afc5b3de","650c16f0f2faf8d7a0d14c09","651c0aadc6eaf8f5c63ff23d","null","null","<p style=""font-size: 60px; font-family: BACS"">NvYJGrub</p>","","","","","","","","",""
"html-keyboard-response","107","139419","0.0-10.0-0.18","600e0dadada7da69afc5b3de","650c16f0f2faf8d7a0d14c09","651c0aadc6eaf8f5c63ff23d","null","null","<p style=""font-size: 60px; font-family: BACS"">ObOQlNmAG</p>","","","","","","","","",""
"html-keyboard-response","108","140431","0.0-10.0-0.19","600e0dadada7da69afc5b3de","650c16f0f2faf8d7a0d14c09","651c0aadc6eaf8f5c63ff23d","null","null","<p style=""font-size: 60px; font-family: BACS"">UdbdYUYa</p>","","","","","","","","",""
"html-keyboard-response","109","141437","0.0-10.0-0.20","600e0dadada7da69afc5b3de","650c16f0f2faf8d7a0d14c09","651c0aadc6eaf8f5c63ff23d","null","null","<p style=""font-size: 60px; font-family: BACS"">OmtlDCMdP</p>","","","","","","","","",""
"html-keyboard-response","110","142449","0.0-10.0-0.21","600e0dadada7da69afc5b3de","650c16f0f2faf8d7a0d14c09","651c0aadc6eaf8f5c63ff23d","null","null","<p style=""font-size: 60px; font-family: BACS"">RCcEPMd</p>","","","","","","","","",""
"html-keyboard-response","111","143463","0.0-10.0-0.22","600e0dadada7da69afc5b3de","650c16f0f2faf8d7a0d14c09","651c0aadc6eaf8f5c63ff23d","null","null","<p style=""font-size: 60px; font-family: BACS"">lcOcZvkL</p>","","","","","","","","",""
"html-keyboard-response","112","144475","0.0-10.0-0.23","600e0dadada7da69afc5b3de","650c16f0f2faf8d7a0d14c09","651c0aadc6eaf8f5c63ff23d","null","null","<p style=""font-size: 60px; font-family: BACS"">TklDPMd</p>","","","","","","","","",""
"html-keyboard-response","113","145489","0.0-10.0-0.24","600e0dadada7da69afc5b3de","650c16f0f2faf8d7a0d14c09","651c0aadc6eaf8f5c63ff23d","null","null","<p style=""font-size: 60px; font-family: BACS"">RhPmcMRl</p>","","","","","","","","",""
"html-keyboard-response","114","146505","0.0-10.0-0.25","600e0dadada7da69afc5b3de","650c16f0f2faf8d7a0d14c09","651c0aadc6eaf8f5c63ff23d","null","null","<p style=""font-size: 60px; font-family: BACS"">UdbdNmAG</p>","","","","","","","","",""
"html-keyboard-response","115","147516","0.0-10.0-0.26","600e0dadada7da69afc5b3de","650c16f0f2faf8d7a0d14c09","651c0aadc6eaf8f5c63ff23d","null","null","<p style=""font-size: 60px; font-family: BACS"">OmtlDcMRl</p>","","","","","","","","",""
"html-keyboard-response","116","148527","0.0-10.0-0.27","600e0dadada7da69afc5b3de","650c16f0f2faf8d7a0d14c09","651c0aadc6eaf8f5c63ff23d","null","null","<p style=""font-size: 60px; font-family: BACS"">dKDthMKmY</p>","","","","","","","","",""
"html-keyboard-response","117","149541","0.0-10.0-0.28","600e0dadada7da69afc5b3de","650c16f0f2faf8d7a0d14c09","651c0aadc6eaf8f5c63ff23d","null","null","<p style=""font-size: 60px; font-family: BACS"">UrOQLkNc</p>","","","","","","","","",""
"html-keyboard-response","118","150551","0.0-10.0-0.29","600e0dadada7da69afc5b3de","650c16f0f2faf8d7a0d14c09","651c0aadc6eaf8f5c63ff23d","null","null","<p style=""font-size: 60px; font-family: BACS"">EltMBRdCc</p>","","","","","","","","",""
"html-keyboard-response","119","151562","0.0-10.0-0.30","600e0dadada7da69afc5b3de","650c16f0f2faf8d7a0d14c09","651c0aadc6eaf8f5c63ff23d","null","null","<p style=""font-size: 60px; font-family: BACS"">ldAaZvkL</p>","","","","","","","","",""
"html-keyboard-response","120","152572","0.0-10.0-0.31","600e0dadada7da69afc5b3de","650c16f0f2faf8d7a0d14c09","651c0aadc6eaf8f5c63ff23d","null","null","<p style=""font-size: 60px; font-family: BACS"">dKDthRdCc</p>","","","","","","","","",""
"html-keyboard-response","121","153583","0.0-10.0-0.32","600e0dadada7da69afc5b3de","650c16f0f2faf8d7a0d14c09","651c0aadc6eaf8f5c63ff23d","null","null","<p style=""font-size: 60px; font-family: BACS"">RhPmPMd</p>","","","","","","","","",""
"html-keyboard-response","122","154594","0.0-10.0-0.33","600e0dadada7da69afc5b3de","650c16f0f2faf8d7a0d14c09","651c0aadc6eaf8f5c63ff23d","null","null","<p style=""font-size: 60px; font-family: BACS"">OmtlDRdCc</p>","","","","","","","","",""
"html-keyboard-response","123","155606","0.0-10.0-0.34","600e0dadada7da69afc5b3de","650c16f0f2faf8d7a0d14c09","651c0aadc6eaf8f5c63ff23d","null","null","<p style=""font-size: 60px; font-family: BACS"">GQrcLkNc</p>","","","","","","","","",""
"html-keyboard-response","124","156616","0.0-10.0-0.35","600e0dadada7da69afc5b3de","650c16f0f2faf8d7a0d14c09","651c0aadc6eaf8f5c63ff23d","null","null","<p style=""font-size: 60px; font-family: BACS"">lcOcGrub</p>","","","","","","","","",""
"html-keyboard-response","125","157618","0.0-10.0-0.36","600e0dadada7da69afc5b3de","650c16f0f2faf8d7a0d14c09","651c0aadc6eaf8f5c63ff23d","null","null","<p style=""font-size: 60px; font-family: BACS"">UrOQZvkL</p>","","","","","","","","",""
"html-keyboard-response","126","158625","0.0-10.0-0.37","600e0dadada7da69afc5b3de","650c16f0f2faf8d7a0d14c09","651c0aadc6eaf8f5c63ff23d","null","null","<p style=""font-size: 60px; font-family: BACS"">TDKhRdCc</p>","","","","","","","","",""
"html-keyboard-response","127","159633","0.0-10.0-0.38","600e0dadada7da69afc5b3de","650c16f0f2faf8d7a0d14c09","651c0aadc6eaf8f5c63ff23d","null","null","<p style=""font-size: 60px; font-family: BACS"">OmtlDMKmY</p>","","","","","","","","",""
"html-keyboard-response","128","160644","0.0-10.0-0.39","600e0dadada7da69afc5b3de","650c16f0f2faf8d7a0d14c09","651c0aadc6eaf8f5c63ff23d","null","null","<p style=""font-size: 60px; font-family: BACS"">dYdAcMRl</p>","","","","","","","","",""
"html-keyboard-response","129","161655","0.0-10.0-0.40","600e0dadada7da69afc5b3de","650c16f0f2faf8d7a0d14c09","651c0aadc6eaf8f5c63ff23d","null","null","<p style=""font-size: 60px; font-family: BACS"">TDKhMKmY</p>","","","","","","","","",""
"html-keyboard-response","130","162671","0.0-10.0-0.41","600e0dadada7da69afc5b3de","650c16f0f2faf8d7a0d14c09","651c0aadc6eaf8f5c63ff23d","null","null","<p style=""font-size: 60px; font-family: BACS"">UdbdGrub</p>","","","","","","","","",""
"html-keyboard-response","131","163679","0.0-10.0-0.42","600e0dadada7da69afc5b3de","650c16f0f2faf8d7a0d14c09","651c0aadc6eaf8f5c63ff23d","null","null","<p style=""font-size: 60px; font-family: BACS"">vQdOYUYa</p>","","","","","","","","",""
"html-keyboard-response","132","164693","0.0-10.0-0.43","600e0dadada7da69afc5b3de","650c16f0f2faf8d7a0d14c09","651c0aadc6eaf8f5c63ff23d","null","null","<p style=""font-size: 60px; font-family: BACS"">dKDthCMdP</p>","","","","","","","","",""
"html-keyboard-response","133","165702","0.0-10.0-0.44","600e0dadada7da69afc5b3de","650c16f0f2faf8d7a0d14c09","651c0aadc6eaf8f5c63ff23d","null","null","<p style=""font-size: 60px; font-family: BACS"">RCcEcMRl</p>","","","","","","","","",""
"html-keyboard-response","134","166714","0.0-10.0-0.45","600e0dadada7da69afc5b3de","650c16f0f2faf8d7a0d14c09","651c0aadc6eaf8f5c63ff23d","null","null","<p style=""font-size: 60px; font-family: BACS"">ldAaYUYa</p>","","","","","","","","",""
"html-keyboard-response","135","167720","0.0-10.0-0.46","600e0dadada7da69afc5b3de","650c16f0f2faf8d7a0d14c09","651c0aadc6eaf8f5c63ff23d","null","null","<p style=""font-size: 60px; font-family: BACS"">mdlaLkNc</p>","","","","","","","","",""
"html-keyboard-response","136","168734","0.0-10.0-0.47","600e0dadada7da69afc5b3de","650c16f0f2faf8d7a0d14c09","651c0aadc6eaf8f5c63ff23d","null","null","<p style=""font-size: 60px; font-family: BACS"">GQrcNmAG</p>","","","","","","","","",""
"html-keyboard-response","137","169742","0.0-10.0-0.48","600e0dadada7da69afc5b3de","650c16f0f2faf8d7a0d14c09","651c0aadc6eaf8f5c63ff23d","null","null","<p style=""font-size: 60px; font-family: BACS"">TklDMKmY</p>","","","","","","","","",""
"html-keyboard-response","138","170749","0.0-10.0-0.49","600e0dadada7da69afc5b3de","650c16f0f2faf8d7a0d14c09","651c0aadc6eaf8f5c63ff23d","null","null","<p style=""font-size: 60px; font-family: BACS"">lZcuNmAG</p>","","","","","","","","",""
"html-keyboard-response","139","171757","0.0-10.0-0.50","600e0dadada7da69afc5b3de","650c16f0f2faf8d7a0d14c09","651c0aadc6eaf8f5c63ff23d","null","null","<p style=""font-size: 60px; font-family: BACS"">dKRDRdCc</p>","","","","","","","","",""
"html-keyboard-response","140","172770","0.0-10.0-0.51","600e0dadada7da69afc5b3de","650c16f0f2faf8d7a0d14c09","651c0aadc6eaf8f5c63ff23d","null","null","<p style=""font-size: 60px; font-family: BACS"">lcOcNmAG</p>","","","","","","","","",""
"html-keyboard-response","141","173780","0.0-10.0-0.52","600e0dadada7da69afc5b3de","650c16f0f2faf8d7a0d14c09","651c0aadc6eaf8f5c63ff23d","null","null","<p style=""font-size: 60px; font-family: BACS"">dKRDMKmY</p>","","","","","","","","",""
"html-keyboard-response","142","174790","0.0-10.0-0.53","600e0dadada7da69afc5b3de","650c16f0f2faf8d7a0d14c09","651c0aadc6eaf8f5c63ff23d","null","null","<p style=""font-size: 60px; font-family: BACS"">hTtBbCMdP</p>","","","","","","","","",""
"html-keyboard-response","143","175803","0.0-10.0-0.54","600e0dadada7da69afc5b3de","650c16f0f2faf8d7a0d14c09","651c0aadc6eaf8f5c63ff23d","null","null","<p style=""font-size: 60px; font-family: BACS"">dKRDPMd</p>","","","","","","","","",""
"html-keyboard-response","144","176819","0.0-10.0-0.55","600e0dadada7da69afc5b3de","650c16f0f2faf8d7a0d14c09","651c0aadc6eaf8f5c63ff23d","null","null","<p style=""font-size: 60px; font-family: BACS"">lZcuGrub</p>","","","","","","","","",""
"html-keyboard-response","145","177832","0.0-10.0-0.56","600e0dadada7da69afc5b3de","650c16f0f2faf8d7a0d14c09","651c0aadc6eaf8f5c63ff23d","null","null","<p style=""font-size: 60px; font-family: BACS"">UrOQNmAG</p>","","","","","","","","",""
"html-keyboard-response","146","178843","0.0-10.0-0.57","600e0dadada7da69afc5b3de","650c16f0f2faf8d7a0d14c09","651c0aadc6eaf8f5c63ff23d","null","null","<p style=""font-size: 60px; font-family: BACS"">lZcuYUYa</p>","","","","","","","","",""
"html-keyboard-response","147","179854","0.0-10.0-0.58","600e0dadada7da69afc5b3de","650c16f0f2faf8d7a0d14c09","651c0aadc6eaf8f5c63ff23d","null","null","<p style=""font-size: 60px; font-family: BACS"">RhPmCMdP</p>","","","","","","","","",""
"html-keyboard-response","148","180863","0.0-10.0-0.59","600e0dadada7da69afc5b3de","650c16f0f2faf8d7a0d14c09","651c0aadc6eaf8f5c63ff23d","null","null","<p style=""font-size: 60px; font-family: BACS"">dKRDcMRl</p>","","","","","","","","",""
"html-keyboard-response","149","181878","0.0-10.0-0.60","600e0dadada7da69afc5b3de","650c16f0f2faf8d7a0d14c09","651c0aadc6eaf8f5c63ff23d","null","null","<p style=""font-size: 60px; font-family: BACS"">EltMBCMdP</p>","","","","","","","","",""
"html-keyboard-response","150","182889","0.0-10.0-0.61","600e0dadada7da69afc5b3de","650c16f0f2faf8d7a0d14c09","651c0aadc6eaf8f5c63ff23d","null","null","<p style=""font-size: 60px; font-family: BACS"">mdlaYUYa</p>","","","","","","","","",""
"html-keyboard-response","151","183902","0.0-10.0-0.62","600e0dadada7da69afc5b3de","650c16f0f2faf8d7a0d14c09","651c0aadc6eaf8f5c63ff23d","null","null","<p style=""font-size: 60px; font-family: BACS"">ldAaLkNc</p>","","","","","","","","",""
"html-keyboard-response","152","184909","0.0-10.0-0.63","600e0dadada7da69afc5b3de","650c16f0f2faf8d7a0d14c09","651c0aadc6eaf8f5c63ff23d","null","null","<p style=""font-size: 60px; font-family: BACS"">TDKhPMd</p>","","","","","","","","",""
"html-keyboard-response","153","185917","0.0-10.0-0.64","600e0dadada7da69afc5b3de","650c16f0f2faf8d7a0d14c09","651c0aadc6eaf8f5c63ff23d","null","null","<p style=""font-size: 60px; font-family: BACS"">hTtBbRdCc</p>","","","","","","","","",""
"html-keyboard-response","154","186928","0.0-10.0-0.65","600e0dadada7da69afc5b3de","650c16f0f2faf8d7a0d14c09","651c0aadc6eaf8f5c63ff23d","null","null","<p style=""font-size: 60px; font-family: BACS"">dYdACMdP</p>","","","","","","","","",""
"html-keyboard-response","155","187935","0.0-10.0-0.66","600e0dadada7da69afc5b3de","650c16f0f2faf8d7a0d14c09","651c0aadc6eaf8f5c63ff23d","null","null","<p style=""font-size: 60px; font-family: BACS"">GQrcZvkL</p>","","","","","","","","",""
"html-keyboard-response","156","188945","0.0-10.0-0.67","600e0dadada7da69afc5b3de","650c16f0f2faf8d7a0d14c09","651c0aadc6eaf8f5c63ff23d","null","null","<p style=""font-size: 60px; font-family: BACS"">mdlaGrub</p>","","","","","","","","",""
"html-keyboard-response","157","189956","0.0-10.0-0.68","600e0dadada7da69afc5b3de","650c16f0f2faf8d7a0d14c09","651c0aadc6eaf8f5c63ff23d","null","null","<p style=""font-size: 60px; font-family: BACS"">dKDthPMd</p>","","","","","","","","",""
"html-keyboard-response","158","190965","0.0-10.0-0.69","600e0dadada7da69afc5b3de","650c16f0f2faf8d7a0d14c09","651c0aadc6eaf8f5c63ff23d","null","null","<p style=""font-size: 60px; font-family: BACS"">UdbdLkNc</p>","","","","","","","","",""
"html-keyboard-response","159","191976","0.0-10.0-0.70","600e0dadada7da69afc5b3de","650c16f0f2faf8d7a0d14c09","651c0aadc6eaf8f5c63ff23d","null","null","<p style=""font-size: 60px; font-family: BACS"">dYdARdCc</p>","","","","","","","","",""
"html-keyboard-response","160","192991","0.0-10.0-0.71","600e0dadada7da69afc5b3de","650c16f0f2faf8d7a0d14c09","651c0aadc6eaf8f5c63ff23d","null","null","<p style=""font-size: 60px; font-family: BACS"">GQrcGrub</p>","","","","","","","","",""
"html-keyboard-response","161","194001","0.0-10.0-0.72","600e0dadada7da69afc5b3de","650c16f0f2faf8d7a0d14c09","651c0aadc6eaf8f5c63ff23d","null","null","<p style=""font-size: 60px; font-family: BACS"">hTtBbcMRl</p>","","","","","","","","",""
"html-keyboard-response","162","195011","0.0-10.0-0.73","600e0dadada7da69afc5b3de","650c16f0f2faf8d7a0d14c09","651c0aadc6eaf8f5c63ff23d","null","null","<p style=""font-size: 60px; font-family: BACS"">NvYJZvkL</p>","","","","","","","","",""
"html-keyboard-response","163","196020","0.0-10.0-0.74","600e0dadada7da69afc5b3de","650c16f0f2faf8d7a0d14c09","651c0aadc6eaf8f5c63ff23d","null","null","<p style=""font-size: 60px; font-family: BACS"">hTtBbMKmY</p>","","","","","","","","",""
"html-keyboard-response","164","197028","0.0-10.0-0.75","600e0dadada7da69afc5b3de","650c16f0f2faf8d7a0d14c09","651c0aadc6eaf8f5c63ff23d","null","null","<p style=""font-size: 60px; font-family: BACS"">EltMBPMd</p>","","","","","","","","",""
"html-keyboard-response","165","198042","0.0-10.0-0.76","600e0dadada7da69afc5b3de","650c16f0f2faf8d7a0d14c09","651c0aadc6eaf8f5c63ff23d","null","null","<p style=""font-size: 60px; font-family: BACS"">ObOQlZvkL</p>","","","","","","","","",""
"html-keyboard-response","166","199047","0.0-10.0-0.77","600e0dadada7da69afc5b3de","650c16f0f2faf8d7a0d14c09","651c0aadc6eaf8f5c63ff23d","null","null","<p style=""font-size: 60px; font-family: BACS"">lcOcYUYa</p>","","","","","","","","",""
"html-keyboard-response","167","200059","0.0-10.0-0.78","600e0dadada7da69afc5b3de","650c16f0f2faf8d7a0d14c09","651c0aadc6eaf8f5c63ff23d","null","null","<p style=""font-size: 60px; font-family: BACS"">vQdOLkNc</p>","","","","","","","","",""
"html-keyboard-response","168","201065","0.0-10.0-0.79","600e0dadada7da69afc5b3de","650c16f0f2faf8d7a0d14c09","651c0aadc6eaf8f5c63ff23d","null","null","<p style=""font-size: 60px; font-family: BACS"">NvYJNmAG</p>","","","","","","","","",""
"html-keyboard-response","169","206241","0.0-11.0","600e0dadada7da69afc5b3de","650c16f0f2faf8d7a0d14c09","651c0aadc6eaf8f5c63ff23d","5176"," ","<p>Great, you've seen the second block of words. You may now take a short break.</p>
      <p>Press the spacebar when you're ready to continue.</p>","","","","","","","","",""
"html-keyboard-response","170","207257","0.0-12.0-0.0","600e0dadada7da69afc5b3de","650c16f0f2faf8d7a0d14c09","651c0aadc6eaf8f5c63ff23d","null","null","<p style=""font-size: 60px; font-family: BACS"">OmtlDcMRl</p>","","","","","","","","",""
"html-keyboard-response","171","208266","0.0-12.0-0.1","600e0dadada7da69afc5b3de","650c16f0f2faf8d7a0d14c09","651c0aadc6eaf8f5c63ff23d","null","null","<p style=""font-size: 60px; font-family: BACS"">NvYJZvkL</p>","","","","","","","","",""
"html-keyboard-response","172","209282","0.0-12.0-0.2","600e0dadada7da69afc5b3de","650c16f0f2faf8d7a0d14c09","651c0aadc6eaf8f5c63ff23d","null","null","<p style=""font-size: 60px; font-family: BACS"">hTtBbCMdP</p>","","","","","","","","",""
"html-keyboard-response","173","210296","0.0-12.0-0.3","600e0dadada7da69afc5b3de","650c16f0f2faf8d7a0d14c09","651c0aadc6eaf8f5c63ff23d","null","null","<p style=""font-size: 60px; font-family: BACS"">dYdAPMd</p>","","","","","","","","",""
"html-keyboard-response","174","211307","0.0-12.0-0.4","600e0dadada7da69afc5b3de","650c16f0f2faf8d7a0d14c09","651c0aadc6eaf8f5c63ff23d","null","null","<p style=""font-size: 60px; font-family: BACS"">UrOQZvkL</p>","","","","","","","","",""
"html-keyboard-response","175","212317","0.0-12.0-0.5","600e0dadada7da69afc5b3de","650c16f0f2faf8d7a0d14c09","651c0aadc6eaf8f5c63ff23d","null","null","<p style=""font-size: 60px; font-family: BACS"">RCcEcMRl</p>","","","","","","","","",""
"html-keyboard-response","176","213332","0.0-12.0-0.6","600e0dadada7da69afc5b3de","650c16f0f2faf8d7a0d14c09","651c0aadc6eaf8f5c63ff23d","null","null","<p style=""font-size: 60px; font-family: BACS"">lcOcYUYa</p>","","","","","","","","",""
"html-keyboard-response","177","214341","0.0-12.0-0.7","600e0dadada7da69afc5b3de","650c16f0f2faf8d7a0d14c09","651c0aadc6eaf8f5c63ff23d","null","null","<p style=""font-size: 60px; font-family: BACS"">dKDthRdCc</p>","","","","","","","","",""
"html-keyboard-response","178","215353","0.0-12.0-0.8","600e0dadada7da69afc5b3de","650c16f0f2faf8d7a0d14c09","651c0aadc6eaf8f5c63ff23d","null","null","<p style=""font-size: 60px; font-family: BACS"">ldAaZvkL</p>","","","","","","","","",""
"html-keyboard-response","179","216358","0.0-12.0-0.9","600e0dadada7da69afc5b3de","650c16f0f2faf8d7a0d14c09","651c0aadc6eaf8f5c63ff23d","null","null","<p style=""font-size: 60px; font-family: BACS"">NvYJNmAG</p>","","","","","","","","",""
"html-keyboard-response","180","217370","0.0-12.0-0.10","600e0dadada7da69afc5b3de","650c16f0f2faf8d7a0d14c09","651c0aadc6eaf8f5c63ff23d","null","null","<p style=""font-size: 60px; font-family: BACS"">ldAaLkNc</p>","","","","","","","","",""
"html-keyboard-response","181","218378","0.0-12.0-0.11","600e0dadada7da69afc5b3de","650c16f0f2faf8d7a0d14c09","651c0aadc6eaf8f5c63ff23d","null","null","<p style=""font-size: 60px; font-family: BACS"">GQrcZvkL</p>","","","","","","","","",""
"html-keyboard-response","182","219389","0.0-12.0-0.12","600e0dadada7da69afc5b3de","650c16f0f2faf8d7a0d14c09","651c0aadc6eaf8f5c63ff23d","null","null","<p style=""font-size: 60px; font-family: BACS"">TDKhMKmY</p>","","","","","","","","",""
"html-keyboard-response","183","220404","0.0-12.0-0.13","600e0dadada7da69afc5b3de","650c16f0f2faf8d7a0d14c09","651c0aadc6eaf8f5c63ff23d","null","null","<p style=""font-size: 60px; font-family: BACS"">mdlaLkNc</p>","","","","","","","","",""
"html-keyboard-response","184","221413","0.0-12.0-0.14","600e0dadada7da69afc5b3de","650c16f0f2faf8d7a0d14c09","651c0aadc6eaf8f5c63ff23d","null","null","<p style=""font-size: 60px; font-family: BACS"">dKRDPMd</p>","","","","","","","","",""
"html-keyboard-response","185","222421","0.0-12.0-0.15","600e0dadada7da69afc5b3de","650c16f0f2faf8d7a0d14c09","651c0aadc6eaf8f5c63ff23d","null","null","<p style=""font-size: 60px; font-family: BACS"">UrOQLkNc</p>","","","","","","","","",""
"html-keyboard-response","186","223429","0.0-12.0-0.16","600e0dadada7da69afc5b3de","650c16f0f2faf8d7a0d14c09","651c0aadc6eaf8f5c63ff23d","null","null","<p style=""font-size: 60px; font-family: BACS"">RCcECMdP</p>","","","","","","","","",""
"html-keyboard-response","187","224444","0.0-12.0-0.17","600e0dadada7da69afc5b3de","650c16f0f2faf8d7a0d14c09","651c0aadc6eaf8f5c63ff23d","null","null","<p style=""font-size: 60px; font-family: BACS"">lZcuLkNc</p>","","","","","","","","",""
"html-keyboard-response","188","225456","0.0-12.0-0.18","600e0dadada7da69afc5b3de","650c16f0f2faf8d7a0d14c09","651c0aadc6eaf8f5c63ff23d","null","null","<p style=""font-size: 60px; font-family: BACS"">hTtBbcMRl</p>","","","","","","","","",""
"html-keyboard-response","189","226466","0.0-12.0-0.19","600e0dadada7da69afc5b3de","650c16f0f2faf8d7a0d14c09","651c0aadc6eaf8f5c63ff23d","null","null","<p style=""font-size: 60px; font-family: BACS"">UdbdNmAG</p>","","","","","","","","",""
"html-keyboard-response","190","227478","0.0-12.0-0.20","600e0dadada7da69afc5b3de","650c16f0f2faf8d7a0d14c09","651c0aadc6eaf8f5c63ff23d","null","null","<p style=""font-size: 60px; font-family: BACS"">mdlaYUYa</p>","","","","","","","","",""
"html-keyboard-response","191","228488","0.0-12.0-0.21","600e0dadada7da69afc5b3de","650c16f0f2faf8d7a0d14c09","651c0aadc6eaf8f5c63ff23d","null","null","<p style=""font-size: 60px; font-family: BACS"">EltMBPMd</p>","","","","","","","","",""
"html-keyboard-response","192","229496","0.0-12.0-0.22","600e0dadada7da69afc5b3de","650c16f0f2faf8d7a0d14c09","651c0aadc6eaf8f5c63ff23d","null","null","<p style=""font-size: 60px; font-family: BACS"">UdbdLkNc</p>","","","","","","","","",""
"html-keyboard-response","193","230511","0.0-12.0-0.23","600e0dadada7da69afc5b3de","650c16f0f2faf8d7a0d14c09","651c0aadc6eaf8f5c63ff23d","null","null","<p style=""font-size: 60px; font-family: BACS"">TklDcMRl</p>","","","","","","","","",""
"html-keyboard-response","194","231518","0.0-12.0-0.24","600e0dadada7da69afc5b3de","650c16f0f2faf8d7a0d14c09","651c0aadc6eaf8f5c63ff23d","null","null","<p style=""font-size: 60px; font-family: BACS"">NvYJLkNc</p>","","","","","","","","",""
"html-keyboard-response","195","232529","0.0-12.0-0.25","600e0dadada7da69afc5b3de","650c16f0f2faf8d7a0d14c09","651c0aadc6eaf8f5c63ff23d","null","null","<p style=""font-size: 60px; font-family: BACS"">EltMBRdCc</p>","","","","","","","","",""
"html-keyboard-response","196","233537","0.0-12.0-0.26","600e0dadada7da69afc5b3de","650c16f0f2faf8d7a0d14c09","651c0aadc6eaf8f5c63ff23d","null","null","<p style=""font-size: 60px; font-family: BACS"">lZcuGrub</p>","","","","","","","","",""
"html-keyboard-response","197","234546","0.0-12.0-0.27","600e0dadada7da69afc5b3de","650c16f0f2faf8d7a0d14c09","651c0aadc6eaf8f5c63ff23d","null","null","<p style=""font-size: 60px; font-family: BACS"">vQdOYUYa</p>","","","","","","","","",""
"html-keyboard-response","198","235557","0.0-12.0-0.28","600e0dadada7da69afc5b3de","650c16f0f2faf8d7a0d14c09","651c0aadc6eaf8f5c63ff23d","null","null","<p style=""font-size: 60px; font-family: BACS"">TklDPMd</p>","","","","","","","","",""
"html-keyboard-response","199","236566","0.0-12.0-0.29","600e0dadada7da69afc5b3de","650c16f0f2faf8d7a0d14c09","651c0aadc6eaf8f5c63ff23d","null","null","<p style=""font-size: 60px; font-family: BACS"">UdbdGrub</p>","","","","","","","","",""
"html-keyboard-response","200","237578","0.0-12.0-0.30","600e0dadada7da69afc5b3de","650c16f0f2faf8d7a0d14c09","651c0aadc6eaf8f5c63ff23d","null","null","<p style=""font-size: 60px; font-family: BACS"">ldAaNmAG</p>","","","","","","","","",""
"html-keyboard-response","201","238591","0.0-12.0-0.31","600e0dadada7da69afc5b3de","650c16f0f2faf8d7a0d14c09","651c0aadc6eaf8f5c63ff23d","null","null","<p style=""font-size: 60px; font-family: BACS"">mdlaZvkL</p>","","","","","","","","",""
"html-keyboard-response","202","239603","0.0-12.0-0.32","600e0dadada7da69afc5b3de","650c16f0f2faf8d7a0d14c09","651c0aadc6eaf8f5c63ff23d","null","null","<p style=""font-size: 60px; font-family: BACS"">RhPmPMd</p>","","","","","","","","",""
"html-keyboard-response","203","240611","0.0-12.0-0.33","600e0dadada7da69afc5b3de","650c16f0f2faf8d7a0d14c09","651c0aadc6eaf8f5c63ff23d","null","null","<p style=""font-size: 60px; font-family: BACS"">dKRDRdCc</p>","","","","","","","","",""
"html-keyboard-response","204","241626","0.0-12.0-0.34","600e0dadada7da69afc5b3de","650c16f0f2faf8d7a0d14c09","651c0aadc6eaf8f5c63ff23d","null","null","<p style=""font-size: 60px; font-family: BACS"">RhPmcMRl</p>","","","","","","","","",""
"html-keyboard-response","205","242636","0.0-12.0-0.35","600e0dadada7da69afc5b3de","650c16f0f2faf8d7a0d14c09","651c0aadc6eaf8f5c63ff23d","null","null","<p style=""font-size: 60px; font-family: BACS"">UdbdYUYa</p>","","","","","","","","",""
"html-keyboard-response","206","243647","0.0-12.0-0.36","600e0dadada7da69afc5b3de","650c16f0f2faf8d7a0d14c09","651c0aadc6eaf8f5c63ff23d","null","null","<p style=""font-size: 60px; font-family: BACS"">GQrcGrub</p>","","","","","","","","",""
"html-keyboard-response","207","244653","0.0-12.0-0.37","600e0dadada7da69afc5b3de","650c16f0f2faf8d7a0d14c09","651c0aadc6eaf8f5c63ff23d","null","null","<p style=""font-size: 60px; font-family: BACS"">RhPmRdCc</p>","","","","","","","","",""
"html-keyboard-response","208","245663","0.0-12.0-0.38","600e0dadada7da69afc5b3de","650c16f0f2faf8d7a0d14c09","651c0aadc6eaf8f5c63ff23d","null","null","<p style=""font-size: 60px; font-family: BACS"">mdlaGrub</p>","","","","","","","","",""
"html-keyboard-response","209","246670","0.0-12.0-0.39","600e0dadada7da69afc5b3de","650c16f0f2faf8d7a0d14c09","651c0aadc6eaf8f5c63ff23d","null","null","<p style=""font-size: 60px; font-family: BACS"">GQrcNmAG</p>","","","","","","","","",""
"html-keyboard-response","210","247685","0.0-12.0-0.40","600e0dadada7da69afc5b3de","650c16f0f2faf8d7a0d14c09","651c0aadc6eaf8f5c63ff23d","null","null","<p style=""font-size: 60px; font-family: BACS"">dYdAcMRl</p>","","","","","","","","",""
"html-keyboard-response","211","248691","0.0-12.0-0.41","600e0dadada7da69afc5b3de","650c16f0f2faf8d7a0d14c09","651c0aadc6eaf8f5c63ff23d","null","null","<p style=""font-size: 60px; font-family: BACS"">TDKhRdCc</p>","","","","","","","","",""
"html-keyboard-response","212","249692","0.0-12.0-0.42","600e0dadada7da69afc5b3de","650c16f0f2faf8d7a0d14c09","651c0aadc6eaf8f5c63ff23d","null","null","<p style=""font-size: 60px; font-family: BACS"">lZcuNmAG</p>","","","","","","","","",""
"html-keyboard-response","213","250703","0.0-12.0-0.43","600e0dadada7da69afc5b3de","650c16f0f2faf8d7a0d14c09","651c0aadc6eaf8f5c63ff23d","null","null","<p style=""font-size: 60px; font-family: BACS"">hTtBbRdCc</p>","","","","","","","","",""
"html-keyboard-response","214","251716","0.0-12.0-0.44","600e0dadada7da69afc5b3de","650c16f0f2faf8d7a0d14c09","651c0aadc6eaf8f5c63ff23d","null","null","<p style=""font-size: 60px; font-family: BACS"">TklDMKmY</p>","","","","","","","","",""
"html-keyboard-response","215","252727","0.0-12.0-0.45","600e0dadada7da69afc5b3de","650c16f0f2faf8d7a0d14c09","651c0aadc6eaf8f5c63ff23d","null","null","<p style=""font-size: 60px; font-family: BACS"">dYdACMdP</p>","","","","","","","","",""
"html-keyboard-response","216","253737","0.0-12.0-0.46","600e0dadada7da69afc5b3de","650c16f0f2faf8d7a0d14c09","651c0aadc6eaf8f5c63ff23d","null","null","<p style=""font-size: 60px; font-family: BACS"">ObOQlZvkL</p>","","","","","","","","",""
"html-keyboard-response","217","254750","0.0-12.0-0.47","600e0dadada7da69afc5b3de","650c16f0f2faf8d7a0d14c09","651c0aadc6eaf8f5c63ff23d","null","null","<p style=""font-size: 60px; font-family: BACS"">ldAaYUYa</p>","","","","","","","","",""
"html-keyboard-response","218","255760","0.0-12.0-0.48","600e0dadada7da69afc5b3de","650c16f0f2faf8d7a0d14c09","651c0aadc6eaf8f5c63ff23d","null","null","<p style=""font-size: 60px; font-family: BACS"">NvYJGrub</p>","","","","","","","","",""
"html-keyboard-response","219","256773","0.0-12.0-0.49","600e0dadada7da69afc5b3de","650c16f0f2faf8d7a0d14c09","651c0aadc6eaf8f5c63ff23d","null","null","<p style=""font-size: 60px; font-family: BACS"">vQdOLkNc</p>","","","","","","","","",""
"html-keyboard-response","220","257789","0.0-12.0-0.50","600e0dadada7da69afc5b3de","650c16f0f2faf8d7a0d14c09","651c0aadc6eaf8f5c63ff23d","null","null","<p style=""font-size: 60px; font-family: BACS"">lZcuYUYa</p>","","","","","","","","",""
"html-keyboard-response","221","258803","0.0-12.0-0.51","600e0dadada7da69afc5b3de","650c16f0f2faf8d7a0d14c09","651c0aadc6eaf8f5c63ff23d","null","null","<p style=""font-size: 60px; font-family: BACS"">EltMBMKmY</p>","","","","","","","","",""
"html-keyboard-response","222","259814","0.0-12.0-0.52","600e0dadada7da69afc5b3de","650c16f0f2faf8d7a0d14c09","651c0aadc6eaf8f5c63ff23d","null","null","<p style=""font-size: 60px; font-family: BACS"">dYdARdCc</p>","","","","","","","","",""
"html-keyboard-response","223","260829","0.0-12.0-0.53","600e0dadada7da69afc5b3de","650c16f0f2faf8d7a0d14c09","651c0aadc6eaf8f5c63ff23d","null","null","<p style=""font-size: 60px; font-family: BACS"">ObOQlGrub</p>","","","","","","","","",""
"html-keyboard-response","224","261844","0.0-12.0-0.54","600e0dadada7da69afc5b3de","650c16f0f2faf8d7a0d14c09","651c0aadc6eaf8f5c63ff23d","null","null","<p style=""font-size: 60px; font-family: BACS"">TklDCMdP</p>","","","","","","","","",""
"html-keyboard-response","225","262858","0.0-12.0-0.55","600e0dadada7da69afc5b3de","650c16f0f2faf8d7a0d14c09","651c0aadc6eaf8f5c63ff23d","null","null","<p style=""font-size: 60px; font-family: BACS"">vQdOZvkL</p>","","","","","","","","",""
"html-keyboard-response","226","263864","0.0-12.0-0.56","600e0dadada7da69afc5b3de","650c16f0f2faf8d7a0d14c09","651c0aadc6eaf8f5c63ff23d","null","null","<p style=""font-size: 60px; font-family: BACS"">dKRDMKmY</p>","","","","","","","","",""
"html-keyboard-response","227","264872","0.0-12.0-0.57","600e0dadada7da69afc5b3de","650c16f0f2faf8d7a0d14c09","651c0aadc6eaf8f5c63ff23d","null","null","<p style=""font-size: 60px; font-family: BACS"">OmtlDRdCc</p>","","","","","","","","",""
"html-keyboard-response","228","265884","0.0-12.0-0.58","600e0dadada7da69afc5b3de","650c16f0f2faf8d7a0d14c09","651c0aadc6eaf8f5c63ff23d","null","null","<p style=""font-size: 60px; font-family: BACS"">dKDthPMd</p>","","","","","","","","",""
"html-keyboard-response","229","266899","0.0-12.0-0.59","600e0dadada7da69afc5b3de","650c16f0f2faf8d7a0d14c09","651c0aadc6eaf8f5c63ff23d","null","null","<p style=""font-size: 60px; font-family: BACS"">TDKhcMRl</p>","","","","","","","","",""
"html-keyboard-response","230","267906","0.0-12.0-0.60","600e0dadada7da69afc5b3de","650c16f0f2faf8d7a0d14c09","651c0aadc6eaf8f5c63ff23d","null","null","<p style=""font-size: 60px; font-family: BACS"">OmtlDMKmY</p>","","","","","","","","",""
"html-keyboard-response","231","268922","0.0-12.0-0.61","600e0dadada7da69afc5b3de","650c16f0f2faf8d7a0d14c09","651c0aadc6eaf8f5c63ff23d","null","null","<p style=""font-size: 60px; font-family: BACS"">ObOQlYUYa</p>","","","","","","","","",""
"html-keyboard-response","232","269936","0.0-12.0-0.62","600e0dadada7da69afc5b3de","650c16f0f2faf8d7a0d14c09","651c0aadc6eaf8f5c63ff23d","null","null","<p style=""font-size: 60px; font-family: BACS"">lcOcNmAG</p>","","","","","","","","",""
"html-keyboard-response","233","270948","0.0-12.0-0.63","600e0dadada7da69afc5b3de","650c16f0f2faf8d7a0d14c09","651c0aadc6eaf8f5c63ff23d","null","null","<p style=""font-size: 60px; font-family: BACS"">RCcEPMd</p>","","","","","","","","",""
"html-keyboard-response","234","271957","0.0-12.0-0.64","600e0dadada7da69afc5b3de","650c16f0f2faf8d7a0d14c09","651c0aadc6eaf8f5c63ff23d","null","null","<p style=""font-size: 60px; font-family: BACS"">dKDthCMdP</p>","","","","","","","","",""
"html-keyboard-response","235","272969","0.0-12.0-0.65","600e0dadada7da69afc5b3de","650c16f0f2faf8d7a0d14c09","651c0aadc6eaf8f5c63ff23d","null","null","<p style=""font-size: 60px; font-family: BACS"">GQrcLkNc</p>","","","","","","","","",""
"html-keyboard-response","236","273979","0.0-12.0-0.66","600e0dadada7da69afc5b3de","650c16f0f2faf8d7a0d14c09","651c0aadc6eaf8f5c63ff23d","null","null","<p style=""font-size: 60px; font-family: BACS"">hTtBbMKmY</p>","","","","","","","","",""
"html-keyboard-response","237","274994","0.0-12.0-0.67","600e0dadada7da69afc5b3de","650c16f0f2faf8d7a0d14c09","651c0aadc6eaf8f5c63ff23d","null","null","<p style=""font-size: 60px; font-family: BACS"">lcOcZvkL</p>","","","","","","","","",""
"html-keyboard-response","238","276002","0.0-12.0-0.68","600e0dadada7da69afc5b3de","650c16f0f2faf8d7a0d14c09","651c0aadc6eaf8f5c63ff23d","null","null","<p style=""font-size: 60px; font-family: BACS"">UrOQNmAG</p>","","","","","","","","",""
"html-keyboard-response","239","277013","0.0-12.0-0.69","600e0dadada7da69afc5b3de","650c16f0f2faf8d7a0d14c09","651c0aadc6eaf8f5c63ff23d","null","null","<p style=""font-size: 60px; font-family: BACS"">dKRDcMRl</p>","","","","","","","","",""
"html-keyboard-response","240","278025","0.0-12.0-0.70","600e0dadada7da69afc5b3de","650c16f0f2faf8d7a0d14c09","651c0aadc6eaf8f5c63ff23d","null","null","<p style=""font-size: 60px; font-family: BACS"">OmtlDCMdP</p>","","","","","","","","",""
"html-keyboard-response","241","279038","0.0-12.0-0.71","600e0dadada7da69afc5b3de","650c16f0f2faf8d7a0d14c09","651c0aadc6eaf8f5c63ff23d","null","null","<p style=""font-size: 60px; font-family: BACS"">ObOQlNmAG</p>","","","","","","","","",""
"html-keyboard-response","242","280050","0.0-12.0-0.72","600e0dadada7da69afc5b3de","650c16f0f2faf8d7a0d14c09","651c0aadc6eaf8f5c63ff23d","null","null","<p style=""font-size: 60px; font-family: BACS"">TDKhPMd</p>","","","","","","","","",""
"html-keyboard-response","243","281061","0.0-12.0-0.73","600e0dadada7da69afc5b3de","650c16f0f2faf8d7a0d14c09","651c0aadc6eaf8f5c63ff23d","null","null","<p style=""font-size: 60px; font-family: BACS"">dKDthMKmY</p>","","","","","","","","",""
"html-keyboard-response","244","282075","0.0-12.0-0.74","600e0dadada7da69afc5b3de","650c16f0f2faf8d7a0d14c09","651c0aadc6eaf8f5c63ff23d","null","null","<p style=""font-size: 60px; font-family: BACS"">EltMBCMdP</p>","","","","","","","","",""
"html-keyboard-response","245","283087","0.0-12.0-0.75","600e0dadada7da69afc5b3de","650c16f0f2faf8d7a0d14c09","651c0aadc6eaf8f5c63ff23d","null","null","<p style=""font-size: 60px; font-family: BACS"">UrOQYUYa</p>","","","","","","","","",""
"html-keyboard-response","246","284094","0.0-12.0-0.76","600e0dadada7da69afc5b3de","650c16f0f2faf8d7a0d14c09","651c0aadc6eaf8f5c63ff23d","null","null","<p style=""font-size: 60px; font-family: BACS"">lcOcGrub</p>","","","","","","","","",""
"html-keyboard-response","247","285106","0.0-12.0-0.77","600e0dadada7da69afc5b3de","650c16f0f2faf8d7a0d14c09","651c0aadc6eaf8f5c63ff23d","null","null","<p style=""font-size: 60px; font-family: BACS"">RCcEMKmY</p>","","","","","","","","",""
"html-keyboard-response","248","286117","0.0-12.0-0.78","600e0dadada7da69afc5b3de","650c16f0f2faf8d7a0d14c09","651c0aadc6eaf8f5c63ff23d","null","null","<p style=""font-size: 60px; font-family: BACS"">vQdOGrub</p>","","","","","","","","",""
"html-keyboard-response","249","287133","0.0-12.0-0.79","600e0dadada7da69afc5b3de","650c16f0f2faf8d7a0d14c09","651c0aadc6eaf8f5c63ff23d","null","null","<p style=""font-size: 60px; font-family: BACS"">RhPmCMdP</p>","","","","","","","","",""
"html-keyboard-response","250","288766","0.0-13.0","600e0dadada7da69afc5b3de","650c16f0f2faf8d7a0d14c09","651c0aadc6eaf8f5c63ff23d","1633"," ","<p>Great, you've seen the third block of words. You may now take a short break.</p>
      <p>Press the spacebar when you're ready to continue.</p>","","","","","","","","",""
"html-keyboard-response","251","289775","0.0-14.0-0.0","600e0dadada7da69afc5b3de","650c16f0f2faf8d7a0d14c09","651c0aadc6eaf8f5c63ff23d","null","null","<p style=""font-size: 60px; font-family: BACS"">dKDthPMd</p>","","","","","","","","",""
"html-keyboard-response","252","290787","0.0-14.0-0.1","600e0dadada7da69afc5b3de","650c16f0f2faf8d7a0d14c09","651c0aadc6eaf8f5c63ff23d","null","null","<p style=""font-size: 60px; font-family: BACS"">NvYJZvkL</p>","","","","","","","","",""
"html-keyboard-response","253","291799","0.0-14.0-0.2","600e0dadada7da69afc5b3de","650c16f0f2faf8d7a0d14c09","651c0aadc6eaf8f5c63ff23d","null","null","<p style=""font-size: 60px; font-family: BACS"">UdbdNmAG</p>","","","","","","","","",""
"html-keyboard-response","254","292800","0.0-14.0-0.3","600e0dadada7da69afc5b3de","650c16f0f2faf8d7a0d14c09","651c0aadc6eaf8f5c63ff23d","null","null","<p style=""font-size: 60px; font-family: BACS"">dKRDRdCc</p>","","","","","","","","",""
"html-keyboard-response","255","293809","0.0-14.0-0.4","600e0dadada7da69afc5b3de","650c16f0f2faf8d7a0d14c09","651c0aadc6eaf8f5c63ff23d","null","null","<p style=""font-size: 60px; font-family: BACS"">lcOcZvkL</p>","","","","","","","","",""
"html-keyboard-response","256","294820","0.0-14.0-0.5","600e0dadada7da69afc5b3de","650c16f0f2faf8d7a0d14c09","651c0aadc6eaf8f5c63ff23d","null","null","<p style=""font-size: 60px; font-family: BACS"">TklDMKmY</p>","","","","","","","","",""
"html-keyboard-response","257","295832","0.0-14.0-0.6","600e0dadada7da69afc5b3de","650c16f0f2faf8d7a0d14c09","651c0aadc6eaf8f5c63ff23d","null","null","<p style=""font-size: 60px; font-family: BACS"">ldAaZvkL</p>","","","","","","","","",""
"html-keyboard-response","258","296843","0.0-14.0-0.7","600e0dadada7da69afc5b3de","650c16f0f2faf8d7a0d14c09","651c0aadc6eaf8f5c63ff23d","null","null","<p style=""font-size: 60px; font-family: BACS"">NvYJLkNc</p>","","","","","","","","",""
"html-keyboard-response","259","297855","0.0-14.0-0.8","600e0dadada7da69afc5b3de","650c16f0f2faf8d7a0d14c09","651c0aadc6eaf8f5c63ff23d","null","null","<p style=""font-size: 60px; font-family: BACS"">UdbdYUYa</p>","","","","","","","","",""
"html-keyboard-response","260","298871","0.0-14.0-0.9","600e0dadada7da69afc5b3de","650c16f0f2faf8d7a0d14c09","651c0aadc6eaf8f5c63ff23d","null","null","<p style=""font-size: 60px; font-family: BACS"">GQrcGrub</p>","","","","","","","","",""
"html-keyboard-response","261","299882","0.0-14.0-0.10","600e0dadada7da69afc5b3de","650c16f0f2faf8d7a0d14c09","651c0aadc6eaf8f5c63ff23d","null","null","<p style=""font-size: 60px; font-family: BACS"">TDKhMKmY</p>","","","","","","","","",""
"html-keyboard-response","262","300895","0.0-14.0-0.11","600e0dadada7da69afc5b3de","650c16f0f2faf8d7a0d14c09","651c0aadc6eaf8f5c63ff23d","null","null","<p style=""font-size: 60px; font-family: BACS"">EltMBRdCc</p>","","","","","","","","",""
"html-keyboard-response","263","301903","0.0-14.0-0.12","600e0dadada7da69afc5b3de","650c16f0f2faf8d7a0d14c09","651c0aadc6eaf8f5c63ff23d","null","null","<p style=""font-size: 60px; font-family: BACS"">vQdOLkNc</p>","","","","","","","","",""
"html-keyboard-response","264","302910","0.0-14.0-0.13","600e0dadada7da69afc5b3de","650c16f0f2faf8d7a0d14c09","651c0aadc6eaf8f5c63ff23d","null","null","<p style=""font-size: 60px; font-family: BACS"">UrOQYUYa</p>","","","","","","","","",""
"html-keyboard-response","265","303922","0.0-14.0-0.14","600e0dadada7da69afc5b3de","650c16f0f2faf8d7a0d14c09","651c0aadc6eaf8f5c63ff23d","null","null","<p style=""font-size: 60px; font-family: BACS"">RhPmcMRl</p>","","","","","","","","",""
"html-keyboard-response","266","304934","0.0-14.0-0.15","600e0dadada7da69afc5b3de","650c16f0f2faf8d7a0d14c09","651c0aadc6eaf8f5c63ff23d","null","null","<p style=""font-size: 60px; font-family: BACS"">dYdARdCc</p>","","","","","","","","",""
"html-keyboard-response","267","305941","0.0-14.0-0.16","600e0dadada7da69afc5b3de","650c16f0f2faf8d7a0d14c09","651c0aadc6eaf8f5c63ff23d","null","null","<p style=""font-size: 60px; font-family: BACS"">ObOQlZvkL</p>","","","","","","","","",""
"html-keyboard-response","268","306953","0.0-14.0-0.17","600e0dadada7da69afc5b3de","650c16f0f2faf8d7a0d14c09","651c0aadc6eaf8f5c63ff23d","null","null","<p style=""font-size: 60px; font-family: BACS"">EltMBMKmY</p>","","","","","","","","",""
"html-keyboard-response","269","307963","0.0-14.0-0.18","600e0dadada7da69afc5b3de","650c16f0f2faf8d7a0d14c09","651c0aadc6eaf8f5c63ff23d","null","null","<p style=""font-size: 60px; font-family: BACS"">RCcECMdP</p>","","","","","","","","",""
"html-keyboard-response","270","308977","0.0-14.0-0.19","600e0dadada7da69afc5b3de","650c16f0f2faf8d7a0d14c09","651c0aadc6eaf8f5c63ff23d","null","null","<p style=""font-size: 60px; font-family: BACS"">GQrcZvkL</p>","","","","","","","","",""
"html-keyboard-response","271","309987","0.0-14.0-0.20","600e0dadada7da69afc5b3de","650c16f0f2faf8d7a0d14c09","651c0aadc6eaf8f5c63ff23d","null","null","<p style=""font-size: 60px; font-family: BACS"">hTtBbCMdP</p>","","","","","","","","",""
"html-keyboard-response","272","310998","0.0-14.0-0.21","600e0dadada7da69afc5b3de","650c16f0f2faf8d7a0d14c09","651c0aadc6eaf8f5c63ff23d","null","null","<p style=""font-size: 60px; font-family: BACS"">mdlaYUYa</p>","","","","","","","","",""
"html-keyboard-response","273","312010","0.0-14.0-0.22","600e0dadada7da69afc5b3de","650c16f0f2faf8d7a0d14c09","651c0aadc6eaf8f5c63ff23d","null","null","<p style=""font-size: 60px; font-family: BACS"">NvYJNmAG</p>","","","","","","","","",""
"html-keyboard-response","274","313011","0.0-14.0-0.23","600e0dadada7da69afc5b3de","650c16f0f2faf8d7a0d14c09","651c0aadc6eaf8f5c63ff23d","null","null","<p style=""font-size: 60px; font-family: BACS"">ObOQlYUYa</p>","","","","","","","","",""
"html-keyboard-response","275","314024","0.0-14.0-0.24","600e0dadada7da69afc5b3de","650c16f0f2faf8d7a0d14c09","651c0aadc6eaf8f5c63ff23d","null","null","<p style=""font-size: 60px; font-family: BACS"">RhPmPMd</p>","","","","","","","","",""
"html-keyboard-response","276","315036","0.0-14.0-0.25","600e0dadada7da69afc5b3de","650c16f0f2faf8d7a0d14c09","651c0aadc6eaf8f5c63ff23d","null","null","<p style=""font-size: 60px; font-family: BACS"">RCcEcMRl</p>","","","","","","","","",""
"html-keyboard-response","277","316048","0.0-14.0-0.26","600e0dadada7da69afc5b3de","650c16f0f2faf8d7a0d14c09","651c0aadc6eaf8f5c63ff23d","null","null","<p style=""font-size: 60px; font-family: BACS"">lcOcGrub</p>","","","","","","","","",""
"html-keyboard-response","278","317061","0.0-14.0-0.27","600e0dadada7da69afc5b3de","650c16f0f2faf8d7a0d14c09","651c0aadc6eaf8f5c63ff23d","null","null","<p style=""font-size: 60px; font-family: BACS"">dYdACMdP</p>","","","","","","","","",""
"html-keyboard-response","279","318070","0.0-14.0-0.28","600e0dadada7da69afc5b3de","650c16f0f2faf8d7a0d14c09","651c0aadc6eaf8f5c63ff23d","null","null","<p style=""font-size: 60px; font-family: BACS"">OmtlDRdCc</p>","","","","","","","","",""
"html-keyboard-response","280","319077","0.0-14.0-0.29","600e0dadada7da69afc5b3de","650c16f0f2faf8d7a0d14c09","651c0aadc6eaf8f5c63ff23d","null","null","<p style=""font-size: 60px; font-family: BACS"">lcOcNmAG</p>","","","","","","","","",""
"html-keyboard-response","281","320083","0.0-14.0-0.30","600e0dadada7da69afc5b3de","650c16f0f2faf8d7a0d14c09","651c0aadc6eaf8f5c63ff23d","null","null","<p style=""font-size: 60px; font-family: BACS"">ldAaYUYa</p>","","","","","","","","",""
"html-keyboard-response","282","321091","0.0-14.0-0.31","600e0dadada7da69afc5b3de","650c16f0f2faf8d7a0d14c09","651c0aadc6eaf8f5c63ff23d","null","null","<p style=""font-size: 60px; font-family: BACS"">RCcEPMd</p>","","","","","","","","",""
"html-keyboard-response","283","322103","0.0-14.0-0.32","600e0dadada7da69afc5b3de","650c16f0f2faf8d7a0d14c09","651c0aadc6eaf8f5c63ff23d","null","null","<p style=""font-size: 60px; font-family: BACS"">RhPmRdCc</p>","","","","","","","","",""
"html-keyboard-response","284","323113","0.0-14.0-0.33","600e0dadada7da69afc5b3de","650c16f0f2faf8d7a0d14c09","651c0aadc6eaf8f5c63ff23d","null","null","<p style=""font-size: 60px; font-family: BACS"">OmtlDCMdP</p>","","","","","","","","",""
"html-keyboard-response","285","324124","0.0-14.0-0.34","600e0dadada7da69afc5b3de","650c16f0f2faf8d7a0d14c09","651c0aadc6eaf8f5c63ff23d","null","null","<p style=""font-size: 60px; font-family: BACS"">EltMBPMd</p>","","","","","","","","",""
"html-keyboard-response","286","325137","0.0-14.0-0.35","600e0dadada7da69afc5b3de","650c16f0f2faf8d7a0d14c09","651c0aadc6eaf8f5c63ff23d","null","null","<p style=""font-size: 60px; font-family: BACS"">ldAaNmAG</p>","","","","","","","","",""
"html-keyboard-response","287","326149","0.0-14.0-0.36","600e0dadada7da69afc5b3de","650c16f0f2faf8d7a0d14c09","651c0aadc6eaf8f5c63ff23d","null","null","<p style=""font-size: 60px; font-family: BACS"">dYdAcMRl</p>","","","","","","","","",""
"html-keyboard-response","288","327158","0.0-14.0-0.37","600e0dadada7da69afc5b3de","650c16f0f2faf8d7a0d14c09","651c0aadc6eaf8f5c63ff23d","null","null","<p style=""font-size: 60px; font-family: BACS"">vQdOGrub</p>","","","","","","","","",""
"html-keyboard-response","289","328170","0.0-14.0-0.38","600e0dadada7da69afc5b3de","650c16f0f2faf8d7a0d14c09","651c0aadc6eaf8f5c63ff23d","null","null","<p style=""font-size: 60px; font-family: BACS"">hTtBbMKmY</p>","","","","","","","","",""
"html-keyboard-response","290","329182","0.0-14.0-0.39","600e0dadada7da69afc5b3de","650c16f0f2faf8d7a0d14c09","651c0aadc6eaf8f5c63ff23d","null","null","<p style=""font-size: 60px; font-family: BACS"">lZcuYUYa</p>","","","","","","","","",""
"html-keyboard-response","291","330193","0.0-14.0-0.40","600e0dadada7da69afc5b3de","650c16f0f2faf8d7a0d14c09","651c0aadc6eaf8f5c63ff23d","null","null","<p style=""font-size: 60px; font-family: BACS"">dKRDPMd</p>","","","","","","","","",""
"html-keyboard-response","292","331201","0.0-14.0-0.41","600e0dadada7da69afc5b3de","650c16f0f2faf8d7a0d14c09","651c0aadc6eaf8f5c63ff23d","null","null","<p style=""font-size: 60px; font-family: BACS"">UrOQZvkL</p>","","","","","","","","",""
"html-keyboard-response","293","332215","0.0-14.0-0.42","600e0dadada7da69afc5b3de","650c16f0f2faf8d7a0d14c09","651c0aadc6eaf8f5c63ff23d","null","null","<p style=""font-size: 60px; font-family: BACS"">lcOcYUYa</p>","","","","","","","","",""
"html-keyboard-response","294","333227","0.0-14.0-0.43","600e0dadada7da69afc5b3de","650c16f0f2faf8d7a0d14c09","651c0aadc6eaf8f5c63ff23d","null","null","<p style=""font-size: 60px; font-family: BACS"">TDKhRdCc</p>","","","","","","","","",""
"html-keyboard-response","295","334231","0.0-14.0-0.44","600e0dadada7da69afc5b3de","650c16f0f2faf8d7a0d14c09","651c0aadc6eaf8f5c63ff23d","null","null","<p style=""font-size: 60px; font-family: BACS"">ObOQlGrub</p>","","","","","","","","",""
"html-keyboard-response","296","335244","0.0-14.0-0.45","600e0dadada7da69afc5b3de","650c16f0f2faf8d7a0d14c09","651c0aadc6eaf8f5c63ff23d","null","null","<p style=""font-size: 60px; font-family: BACS"">vQdOZvkL</p>","","","","","","","","",""
"html-keyboard-response","297","336258","0.0-14.0-0.46","600e0dadada7da69afc5b3de","650c16f0f2faf8d7a0d14c09","651c0aadc6eaf8f5c63ff23d","null","null","<p style=""font-size: 60px; font-family: BACS"">dKDthRdCc</p>","","","","","","","","",""
"html-keyboard-response","298","337267","0.0-14.0-0.47","600e0dadada7da69afc5b3de","650c16f0f2faf8d7a0d14c09","651c0aadc6eaf8f5c63ff23d","null","null","<p style=""font-size: 60px; font-family: BACS"">EltMBCMdP</p>","","","","","","","","",""
"html-keyboard-response","299","338277","0.0-14.0-0.48","600e0dadada7da69afc5b3de","650c16f0f2faf8d7a0d14c09","651c0aadc6eaf8f5c63ff23d","null","null","<p style=""font-size: 60px; font-family: BACS"">ldAaLkNc</p>","","","","","","","","",""
"html-keyboard-response","300","339288","0.0-14.0-0.49","600e0dadada7da69afc5b3de","650c16f0f2faf8d7a0d14c09","651c0aadc6eaf8f5c63ff23d","null","null","<p style=""font-size: 60px; font-family: BACS"">hTtBbcMRl</p>","","","","","","","","",""
"html-keyboard-response","301","340300","0.0-14.0-0.50","600e0dadada7da69afc5b3de","650c16f0f2faf8d7a0d14c09","651c0aadc6eaf8f5c63ff23d","null","null","<p style=""font-size: 60px; font-family: BACS"">lZcuNmAG</p>","","","","","","","","",""
"html-keyboard-response","302","341311","0.0-14.0-0.51","600e0dadada7da69afc5b3de","650c16f0f2faf8d7a0d14c09","651c0aadc6eaf8f5c63ff23d","null","null","<p style=""font-size: 60px; font-family: BACS"">TDKhPMd</p>","","","","","","","","",""
"html-keyboard-response","303","342324","0.0-14.0-0.52","600e0dadada7da69afc5b3de","650c16f0f2faf8d7a0d14c09","651c0aadc6eaf8f5c63ff23d","null","null","<p style=""font-size: 60px; font-family: BACS"">RCcEMKmY</p>","","","","","","","","",""
"html-keyboard-response","304","343336","0.0-14.0-0.53","600e0dadada7da69afc5b3de","650c16f0f2faf8d7a0d14c09","651c0aadc6eaf8f5c63ff23d","null","null","<p style=""font-size: 60px; font-family: BACS"">lZcuGrub</p>","","","","","","","","",""
"html-keyboard-response","305","344347","0.0-14.0-0.54","600e0dadada7da69afc5b3de","650c16f0f2faf8d7a0d14c09","651c0aadc6eaf8f5c63ff23d","null","null","<p style=""font-size: 60px; font-family: BACS"">OmtlDcMRl</p>","","","","","","","","",""
"html-keyboard-response","306","345358","0.0-14.0-0.55","600e0dadada7da69afc5b3de","650c16f0f2faf8d7a0d14c09","651c0aadc6eaf8f5c63ff23d","null","null","<p style=""font-size: 60px; font-family: BACS"">dKDthCMdP</p>","","","","","","","","",""
"html-keyboard-response","307","346367","0.0-14.0-0.56","600e0dadada7da69afc5b3de","650c16f0f2faf8d7a0d14c09","651c0aadc6eaf8f5c63ff23d","null","null","<p style=""font-size: 60px; font-family: BACS"">mdlaLkNc</p>","","","","","","","","",""
"html-keyboard-response","308","347380","0.0-14.0-0.57","600e0dadada7da69afc5b3de","650c16f0f2faf8d7a0d14c09","651c0aadc6eaf8f5c63ff23d","null","null","<p style=""font-size: 60px; font-family: BACS"">dYdAPMd</p>","","","","","","","","",""
"html-keyboard-response","309","348391","0.0-14.0-0.58","600e0dadada7da69afc5b3de","650c16f0f2faf8d7a0d14c09","651c0aadc6eaf8f5c63ff23d","null","null","<p style=""font-size: 60px; font-family: BACS"">TDKhcMRl</p>","","","","","","","","",""
"html-keyboard-response","310","349401","0.0-14.0-0.59","600e0dadada7da69afc5b3de","650c16f0f2faf8d7a0d14c09","651c0aadc6eaf8f5c63ff23d","null","null","<p style=""font-size: 60px; font-family: BACS"">dKDthMKmY</p>","","","","","","","","",""
"html-keyboard-response","311","350417","0.0-14.0-0.60","600e0dadada7da69afc5b3de","650c16f0f2faf8d7a0d14c09","651c0aadc6eaf8f5c63ff23d","null","null","<p style=""font-size: 60px; font-family: BACS"">UrOQNmAG</p>","","","","","","","","",""
"html-keyboard-response","312","351426","0.0-14.0-0.61","600e0dadada7da69afc5b3de","650c16f0f2faf8d7a0d14c09","651c0aadc6eaf8f5c63ff23d","null","null","<p style=""font-size: 60px; font-family: BACS"">TklDPMd</p>","","","","","","","","",""
"html-keyboard-response","313","352436","0.0-14.0-0.62","600e0dadada7da69afc5b3de","650c16f0f2faf8d7a0d14c09","651c0aadc6eaf8f5c63ff23d","null","null","<p style=""font-size: 60px; font-family: BACS"">GQrcLkNc</p>","","","","","","","","",""
"html-keyboard-response","314","353449","0.0-14.0-0.63","600e0dadada7da69afc5b3de","650c16f0f2faf8d7a0d14c09","651c0aadc6eaf8f5c63ff23d","null","null","<p style=""font-size: 60px; font-family: BACS"">TklDcMRl</p>","","","","","","","","",""
"html-keyboard-response","315","354463","0.0-14.0-0.64","600e0dadada7da69afc5b3de","650c16f0f2faf8d7a0d14c09","651c0aadc6eaf8f5c63ff23d","null","null","<p style=""font-size: 60px; font-family: BACS"">ObOQlNmAG</p>","","","","","","","","",""
"html-keyboard-response","316","355473","0.0-14.0-0.65","600e0dadada7da69afc5b3de","650c16f0f2faf8d7a0d14c09","651c0aadc6eaf8f5c63ff23d","null","null","<p style=""font-size: 60px; font-family: BACS"">hTtBbRdCc</p>","","","","","","","","",""
"html-keyboard-response","317","356482","0.0-14.0-0.66","600e0dadada7da69afc5b3de","650c16f0f2faf8d7a0d14c09","651c0aadc6eaf8f5c63ff23d","null","null","<p style=""font-size: 60px; font-family: BACS"">RhPmCMdP</p>","","","","","","","","",""
"html-keyboard-response","318","357497","0.0-14.0-0.67","600e0dadada7da69afc5b3de","650c16f0f2faf8d7a0d14c09","651c0aadc6eaf8f5c63ff23d","null","null","<p style=""font-size: 60px; font-family: BACS"">UrOQLkNc</p>","","","","","","","","",""
"html-keyboard-response","319","358510","0.0-14.0-0.68","600e0dadada7da69afc5b3de","650c16f0f2faf8d7a0d14c09","651c0aadc6eaf8f5c63ff23d","null","null","<p style=""font-size: 60px; font-family: BACS"">dKRDMKmY</p>","","","","","","","","",""
"html-keyboard-response","320","359520","0.0-14.0-0.69","600e0dadada7da69afc5b3de","650c16f0f2faf8d7a0d14c09","651c0aadc6eaf8f5c63ff23d","null","null","<p style=""font-size: 60px; font-family: BACS"">UdbdLkNc</p>","","","","","","","","",""
"html-keyboard-response","321","360528","0.0-14.0-0.70","600e0dadada7da69afc5b3de","650c16f0f2faf8d7a0d14c09","651c0aadc6eaf8f5c63ff23d","null","null","<p style=""font-size: 60px; font-family: BACS"">dKRDcMRl</p>","","","","","","","","",""
"html-keyboard-response","322","361541","0.0-14.0-0.71","600e0dadada7da69afc5b3de","650c16f0f2faf8d7a0d14c09","651c0aadc6eaf8f5c63ff23d","null","null","<p style=""font-size: 60px; font-family: BACS"">GQrcNmAG</p>","","","","","","","","",""
"html-keyboard-response","323","362557","0.0-14.0-0.72","600e0dadada7da69afc5b3de","650c16f0f2faf8d7a0d14c09","651c0aadc6eaf8f5c63ff23d","null","null","<p style=""font-size: 60px; font-family: BACS"">UdbdGrub</p>","","","","","","","","",""
"html-keyboard-response","324","363568","0.0-14.0-0.73","600e0dadada7da69afc5b3de","650c16f0f2faf8d7a0d14c09","651c0aadc6eaf8f5c63ff23d","null","null","<p style=""font-size: 60px; font-family: BACS"">lZcuLkNc</p>","","","","","","","","",""
"html-keyboard-response","325","364577","0.0-14.0-0.74","600e0dadada7da69afc5b3de","650c16f0f2faf8d7a0d14c09","651c0aadc6eaf8f5c63ff23d","null","null","<p style=""font-size: 60px; font-family: BACS"">TklDCMdP</p>","","","","","","","","",""
"html-keyboard-response","326","365592","0.0-14.0-0.75","600e0dadada7da69afc5b3de","650c16f0f2faf8d7a0d14c09","651c0aadc6eaf8f5c63ff23d","null","null","<p style=""font-size: 60px; font-family: BACS"">NvYJGrub</p>","","","","","","","","",""
"html-keyboard-response","327","366601","0.0-14.0-0.76","600e0dadada7da69afc5b3de","650c16f0f2faf8d7a0d14c09","651c0aadc6eaf8f5c63ff23d","null","null","<p style=""font-size: 60px; font-family: BACS"">vQdOYUYa</p>","","","","","","","","",""
"html-keyboard-response","328","367614","0.0-14.0-0.77","600e0dadada7da69afc5b3de","650c16f0f2faf8d7a0d14c09","651c0aadc6eaf8f5c63ff23d","null","null","<p style=""font-size: 60px; font-family: BACS"">mdlaZvkL</p>","","","","","","","","",""
"html-keyboard-response","329","368624","0.0-14.0-0.78","600e0dadada7da69afc5b3de","650c16f0f2faf8d7a0d14c09","651c0aadc6eaf8f5c63ff23d","null","null","<p style=""font-size: 60px; font-family: BACS"">OmtlDMKmY</p>","","","","","","","","",""
"html-keyboard-response","330","369632","0.0-14.0-0.79","600e0dadada7da69afc5b3de","650c16f0f2faf8d7a0d14c09","651c0aadc6eaf8f5c63ff23d","null","null","<p style=""font-size: 60px; font-family: BACS"">mdlaGrub</p>","","","","","","","","",""
"html-keyboard-response","331","377389","0.0-15.0","600e0dadada7da69afc5b3de","650c16f0f2faf8d7a0d14c09","651c0aadc6eaf8f5c63ff23d","7756"," ","<p>Great, you've seen the fourth block of words. You may now take a short break.</p>
      <p>Press the spacebar when you're ready to continue.</p>","","","","","","","","",""
"html-keyboard-response","332","378401","0.0-16.0-0.0","600e0dadada7da69afc5b3de","650c16f0f2faf8d7a0d14c09","651c0aadc6eaf8f5c63ff23d","null","null","<p style=""font-size: 60px; font-family: BACS"">RCcEcMRl</p>","","","","","","","","",""
"html-keyboard-response","333","379405","0.0-16.0-0.1","600e0dadada7da69afc5b3de","650c16f0f2faf8d7a0d14c09","651c0aadc6eaf8f5c63ff23d","null","null","<p style=""font-size: 60px; font-family: BACS"">RCcEcMRl</p>","","","","","","","","",""
"html-keyboard-response","334","380413","0.0-16.0-0.2","600e0dadada7da69afc5b3de","650c16f0f2faf8d7a0d14c09","651c0aadc6eaf8f5c63ff23d","null","null","<p style=""font-size: 60px; font-family: BACS"">RCcEcMRl</p>","","","","","","","","",""
"html-keyboard-response","335","381425","0.0-16.0-0.3","600e0dadada7da69afc5b3de","650c16f0f2faf8d7a0d14c09","651c0aadc6eaf8f5c63ff23d","null","null","<p style=""font-size: 60px; font-family: BACS"">RCcEcMRl</p>","","","","","","","","",""
"html-keyboard-response","336","382434","0.0-16.0-0.4","600e0dadada7da69afc5b3de","650c16f0f2faf8d7a0d14c09","651c0aadc6eaf8f5c63ff23d","null","null","<p style=""font-size: 60px; font-family: BACS"">RCcEcMRl</p>","","","","","","","","",""
"html-keyboard-response","337","383447","0.0-16.0-0.5","600e0dadada7da69afc5b3de","650c16f0f2faf8d7a0d14c09","651c0aadc6eaf8f5c63ff23d","null","null","<p style=""font-size: 60px; font-family: BACS"">RCcEcMRl</p>","","","","","","","","",""
"html-keyboard-response","338","384448","0.0-16.0-0.6","600e0dadada7da69afc5b3de","650c16f0f2faf8d7a0d14c09","651c0aadc6eaf8f5c63ff23d","null","null","<p style=""font-size: 60px; font-family: BACS"">RCcEcMRl</p>","","","","","","","","",""
"html-keyboard-response","339","385450","0.0-16.0-0.7","600e0dadada7da69afc5b3de","650c16f0f2faf8d7a0d14c09","651c0aadc6eaf8f5c63ff23d","null","null","<p style=""font-size: 60px; font-family: BACS"">RCcEcMRl</p>","","","","","","","","",""
"html-keyboard-response","340","386463","0.0-16.0-0.8","600e0dadada7da69afc5b3de","650c16f0f2faf8d7a0d14c09","651c0aadc6eaf8f5c63ff23d","null","null","<p style=""font-size: 60px; font-family: BACS"">RCcEcMRl</p>","","","","","","","","",""
"html-keyboard-response","341","387472","0.0-16.0-0.9","600e0dadada7da69afc5b3de","650c16f0f2faf8d7a0d14c09","651c0aadc6eaf8f5c63ff23d","null","null","<p style=""font-size: 60px; font-family: BACS"">RCcEcMRl</p>","","","","","","","","",""
"html-keyboard-response","342","388485","0.0-16.0-0.10","600e0dadada7da69afc5b3de","650c16f0f2faf8d7a0d14c09","651c0aadc6eaf8f5c63ff23d","null","null","<p style=""font-size: 60px; font-family: BACS"">RCcEcMRl</p>","","","","","","","","",""
"html-keyboard-response","343","389496","0.0-16.0-0.11","600e0dadada7da69afc5b3de","650c16f0f2faf8d7a0d14c09","651c0aadc6eaf8f5c63ff23d","null","null","<p style=""font-size: 60px; font-family: BACS"">RCcEcMRl</p>","","","","","","","","",""
"html-keyboard-response","344","390510","0.0-16.0-0.12","600e0dadada7da69afc5b3de","650c16f0f2faf8d7a0d14c09","651c0aadc6eaf8f5c63ff23d","null","null","<p style=""font-size: 60px; font-family: BACS"">RCcEcMRl</p>","","","","","","","","",""
"html-keyboard-response","345","391523","0.0-16.0-0.13","600e0dadada7da69afc5b3de","650c16f0f2faf8d7a0d14c09","651c0aadc6eaf8f5c63ff23d","null","null","<p style=""font-size: 60px; font-family: BACS"">RCcEcMRl</p>","","","","","","","","",""
"html-keyboard-response","346","392535","0.0-16.0-0.14","600e0dadada7da69afc5b3de","650c16f0f2faf8d7a0d14c09","651c0aadc6eaf8f5c63ff23d","null","null","<p style=""font-size: 60px; font-family: BACS"">RCcEcMRl</p>","","","","","","","","",""
"html-keyboard-response","347","393547","0.0-16.0-0.15","600e0dadada7da69afc5b3de","650c16f0f2faf8d7a0d14c09","651c0aadc6eaf8f5c63ff23d","null","null","<p style=""font-size: 60px; font-family: BACS"">RCcEcMRl</p>","","","","","","","","",""
"html-keyboard-response","348","394560","0.0-16.0-0.16","600e0dadada7da69afc5b3de","650c16f0f2faf8d7a0d14c09","651c0aadc6eaf8f5c63ff23d","null","null","<p style=""font-size: 60px; font-family: BACS"">RCcEcMRl</p>","","","","","","","","",""
"html-keyboard-response","349","395569","0.0-16.0-0.17","600e0dadada7da69afc5b3de","650c16f0f2faf8d7a0d14c09","651c0aadc6eaf8f5c63ff23d","null","null","<p style=""font-size: 60px; font-family: BACS"">RCcEcMRl</p>","","","","","","","","",""
"html-keyboard-response","350","396580","0.0-16.0-0.18","600e0dadada7da69afc5b3de","650c16f0f2faf8d7a0d14c09","651c0aadc6eaf8f5c63ff23d","null","null","<p style=""font-size: 60px; font-family: BACS"">RCcEcMRl</p>","","","","","","","","",""
"html-keyboard-response","351","397588","0.0-16.0-0.19","600e0dadada7da69afc5b3de","650c16f0f2faf8d7a0d14c09","651c0aadc6eaf8f5c63ff23d","null","null","<p style=""font-size: 60px; font-family: BACS"">RCcEcMRl</p>","","","","","","","","",""
"html-keyboard-response","352","398600","0.0-16.0-0.20","600e0dadada7da69afc5b3de","650c16f0f2faf8d7a0d14c09","651c0aadc6eaf8f5c63ff23d","null","null","<p style=""font-size: 60px; font-family: BACS"">RCcEcMRl</p>","","","","","","","","",""
"html-keyboard-response","353","399615","0.0-16.0-0.21","600e0dadada7da69afc5b3de","650c16f0f2faf8d7a0d14c09","651c0aadc6eaf8f5c63ff23d","null","null","<p style=""font-size: 60px; font-family: BACS"">RCcEcMRl</p>","","","","","","","","",""
"html-keyboard-response","354","400624","0.0-16.0-0.22","600e0dadada7da69afc5b3de","650c16f0f2faf8d7a0d14c09","651c0aadc6eaf8f5c63ff23d","null","null","<p style=""font-size: 60px; font-family: BACS"">RCcEcMRl</p>","","","","","","","","",""
"html-keyboard-response","355","401636","0.0-16.0-0.23","600e0dadada7da69afc5b3de","650c16f0f2faf8d7a0d14c09","651c0aadc6eaf8f5c63ff23d","null","null","<p style=""font-size: 60px; font-family: BACS"">RCcEcMRl</p>","","","","","","","","",""
"html-keyboard-response","356","402648","0.0-16.0-0.24","600e0dadada7da69afc5b3de","650c16f0f2faf8d7a0d14c09","651c0aadc6eaf8f5c63ff23d","null","null","<p style=""font-size: 60px; font-family: BACS"">RCcEcMRl</p>","","","","","","","","",""
"html-keyboard-response","357","403662","0.0-16.0-0.25","600e0dadada7da69afc5b3de","650c16f0f2faf8d7a0d14c09","651c0aadc6eaf8f5c63ff23d","null","null","<p style=""font-size: 60px; font-family: BACS"">RCcEcMRl</p>","","","","","","","","",""
"html-keyboard-response","358","404677","0.0-16.0-0.26","600e0dadada7da69afc5b3de","650c16f0f2faf8d7a0d14c09","651c0aadc6eaf8f5c63ff23d","null","null","<p style=""font-size: 60px; font-family: BACS"">RCcEcMRl</p>","","","","","","","","",""
"html-keyboard-response","359","405684","0.0-16.0-0.27","600e0dadada7da69afc5b3de","650c16f0f2faf8d7a0d14c09","651c0aadc6eaf8f5c63ff23d","null","null","<p style=""font-size: 60px; font-family: BACS"">RCcEcMRl</p>","","","","","","","","",""
"html-keyboard-response","360","406698","0.0-16.0-0.28","600e0dadada7da69afc5b3de","650c16f0f2faf8d7a0d14c09","651c0aadc6eaf8f5c63ff23d","null","null","<p style=""font-size: 60px; font-family: BACS"">RCcEcMRl</p>","","","","","","","","",""
"html-keyboard-response","361","407707","0.0-16.0-0.29","600e0dadada7da69afc5b3de","650c16f0f2faf8d7a0d14c09","651c0aadc6eaf8f5c63ff23d","null","null","<p style=""font-size: 60px; font-family: BACS"">RCcEcMRl</p>","","","","","","","","",""
"html-keyboard-response","362","408715","0.0-16.0-0.30","600e0dadada7da69afc5b3de","650c16f0f2faf8d7a0d14c09","651c0aadc6eaf8f5c63ff23d","null","null","<p style=""font-size: 60px; font-family: BACS"">RCcEcMRl</p>","","","","","","","","",""
"html-keyboard-response","363","409731","0.0-16.0-0.31","600e0dadada7da69afc5b3de","650c16f0f2faf8d7a0d14c09","651c0aadc6eaf8f5c63ff23d","null","null","<p style=""font-size: 60px; font-family: BACS"">RCcEcMRl</p>","","","","","","","","",""
"html-keyboard-response","364","410746","0.0-16.0-0.32","600e0dadada7da69afc5b3de","650c16f0f2faf8d7a0d14c09","651c0aadc6eaf8f5c63ff23d","null","null","<p style=""font-size: 60px; font-family: BACS"">RCcEcMRl</p>","","","","","","","","",""
"html-keyboard-response","365","411755","0.0-16.0-0.33","600e0dadada7da69afc5b3de","650c16f0f2faf8d7a0d14c09","651c0aadc6eaf8f5c63ff23d","null","null","<p style=""font-size: 60px; font-family: BACS"">RCcEcMRl</p>","","","","","","","","",""
"html-keyboard-response","366","412767","0.0-16.0-0.34","600e0dadada7da69afc5b3de","650c16f0f2faf8d7a0d14c09","651c0aadc6eaf8f5c63ff23d","null","null","<p style=""font-size: 60px; font-family: BACS"">RCcEcMRl</p>","","","","","","","","",""
"html-keyboard-response","367","413777","0.0-16.0-0.35","600e0dadada7da69afc5b3de","650c16f0f2faf8d7a0d14c09","651c0aadc6eaf8f5c63ff23d","null","null","<p style=""font-size: 60px; font-family: BACS"">RCcEcMRl</p>","","","","","","","","",""
"html-keyboard-response","368","414782","0.0-16.0-0.36","600e0dadada7da69afc5b3de","650c16f0f2faf8d7a0d14c09","651c0aadc6eaf8f5c63ff23d","null","null","<p style=""font-size: 60px; font-family: BACS"">RCcEcMRl</p>","","","","","","","","",""
"html-keyboard-response","369","415793","0.0-16.0-0.37","600e0dadada7da69afc5b3de","650c16f0f2faf8d7a0d14c09","651c0aadc6eaf8f5c63ff23d","null","null","<p style=""font-size: 60px; font-family: BACS"">RCcEcMRl</p>","","","","","","","","",""
"html-keyboard-response","370","416802","0.0-16.0-0.38","600e0dadada7da69afc5b3de","650c16f0f2faf8d7a0d14c09","651c0aadc6eaf8f5c63ff23d","null","null","<p style=""font-size: 60px; font-family: BACS"">RCcEcMRl</p>","","","","","","","","",""
"html-keyboard-response","371","417803","0.0-16.0-0.39","600e0dadada7da69afc5b3de","650c16f0f2faf8d7a0d14c09","651c0aadc6eaf8f5c63ff23d","null","null","<p style=""font-size: 60px; font-family: BACS"">RCcEcMRl</p>","","","","","","","","",""
"html-keyboard-response","372","418811","0.0-16.0-0.40","600e0dadada7da69afc5b3de","650c16f0f2faf8d7a0d14c09","651c0aadc6eaf8f5c63ff23d","null","null","<p style=""font-size: 60px; font-family: BACS"">RCcEcMRl</p>","","","","","","","","",""
"html-keyboard-response","373","419819","0.0-16.0-0.41","600e0dadada7da69afc5b3de","650c16f0f2faf8d7a0d14c09","651c0aadc6eaf8f5c63ff23d","null","null","<p style=""font-size: 60px; font-family: BACS"">RCcEcMRl</p>","","","","","","","","",""
"html-keyboard-response","374","420829","0.0-16.0-0.42","600e0dadada7da69afc5b3de","650c16f0f2faf8d7a0d14c09","651c0aadc6eaf8f5c63ff23d","null","null","<p style=""font-size: 60px; font-family: BACS"">RCcEcMRl</p>","","","","","","","","",""
"html-keyboard-response","375","421839","0.0-16.0-0.43","600e0dadada7da69afc5b3de","650c16f0f2faf8d7a0d14c09","651c0aadc6eaf8f5c63ff23d","null","null","<p style=""font-size: 60px; font-family: BACS"">RCcEcMRl</p>","","","","","","","","",""
"html-keyboard-response","376","422852","0.0-16.0-0.44","600e0dadada7da69afc5b3de","650c16f0f2faf8d7a0d14c09","651c0aadc6eaf8f5c63ff23d","null","null","<p style=""font-size: 60px; font-family: BACS"">RCcEcMRl</p>","","","","","","","","",""
"html-keyboard-response","377","423866","0.0-16.0-0.45","600e0dadada7da69afc5b3de","650c16f0f2faf8d7a0d14c09","651c0aadc6eaf8f5c63ff23d","null","null","<p style=""font-size: 60px; font-family: BACS"">RCcEcMRl</p>","","","","","","","","",""
"html-keyboard-response","378","424874","0.0-16.0-0.46","600e0dadada7da69afc5b3de","650c16f0f2faf8d7a0d14c09","651c0aadc6eaf8f5c63ff23d","null","null","<p style=""font-size: 60px; font-family: BACS"">RCcEcMRl</p>","","","","","","","","",""
"html-keyboard-response","379","425875","0.0-16.0-0.47","600e0dadada7da69afc5b3de","650c16f0f2faf8d7a0d14c09","651c0aadc6eaf8f5c63ff23d","null","null","<p style=""font-size: 60px; font-family: BACS"">RCcEcMRl</p>","","","","","","","","",""
"html-keyboard-response","380","426884","0.0-16.0-0.48","600e0dadada7da69afc5b3de","650c16f0f2faf8d7a0d14c09","651c0aadc6eaf8f5c63ff23d","null","null","<p style=""font-size: 60px; font-family: BACS"">RCcEcMRl</p>","","","","","","","","",""
"html-keyboard-response","381","427893","0.0-16.0-0.49","600e0dadada7da69afc5b3de","650c16f0f2faf8d7a0d14c09","651c0aadc6eaf8f5c63ff23d","null","null","<p style=""font-size: 60px; font-family: BACS"">RCcEcMRl</p>","","","","","","","","",""
"html-keyboard-response","382","428901","0.0-16.0-0.50","600e0dadada7da69afc5b3de","650c16f0f2faf8d7a0d14c09","651c0aadc6eaf8f5c63ff23d","null","null","<p style=""font-size: 60px; font-family: BACS"">RCcEcMRl</p>","","","","","","","","",""
"html-keyboard-response","383","429907","0.0-16.0-0.51","600e0dadada7da69afc5b3de","650c16f0f2faf8d7a0d14c09","651c0aadc6eaf8f5c63ff23d","null","null","<p style=""font-size: 60px; font-family: BACS"">RCcEcMRl</p>","","","","","","","","",""
"html-keyboard-response","384","430919","0.0-16.0-0.52","600e0dadada7da69afc5b3de","650c16f0f2faf8d7a0d14c09","651c0aadc6eaf8f5c63ff23d","null","null","<p style=""font-size: 60px; font-family: BACS"">RCcEcMRl</p>","","","","","","","","",""
"html-keyboard-response","385","431929","0.0-16.0-0.53","600e0dadada7da69afc5b3de","650c16f0f2faf8d7a0d14c09","651c0aadc6eaf8f5c63ff23d","null","null","<p style=""font-size: 60px; font-family: BACS"">RCcEcMRl</p>","","","","","","","","",""
"html-keyboard-response","386","432937","0.0-16.0-0.54","600e0dadada7da69afc5b3de","650c16f0f2faf8d7a0d14c09","651c0aadc6eaf8f5c63ff23d","null","null","<p style=""font-size: 60px; font-family: BACS"">RCcEcMRl</p>","","","","","","","","",""
"html-keyboard-response","387","433950","0.0-16.0-0.55","600e0dadada7da69afc5b3de","650c16f0f2faf8d7a0d14c09","651c0aadc6eaf8f5c63ff23d","null","null","<p style=""font-size: 60px; font-family: BACS"">RCcEcMRl</p>","","","","","","","","",""
"html-keyboard-response","388","434963","0.0-16.0-0.56","600e0dadada7da69afc5b3de","650c16f0f2faf8d7a0d14c09","651c0aadc6eaf8f5c63ff23d","null","null","<p style=""font-size: 60px; font-family: BACS"">RCcEcMRl</p>","","","","","","","","",""
"html-keyboard-response","389","435973","0.0-16.0-0.57","600e0dadada7da69afc5b3de","650c16f0f2faf8d7a0d14c09","651c0aadc6eaf8f5c63ff23d","null","null","<p style=""font-size: 60px; font-family: BACS"">RCcEcMRl</p>","","","","","","","","",""
"html-keyboard-response","390","436986","0.0-16.0-0.58","600e0dadada7da69afc5b3de","650c16f0f2faf8d7a0d14c09","651c0aadc6eaf8f5c63ff23d","null","null","<p style=""font-size: 60px; font-family: BACS"">RCcEcMRl</p>","","","","","","","","",""
"html-keyboard-response","391","437999","0.0-16.0-0.59","600e0dadada7da69afc5b3de","650c16f0f2faf8d7a0d14c09","651c0aadc6eaf8f5c63ff23d","null","null","<p style=""font-size: 60px; font-family: BACS"">RCcEcMRl</p>","","","","","","","","",""
"html-keyboard-response","392","439012","0.0-16.0-0.60","600e0dadada7da69afc5b3de","650c16f0f2faf8d7a0d14c09","651c0aadc6eaf8f5c63ff23d","null","null","<p style=""font-size: 60px; font-family: BACS"">RCcEcMRl</p>","","","","","","","","",""
"html-keyboard-response","393","440021","0.0-16.0-0.61","600e0dadada7da69afc5b3de","650c16f0f2faf8d7a0d14c09","651c0aadc6eaf8f5c63ff23d","null","null","<p style=""font-size: 60px; font-family: BACS"">RCcEcMRl</p>","","","","","","","","",""
"html-keyboard-response","394","441031","0.0-16.0-0.62","600e0dadada7da69afc5b3de","650c16f0f2faf8d7a0d14c09","651c0aadc6eaf8f5c63ff23d","null","null","<p style=""font-size: 60px; font-family: BACS"">RCcEcMRl</p>","","","","","","","","",""
"html-keyboard-response","395","442041","0.0-16.0-0.63","600e0dadada7da69afc5b3de","650c16f0f2faf8d7a0d14c09","651c0aadc6eaf8f5c63ff23d","null","null","<p style=""font-size: 60px; font-family: BACS"">RCcEcMRl</p>","","","","","","","","",""
"html-keyboard-response","396","443054","0.0-16.0-0.64","600e0dadada7da69afc5b3de","650c16f0f2faf8d7a0d14c09","651c0aadc6eaf8f5c63ff23d","null","null","<p style=""font-size: 60px; font-family: BACS"">RCcEcMRl</p>","","","","","","","","",""
"html-keyboard-response","397","444067","0.0-16.0-0.65","600e0dadada7da69afc5b3de","650c16f0f2faf8d7a0d14c09","651c0aadc6eaf8f5c63ff23d","null","null","<p style=""font-size: 60px; font-family: BACS"">RCcEcMRl</p>","","","","","","","","",""
"html-keyboard-response","398","445076","0.0-16.0-0.66","600e0dadada7da69afc5b3de","650c16f0f2faf8d7a0d14c09","651c0aadc6eaf8f5c63ff23d","null","null","<p style=""font-size: 60px; font-family: BACS"">RCcEcMRl</p>","","","","","","","","",""
