"trial_type","trial_index","time_elapsed","internal_node_id","subject_id","study_id","session_id","rt","response","stimulus","success","item","task","correct_response","testing_condition","correct","target","confound","name","view_history"
"pavlovia","0","750","0.0-0.0","6140f1c4ead758f1b72bbe2f","650c16f0f2faf8d7a0d14c09","651c1d22674d4a07e87643fa","","","","","","","","","","","","",""
"survey-html-form","1","14891","0.0-1.0","6140f1c4ead758f1b72bbe2f","650c16f0f2faf8d7a0d14c09","651c1d22674d4a07e87643fa","14139","{""ID"":""6140f1c4ead758f1b72bbe2f""}","","","","","","","","","","",""
"html-keyboard-response","2","19303","0.0-2.0","6140f1c4ead758f1b72bbe2f","650c16f0f2faf8d7a0d14c09","651c1d22674d4a07e87643fa","4411"," ","<p style=""font-size: 15px;"">Before beginning, we ask that you read the consent information and confirm your agreement to participate in the experiment.</p>
      <p style=""font-size: 15px;""> We ask that you remember that this is a research project and that your participation is entirely voluntary. You can stop your participation at any time, without needing to provide any explanation. The study we're asking you to participate in aims at examining how readers process written words. You will be engaged in a session of apprximately 20 minutes, followed by a brief questionnaire. You will have the opportunity to take a few breaks during the experiment. You will be paid £4 for your participation, corresponding to a rate of £8/hour. While this experiment looks at cognitive faculties, this experiment doesn't constitute clinical proof of eventual pathologies.</p>
      <p style=""font-size: 15px;"">All of the information collected thanks to yours and others' participation will be held in a secure password-protected server, and will not be shared with anyone not authorised to view it. Your personal information will be kept with an arbitrary participant ID. Thanks to this data anonymity process, any researcher analysing the data won't be able to track the information back to a specific participant. Therefore, this process will make identifying you impossibile, even when results from the study will be published in scientific reviews, presented at congresses, or at any other public forum. More generally, the collected data will be treated in accordance with the laws on privacy and conformity to the Legislative Degree n. 196 ""Code regarding the protection of personal data"" of the 30th of June 2003 and to the European Regulation 2016/670 (General Data Protection Regulation - GDPR). The Data Protection Officer is Avv. Valentina Carollo, who can be contacted at the following email addresses: <a href=""mailto:dpo@sissa.it"">dpo@sissa.it</a> or <a href=""mailto:rpd@sissa.it"">rpd@sissa.it</a> - PEC: <a href=""mailto:protocollo@pec.sissa.it"">protocollo@pec.sissa.it</a>.</p>
      <p style=""font-size: 15px;""> Before expressing your consent to participate, we would like to remind you again that in case you need explanations on any aspect of the experimental procedure, the researcher is at your disposition (<a href=""mailto:aliebelt@sissa.it"">aliebelt@sissa.it</a>, <a href=""mailto:davide.crepaldi@sissa.it"">davide.crepaldi@sissa.it</a>).</p>
      <p style=""font-size: 15px;"">If you would like to download the informed consent form, you can do so here: <a href=""BASL-Informed_Consent.pdf"" download>informed consent form</a>.</p>
      <p style=""font-size: 15px;"">We ask that you press the spacebar to proceed to the consent section.</p>","","","","","","","","","",""
"survey-html-form","3","40880","0.0-3.0","6140f1c4ead758f1b72bbe2f","650c16f0f2faf8d7a0d14c09","651c1d22674d4a07e87643fa","21576","{""consent1"":""YES"",""consent2"":""YES"",""consent3"":""YES"",""consent4"":""YES"",""consent5"":""YES"",""consent6"":""YES""}","","","","","","","","","","",""
"fullscreen","4","47918","0.0-4.0","6140f1c4ead758f1b72bbe2f","650c16f0f2faf8d7a0d14c09","651c1d22674d4a07e87643fa","","","","true","","","","","","","","",""
"html-keyboard-response","5","77251","0.0-5.0","6140f1c4ead758f1b72bbe2f","650c16f0f2faf8d7a0d14c09","651c1d22674d4a07e87643fa","29331"," ","<p>Welcome, and thank you very much for your time!</p>
      <p>In this experiment, you'll be a language expert who's been asked to take a look at words that Earth has received in its first communication with aliens. Your task, in this first part of the experiment, is to pay close attention to the words you'll be shown; later, world leaders will ask you questions on what you saw. The words will be shown to you quite quickly; it seems that the aliens were in a hurry :-)</p>
      <p>Press the spacebar to continue.<p>","","","","","","","","","",""
"html-keyboard-response","6","77302","0.0-6.0","6140f1c4ead758f1b72bbe2f","650c16f0f2faf8d7a0d14c09","651c1d22674d4a07e87643fa","null","null","<p style=""font-size: 120px; font-family: BACS""> </p>","","","","","","","","","",""
"html-keyboard-response","7","82500","0.0-7.0","6140f1c4ead758f1b72bbe2f","650c16f0f2faf8d7a0d14c09","651c1d22674d4a07e87643fa","5197"," ","<p>Here is an example of the words you'll see:</p>
      <img src='esempio.png' height='400px'>
      <p>When you're ready to begin, press the spacebar.</p></div>","","","","","","","","","",""
"html-keyboard-response","8","83513","0.0-8.0-0.0","6140f1c4ead758f1b72bbe2f","650c16f0f2faf8d7a0d14c09","651c1d22674d4a07e87643fa","null","null","<p style=""font-size: 60px; font-family: BACS"">kRCkOEPBT</p>","","","","","","","","","",""
"html-keyboard-response","9","84516","0.0-8.0-0.1","6140f1c4ead758f1b72bbe2f","650c16f0f2faf8d7a0d14c09","651c1d22674d4a07e87643fa","null","null","<p style=""font-size: 60px; font-family: BACS"">bdUNuJUG</p>","","","","","","","","","",""
"html-keyboard-response","10","85524","0.0-8.0-0.2","6140f1c4ead758f1b72bbe2f","650c16f0f2faf8d7a0d14c09","651c1d22674d4a07e87643fa","null","null","<p style=""font-size: 60px; font-family: BACS"">thbOMkDOm</p>","","","","","","","","","",""
"html-keyboard-response","11","86532","0.0-8.0-0.3","6140f1c4ead758f1b72bbe2f","650c16f0f2faf8d7a0d14c09","651c1d22674d4a07e87643fa","null","null","<p style=""font-size: 60px; font-family: BACS"">YOZNJUG</p>","","","","","","","","","",""
"html-keyboard-response","12","87547","0.0-8.0-0.4","6140f1c4ead758f1b72bbe2f","650c16f0f2faf8d7a0d14c09","651c1d22674d4a07e87643fa","null","null","<p style=""font-size: 60px; font-family: BACS"">GJZmcUN</p>","","","","","","","","","",""
"html-keyboard-response","13","88565","0.0-8.0-0.5","6140f1c4ead758f1b72bbe2f","650c16f0f2faf8d7a0d14c09","651c1d22674d4a07e87643fa","null","null","<p style=""font-size: 60px; font-family: BACS"">JAaGJUG</p>","","","","","","","","","",""
"html-keyboard-response","14","89581","0.0-8.0-0.6","6140f1c4ead758f1b72bbe2f","650c16f0f2faf8d7a0d14c09","651c1d22674d4a07e87643fa","null","null","<p style=""font-size: 60px; font-family: BACS"">ukcYcYUv</p>","","","","","","","","","",""
"html-keyboard-response","15","90596","0.0-8.0-0.7","6140f1c4ead758f1b72bbe2f","650c16f0f2faf8d7a0d14c09","651c1d22674d4a07e87643fa","null","null","<p style=""font-size: 60px; font-family: BACS"">thbOMEPBT</p>","","","","","","","","","",""
"html-keyboard-response","16","91599","0.0-8.0-0.8","6140f1c4ead758f1b72bbe2f","650c16f0f2faf8d7a0d14c09","651c1d22674d4a07e87643fa","null","null","<p style=""font-size: 60px; font-family: BACS"">dKRDEAO</p>","","","","","","","","","",""
"html-keyboard-response","17","92610","0.0-8.0-0.9","6140f1c4ead758f1b72bbe2f","650c16f0f2faf8d7a0d14c09","651c1d22674d4a07e87643fa","null","null","<p style=""font-size: 60px; font-family: BACS"">OmtlDTRK</p>","","","","","","","","","",""
"html-keyboard-response","18","93614","0.0-8.0-0.10","6140f1c4ead758f1b72bbe2f","650c16f0f2faf8d7a0d14c09","651c1d22674d4a07e87643fa","null","null","<p style=""font-size: 60px; font-family: BACS"">dKRDdRA</p>","","","","","","","","","",""
"html-keyboard-response","19","94616","0.0-8.0-0.11","6140f1c4ead758f1b72bbe2f","650c16f0f2faf8d7a0d14c09","651c1d22674d4a07e87643fa","null","null","<p style=""font-size: 60px; font-family: BACS"">kRCkOkDOm</p>","","","","","","","","","",""
"html-keyboard-response","20","95630","0.0-8.0-0.12","6140f1c4ead758f1b72bbe2f","650c16f0f2faf8d7a0d14c09","651c1d22674d4a07e87643fa","null","null","<p style=""font-size: 60px; font-family: BACS"">ckduAlGc</p>","","","","","","","","","",""
"html-keyboard-response","21","96632","0.0-8.0-0.13","6140f1c4ead758f1b72bbe2f","650c16f0f2faf8d7a0d14c09","651c1d22674d4a07e87643fa","null","null","<p style=""font-size: 60px; font-family: BACS"">BlmclkDOm</p>","","","","","","","","","",""
"html-keyboard-response","22","97646","0.0-8.0-0.14","6140f1c4ead758f1b72bbe2f","650c16f0f2faf8d7a0d14c09","651c1d22674d4a07e87643fa","null","null","<p style=""font-size: 60px; font-family: BACS"">COTKdRA</p>","","","","","","","","","",""
"html-keyboard-response","23","98649","0.0-8.0-0.15","6140f1c4ead758f1b72bbe2f","650c16f0f2faf8d7a0d14c09","651c1d22674d4a07e87643fa","null","null","<p style=""font-size: 60px; font-family: BACS"">QOLmurULv</p>","","","","","","","","","",""
"html-keyboard-response","24","99657","0.0-8.0-0.16","6140f1c4ead758f1b72bbe2f","650c16f0f2faf8d7a0d14c09","651c1d22674d4a07e87643fa","null","null","<p style=""font-size: 60px; font-family: BACS"">ukcYcUN</p>","","","","","","","","","",""
"html-keyboard-response","25","100663","0.0-8.0-0.17","6140f1c4ead758f1b72bbe2f","650c16f0f2faf8d7a0d14c09","651c1d22674d4a07e87643fa","null","null","<p style=""font-size: 60px; font-family: BACS"">bdUNucYUv</p>","","","","","","","","","",""
"html-keyboard-response","26","101679","0.0-8.0-0.18","6140f1c4ead758f1b72bbe2f","650c16f0f2faf8d7a0d14c09","651c1d22674d4a07e87643fa","null","null","<p style=""font-size: 60px; font-family: BACS"">BlmclTRK</p>","","","","","","","","","",""
"html-keyboard-response","27","102681","0.0-8.0-0.19","6140f1c4ead758f1b72bbe2f","650c16f0f2faf8d7a0d14c09","651c1d22674d4a07e87643fa","null","null","<p style=""font-size: 60px; font-family: BACS"">EltMBdRA</p>","","","","","","","","","",""
"html-keyboard-response","28","103697","0.0-8.0-0.20","6140f1c4ead758f1b72bbe2f","650c16f0f2faf8d7a0d14c09","651c1d22674d4a07e87643fa","null","null","<p style=""font-size: 60px; font-family: BACS"">BlmclEPBT</p>","","","","","","","","","",""
"html-keyboard-response","29","104713","0.0-8.0-0.21","6140f1c4ead758f1b72bbe2f","650c16f0f2faf8d7a0d14c09","651c1d22674d4a07e87643fa","null","null","<p style=""font-size: 60px; font-family: BACS"">COTKTRK</p>","","","","","","","","","",""
"html-keyboard-response","30","105716","0.0-8.0-0.22","6140f1c4ead758f1b72bbe2f","650c16f0f2faf8d7a0d14c09","651c1d22674d4a07e87643fa","null","null","<p style=""font-size: 60px; font-family: BACS"">GJZmrULv</p>","","","","","","","","","",""
"html-keyboard-response","31","106722","0.0-8.0-0.23","6140f1c4ead758f1b72bbe2f","650c16f0f2faf8d7a0d14c09","651c1d22674d4a07e87643fa","null","null","<p style=""font-size: 60px; font-family: BACS"">rvUblGc</p>","","","","","","","","","",""
"html-keyboard-response","32","107730","0.0-8.0-0.24","6140f1c4ead758f1b72bbe2f","650c16f0f2faf8d7a0d14c09","651c1d22674d4a07e87643fa","null","null","<p style=""font-size: 60px; font-family: BACS"">lmbYrULv</p>","","","","","","","","","",""
"html-keyboard-response","33","108734","0.0-8.0-0.25","6140f1c4ead758f1b72bbe2f","650c16f0f2faf8d7a0d14c09","651c1d22674d4a07e87643fa","null","null","<p style=""font-size: 60px; font-family: BACS"">YOZNlGc</p>","","","","","","","","","",""
"html-keyboard-response","34","109745","0.0-8.0-0.26","6140f1c4ead758f1b72bbe2f","650c16f0f2faf8d7a0d14c09","651c1d22674d4a07e87643fa","null","null","<p style=""font-size: 60px; font-family: BACS"">lmbYJUG</p>","","","","","","","","","",""
"html-keyboard-response","35","110761","0.0-8.0-0.27","6140f1c4ead758f1b72bbe2f","650c16f0f2faf8d7a0d14c09","651c1d22674d4a07e87643fa","null","null","<p style=""font-size: 60px; font-family: BACS"">RkmdCEAO</p>","","","","","","","","","",""
"html-keyboard-response","36","111763","0.0-8.0-0.28","6140f1c4ead758f1b72bbe2f","650c16f0f2faf8d7a0d14c09","651c1d22674d4a07e87643fa","null","null","<p style=""font-size: 60px; font-family: BACS"">lmbYlGc</p>","","","","","","","","","",""
"html-keyboard-response","37","112764","0.0-8.0-0.29","6140f1c4ead758f1b72bbe2f","650c16f0f2faf8d7a0d14c09","651c1d22674d4a07e87643fa","null","null","<p style=""font-size: 60px; font-family: BACS"">JAaGcYUv</p>","","","","","","","","","",""
"html-keyboard-response","38","113775","0.0-8.0-0.30","6140f1c4ead758f1b72bbe2f","650c16f0f2faf8d7a0d14c09","651c1d22674d4a07e87643fa","null","null","<p style=""font-size: 60px; font-family: BACS"">kRCkOTRK</p>","","","","","","","","","",""
"html-keyboard-response","39","114780","0.0-8.0-0.31","6140f1c4ead758f1b72bbe2f","650c16f0f2faf8d7a0d14c09","651c1d22674d4a07e87643fa","null","null","<p style=""font-size: 60px; font-family: BACS"">QOLmucUN</p>","","","","","","","","","",""
"html-keyboard-response","40","115795","0.0-8.0-0.32","6140f1c4ead758f1b72bbe2f","650c16f0f2faf8d7a0d14c09","651c1d22674d4a07e87643fa","null","null","<p style=""font-size: 60px; font-family: BACS"">EltMBEPBT</p>","","","","","","","","","",""
"html-keyboard-response","41","116797","0.0-8.0-0.33","6140f1c4ead758f1b72bbe2f","650c16f0f2faf8d7a0d14c09","651c1d22674d4a07e87643fa","null","null","<p style=""font-size: 60px; font-family: BACS"">thbOMEAO</p>","","","","","","","","","",""
"html-keyboard-response","42","117811","0.0-8.0-0.34","6140f1c4ead758f1b72bbe2f","650c16f0f2faf8d7a0d14c09","651c1d22674d4a07e87643fa","null","null","<p style=""font-size: 60px; font-family: BACS"">COTKkDOm</p>","","","","","","","","","",""
"html-keyboard-response","43","118827","0.0-8.0-0.35","6140f1c4ead758f1b72bbe2f","650c16f0f2faf8d7a0d14c09","651c1d22674d4a07e87643fa","null","null","<p style=""font-size: 60px; font-family: BACS"">OmtlDEPBT</p>","","","","","","","","","",""
"html-keyboard-response","44","119829","0.0-8.0-0.36","6140f1c4ead758f1b72bbe2f","650c16f0f2faf8d7a0d14c09","651c1d22674d4a07e87643fa","null","null","<p style=""font-size: 60px; font-family: BACS"">ukcYlGc</p>","","","","","","","","","",""
"html-keyboard-response","45","120831","0.0-8.0-0.37","6140f1c4ead758f1b72bbe2f","650c16f0f2faf8d7a0d14c09","651c1d22674d4a07e87643fa","null","null","<p style=""font-size: 60px; font-family: BACS"">rvUbcYUv</p>","","","","","","","","","",""
"html-keyboard-response","46","121847","0.0-8.0-0.38","6140f1c4ead758f1b72bbe2f","650c16f0f2faf8d7a0d14c09","651c1d22674d4a07e87643fa","null","null","<p style=""font-size: 60px; font-family: BACS"">YOZNrULv</p>","","","","","","","","","",""
"html-keyboard-response","47","122862","0.0-8.0-0.39","6140f1c4ead758f1b72bbe2f","650c16f0f2faf8d7a0d14c09","651c1d22674d4a07e87643fa","null","null","<p style=""font-size: 60px; font-family: BACS"">QOLmuJUG</p>","","","","","","","","","",""
"html-keyboard-response","48","123865","0.0-8.0-0.40","6140f1c4ead758f1b72bbe2f","650c16f0f2faf8d7a0d14c09","651c1d22674d4a07e87643fa","null","null","<p style=""font-size: 60px; font-family: BACS"">ldAacYUv</p>","","","","","","","","","",""
"html-keyboard-response","49","124878","0.0-8.0-0.41","6140f1c4ead758f1b72bbe2f","650c16f0f2faf8d7a0d14c09","651c1d22674d4a07e87643fa","null","null","<p style=""font-size: 60px; font-family: BACS"">EltMBTRK</p>","","","","","","","","","",""
"html-keyboard-response","50","125880","0.0-8.0-0.42","6140f1c4ead758f1b72bbe2f","650c16f0f2faf8d7a0d14c09","651c1d22674d4a07e87643fa","null","null","<p style=""font-size: 60px; font-family: BACS"">kRCkOEAO</p>","","","","","","","","","",""
"html-keyboard-response","51","126894","0.0-8.0-0.43","6140f1c4ead758f1b72bbe2f","650c16f0f2faf8d7a0d14c09","651c1d22674d4a07e87643fa","null","null","<p style=""font-size: 60px; font-family: BACS"">RkmdCdRA</p>","","","","","","","","","",""
"html-keyboard-response","52","127910","0.0-8.0-0.44","6140f1c4ead758f1b72bbe2f","650c16f0f2faf8d7a0d14c09","651c1d22674d4a07e87643fa","null","null","<p style=""font-size: 60px; font-family: BACS"">PctRCTRK</p>","","","","","","","","","",""
"html-keyboard-response","53","128912","0.0-8.0-0.45","6140f1c4ead758f1b72bbe2f","650c16f0f2faf8d7a0d14c09","651c1d22674d4a07e87643fa","null","null","<p style=""font-size: 60px; font-family: BACS"">OmtlDdRA</p>","","","","","","","","","",""
"html-keyboard-response","54","129929","0.0-8.0-0.46","6140f1c4ead758f1b72bbe2f","650c16f0f2faf8d7a0d14c09","651c1d22674d4a07e87643fa","null","null","<p style=""font-size: 60px; font-family: BACS"">ckduAJUG</p>","","","","","","","","","",""
"html-keyboard-response","55","130945","0.0-8.0-0.47","6140f1c4ead758f1b72bbe2f","650c16f0f2faf8d7a0d14c09","651c1d22674d4a07e87643fa","null","null","<p style=""font-size: 60px; font-family: BACS"">COTKEAO</p>","","","","","","","","","",""
"html-keyboard-response","56","131961","0.0-8.0-0.48","6140f1c4ead758f1b72bbe2f","650c16f0f2faf8d7a0d14c09","651c1d22674d4a07e87643fa","null","null","<p style=""font-size: 60px; font-family: BACS"">ckduAcUN</p>","","","","","","","","","",""
"html-keyboard-response","57","132963","0.0-8.0-0.49","6140f1c4ead758f1b72bbe2f","650c16f0f2faf8d7a0d14c09","651c1d22674d4a07e87643fa","null","null","<p style=""font-size: 60px; font-family: BACS"">BlmcldRA</p>","","","","","","","","","",""
"html-keyboard-response","58","133976","0.0-8.0-0.50","6140f1c4ead758f1b72bbe2f","650c16f0f2faf8d7a0d14c09","651c1d22674d4a07e87643fa","null","null","<p style=""font-size: 60px; font-family: BACS"">thbOMTRK</p>","","","","","","","","","",""
"html-keyboard-response","59","134980","0.0-8.0-0.51","6140f1c4ead758f1b72bbe2f","650c16f0f2faf8d7a0d14c09","651c1d22674d4a07e87643fa","null","null","<p style=""font-size: 60px; font-family: BACS"">YOZNcUN</p>","","","","","","","","","",""
"html-keyboard-response","60","135981","0.0-8.0-0.52","6140f1c4ead758f1b72bbe2f","650c16f0f2faf8d7a0d14c09","651c1d22674d4a07e87643fa","null","null","<p style=""font-size: 60px; font-family: BACS"">hTtBbEPBT</p>","","","","","","","","","",""
"html-keyboard-response","61","136995","0.0-8.0-0.53","6140f1c4ead758f1b72bbe2f","650c16f0f2faf8d7a0d14c09","651c1d22674d4a07e87643fa","null","null","<p style=""font-size: 60px; font-family: BACS"">PctRCEAO</p>","","","","","","","","","",""
"html-keyboard-response","62","137997","0.0-8.0-0.54","6140f1c4ead758f1b72bbe2f","650c16f0f2faf8d7a0d14c09","651c1d22674d4a07e87643fa","null","null","<p style=""font-size: 60px; font-family: BACS"">QOLmucYUv</p>","","","","","","","","","",""
"html-keyboard-response","63","139011","0.0-8.0-0.55","6140f1c4ead758f1b72bbe2f","650c16f0f2faf8d7a0d14c09","651c1d22674d4a07e87643fa","null","null","<p style=""font-size: 60px; font-family: BACS"">ckduArULv</p>","","","","","","","","","",""
"html-keyboard-response","64","140026","0.0-8.0-0.56","6140f1c4ead758f1b72bbe2f","650c16f0f2faf8d7a0d14c09","651c1d22674d4a07e87643fa","null","null","<p style=""font-size: 60px; font-family: BACS"">bdUNulGc</p>","","","","","","","","","",""
"html-keyboard-response","65","141029","0.0-8.0-0.57","6140f1c4ead758f1b72bbe2f","650c16f0f2faf8d7a0d14c09","651c1d22674d4a07e87643fa","null","null","<p style=""font-size: 60px; font-family: BACS"">rvUbcUN</p>","","","","","","","","","",""
"html-keyboard-response","66","142031","0.0-8.0-0.58","6140f1c4ead758f1b72bbe2f","650c16f0f2faf8d7a0d14c09","651c1d22674d4a07e87643fa","null","null","<p style=""font-size: 60px; font-family: BACS"">EltMBkDOm</p>","","","","","","","","","",""
"html-keyboard-response","67","143032","0.0-8.0-0.59","6140f1c4ead758f1b72bbe2f","650c16f0f2faf8d7a0d14c09","651c1d22674d4a07e87643fa","null","null","<p style=""font-size: 60px; font-family: BACS"">ldAaJUG</p>","","","","","","","","","",""
"html-keyboard-response","68","144046","0.0-8.0-0.60","6140f1c4ead758f1b72bbe2f","650c16f0f2faf8d7a0d14c09","651c1d22674d4a07e87643fa","null","null","<p style=""font-size: 60px; font-family: BACS"">hTtBbdRA</p>","","","","","","","","","",""
"html-keyboard-response","69","145047","0.0-8.0-0.61","6140f1c4ead758f1b72bbe2f","650c16f0f2faf8d7a0d14c09","651c1d22674d4a07e87643fa","null","null","<p style=""font-size: 60px; font-family: BACS"">RkmdCkDOm</p>","","","","","","","","","",""
"html-keyboard-response","70","146062","0.0-8.0-0.62","6140f1c4ead758f1b72bbe2f","650c16f0f2faf8d7a0d14c09","651c1d22674d4a07e87643fa","null","null","<p style=""font-size: 60px; font-family: BACS"">ldAalGc</p>","","","","","","","","","",""
"html-keyboard-response","71","147063","0.0-8.0-0.63","6140f1c4ead758f1b72bbe2f","650c16f0f2faf8d7a0d14c09","651c1d22674d4a07e87643fa","null","null","<p style=""font-size: 60px; font-family: BACS"">GJZmcYUv</p>","","","","","","","","","",""
"html-keyboard-response","72","148078","0.0-8.0-0.64","6140f1c4ead758f1b72bbe2f","650c16f0f2faf8d7a0d14c09","651c1d22674d4a07e87643fa","null","null","<p style=""font-size: 60px; font-family: BACS"">RkmdCEPBT</p>","","","","","","","","","",""
"html-keyboard-response","73","149093","0.0-8.0-0.65","6140f1c4ead758f1b72bbe2f","650c16f0f2faf8d7a0d14c09","651c1d22674d4a07e87643fa","null","null","<p style=""font-size: 60px; font-family: BACS"">PctRCdRA</p>","","","","","","","","","",""
"html-keyboard-response","74","150094","0.0-8.0-0.66","6140f1c4ead758f1b72bbe2f","650c16f0f2faf8d7a0d14c09","651c1d22674d4a07e87643fa","null","null","<p style=""font-size: 60px; font-family: BACS"">ldAarULv</p>","","","","","","","","","",""
"html-keyboard-response","75","151097","0.0-8.0-0.67","6140f1c4ead758f1b72bbe2f","650c16f0f2faf8d7a0d14c09","651c1d22674d4a07e87643fa","null","null","<p style=""font-size: 60px; font-family: BACS"">hTtBbEAO</p>","","","","","","","","","",""
"html-keyboard-response","76","152099","0.0-8.0-0.68","6140f1c4ead758f1b72bbe2f","650c16f0f2faf8d7a0d14c09","651c1d22674d4a07e87643fa","null","null","<p style=""font-size: 60px; font-family: BACS"">lmbYcYUv</p>","","","","","","","","","",""
"html-keyboard-response","77","153113","0.0-8.0-0.69","6140f1c4ead758f1b72bbe2f","650c16f0f2faf8d7a0d14c09","651c1d22674d4a07e87643fa","null","null","<p style=""font-size: 60px; font-family: BACS"">dKRDkDOm</p>","","","","","","","","","",""
"html-keyboard-response","78","154114","0.0-8.0-0.70","6140f1c4ead758f1b72bbe2f","650c16f0f2faf8d7a0d14c09","651c1d22674d4a07e87643fa","null","null","<p style=""font-size: 60px; font-family: BACS"">JAaGcUN</p>","","","","","","","","","",""
"html-keyboard-response","79","155129","0.0-8.0-0.71","6140f1c4ead758f1b72bbe2f","650c16f0f2faf8d7a0d14c09","651c1d22674d4a07e87643fa","null","null","<p style=""font-size: 60px; font-family: BACS"">ukcYJUG</p>","","","","","","","","","",""
"html-keyboard-response","80","156131","0.0-8.0-0.72","6140f1c4ead758f1b72bbe2f","650c16f0f2faf8d7a0d14c09","651c1d22674d4a07e87643fa","null","null","<p style=""font-size: 60px; font-family: BACS"">GJZmlGc</p>","","","","","","","","","",""
"html-keyboard-response","81","157144","0.0-8.0-0.73","6140f1c4ead758f1b72bbe2f","650c16f0f2faf8d7a0d14c09","651c1d22674d4a07e87643fa","null","null","<p style=""font-size: 60px; font-family: BACS"">OmtlDEAO</p>","","","","","","","","","",""
"html-keyboard-response","82","158147","0.0-8.0-0.74","6140f1c4ead758f1b72bbe2f","650c16f0f2faf8d7a0d14c09","651c1d22674d4a07e87643fa","null","null","<p style=""font-size: 60px; font-family: BACS"">PctRCkDOm</p>","","","","","","","","","",""
"html-keyboard-response","83","159149","0.0-8.0-0.75","6140f1c4ead758f1b72bbe2f","650c16f0f2faf8d7a0d14c09","651c1d22674d4a07e87643fa","null","null","<p style=""font-size: 60px; font-family: BACS"">rvUbrULv</p>","","","","","","","","","",""
"html-keyboard-response","84","160163","0.0-8.0-0.76","6140f1c4ead758f1b72bbe2f","650c16f0f2faf8d7a0d14c09","651c1d22674d4a07e87643fa","null","null","<p style=""font-size: 60px; font-family: BACS"">bdUNucUN</p>","","","","","","","","","",""
"html-keyboard-response","85","161166","0.0-8.0-0.77","6140f1c4ead758f1b72bbe2f","650c16f0f2faf8d7a0d14c09","651c1d22674d4a07e87643fa","null","null","<p style=""font-size: 60px; font-family: BACS"">JAaGrULv</p>","","","","","","","","","",""
"html-keyboard-response","86","162179","0.0-8.0-0.78","6140f1c4ead758f1b72bbe2f","650c16f0f2faf8d7a0d14c09","651c1d22674d4a07e87643fa","null","null","<p style=""font-size: 60px; font-family: BACS"">dKRDEPBT</p>","","","","","","","","","",""
"html-keyboard-response","87","163180","0.0-8.0-0.79","6140f1c4ead758f1b72bbe2f","650c16f0f2faf8d7a0d14c09","651c1d22674d4a07e87643fa","null","null","<p style=""font-size: 60px; font-family: BACS"">hTtBbTRK</p>","","","","","","","","","",""
"html-keyboard-response","88","190189","0.0-9.0","6140f1c4ead758f1b72bbe2f","650c16f0f2faf8d7a0d14c09","651c1d22674d4a07e87643fa","27009"," ","<p>Great, you've seen the first block of words. You may now take a short break.</p>
      <p>Press the spacebar when you're ready to continue.</p>","","","","","","","","","",""
"html-keyboard-response","89","191195","0.0-10.0-0.0","6140f1c4ead758f1b72bbe2f","650c16f0f2faf8d7a0d14c09","651c1d22674d4a07e87643fa","null","null","<p style=""font-size: 60px; font-family: BACS"">EltMBkDOm</p>","","","","","","","","","",""
"html-keyboard-response","90","192210","0.0-10.0-0.1","6140f1c4ead758f1b72bbe2f","650c16f0f2faf8d7a0d14c09","651c1d22674d4a07e87643fa","null","null","<p style=""font-size: 60px; font-family: BACS"">GJZmrULv</p>","","","","","","","","","",""
"html-keyboard-response","91","193212","0.0-10.0-0.2","6140f1c4ead758f1b72bbe2f","650c16f0f2faf8d7a0d14c09","651c1d22674d4a07e87643fa","null","null","<p style=""font-size: 60px; font-family: BACS"">ldAacYUv</p>","","","","","","","","","",""
"html-keyboard-response","92","194226","0.0-10.0-0.3","6140f1c4ead758f1b72bbe2f","650c16f0f2faf8d7a0d14c09","651c1d22674d4a07e87643fa","null","null","<p style=""font-size: 60px; font-family: BACS"">OmtlDEPBT</p>","","","","","","","","","",""
"html-keyboard-response","93","195228","0.0-10.0-0.4","6140f1c4ead758f1b72bbe2f","650c16f0f2faf8d7a0d14c09","651c1d22674d4a07e87643fa","null","null","<p style=""font-size: 60px; font-family: BACS"">QOLmuJUG</p>","","","","","","","","","",""
"html-keyboard-response","94","196243","0.0-10.0-0.5","6140f1c4ead758f1b72bbe2f","650c16f0f2faf8d7a0d14c09","651c1d22674d4a07e87643fa","null","null","<p style=""font-size: 60px; font-family: BACS"">dKRDEPBT</p>","","","","","","","","","",""
"html-keyboard-response","95","197260","0.0-10.0-0.6","6140f1c4ead758f1b72bbe2f","650c16f0f2faf8d7a0d14c09","651c1d22674d4a07e87643fa","null","null","<p style=""font-size: 60px; font-family: BACS"">BlmclTRK</p>","","","","","","","","","",""
"html-keyboard-response","96","198274","0.0-10.0-0.7","6140f1c4ead758f1b72bbe2f","650c16f0f2faf8d7a0d14c09","651c1d22674d4a07e87643fa","null","null","<p style=""font-size: 60px; font-family: BACS"">dKRDdRA</p>","","","","","","","","","",""
"html-keyboard-response","97","199288","0.0-10.0-0.8","6140f1c4ead758f1b72bbe2f","650c16f0f2faf8d7a0d14c09","651c1d22674d4a07e87643fa","null","null","<p style=""font-size: 60px; font-family: BACS"">ldAalGc</p>","","","","","","","","","",""
"html-keyboard-response","98","200293","0.0-10.0-0.9","6140f1c4ead758f1b72bbe2f","650c16f0f2faf8d7a0d14c09","651c1d22674d4a07e87643fa","null","null","<p style=""font-size: 60px; font-family: BACS"">PctRCTRK</p>","","","","","","","","","",""
"html-keyboard-response","99","201299","0.0-10.0-0.10","6140f1c4ead758f1b72bbe2f","650c16f0f2faf8d7a0d14c09","651c1d22674d4a07e87643fa","null","null","<p style=""font-size: 60px; font-family: BACS"">dKRDkDOm</p>","","","","","","","","","",""
"html-keyboard-response","100","202311","0.0-10.0-0.11","6140f1c4ead758f1b72bbe2f","650c16f0f2faf8d7a0d14c09","651c1d22674d4a07e87643fa","null","null","<p style=""font-size: 60px; font-family: BACS"">rvUbrULv</p>","","","","","","","","","",""
"html-keyboard-response","101","203325","0.0-10.0-0.12","6140f1c4ead758f1b72bbe2f","650c16f0f2faf8d7a0d14c09","651c1d22674d4a07e87643fa","null","null","<p style=""font-size: 60px; font-family: BACS"">OmtlDTRK</p>","","","","","","","","","",""
"html-keyboard-response","102","204328","0.0-10.0-0.13","6140f1c4ead758f1b72bbe2f","650c16f0f2faf8d7a0d14c09","651c1d22674d4a07e87643fa","null","null","<p style=""font-size: 60px; font-family: BACS"">YOZNrULv</p>","","","","","","","","","",""
"html-keyboard-response","103","205343","0.0-10.0-0.14","6140f1c4ead758f1b72bbe2f","650c16f0f2faf8d7a0d14c09","651c1d22674d4a07e87643fa","null","null","<p style=""font-size: 60px; font-family: BACS"">hTtBbEAO</p>","","","","","","","","","",""
"html-keyboard-response","104","206346","0.0-10.0-0.15","6140f1c4ead758f1b72bbe2f","650c16f0f2faf8d7a0d14c09","651c1d22674d4a07e87643fa","null","null","<p style=""font-size: 60px; font-family: BACS"">thbOMTRK</p>","","","","","","","","","",""
"html-keyboard-response","105","207362","0.0-10.0-0.16","6140f1c4ead758f1b72bbe2f","650c16f0f2faf8d7a0d14c09","651c1d22674d4a07e87643fa","null","null","<p style=""font-size: 60px; font-family: BACS"">ldAarULv</p>","","","","","","","","","",""
"html-keyboard-response","106","208375","0.0-10.0-0.17","6140f1c4ead758f1b72bbe2f","650c16f0f2faf8d7a0d14c09","651c1d22674d4a07e87643fa","null","null","<p style=""font-size: 60px; font-family: BACS"">rvUbcUN</p>","","","","","","","","","",""
"html-keyboard-response","107","209378","0.0-10.0-0.18","6140f1c4ead758f1b72bbe2f","650c16f0f2faf8d7a0d14c09","651c1d22674d4a07e87643fa","null","null","<p style=""font-size: 60px; font-family: BACS"">bdUNuJUG</p>","","","","","","","","","",""
"html-keyboard-response","108","210391","0.0-10.0-0.19","6140f1c4ead758f1b72bbe2f","650c16f0f2faf8d7a0d14c09","651c1d22674d4a07e87643fa","null","null","<p style=""font-size: 60px; font-family: BACS"">GJZmcYUv</p>","","","","","","","","","",""
"html-keyboard-response","109","211394","0.0-10.0-0.20","6140f1c4ead758f1b72bbe2f","650c16f0f2faf8d7a0d14c09","651c1d22674d4a07e87643fa","null","null","<p style=""font-size: 60px; font-family: BACS"">rvUblGc</p>","","","","","","","","","",""
"html-keyboard-response","110","212408","0.0-10.0-0.21","6140f1c4ead758f1b72bbe2f","650c16f0f2faf8d7a0d14c09","651c1d22674d4a07e87643fa","null","null","<p style=""font-size: 60px; font-family: BACS"">kRCkOEAO</p>","","","","","","","","","",""
"html-keyboard-response","111","213424","0.0-10.0-0.22","6140f1c4ead758f1b72bbe2f","650c16f0f2faf8d7a0d14c09","651c1d22674d4a07e87643fa","null","null","<p style=""font-size: 60px; font-family: BACS"">QOLmucYUv</p>","","","","","","","","","",""
"html-keyboard-response","112","214426","0.0-10.0-0.23","6140f1c4ead758f1b72bbe2f","650c16f0f2faf8d7a0d14c09","651c1d22674d4a07e87643fa","null","null","<p style=""font-size: 60px; font-family: BACS"">ukcYJUG</p>","","","","","","","","","",""
"html-keyboard-response","113","215442","0.0-10.0-0.24","6140f1c4ead758f1b72bbe2f","650c16f0f2faf8d7a0d14c09","651c1d22674d4a07e87643fa","null","null","<p style=""font-size: 60px; font-family: BACS"">ckduAlGc</p>","","","","","","","","","",""
"html-keyboard-response","114","216460","0.0-10.0-0.25","6140f1c4ead758f1b72bbe2f","650c16f0f2faf8d7a0d14c09","651c1d22674d4a07e87643fa","null","null","<p style=""font-size: 60px; font-family: BACS"">RkmdCkDOm</p>","","","","","","","","","",""
"html-keyboard-response","115","217474","0.0-10.0-0.26","6140f1c4ead758f1b72bbe2f","650c16f0f2faf8d7a0d14c09","651c1d22674d4a07e87643fa","null","null","<p style=""font-size: 60px; font-family: BACS"">YOZNJUG</p>","","","","","","","","","",""
"html-keyboard-response","116","218477","0.0-10.0-0.27","6140f1c4ead758f1b72bbe2f","650c16f0f2faf8d7a0d14c09","651c1d22674d4a07e87643fa","null","null","<p style=""font-size: 60px; font-family: BACS"">ukcYlGc</p>","","","","","","","","","",""
"html-keyboard-response","117","219481","0.0-10.0-0.28","6140f1c4ead758f1b72bbe2f","650c16f0f2faf8d7a0d14c09","651c1d22674d4a07e87643fa","null","null","<p style=""font-size: 60px; font-family: BACS"">YOZNcUN</p>","","","","","","","","","",""
"html-keyboard-response","118","220494","0.0-10.0-0.29","6140f1c4ead758f1b72bbe2f","650c16f0f2faf8d7a0d14c09","651c1d22674d4a07e87643fa","null","null","<p style=""font-size: 60px; font-family: BACS"">COTKEAO</p>","","","","","","","","","",""
"html-keyboard-response","119","221497","0.0-10.0-0.30","6140f1c4ead758f1b72bbe2f","650c16f0f2faf8d7a0d14c09","651c1d22674d4a07e87643fa","null","null","<p style=""font-size: 60px; font-family: BACS"">ckduArULv</p>","","","","","","","","","",""
"html-keyboard-response","120","222513","0.0-10.0-0.31","6140f1c4ead758f1b72bbe2f","650c16f0f2faf8d7a0d14c09","651c1d22674d4a07e87643fa","null","null","<p style=""font-size: 60px; font-family: BACS"">ukcYcUN</p>","","","","","","","","","",""
"html-keyboard-response","121","223527","0.0-10.0-0.32","6140f1c4ead758f1b72bbe2f","650c16f0f2faf8d7a0d14c09","651c1d22674d4a07e87643fa","null","null","<p style=""font-size: 60px; font-family: BACS"">COTKTRK</p>","","","","","","","","","",""
"html-keyboard-response","122","224541","0.0-10.0-0.33","6140f1c4ead758f1b72bbe2f","650c16f0f2faf8d7a0d14c09","651c1d22674d4a07e87643fa","null","null","<p style=""font-size: 60px; font-family: BACS"">thbOMkDOm</p>","","","","","","","","","",""
"html-keyboard-response","123","225543","0.0-10.0-0.34","6140f1c4ead758f1b72bbe2f","650c16f0f2faf8d7a0d14c09","651c1d22674d4a07e87643fa","null","null","<p style=""font-size: 60px; font-family: BACS"">OmtlDEAO</p>","","","","","","","","","",""
"html-keyboard-response","124","226545","0.0-10.0-0.35","6140f1c4ead758f1b72bbe2f","650c16f0f2faf8d7a0d14c09","651c1d22674d4a07e87643fa","null","null","<p style=""font-size: 60px; font-family: BACS"">lmbYJUG</p>","","","","","","","","","",""
"html-keyboard-response","125","227560","0.0-10.0-0.36","6140f1c4ead758f1b72bbe2f","650c16f0f2faf8d7a0d14c09","651c1d22674d4a07e87643fa","null","null","<p style=""font-size: 60px; font-family: BACS"">bdUNulGc</p>","","","","","","","","","",""
"html-keyboard-response","126","228575","0.0-10.0-0.37","6140f1c4ead758f1b72bbe2f","650c16f0f2faf8d7a0d14c09","651c1d22674d4a07e87643fa","null","null","<p style=""font-size: 60px; font-family: BACS"">lmbYrULv</p>","","","","","","","","","",""
"html-keyboard-response","127","229591","0.0-10.0-0.38","6140f1c4ead758f1b72bbe2f","650c16f0f2faf8d7a0d14c09","651c1d22674d4a07e87643fa","null","null","<p style=""font-size: 60px; font-family: BACS"">hTtBbTRK</p>","","","","","","","","","",""
"html-keyboard-response","128","230593","0.0-10.0-0.39","6140f1c4ead758f1b72bbe2f","650c16f0f2faf8d7a0d14c09","651c1d22674d4a07e87643fa","null","null","<p style=""font-size: 60px; font-family: BACS"">YOZNlGc</p>","","","","","","","","","",""
"html-keyboard-response","129","231596","0.0-10.0-0.40","6140f1c4ead758f1b72bbe2f","650c16f0f2faf8d7a0d14c09","651c1d22674d4a07e87643fa","null","null","<p style=""font-size: 60px; font-family: BACS"">PctRCdRA</p>","","","","","","","","","",""
"html-keyboard-response","130","232609","0.0-10.0-0.41","6140f1c4ead758f1b72bbe2f","650c16f0f2faf8d7a0d14c09","651c1d22674d4a07e87643fa","null","null","<p style=""font-size: 60px; font-family: BACS"">ckduAJUG</p>","","","","","","","","","",""
"html-keyboard-response","131","233615","0.0-10.0-0.42","6140f1c4ead758f1b72bbe2f","650c16f0f2faf8d7a0d14c09","651c1d22674d4a07e87643fa","null","null","<p style=""font-size: 60px; font-family: BACS"">EltMBdRA</p>","","","","","","","","","",""
"html-keyboard-response","132","234626","0.0-10.0-0.43","6140f1c4ead758f1b72bbe2f","650c16f0f2faf8d7a0d14c09","651c1d22674d4a07e87643fa","null","null","<p style=""font-size: 60px; font-family: BACS"">ldAaJUG</p>","","","","","","","","","",""
"html-keyboard-response","133","235639","0.0-10.0-0.44","6140f1c4ead758f1b72bbe2f","650c16f0f2faf8d7a0d14c09","651c1d22674d4a07e87643fa","null","null","<p style=""font-size: 60px; font-family: BACS"">lmbYcYUv</p>","","","","","","","","","",""
"html-keyboard-response","134","236642","0.0-10.0-0.45","6140f1c4ead758f1b72bbe2f","650c16f0f2faf8d7a0d14c09","651c1d22674d4a07e87643fa","null","null","<p style=""font-size: 60px; font-family: BACS"">EltMBEPBT</p>","","","","","","","","","",""
"html-keyboard-response","135","237658","0.0-10.0-0.46","6140f1c4ead758f1b72bbe2f","650c16f0f2faf8d7a0d14c09","651c1d22674d4a07e87643fa","null","null","<p style=""font-size: 60px; font-family: BACS"">QOLmucUN</p>","","","","","","","","","",""
"html-keyboard-response","136","238659","0.0-10.0-0.47","6140f1c4ead758f1b72bbe2f","650c16f0f2faf8d7a0d14c09","651c1d22674d4a07e87643fa","null","null","<p style=""font-size: 60px; font-family: BACS"">PctRCkDOm</p>","","","","","","","","","",""
"html-keyboard-response","137","239673","0.0-10.0-0.48","6140f1c4ead758f1b72bbe2f","650c16f0f2faf8d7a0d14c09","651c1d22674d4a07e87643fa","null","null","<p style=""font-size: 60px; font-family: BACS"">dKRDEAO</p>","","","","","","","","","",""
"html-keyboard-response","138","240674","0.0-10.0-0.49","6140f1c4ead758f1b72bbe2f","650c16f0f2faf8d7a0d14c09","651c1d22674d4a07e87643fa","null","null","<p style=""font-size: 60px; font-family: BACS"">hTtBbEPBT</p>","","","","","","","","","",""
"html-keyboard-response","139","241677","0.0-10.0-0.50","6140f1c4ead758f1b72bbe2f","650c16f0f2faf8d7a0d14c09","651c1d22674d4a07e87643fa","null","null","<p style=""font-size: 60px; font-family: BACS"">kRCkOkDOm</p>","","","","","","","","","",""
"html-keyboard-response","140","242678","0.0-10.0-0.51","6140f1c4ead758f1b72bbe2f","650c16f0f2faf8d7a0d14c09","651c1d22674d4a07e87643fa","null","null","<p style=""font-size: 60px; font-family: BACS"">GJZmlGc</p>","","","","","","","","","",""
"html-keyboard-response","141","243693","0.0-10.0-0.52","6140f1c4ead758f1b72bbe2f","650c16f0f2faf8d7a0d14c09","651c1d22674d4a07e87643fa","null","null","<p style=""font-size: 60px; font-family: BACS"">thbOMEAO</p>","","","","","","","","","",""
"html-keyboard-response","142","244695","0.0-10.0-0.53","6140f1c4ead758f1b72bbe2f","650c16f0f2faf8d7a0d14c09","651c1d22674d4a07e87643fa","null","null","<p style=""font-size: 60px; font-family: BACS"">QOLmurULv</p>","","","","","","","","","",""
"html-keyboard-response","143","245706","0.0-10.0-0.54","6140f1c4ead758f1b72bbe2f","650c16f0f2faf8d7a0d14c09","651c1d22674d4a07e87643fa","null","null","<p style=""font-size: 60px; font-family: BACS"">BlmcldRA</p>","","","","","","","","","",""
"html-keyboard-response","144","246711","0.0-10.0-0.55","6140f1c4ead758f1b72bbe2f","650c16f0f2faf8d7a0d14c09","651c1d22674d4a07e87643fa","null","null","<p style=""font-size: 60px; font-family: BACS"">lmbYlGc</p>","","","","","","","","","",""
"html-keyboard-response","145","247725","0.0-10.0-0.56","6140f1c4ead758f1b72bbe2f","650c16f0f2faf8d7a0d14c09","651c1d22674d4a07e87643fa","null","null","<p style=""font-size: 60px; font-family: BACS"">BlmclEPBT</p>","","","","","","","","","",""
"html-keyboard-response","146","248742","0.0-10.0-0.57","6140f1c4ead758f1b72bbe2f","650c16f0f2faf8d7a0d14c09","651c1d22674d4a07e87643fa","null","null","<p style=""font-size: 60px; font-family: BACS"">GJZmcUN</p>","","","","","","","","","",""
"html-keyboard-response","147","249757","0.0-10.0-0.58","6140f1c4ead758f1b72bbe2f","650c16f0f2faf8d7a0d14c09","651c1d22674d4a07e87643fa","null","null","<p style=""font-size: 60px; font-family: BACS"">RkmdCEPBT</p>","","","","","","","","","",""
"html-keyboard-response","148","250761","0.0-10.0-0.59","6140f1c4ead758f1b72bbe2f","650c16f0f2faf8d7a0d14c09","651c1d22674d4a07e87643fa","null","null","<p style=""font-size: 60px; font-family: BACS"">bdUNucUN</p>","","","","","","","","","",""
"html-keyboard-response","149","251776","0.0-10.0-0.60","6140f1c4ead758f1b72bbe2f","650c16f0f2faf8d7a0d14c09","651c1d22674d4a07e87643fa","null","null","<p style=""font-size: 60px; font-family: BACS"">kRCkOEPBT</p>","","","","","","","","","",""
"html-keyboard-response","150","252777","0.0-10.0-0.61","6140f1c4ead758f1b72bbe2f","650c16f0f2faf8d7a0d14c09","651c1d22674d4a07e87643fa","null","null","<p style=""font-size: 60px; font-family: BACS"">bdUNucYUv</p>","","","","","","","","","",""
"html-keyboard-response","151","253793","0.0-10.0-0.62","6140f1c4ead758f1b72bbe2f","650c16f0f2faf8d7a0d14c09","651c1d22674d4a07e87643fa","null","null","<p style=""font-size: 60px; font-family: BACS"">JAaGcUN</p>","","","","","","","","","",""
"html-keyboard-response","152","254808","0.0-10.0-0.63","6140f1c4ead758f1b72bbe2f","650c16f0f2faf8d7a0d14c09","651c1d22674d4a07e87643fa","null","null","<p style=""font-size: 60px; font-family: BACS"">RkmdCEAO</p>","","","","","","","","","",""
"html-keyboard-response","153","255810","0.0-10.0-0.64","6140f1c4ead758f1b72bbe2f","650c16f0f2faf8d7a0d14c09","651c1d22674d4a07e87643fa","null","null","<p style=""font-size: 60px; font-family: BACS"">hTtBbdRA</p>","","","","","","","","","",""
"html-keyboard-response","154","256826","0.0-10.0-0.65","6140f1c4ead758f1b72bbe2f","650c16f0f2faf8d7a0d14c09","651c1d22674d4a07e87643fa","null","null","<p style=""font-size: 60px; font-family: BACS"">EltMBTRK</p>","","","","","","","","","",""
"html-keyboard-response","155","257827","0.0-10.0-0.66","6140f1c4ead758f1b72bbe2f","650c16f0f2faf8d7a0d14c09","651c1d22674d4a07e87643fa","null","null","<p style=""font-size: 60px; font-family: BACS"">COTKdRA</p>","","","","","","","","","",""
"html-keyboard-response","156","258840","0.0-10.0-0.67","6140f1c4ead758f1b72bbe2f","650c16f0f2faf8d7a0d14c09","651c1d22674d4a07e87643fa","null","null","<p style=""font-size: 60px; font-family: BACS"">JAaGcYUv</p>","","","","","","","","","",""
"html-keyboard-response","157","259843","0.0-10.0-0.68","6140f1c4ead758f1b72bbe2f","650c16f0f2faf8d7a0d14c09","651c1d22674d4a07e87643fa","null","null","<p style=""font-size: 60px; font-family: BACS"">ckduAcUN</p>","","","","","","","","","",""
"html-keyboard-response","158","260860","0.0-10.0-0.69","6140f1c4ead758f1b72bbe2f","650c16f0f2faf8d7a0d14c09","651c1d22674d4a07e87643fa","null","null","<p style=""font-size: 60px; font-family: BACS"">rvUbcYUv</p>","","","","","","","","","",""
"html-keyboard-response","159","261874","0.0-10.0-0.70","6140f1c4ead758f1b72bbe2f","650c16f0f2faf8d7a0d14c09","651c1d22674d4a07e87643fa","null","null","<p style=""font-size: 60px; font-family: BACS"">JAaGJUG</p>","","","","","","","","","",""
"html-keyboard-response","160","262877","0.0-10.0-0.71","6140f1c4ead758f1b72bbe2f","650c16f0f2faf8d7a0d14c09","651c1d22674d4a07e87643fa","null","null","<p style=""font-size: 60px; font-family: BACS"">thbOMEPBT</p>","","","","","","","","","",""
"html-keyboard-response","161","263891","0.0-10.0-0.72","6140f1c4ead758f1b72bbe2f","650c16f0f2faf8d7a0d14c09","651c1d22674d4a07e87643fa","null","null","<p style=""font-size: 60px; font-family: BACS"">kRCkOTRK</p>","","","","","","","","","",""
"html-keyboard-response","162","264893","0.0-10.0-0.73","6140f1c4ead758f1b72bbe2f","650c16f0f2faf8d7a0d14c09","651c1d22674d4a07e87643fa","null","null","<p style=""font-size: 60px; font-family: BACS"">ukcYcYUv</p>","","","","","","","","","",""
"html-keyboard-response","163","265895","0.0-10.0-0.74","6140f1c4ead758f1b72bbe2f","650c16f0f2faf8d7a0d14c09","651c1d22674d4a07e87643fa","null","null","<p style=""font-size: 60px; font-family: BACS"">PctRCEAO</p>","","","","","","","","","",""
"html-keyboard-response","164","266910","0.0-10.0-0.75","6140f1c4ead758f1b72bbe2f","650c16f0f2faf8d7a0d14c09","651c1d22674d4a07e87643fa","null","null","<p style=""font-size: 60px; font-family: BACS"">RkmdCdRA</p>","","","","","","","","","",""
"html-keyboard-response","165","267924","0.0-10.0-0.76","6140f1c4ead758f1b72bbe2f","650c16f0f2faf8d7a0d14c09","651c1d22674d4a07e87643fa","null","null","<p style=""font-size: 60px; font-family: BACS"">BlmclkDOm</p>","","","","","","","","","",""
"html-keyboard-response","166","268926","0.0-10.0-0.77","6140f1c4ead758f1b72bbe2f","650c16f0f2faf8d7a0d14c09","651c1d22674d4a07e87643fa","null","null","<p style=""font-size: 60px; font-family: BACS"">JAaGrULv</p>","","","","","","","","","",""
"html-keyboard-response","167","269928","0.0-10.0-0.78","6140f1c4ead758f1b72bbe2f","650c16f0f2faf8d7a0d14c09","651c1d22674d4a07e87643fa","null","null","<p style=""font-size: 60px; font-family: BACS"">OmtlDdRA</p>","","","","","","","","","",""
"html-keyboard-response","168","270941","0.0-10.0-0.79","6140f1c4ead758f1b72bbe2f","650c16f0f2faf8d7a0d14c09","651c1d22674d4a07e87643fa","null","null","<p style=""font-size: 60px; font-family: BACS"">COTKkDOm</p>","","","","","","","","","",""
"html-keyboard-response","169","272446","0.0-11.0","6140f1c4ead758f1b72bbe2f","650c16f0f2faf8d7a0d14c09","651c1d22674d4a07e87643fa","1504"," ","<p>Great, you've seen the second block of words. You may now take a short break.</p>
      <p>Press the spacebar when you're ready to continue.</p>","","","","","","","","","",""
"html-keyboard-response","170","273458","0.0-12.0-0.0","6140f1c4ead758f1b72bbe2f","650c16f0f2faf8d7a0d14c09","651c1d22674d4a07e87643fa","null","null","<p style=""font-size: 60px; font-family: BACS"">YOZNrULv</p>","","","","","","","","","",""
"html-keyboard-response","171","274459","0.0-12.0-0.1","6140f1c4ead758f1b72bbe2f","650c16f0f2faf8d7a0d14c09","651c1d22674d4a07e87643fa","null","null","<p style=""font-size: 60px; font-family: BACS"">lmbYlGc</p>","","","","","","","","","",""
"html-keyboard-response","172","275476","0.0-12.0-0.2","6140f1c4ead758f1b72bbe2f","650c16f0f2faf8d7a0d14c09","651c1d22674d4a07e87643fa","null","null","<p style=""font-size: 60px; font-family: BACS"">rvUbcUN</p>","","","","","","","","","",""
"html-keyboard-response","173","276478","0.0-12.0-0.3","6140f1c4ead758f1b72bbe2f","650c16f0f2faf8d7a0d14c09","651c1d22674d4a07e87643fa","null","null","<p style=""font-size: 60px; font-family: BACS"">PctRCdRA</p>","","","","","","","","","",""
"html-keyboard-response","174","277491","0.0-12.0-0.4","6140f1c4ead758f1b72bbe2f","650c16f0f2faf8d7a0d14c09","651c1d22674d4a07e87643fa","null","null","<p style=""font-size: 60px; font-family: BACS"">ckduAlGc</p>","","","","","","","","","",""
"html-keyboard-response","175","278493","0.0-12.0-0.5","6140f1c4ead758f1b72bbe2f","650c16f0f2faf8d7a0d14c09","651c1d22674d4a07e87643fa","null","null","<p style=""font-size: 60px; font-family: BACS"">OmtlDEPBT</p>","","","","","","","","","",""
"html-keyboard-response","176","279507","0.0-12.0-0.6","6140f1c4ead758f1b72bbe2f","650c16f0f2faf8d7a0d14c09","651c1d22674d4a07e87643fa","null","null","<p style=""font-size: 60px; font-family: BACS"">JAaGrULv</p>","","","","","","","","","",""
"html-keyboard-response","177","280511","0.0-12.0-0.7","6140f1c4ead758f1b72bbe2f","650c16f0f2faf8d7a0d14c09","651c1d22674d4a07e87643fa","null","null","<p style=""font-size: 60px; font-family: BACS"">BlmcldRA</p>","","","","","","","","","",""
"html-keyboard-response","178","281528","0.0-12.0-0.8","6140f1c4ead758f1b72bbe2f","650c16f0f2faf8d7a0d14c09","651c1d22674d4a07e87643fa","null","null","<p style=""font-size: 60px; font-family: BACS"">QOLmuJUG</p>","","","","","","","","","",""
"html-keyboard-response","179","282542","0.0-12.0-0.9","6140f1c4ead758f1b72bbe2f","650c16f0f2faf8d7a0d14c09","651c1d22674d4a07e87643fa","null","null","<p style=""font-size: 60px; font-family: BACS"">OmtlDTRK</p>","","","","","","","","","",""
"html-keyboard-response","180","283545","0.0-12.0-0.10","6140f1c4ead758f1b72bbe2f","650c16f0f2faf8d7a0d14c09","651c1d22674d4a07e87643fa","null","null","<p style=""font-size: 60px; font-family: BACS"">thbOMkDOm</p>","","","","","","","","","",""
"html-keyboard-response","181","284558","0.0-12.0-0.11","6140f1c4ead758f1b72bbe2f","650c16f0f2faf8d7a0d14c09","651c1d22674d4a07e87643fa","null","null","<p style=""font-size: 60px; font-family: BACS"">RkmdCEPBT</p>","","","","","","","","","",""
"html-keyboard-response","182","285561","0.0-12.0-0.12","6140f1c4ead758f1b72bbe2f","650c16f0f2faf8d7a0d14c09","651c1d22674d4a07e87643fa","null","null","<p style=""font-size: 60px; font-family: BACS"">rvUblGc</p>","","","","","","","","","",""
"html-keyboard-response","183","286574","0.0-12.0-0.13","6140f1c4ead758f1b72bbe2f","650c16f0f2faf8d7a0d14c09","651c1d22674d4a07e87643fa","null","null","<p style=""font-size: 60px; font-family: BACS"">ldAacYUv</p>","","","","","","","","","",""
"html-keyboard-response","184","287577","0.0-12.0-0.14","6140f1c4ead758f1b72bbe2f","650c16f0f2faf8d7a0d14c09","651c1d22674d4a07e87643fa","null","null","<p style=""font-size: 60px; font-family: BACS"">ukcYJUG</p>","","","","","","","","","",""
"html-keyboard-response","185","288594","0.0-12.0-0.15","6140f1c4ead758f1b72bbe2f","650c16f0f2faf8d7a0d14c09","651c1d22674d4a07e87643fa","null","null","<p style=""font-size: 60px; font-family: BACS"">ckduAcUN</p>","","","","","","","","","",""
"html-keyboard-response","186","289609","0.0-12.0-0.16","6140f1c4ead758f1b72bbe2f","650c16f0f2faf8d7a0d14c09","651c1d22674d4a07e87643fa","null","null","<p style=""font-size: 60px; font-family: BACS"">hTtBbEPBT</p>","","","","","","","","","",""
"html-keyboard-response","187","290611","0.0-12.0-0.17","6140f1c4ead758f1b72bbe2f","650c16f0f2faf8d7a0d14c09","651c1d22674d4a07e87643fa","null","null","<p style=""font-size: 60px; font-family: BACS"">ukcYcUN</p>","","","","","","","","","",""
"html-keyboard-response","188","291624","0.0-12.0-0.18","6140f1c4ead758f1b72bbe2f","650c16f0f2faf8d7a0d14c09","651c1d22674d4a07e87643fa","null","null","<p style=""font-size: 60px; font-family: BACS"">OmtlDEAO</p>","","","","","","","","","",""
"html-keyboard-response","189","292641","0.0-12.0-0.19","6140f1c4ead758f1b72bbe2f","650c16f0f2faf8d7a0d14c09","651c1d22674d4a07e87643fa","null","null","<p style=""font-size: 60px; font-family: BACS"">YOZNlGc</p>","","","","","","","","","",""
"html-keyboard-response","190","293644","0.0-12.0-0.20","6140f1c4ead758f1b72bbe2f","650c16f0f2faf8d7a0d14c09","651c1d22674d4a07e87643fa","null","null","<p style=""font-size: 60px; font-family: BACS"">rvUbcYUv</p>","","","","","","","","","",""
"html-keyboard-response","191","294659","0.0-12.0-0.21","6140f1c4ead758f1b72bbe2f","650c16f0f2faf8d7a0d14c09","651c1d22674d4a07e87643fa","null","null","<p style=""font-size: 60px; font-family: BACS"">EltMBkDOm</p>","","","","","","","","","",""
"html-keyboard-response","192","295661","0.0-12.0-0.22","6140f1c4ead758f1b72bbe2f","650c16f0f2faf8d7a0d14c09","651c1d22674d4a07e87643fa","null","null","<p style=""font-size: 60px; font-family: BACS"">kRCkOEAO</p>","","","","","","","","","",""
"html-keyboard-response","193","296675","0.0-12.0-0.23","6140f1c4ead758f1b72bbe2f","650c16f0f2faf8d7a0d14c09","651c1d22674d4a07e87643fa","null","null","<p style=""font-size: 60px; font-family: BACS"">EltMBdRA</p>","","","","","","","","","",""
"html-keyboard-response","194","297677","0.0-12.0-0.24","6140f1c4ead758f1b72bbe2f","650c16f0f2faf8d7a0d14c09","651c1d22674d4a07e87643fa","null","null","<p style=""font-size: 60px; font-family: BACS"">GJZmrULv</p>","","","","","","","","","",""
"html-keyboard-response","195","298690","0.0-12.0-0.25","6140f1c4ead758f1b72bbe2f","650c16f0f2faf8d7a0d14c09","651c1d22674d4a07e87643fa","null","null","<p style=""font-size: 60px; font-family: BACS"">bdUNucUN</p>","","","","","","","","","",""
"html-keyboard-response","196","299694","0.0-12.0-0.26","6140f1c4ead758f1b72bbe2f","650c16f0f2faf8d7a0d14c09","651c1d22674d4a07e87643fa","null","null","<p style=""font-size: 60px; font-family: BACS"">BlmclEPBT</p>","","","","","","","","","",""
"html-keyboard-response","197","300707","0.0-12.0-0.27","6140f1c4ead758f1b72bbe2f","650c16f0f2faf8d7a0d14c09","651c1d22674d4a07e87643fa","null","null","<p style=""font-size: 60px; font-family: BACS"">hTtBbEAO</p>","","","","","","","","","",""
"html-keyboard-response","198","301710","0.0-12.0-0.28","6140f1c4ead758f1b72bbe2f","650c16f0f2faf8d7a0d14c09","651c1d22674d4a07e87643fa","null","null","<p style=""font-size: 60px; font-family: BACS"">QOLmucYUv</p>","","","","","","","","","",""
"html-keyboard-response","199","302726","0.0-12.0-0.29","6140f1c4ead758f1b72bbe2f","650c16f0f2faf8d7a0d14c09","651c1d22674d4a07e87643fa","null","null","<p style=""font-size: 60px; font-family: BACS"">RkmdCkDOm</p>","","","","","","","","","",""
"html-keyboard-response","200","303742","0.0-12.0-0.30","6140f1c4ead758f1b72bbe2f","650c16f0f2faf8d7a0d14c09","651c1d22674d4a07e87643fa","null","null","<p style=""font-size: 60px; font-family: BACS"">QOLmurULv</p>","","","","","","","","","",""
"html-keyboard-response","201","304754","0.0-12.0-0.31","6140f1c4ead758f1b72bbe2f","650c16f0f2faf8d7a0d14c09","651c1d22674d4a07e87643fa","null","null","<p style=""font-size: 60px; font-family: BACS"">dKRDEPBT</p>","","","","","","","","","",""
"html-keyboard-response","202","305758","0.0-12.0-0.32","6140f1c4ead758f1b72bbe2f","650c16f0f2faf8d7a0d14c09","651c1d22674d4a07e87643fa","null","null","<p style=""font-size: 60px; font-family: BACS"">JAaGJUG</p>","","","","","","","","","",""
"html-keyboard-response","203","306760","0.0-12.0-0.33","6140f1c4ead758f1b72bbe2f","650c16f0f2faf8d7a0d14c09","651c1d22674d4a07e87643fa","null","null","<p style=""font-size: 60px; font-family: BACS"">BlmclTRK</p>","","","","","","","","","",""
"html-keyboard-response","204","307774","0.0-12.0-0.34","6140f1c4ead758f1b72bbe2f","650c16f0f2faf8d7a0d14c09","651c1d22674d4a07e87643fa","null","null","<p style=""font-size: 60px; font-family: BACS"">ldAaJUG</p>","","","","","","","","","",""
"html-keyboard-response","205","308776","0.0-12.0-0.35","6140f1c4ead758f1b72bbe2f","650c16f0f2faf8d7a0d14c09","651c1d22674d4a07e87643fa","null","null","<p style=""font-size: 60px; font-family: BACS"">ukcYcYUv</p>","","","","","","","","","",""
"html-keyboard-response","206","309794","0.0-12.0-0.36","6140f1c4ead758f1b72bbe2f","650c16f0f2faf8d7a0d14c09","651c1d22674d4a07e87643fa","null","null","<p style=""font-size: 60px; font-family: BACS"">OmtlDdRA</p>","","","","","","","","","",""
"html-keyboard-response","207","310808","0.0-12.0-0.37","6140f1c4ead758f1b72bbe2f","650c16f0f2faf8d7a0d14c09","651c1d22674d4a07e87643fa","null","null","<p style=""font-size: 60px; font-family: BACS"">RkmdCEAO</p>","","","","","","","","","",""
"html-keyboard-response","208","311811","0.0-12.0-0.38","6140f1c4ead758f1b72bbe2f","650c16f0f2faf8d7a0d14c09","651c1d22674d4a07e87643fa","null","null","<p style=""font-size: 60px; font-family: BACS"">kRCkOTRK</p>","","","","","","","","","",""
"html-keyboard-response","209","312825","0.0-12.0-0.39","6140f1c4ead758f1b72bbe2f","650c16f0f2faf8d7a0d14c09","651c1d22674d4a07e87643fa","null","null","<p style=""font-size: 60px; font-family: BACS"">JAaGcUN</p>","","","","","","","","","",""
"html-keyboard-response","210","313848","0.0-12.0-0.40","6140f1c4ead758f1b72bbe2f","650c16f0f2faf8d7a0d14c09","651c1d22674d4a07e87643fa","null","null","<p style=""font-size: 60px; font-family: BACS"">ckduArULv</p>","","","","","","","","","",""
"html-keyboard-response","211","314860","0.0-12.0-0.41","6140f1c4ead758f1b72bbe2f","650c16f0f2faf8d7a0d14c09","651c1d22674d4a07e87643fa","null","null","<p style=""font-size: 60px; font-family: BACS"">kRCkOEPBT</p>","","","","","","","","","",""
"html-keyboard-response","212","315875","0.0-12.0-0.42","6140f1c4ead758f1b72bbe2f","650c16f0f2faf8d7a0d14c09","651c1d22674d4a07e87643fa","null","null","<p style=""font-size: 60px; font-family: BACS"">lmbYcYUv</p>","","","","","","","","","",""
"html-keyboard-response","213","316890","0.0-12.0-0.43","6140f1c4ead758f1b72bbe2f","650c16f0f2faf8d7a0d14c09","651c1d22674d4a07e87643fa","null","null","<p style=""font-size: 60px; font-family: BACS"">PctRCTRK</p>","","","","","","","","","",""
"html-keyboard-response","214","317907","0.0-12.0-0.44","6140f1c4ead758f1b72bbe2f","650c16f0f2faf8d7a0d14c09","651c1d22674d4a07e87643fa","null","null","<p style=""font-size: 60px; font-family: BACS"">lmbYrULv</p>","","","","","","","","","",""
"html-keyboard-response","215","318909","0.0-12.0-0.45","6140f1c4ead758f1b72bbe2f","650c16f0f2faf8d7a0d14c09","651c1d22674d4a07e87643fa","null","null","<p style=""font-size: 60px; font-family: BACS"">bdUNuJUG</p>","","","","","","","","","",""
"html-keyboard-response","216","319927","0.0-12.0-0.46","6140f1c4ead758f1b72bbe2f","650c16f0f2faf8d7a0d14c09","651c1d22674d4a07e87643fa","null","null","<p style=""font-size: 60px; font-family: BACS"">EltMBTRK</p>","","","","","","","","","",""
"html-keyboard-response","217","320942","0.0-12.0-0.47","6140f1c4ead758f1b72bbe2f","650c16f0f2faf8d7a0d14c09","651c1d22674d4a07e87643fa","null","null","<p style=""font-size: 60px; font-family: BACS"">COTKdRA</p>","","","","","","","","","",""
"html-keyboard-response","218","321943","0.0-12.0-0.48","6140f1c4ead758f1b72bbe2f","650c16f0f2faf8d7a0d14c09","651c1d22674d4a07e87643fa","null","null","<p style=""font-size: 60px; font-family: BACS"">kRCkOkDOm</p>","","","","","","","","","",""
"html-keyboard-response","219","322958","0.0-12.0-0.49","6140f1c4ead758f1b72bbe2f","650c16f0f2faf8d7a0d14c09","651c1d22674d4a07e87643fa","null","null","<p style=""font-size: 60px; font-family: BACS"">YOZNJUG</p>","","","","","","","","","",""
"html-keyboard-response","220","323961","0.0-12.0-0.50","6140f1c4ead758f1b72bbe2f","650c16f0f2faf8d7a0d14c09","651c1d22674d4a07e87643fa","null","null","<p style=""font-size: 60px; font-family: BACS"">BlmclkDOm</p>","","","","","","","","","",""
"html-keyboard-response","221","324974","0.0-12.0-0.51","6140f1c4ead758f1b72bbe2f","650c16f0f2faf8d7a0d14c09","651c1d22674d4a07e87643fa","null","null","<p style=""font-size: 60px; font-family: BACS"">GJZmcUN</p>","","","","","","","","","",""
"html-keyboard-response","222","325989","0.0-12.0-0.52","6140f1c4ead758f1b72bbe2f","650c16f0f2faf8d7a0d14c09","651c1d22674d4a07e87643fa","null","null","<p style=""font-size: 60px; font-family: BACS"">RkmdCdRA</p>","","","","","","","","","",""
"html-keyboard-response","223","326993","0.0-12.0-0.53","6140f1c4ead758f1b72bbe2f","650c16f0f2faf8d7a0d14c09","651c1d22674d4a07e87643fa","null","null","<p style=""font-size: 60px; font-family: BACS"">ckduAJUG</p>","","","","","","","","","",""
"html-keyboard-response","224","328009","0.0-12.0-0.54","6140f1c4ead758f1b72bbe2f","650c16f0f2faf8d7a0d14c09","651c1d22674d4a07e87643fa","null","null","<p style=""font-size: 60px; font-family: BACS"">ldAalGc</p>","","","","","","","","","",""
"html-keyboard-response","225","329024","0.0-12.0-0.55","6140f1c4ead758f1b72bbe2f","650c16f0f2faf8d7a0d14c09","651c1d22674d4a07e87643fa","null","null","<p style=""font-size: 60px; font-family: BACS"">COTKTRK</p>","","","","","","","","","",""
"html-keyboard-response","226","330039","0.0-12.0-0.56","6140f1c4ead758f1b72bbe2f","650c16f0f2faf8d7a0d14c09","651c1d22674d4a07e87643fa","null","null","<p style=""font-size: 60px; font-family: BACS"">JAaGcYUv</p>","","","","","","","","","",""
"html-keyboard-response","227","331043","0.0-12.0-0.57","6140f1c4ead758f1b72bbe2f","650c16f0f2faf8d7a0d14c09","651c1d22674d4a07e87643fa","null","null","<p style=""font-size: 60px; font-family: BACS"">bdUNulGc</p>","","","","","","","","","",""
"html-keyboard-response","228","332056","0.0-12.0-0.58","6140f1c4ead758f1b72bbe2f","650c16f0f2faf8d7a0d14c09","651c1d22674d4a07e87643fa","null","null","<p style=""font-size: 60px; font-family: BACS"">PctRCEAO</p>","","","","","","","","","",""
"html-keyboard-response","229","333061","0.0-12.0-0.59","6140f1c4ead758f1b72bbe2f","650c16f0f2faf8d7a0d14c09","651c1d22674d4a07e87643fa","null","null","<p style=""font-size: 60px; font-family: BACS"">QOLmucUN</p>","","","","","","","","","",""
"html-keyboard-response","230","334072","0.0-12.0-0.60","6140f1c4ead758f1b72bbe2f","650c16f0f2faf8d7a0d14c09","651c1d22674d4a07e87643fa","null","null","<p style=""font-size: 60px; font-family: BACS"">thbOMTRK</p>","","","","","","","","","",""
"html-keyboard-response","231","335075","0.0-12.0-0.61","6140f1c4ead758f1b72bbe2f","650c16f0f2faf8d7a0d14c09","651c1d22674d4a07e87643fa","null","null","<p style=""font-size: 60px; font-family: BACS"">ukcYlGc</p>","","","","","","","","","",""
"html-keyboard-response","232","336092","0.0-12.0-0.62","6140f1c4ead758f1b72bbe2f","650c16f0f2faf8d7a0d14c09","651c1d22674d4a07e87643fa","null","null","<p style=""font-size: 60px; font-family: BACS"">rvUbrULv</p>","","","","","","","","","",""
"html-keyboard-response","233","337107","0.0-12.0-0.63","6140f1c4ead758f1b72bbe2f","650c16f0f2faf8d7a0d14c09","651c1d22674d4a07e87643fa","null","null","<p style=""font-size: 60px; font-family: BACS"">dKRDkDOm</p>","","","","","","","","","",""
"html-keyboard-response","234","338124","0.0-12.0-0.64","6140f1c4ead758f1b72bbe2f","650c16f0f2faf8d7a0d14c09","651c1d22674d4a07e87643fa","null","null","<p style=""font-size: 60px; font-family: BACS"">bdUNucYUv</p>","","","","","","","","","",""
"html-keyboard-response","235","339139","0.0-12.0-0.65","6140f1c4ead758f1b72bbe2f","650c16f0f2faf8d7a0d14c09","651c1d22674d4a07e87643fa","null","null","<p style=""font-size: 60px; font-family: BACS"">COTKEAO</p>","","","","","","","","","",""
"html-keyboard-response","236","340142","0.0-12.0-0.66","6140f1c4ead758f1b72bbe2f","650c16f0f2faf8d7a0d14c09","651c1d22674d4a07e87643fa","null","null","<p style=""font-size: 60px; font-family: BACS"">EltMBEPBT</p>","","","","","","","","","",""
"html-keyboard-response","237","341159","0.0-12.0-0.67","6140f1c4ead758f1b72bbe2f","650c16f0f2faf8d7a0d14c09","651c1d22674d4a07e87643fa","null","null","<p style=""font-size: 60px; font-family: BACS"">dKRDEAO</p>","","","","","","","","","",""
"html-keyboard-response","238","342172","0.0-12.0-0.68","6140f1c4ead758f1b72bbe2f","650c16f0f2faf8d7a0d14c09","651c1d22674d4a07e87643fa","null","null","<p style=""font-size: 60px; font-family: BACS"">ldAarULv</p>","","","","","","","","","",""
"html-keyboard-response","239","343189","0.0-12.0-0.69","6140f1c4ead758f1b72bbe2f","650c16f0f2faf8d7a0d14c09","651c1d22674d4a07e87643fa","null","null","<p style=""font-size: 60px; font-family: BACS"">hTtBbdRA</p>","","","","","","","","","",""
"html-keyboard-response","240","344190","0.0-12.0-0.70","6140f1c4ead758f1b72bbe2f","650c16f0f2faf8d7a0d14c09","651c1d22674d4a07e87643fa","null","null","<p style=""font-size: 60px; font-family: BACS"">COTKkDOm</p>","","","","","","","","","",""
"html-keyboard-response","241","345192","0.0-12.0-0.71","6140f1c4ead758f1b72bbe2f","650c16f0f2faf8d7a0d14c09","651c1d22674d4a07e87643fa","null","null","<p style=""font-size: 60px; font-family: BACS"">dKRDdRA</p>","","","","","","","","","",""
"html-keyboard-response","242","346205","0.0-12.0-0.72","6140f1c4ead758f1b72bbe2f","650c16f0f2faf8d7a0d14c09","651c1d22674d4a07e87643fa","null","null","<p style=""font-size: 60px; font-family: BACS"">YOZNcUN</p>","","","","","","","","","",""
"html-keyboard-response","243","347207","0.0-12.0-0.73","6140f1c4ead758f1b72bbe2f","650c16f0f2faf8d7a0d14c09","651c1d22674d4a07e87643fa","null","null","<p style=""font-size: 60px; font-family: BACS"">PctRCkDOm</p>","","","","","","","","","",""
"html-keyboard-response","244","348222","0.0-12.0-0.74","6140f1c4ead758f1b72bbe2f","650c16f0f2faf8d7a0d14c09","651c1d22674d4a07e87643fa","null","null","<p style=""font-size: 60px; font-family: BACS"">thbOMEPBT</p>","","","","","","","","","",""
"html-keyboard-response","245","349226","0.0-12.0-0.75","6140f1c4ead758f1b72bbe2f","650c16f0f2faf8d7a0d14c09","651c1d22674d4a07e87643fa","null","null","<p style=""font-size: 60px; font-family: BACS"">lmbYJUG</p>","","","","","","","","","",""
"html-keyboard-response","246","350241","0.0-12.0-0.76","6140f1c4ead758f1b72bbe2f","650c16f0f2faf8d7a0d14c09","651c1d22674d4a07e87643fa","null","null","<p style=""font-size: 60px; font-family: BACS"">GJZmlGc</p>","","","","","","","","","",""
"html-keyboard-response","247","351256","0.0-12.0-0.77","6140f1c4ead758f1b72bbe2f","650c16f0f2faf8d7a0d14c09","651c1d22674d4a07e87643fa","null","null","<p style=""font-size: 60px; font-family: BACS"">thbOMEAO</p>","","","","","","","","","",""
"html-keyboard-response","248","352272","0.0-12.0-0.78","6140f1c4ead758f1b72bbe2f","650c16f0f2faf8d7a0d14c09","651c1d22674d4a07e87643fa","null","null","<p style=""font-size: 60px; font-family: BACS"">GJZmcYUv</p>","","","","","","","","","",""
"html-keyboard-response","249","353278","0.0-12.0-0.79","6140f1c4ead758f1b72bbe2f","650c16f0f2faf8d7a0d14c09","651c1d22674d4a07e87643fa","null","null","<p style=""font-size: 60px; font-family: BACS"">hTtBbTRK</p>","","","","","","","","","",""
"html-keyboard-response","250","356829","0.0-13.0","6140f1c4ead758f1b72bbe2f","650c16f0f2faf8d7a0d14c09","651c1d22674d4a07e87643fa","3550"," ","<p>Great, you've seen the third block of words. You may now take a short break.</p>
      <p>Press the spacebar when you're ready to continue.</p>","","","","","","","","","",""
"html-keyboard-response","251","357841","0.0-14.0-0.0","6140f1c4ead758f1b72bbe2f","650c16f0f2faf8d7a0d14c09","651c1d22674d4a07e87643fa","null","null","<p style=""font-size: 60px; font-family: BACS"">dKRDdRA</p>","","","","","","","","","",""
"html-keyboard-response","252","358857","0.0-14.0-0.1","6140f1c4ead758f1b72bbe2f","650c16f0f2faf8d7a0d14c09","651c1d22674d4a07e87643fa","null","null","<p style=""font-size: 60px; font-family: BACS"">YOZNJUG</p>","","","","","","","","","",""
"html-keyboard-response","253","359860","0.0-14.0-0.2","6140f1c4ead758f1b72bbe2f","650c16f0f2faf8d7a0d14c09","651c1d22674d4a07e87643fa","null","null","<p style=""font-size: 60px; font-family: BACS"">PctRCdRA</p>","","","","","","","","","",""
"html-keyboard-response","254","360873","0.0-14.0-0.3","6140f1c4ead758f1b72bbe2f","650c16f0f2faf8d7a0d14c09","651c1d22674d4a07e87643fa","null","null","<p style=""font-size: 60px; font-family: BACS"">ldAalGc</p>","","","","","","","","","",""
"html-keyboard-response","255","361876","0.0-14.0-0.4","6140f1c4ead758f1b72bbe2f","650c16f0f2faf8d7a0d14c09","651c1d22674d4a07e87643fa","null","null","<p style=""font-size: 60px; font-family: BACS"">PctRCEAO</p>","","","","","","","","","",""
"html-keyboard-response","256","362877","0.0-14.0-0.5","6140f1c4ead758f1b72bbe2f","650c16f0f2faf8d7a0d14c09","651c1d22674d4a07e87643fa","null","null","<p style=""font-size: 60px; font-family: BACS"">lmbYlGc</p>","","","","","","","","","",""
"html-keyboard-response","257","363891","0.0-14.0-0.6","6140f1c4ead758f1b72bbe2f","650c16f0f2faf8d7a0d14c09","651c1d22674d4a07e87643fa","null","null","<p style=""font-size: 60px; font-family: BACS"">rvUbcYUv</p>","","","","","","","","","",""
"html-keyboard-response","258","364906","0.0-14.0-0.7","6140f1c4ead758f1b72bbe2f","650c16f0f2faf8d7a0d14c09","651c1d22674d4a07e87643fa","null","null","<p style=""font-size: 60px; font-family: BACS"">QOLmurULv</p>","","","","","","","","","",""
"html-keyboard-response","259","365907","0.0-14.0-0.8","6140f1c4ead758f1b72bbe2f","650c16f0f2faf8d7a0d14c09","651c1d22674d4a07e87643fa","null","null","<p style=""font-size: 60px; font-family: BACS"">BlmcldRA</p>","","","","","","","","","",""
"html-keyboard-response","260","366909","0.0-14.0-0.9","6140f1c4ead758f1b72bbe2f","650c16f0f2faf8d7a0d14c09","651c1d22674d4a07e87643fa","null","null","<p style=""font-size: 60px; font-family: BACS"">QOLmuJUG</p>","","","","","","","","","",""
"html-keyboard-response","261","367922","0.0-14.0-0.10","6140f1c4ead758f1b72bbe2f","650c16f0f2faf8d7a0d14c09","651c1d22674d4a07e87643fa","null","null","<p style=""font-size: 60px; font-family: BACS"">PctRCTRK</p>","","","","","","","","","",""
"html-keyboard-response","262","368926","0.0-14.0-0.11","6140f1c4ead758f1b72bbe2f","650c16f0f2faf8d7a0d14c09","651c1d22674d4a07e87643fa","null","null","<p style=""font-size: 60px; font-family: BACS"">COTKEAO</p>","","","","","","","","","",""
"html-keyboard-response","263","369939","0.0-14.0-0.12","6140f1c4ead758f1b72bbe2f","650c16f0f2faf8d7a0d14c09","651c1d22674d4a07e87643fa","null","null","<p style=""font-size: 60px; font-family: BACS"">kRCkOEPBT</p>","","","","","","","","","",""
"html-keyboard-response","264","370954","0.0-14.0-0.13","6140f1c4ead758f1b72bbe2f","650c16f0f2faf8d7a0d14c09","651c1d22674d4a07e87643fa","null","null","<p style=""font-size: 60px; font-family: BACS"">bdUNucUN</p>","","","","","","","","","",""
"html-keyboard-response","265","371957","0.0-14.0-0.14","6140f1c4ead758f1b72bbe2f","650c16f0f2faf8d7a0d14c09","651c1d22674d4a07e87643fa","null","null","<p style=""font-size: 60px; font-family: BACS"">EltMBEPBT</p>","","","","","","","","","",""
"html-keyboard-response","266","372974","0.0-14.0-0.15","6140f1c4ead758f1b72bbe2f","650c16f0f2faf8d7a0d14c09","651c1d22674d4a07e87643fa","null","null","<p style=""font-size: 60px; font-family: BACS"">YOZNlGc</p>","","","","","","","","","",""
"html-keyboard-response","267","373975","0.0-14.0-0.16","6140f1c4ead758f1b72bbe2f","650c16f0f2faf8d7a0d14c09","651c1d22674d4a07e87643fa","null","null","<p style=""font-size: 60px; font-family: BACS"">ckduArULv</p>","","","","","","","","","",""
"html-keyboard-response","268","374989","0.0-14.0-0.17","6140f1c4ead758f1b72bbe2f","650c16f0f2faf8d7a0d14c09","651c1d22674d4a07e87643fa","null","null","<p style=""font-size: 60px; font-family: BACS"">ukcYcYUv</p>","","","","","","","","","",""
"html-keyboard-response","269","375991","0.0-14.0-0.18","6140f1c4ead758f1b72bbe2f","650c16f0f2faf8d7a0d14c09","651c1d22674d4a07e87643fa","null","null","<p style=""font-size: 60px; font-family: BACS"">kRCkOEAO</p>","","","","","","","","","",""
"html-keyboard-response","270","377005","0.0-14.0-0.19","6140f1c4ead758f1b72bbe2f","650c16f0f2faf8d7a0d14c09","651c1d22674d4a07e87643fa","null","null","<p style=""font-size: 60px; font-family: BACS"">ukcYlGc</p>","","","","","","","","","",""
"html-keyboard-response","271","378008","0.0-14.0-0.20","6140f1c4ead758f1b72bbe2f","650c16f0f2faf8d7a0d14c09","651c1d22674d4a07e87643fa","null","null","<p style=""font-size: 60px; font-family: BACS"">RkmdCEAO</p>","","","","","","","","","",""
"html-keyboard-response","272","379011","0.0-14.0-0.21","6140f1c4ead758f1b72bbe2f","650c16f0f2faf8d7a0d14c09","651c1d22674d4a07e87643fa","null","null","<p style=""font-size: 60px; font-family: BACS"">OmtlDdRA</p>","","","","","","","","","",""
"html-keyboard-response","273","380024","0.0-14.0-0.22","6140f1c4ead758f1b72bbe2f","650c16f0f2faf8d7a0d14c09","651c1d22674d4a07e87643fa","null","null","<p style=""font-size: 60px; font-family: BACS"">lmbYcYUv</p>","","","","","","","","","",""
"html-keyboard-response","274","381042","0.0-14.0-0.23","6140f1c4ead758f1b72bbe2f","650c16f0f2faf8d7a0d14c09","651c1d22674d4a07e87643fa","null","null","<p style=""font-size: 60px; font-family: BACS"">kRCkOkDOm</p>","","","","","","","","","",""
"html-keyboard-response","275","382056","0.0-14.0-0.24","6140f1c4ead758f1b72bbe2f","650c16f0f2faf8d7a0d14c09","651c1d22674d4a07e87643fa","null","null","<p style=""font-size: 60px; font-family: BACS"">hTtBbEAO</p>","","","","","","","","","",""
"html-keyboard-response","276","383059","0.0-14.0-0.25","6140f1c4ead758f1b72bbe2f","650c16f0f2faf8d7a0d14c09","651c1d22674d4a07e87643fa","null","null","<p style=""font-size: 60px; font-family: BACS"">ckduAJUG</p>","","","","","","","","","",""
"html-keyboard-response","277","384073","0.0-14.0-0.26","6140f1c4ead758f1b72bbe2f","650c16f0f2faf8d7a0d14c09","651c1d22674d4a07e87643fa","null","null","<p style=""font-size: 60px; font-family: BACS"">RkmdCdRA</p>","","","","","","","","","",""
"html-keyboard-response","278","385075","0.0-14.0-0.27","6140f1c4ead758f1b72bbe2f","650c16f0f2faf8d7a0d14c09","651c1d22674d4a07e87643fa","null","null","<p style=""font-size: 60px; font-family: BACS"">hTtBbTRK</p>","","","","","","","","","",""
"html-keyboard-response","279","386089","0.0-14.0-0.28","6140f1c4ead758f1b72bbe2f","650c16f0f2faf8d7a0d14c09","651c1d22674d4a07e87643fa","null","null","<p style=""font-size: 60px; font-family: BACS"">PctRCkDOm</p>","","","","","","","","","",""
"html-keyboard-response","280","387091","0.0-14.0-0.29","6140f1c4ead758f1b72bbe2f","650c16f0f2faf8d7a0d14c09","651c1d22674d4a07e87643fa","null","null","<p style=""font-size: 60px; font-family: BACS"">ckduAlGc</p>","","","","","","","","","",""
"html-keyboard-response","281","388094","0.0-14.0-0.30","6140f1c4ead758f1b72bbe2f","650c16f0f2faf8d7a0d14c09","651c1d22674d4a07e87643fa","null","null","<p style=""font-size: 60px; font-family: BACS"">ldAarULv</p>","","","","","","","","","",""
"html-keyboard-response","282","389107","0.0-14.0-0.31","6140f1c4ead758f1b72bbe2f","650c16f0f2faf8d7a0d14c09","651c1d22674d4a07e87643fa","null","null","<p style=""font-size: 60px; font-family: BACS"">BlmclEPBT</p>","","","","","","","","","",""
"html-keyboard-response","283","390125","0.0-14.0-0.32","6140f1c4ead758f1b72bbe2f","650c16f0f2faf8d7a0d14c09","651c1d22674d4a07e87643fa","null","null","<p style=""font-size: 60px; font-family: BACS"">rvUblGc</p>","","","","","","","","","",""
"html-keyboard-response","284","391139","0.0-14.0-0.33","6140f1c4ead758f1b72bbe2f","650c16f0f2faf8d7a0d14c09","651c1d22674d4a07e87643fa","null","null","<p style=""font-size: 60px; font-family: BACS"">JAaGcYUv</p>","","","","","","","","","",""
"html-keyboard-response","285","392141","0.0-14.0-0.34","6140f1c4ead758f1b72bbe2f","650c16f0f2faf8d7a0d14c09","651c1d22674d4a07e87643fa","null","null","<p style=""font-size: 60px; font-family: BACS"">GJZmlGc</p>","","","","","","","","","",""
"html-keyboard-response","286","393158","0.0-14.0-0.35","6140f1c4ead758f1b72bbe2f","650c16f0f2faf8d7a0d14c09","651c1d22674d4a07e87643fa","null","null","<p style=""font-size: 60px; font-family: BACS"">YOZNcUN</p>","","","","","","","","","",""
"html-keyboard-response","287","394174","0.0-14.0-0.36","6140f1c4ead758f1b72bbe2f","650c16f0f2faf8d7a0d14c09","651c1d22674d4a07e87643fa","null","null","<p style=""font-size: 60px; font-family: BACS"">OmtlDTRK</p>","","","","","","","","","",""
"html-keyboard-response","288","395191","0.0-14.0-0.37","6140f1c4ead758f1b72bbe2f","650c16f0f2faf8d7a0d14c09","651c1d22674d4a07e87643fa","null","null","<p style=""font-size: 60px; font-family: BACS"">dKRDEAO</p>","","","","","","","","","",""
"html-keyboard-response","289","396205","0.0-14.0-0.38","6140f1c4ead758f1b72bbe2f","650c16f0f2faf8d7a0d14c09","651c1d22674d4a07e87643fa","null","null","<p style=""font-size: 60px; font-family: BACS"">COTKkDOm</p>","","","","","","","","","",""
"html-keyboard-response","290","397209","0.0-14.0-0.39","6140f1c4ead758f1b72bbe2f","650c16f0f2faf8d7a0d14c09","651c1d22674d4a07e87643fa","null","null","<p style=""font-size: 60px; font-family: BACS"">GJZmcYUv</p>","","","","","","","","","",""
"html-keyboard-response","291","398221","0.0-14.0-0.40","6140f1c4ead758f1b72bbe2f","650c16f0f2faf8d7a0d14c09","651c1d22674d4a07e87643fa","null","null","<p style=""font-size: 60px; font-family: BACS"">EltMBkDOm</p>","","","","","","","","","",""
"html-keyboard-response","292","399224","0.0-14.0-0.41","6140f1c4ead758f1b72bbe2f","650c16f0f2faf8d7a0d14c09","651c1d22674d4a07e87643fa","null","null","<p style=""font-size: 60px; font-family: BACS"">YOZNrULv</p>","","","","","","","","","",""
"html-keyboard-response","293","400225","0.0-14.0-0.42","6140f1c4ead758f1b72bbe2f","650c16f0f2faf8d7a0d14c09","651c1d22674d4a07e87643fa","null","null","<p style=""font-size: 60px; font-family: BACS"">ukcYcUN</p>","","","","","","","","","",""
"html-keyboard-response","294","401240","0.0-14.0-0.43","6140f1c4ead758f1b72bbe2f","650c16f0f2faf8d7a0d14c09","651c1d22674d4a07e87643fa","null","null","<p style=""font-size: 60px; font-family: BACS"">rvUbrULv</p>","","","","","","","","","",""
"html-keyboard-response","295","402255","0.0-14.0-0.44","6140f1c4ead758f1b72bbe2f","650c16f0f2faf8d7a0d14c09","651c1d22674d4a07e87643fa","null","null","<p style=""font-size: 60px; font-family: BACS"">OmtlDEAO</p>","","","","","","","","","",""
"html-keyboard-response","296","403256","0.0-14.0-0.45","6140f1c4ead758f1b72bbe2f","650c16f0f2faf8d7a0d14c09","651c1d22674d4a07e87643fa","null","null","<p style=""font-size: 60px; font-family: BACS"">ldAaJUG</p>","","","","","","","","","",""
"html-keyboard-response","297","404258","0.0-14.0-0.46","6140f1c4ead758f1b72bbe2f","650c16f0f2faf8d7a0d14c09","651c1d22674d4a07e87643fa","null","null","<p style=""font-size: 60px; font-family: BACS"">JAaGcUN</p>","","","","","","","","","",""
"html-keyboard-response","298","405259","0.0-14.0-0.47","6140f1c4ead758f1b72bbe2f","650c16f0f2faf8d7a0d14c09","651c1d22674d4a07e87643fa","null","null","<p style=""font-size: 60px; font-family: BACS"">COTKdRA</p>","","","","","","","","","",""
"html-keyboard-response","299","406275","0.0-14.0-0.48","6140f1c4ead758f1b72bbe2f","650c16f0f2faf8d7a0d14c09","651c1d22674d4a07e87643fa","null","null","<p style=""font-size: 60px; font-family: BACS"">RkmdCEPBT</p>","","","","","","","","","",""
"html-keyboard-response","300","407288","0.0-14.0-0.49","6140f1c4ead758f1b72bbe2f","650c16f0f2faf8d7a0d14c09","651c1d22674d4a07e87643fa","null","null","<p style=""font-size: 60px; font-family: BACS"">hTtBbdRA</p>","","","","","","","","","",""
"html-keyboard-response","301","408291","0.0-14.0-0.50","6140f1c4ead758f1b72bbe2f","650c16f0f2faf8d7a0d14c09","651c1d22674d4a07e87643fa","null","null","<p style=""font-size: 60px; font-family: BACS"">JAaGrULv</p>","","","","","","","","","",""
"html-keyboard-response","302","409292","0.0-14.0-0.51","6140f1c4ead758f1b72bbe2f","650c16f0f2faf8d7a0d14c09","651c1d22674d4a07e87643fa","null","null","<p style=""font-size: 60px; font-family: BACS"">ukcYJUG</p>","","","","","","","","","",""
"html-keyboard-response","303","410306","0.0-14.0-0.52","6140f1c4ead758f1b72bbe2f","650c16f0f2faf8d7a0d14c09","651c1d22674d4a07e87643fa","null","null","<p style=""font-size: 60px; font-family: BACS"">ckduAcUN</p>","","","","","","","","","",""
"html-keyboard-response","304","411308","0.0-14.0-0.53","6140f1c4ead758f1b72bbe2f","650c16f0f2faf8d7a0d14c09","651c1d22674d4a07e87643fa","null","null","<p style=""font-size: 60px; font-family: BACS"">EltMBdRA</p>","","","","","","","","","",""
"html-keyboard-response","305","412323","0.0-14.0-0.54","6140f1c4ead758f1b72bbe2f","650c16f0f2faf8d7a0d14c09","651c1d22674d4a07e87643fa","null","null","<p style=""font-size: 60px; font-family: BACS"">BlmclkDOm</p>","","","","","","","","","",""
"html-keyboard-response","306","413324","0.0-14.0-0.55","6140f1c4ead758f1b72bbe2f","650c16f0f2faf8d7a0d14c09","651c1d22674d4a07e87643fa","null","null","<p style=""font-size: 60px; font-family: BACS"">thbOMEAO</p>","","","","","","","","","",""
"html-keyboard-response","307","414338","0.0-14.0-0.56","6140f1c4ead758f1b72bbe2f","650c16f0f2faf8d7a0d14c09","651c1d22674d4a07e87643fa","null","null","<p style=""font-size: 60px; font-family: BACS"">COTKTRK</p>","","","","","","","","","",""
"html-keyboard-response","308","415355","0.0-14.0-0.57","6140f1c4ead758f1b72bbe2f","650c16f0f2faf8d7a0d14c09","651c1d22674d4a07e87643fa","null","null","<p style=""font-size: 60px; font-family: BACS"">dKRDkDOm</p>","","","","","","","","","",""
"html-keyboard-response","309","416372","0.0-14.0-0.58","6140f1c4ead758f1b72bbe2f","650c16f0f2faf8d7a0d14c09","651c1d22674d4a07e87643fa","null","null","<p style=""font-size: 60px; font-family: BACS"">lmbYJUG</p>","","","","","","","","","",""
"html-keyboard-response","310","417373","0.0-14.0-0.59","6140f1c4ead758f1b72bbe2f","650c16f0f2faf8d7a0d14c09","651c1d22674d4a07e87643fa","null","null","<p style=""font-size: 60px; font-family: BACS"">QOLmucUN</p>","","","","","","","","","",""
"html-keyboard-response","311","418388","0.0-14.0-0.60","6140f1c4ead758f1b72bbe2f","650c16f0f2faf8d7a0d14c09","651c1d22674d4a07e87643fa","null","null","<p style=""font-size: 60px; font-family: BACS"">thbOMkDOm</p>","","","","","","","","","",""
"html-keyboard-response","312","419402","0.0-14.0-0.61","6140f1c4ead758f1b72bbe2f","650c16f0f2faf8d7a0d14c09","651c1d22674d4a07e87643fa","null","null","<p style=""font-size: 60px; font-family: BACS"">rvUbcUN</p>","","","","","","","","","",""
"html-keyboard-response","313","420408","0.0-14.0-0.62","6140f1c4ead758f1b72bbe2f","650c16f0f2faf8d7a0d14c09","651c1d22674d4a07e87643fa","null","null","<p style=""font-size: 60px; font-family: BACS"">bdUNuJUG</p>","","","","","","","","","",""
"html-keyboard-response","314","421421","0.0-14.0-0.63","6140f1c4ead758f1b72bbe2f","650c16f0f2faf8d7a0d14c09","651c1d22674d4a07e87643fa","null","null","<p style=""font-size: 60px; font-family: BACS"">GJZmcUN</p>","","","","","","","","","",""
"html-keyboard-response","315","422424","0.0-14.0-0.64","6140f1c4ead758f1b72bbe2f","650c16f0f2faf8d7a0d14c09","651c1d22674d4a07e87643fa","null","null","<p style=""font-size: 60px; font-family: BACS"">EltMBTRK</p>","","","","","","","","","",""
"html-keyboard-response","316","423441","0.0-14.0-0.65","6140f1c4ead758f1b72bbe2f","650c16f0f2faf8d7a0d14c09","651c1d22674d4a07e87643fa","null","null","<p style=""font-size: 60px; font-family: BACS"">bdUNucYUv</p>","","","","","","","","","",""
"html-keyboard-response","317","424454","0.0-14.0-0.66","6140f1c4ead758f1b72bbe2f","650c16f0f2faf8d7a0d14c09","651c1d22674d4a07e87643fa","null","null","<p style=""font-size: 60px; font-family: BACS"">lmbYrULv</p>","","","","","","","","","",""
"html-keyboard-response","318","425456","0.0-14.0-0.67","6140f1c4ead758f1b72bbe2f","650c16f0f2faf8d7a0d14c09","651c1d22674d4a07e87643fa","null","null","<p style=""font-size: 60px; font-family: BACS"">BlmclTRK</p>","","","","","","","","","",""
"html-keyboard-response","319","426472","0.0-14.0-0.68","6140f1c4ead758f1b72bbe2f","650c16f0f2faf8d7a0d14c09","651c1d22674d4a07e87643fa","null","null","<p style=""font-size: 60px; font-family: BACS"">RkmdCkDOm</p>","","","","","","","","","",""
"html-keyboard-response","320","427475","0.0-14.0-0.69","6140f1c4ead758f1b72bbe2f","650c16f0f2faf8d7a0d14c09","651c1d22674d4a07e87643fa","null","null","<p style=""font-size: 60px; font-family: BACS"">hTtBbEPBT</p>","","","","","","","","","",""
"html-keyboard-response","321","428478","0.0-14.0-0.70","6140f1c4ead758f1b72bbe2f","650c16f0f2faf8d7a0d14c09","651c1d22674d4a07e87643fa","null","null","<p style=""font-size: 60px; font-family: BACS"">QOLmucYUv</p>","","","","","","","","","",""
"html-keyboard-response","322","429488","0.0-14.0-0.71","6140f1c4ead758f1b72bbe2f","650c16f0f2faf8d7a0d14c09","651c1d22674d4a07e87643fa","null","null","<p style=""font-size: 60px; font-family: BACS"">JAaGJUG</p>","","","","","","","","","",""
"html-keyboard-response","323","430505","0.0-14.0-0.72","6140f1c4ead758f1b72bbe2f","650c16f0f2faf8d7a0d14c09","651c1d22674d4a07e87643fa","null","null","<p style=""font-size: 60px; font-family: BACS"">thbOMTRK</p>","","","","","","","","","",""
"html-keyboard-response","324","431518","0.0-14.0-0.73","6140f1c4ead758f1b72bbe2f","650c16f0f2faf8d7a0d14c09","651c1d22674d4a07e87643fa","null","null","<p style=""font-size: 60px; font-family: BACS"">ldAacYUv</p>","","","","","","","","","",""
"html-keyboard-response","325","432525","0.0-14.0-0.74","6140f1c4ead758f1b72bbe2f","650c16f0f2faf8d7a0d14c09","651c1d22674d4a07e87643fa","null","null","<p style=""font-size: 60px; font-family: BACS"">thbOMEPBT</p>","","","","","","","","","",""
"html-keyboard-response","326","433538","0.0-14.0-0.75","6140f1c4ead758f1b72bbe2f","650c16f0f2faf8d7a0d14c09","651c1d22674d4a07e87643fa","null","null","<p style=""font-size: 60px; font-family: BACS"">kRCkOTRK</p>","","","","","","","","","",""
"html-keyboard-response","327","434539","0.0-14.0-0.76","6140f1c4ead758f1b72bbe2f","650c16f0f2faf8d7a0d14c09","651c1d22674d4a07e87643fa","null","null","<p style=""font-size: 60px; font-family: BACS"">OmtlDEPBT</p>","","","","","","","","","",""
"html-keyboard-response","328","435554","0.0-14.0-0.77","6140f1c4ead758f1b72bbe2f","650c16f0f2faf8d7a0d14c09","651c1d22674d4a07e87643fa","null","null","<p style=""font-size: 60px; font-family: BACS"">GJZmrULv</p>","","","","","","","","","",""
"html-keyboard-response","329","436557","0.0-14.0-0.78","6140f1c4ead758f1b72bbe2f","650c16f0f2faf8d7a0d14c09","651c1d22674d4a07e87643fa","null","null","<p style=""font-size: 60px; font-family: BACS"">bdUNulGc</p>","","","","","","","","","",""
"html-keyboard-response","330","437574","0.0-14.0-0.79","6140f1c4ead758f1b72bbe2f","650c16f0f2faf8d7a0d14c09","651c1d22674d4a07e87643fa","null","null","<p style=""font-size: 60px; font-family: BACS"">dKRDEPBT</p>","","","","","","","","","",""
"html-keyboard-response","331","476862","0.0-15.0","6140f1c4ead758f1b72bbe2f","650c16f0f2faf8d7a0d14c09","651c1d22674d4a07e87643fa","39287"," ","<p>Great, you've seen the fourth block of words. You may now take a short break.</p>
      <p>Press the spacebar when you're ready to continue.</p>","","","","","","","","","",""
"html-keyboard-response","332","477870","0.0-16.0-0.0","6140f1c4ead758f1b72bbe2f","650c16f0f2faf8d7a0d14c09","651c1d22674d4a07e87643fa","null","null","<p style=""font-size: 60px; font-family: BACS"">hTtBbTRK</p>","","","","","","","","","",""
"html-keyboard-response","333","478884","0.0-16.0-0.1","6140f1c4ead758f1b72bbe2f","650c16f0f2faf8d7a0d14c09","651c1d22674d4a07e87643fa","null","null","<p style=""font-size: 60px; font-family: BACS"">hTtBbTRK</p>","","","","","","","","","",""
"html-keyboard-response","334","479901","0.0-16.0-0.2","6140f1c4ead758f1b72bbe2f","650c16f0f2faf8d7a0d14c09","651c1d22674d4a07e87643fa","null","null","<p style=""font-size: 60px; font-family: BACS"">hTtBbTRK</p>","","","","","","","","","",""
"html-keyboard-response","335","480907","0.0-16.0-0.3","6140f1c4ead758f1b72bbe2f","650c16f0f2faf8d7a0d14c09","651c1d22674d4a07e87643fa","null","null","<p style=""font-size: 60px; font-family: BACS"">hTtBbTRK</p>","","","","","","","","","",""
"html-keyboard-response","336","481922","0.0-16.0-0.4","6140f1c4ead758f1b72bbe2f","650c16f0f2faf8d7a0d14c09","651c1d22674d4a07e87643fa","null","null","<p style=""font-size: 60px; font-family: BACS"">hTtBbTRK</p>","","","","","","","","","",""
"html-keyboard-response","337","482924","0.0-16.0-0.5","6140f1c4ead758f1b72bbe2f","650c16f0f2faf8d7a0d14c09","651c1d22674d4a07e87643fa","null","null","<p style=""font-size: 60px; font-family: BACS"">hTtBbTRK</p>","","","","","","","","","",""
"html-keyboard-response","338","483938","0.0-16.0-0.6","6140f1c4ead758f1b72bbe2f","650c16f0f2faf8d7a0d14c09","651c1d22674d4a07e87643fa","null","null","<p style=""font-size: 60px; font-family: BACS"">hTtBbTRK</p>","","","","","","","","","",""
"html-keyboard-response","339","484940","0.0-16.0-0.7","6140f1c4ead758f1b72bbe2f","650c16f0f2faf8d7a0d14c09","651c1d22674d4a07e87643fa","null","null","<p style=""font-size: 60px; font-family: BACS"">hTtBbTRK</p>","","","","","","","","","",""
"html-keyboard-response","340","485953","0.0-16.0-0.8","6140f1c4ead758f1b72bbe2f","650c16f0f2faf8d7a0d14c09","651c1d22674d4a07e87643fa","null","null","<p style=""font-size: 60px; font-family: BACS"">hTtBbTRK</p>","","","","","","","","","",""
"html-keyboard-response","341","486968","0.0-16.0-0.9","6140f1c4ead758f1b72bbe2f","650c16f0f2faf8d7a0d14c09","651c1d22674d4a07e87643fa","null","null","<p style=""font-size: 60px; font-family: BACS"">hTtBbTRK</p>","","","","","","","","","",""
"html-keyboard-response","342","487969","0.0-16.0-0.10","6140f1c4ead758f1b72bbe2f","650c16f0f2faf8d7a0d14c09","651c1d22674d4a07e87643fa","null","null","<p style=""font-size: 60px; font-family: BACS"">hTtBbTRK</p>","","","","","","","","","",""
"html-keyboard-response","343","488971","0.0-16.0-0.11","6140f1c4ead758f1b72bbe2f","650c16f0f2faf8d7a0d14c09","651c1d22674d4a07e87643fa","null","null","<p style=""font-size: 60px; font-family: BACS"">hTtBbTRK</p>","","","","","","","","","",""
"html-keyboard-response","344","489986","0.0-16.0-0.12","6140f1c4ead758f1b72bbe2f","650c16f0f2faf8d7a0d14c09","651c1d22674d4a07e87643fa","null","null","<p style=""font-size: 60px; font-family: BACS"">hTtBbTRK</p>","","","","","","","","","",""
"html-keyboard-response","345","491001","0.0-16.0-0.13","6140f1c4ead758f1b72bbe2f","650c16f0f2faf8d7a0d14c09","651c1d22674d4a07e87643fa","null","null","<p style=""font-size: 60px; font-family: BACS"">hTtBbTRK</p>","","","","","","","","","",""
"html-keyboard-response","346","492019","0.0-16.0-0.14","6140f1c4ead758f1b72bbe2f","650c16f0f2faf8d7a0d14c09","651c1d22674d4a07e87643fa","null","null","<p style=""font-size: 60px; font-family: BACS"">hTtBbTRK</p>","","","","","","","","","",""
"html-keyboard-response","347","493022","0.0-16.0-0.15","6140f1c4ead758f1b72bbe2f","650c16f0f2faf8d7a0d14c09","651c1d22674d4a07e87643fa","null","null","<p style=""font-size: 60px; font-family: BACS"">hTtBbTRK</p>","","","","","","","","","",""
"html-keyboard-response","348","494024","0.0-16.0-0.16","6140f1c4ead758f1b72bbe2f","650c16f0f2faf8d7a0d14c09","651c1d22674d4a07e87643fa","null","null","<p style=""font-size: 60px; font-family: BACS"">hTtBbTRK</p>","","","","","","","","","",""
"html-keyboard-response","349","495036","0.0-16.0-0.17","6140f1c4ead758f1b72bbe2f","650c16f0f2faf8d7a0d14c09","651c1d22674d4a07e87643fa","null","null","<p style=""font-size: 60px; font-family: BACS"">hTtBbTRK</p>","","","","","","","","","",""
"html-keyboard-response","350","496052","0.0-16.0-0.18","6140f1c4ead758f1b72bbe2f","650c16f0f2faf8d7a0d14c09","651c1d22674d4a07e87643fa","null","null","<p style=""font-size: 60px; font-family: BACS"">hTtBbTRK</p>","","","","","","","","","",""
"html-keyboard-response","351","497068","0.0-16.0-0.19","6140f1c4ead758f1b72bbe2f","650c16f0f2faf8d7a0d14c09","651c1d22674d4a07e87643fa","null","null","<p style=""font-size: 60px; font-family: BACS"">hTtBbTRK</p>","","","","","","","","","",""
"html-keyboard-response","352","498072","0.0-16.0-0.20","6140f1c4ead758f1b72bbe2f","650c16f0f2faf8d7a0d14c09","651c1d22674d4a07e87643fa","null","null","<p style=""font-size: 60px; font-family: BACS"">hTtBbTRK</p>","","","","","","","","","",""
"html-keyboard-response","353","499087","0.0-16.0-0.21","6140f1c4ead758f1b72bbe2f","650c16f0f2faf8d7a0d14c09","651c1d22674d4a07e87643fa","null","null","<p style=""font-size: 60px; font-family: BACS"">hTtBbTRK</p>","","","","","","","","","",""
"html-keyboard-response","354","500104","0.0-16.0-0.22","6140f1c4ead758f1b72bbe2f","650c16f0f2faf8d7a0d14c09","651c1d22674d4a07e87643fa","null","null","<p style=""font-size: 60px; font-family: BACS"">hTtBbTRK</p>","","","","","","","","","",""
"html-keyboard-response","355","501120","0.0-16.0-0.23","6140f1c4ead758f1b72bbe2f","650c16f0f2faf8d7a0d14c09","651c1d22674d4a07e87643fa","null","null","<p style=""font-size: 60px; font-family: BACS"">hTtBbTRK</p>","","","","","","","","","",""
"html-keyboard-response","356","502122","0.0-16.0-0.24","6140f1c4ead758f1b72bbe2f","650c16f0f2faf8d7a0d14c09","651c1d22674d4a07e87643fa","null","null","<p style=""font-size: 60px; font-family: BACS"">hTtBbTRK</p>","","","","","","","","","",""
"html-keyboard-response","357","503138","0.0-16.0-0.25","6140f1c4ead758f1b72bbe2f","650c16f0f2faf8d7a0d14c09","651c1d22674d4a07e87643fa","null","null","<p style=""font-size: 60px; font-family: BACS"">hTtBbTRK</p>","","","","","","","","","",""
"html-keyboard-response","358","504139","0.0-16.0-0.26","6140f1c4ead758f1b72bbe2f","650c16f0f2faf8d7a0d14c09","651c1d22674d4a07e87643fa","null","null","<p style=""font-size: 60px; font-family: BACS"">hTtBbTRK</p>","","","","","","","","","",""
"html-keyboard-response","359","505155","0.0-16.0-0.27","6140f1c4ead758f1b72bbe2f","650c16f0f2faf8d7a0d14c09","651c1d22674d4a07e87643fa","null","null","<p style=""font-size: 60px; font-family: BACS"">hTtBbTRK</p>","","","","","","","","","",""
"html-keyboard-response","360","506156","0.0-16.0-0.28","6140f1c4ead758f1b72bbe2f","650c16f0f2faf8d7a0d14c09","651c1d22674d4a07e87643fa","null","null","<p style=""font-size: 60px; font-family: BACS"">hTtBbTRK</p>","","","","","","","","","",""
"html-keyboard-response","361","507171","0.0-16.0-0.29","6140f1c4ead758f1b72bbe2f","650c16f0f2faf8d7a0d14c09","651c1d22674d4a07e87643fa","null","null","<p style=""font-size: 60px; font-family: BACS"">hTtBbTRK</p>","","","","","","","","","",""
"html-keyboard-response","362","508188","0.0-16.0-0.30","6140f1c4ead758f1b72bbe2f","650c16f0f2faf8d7a0d14c09","651c1d22674d4a07e87643fa","null","null","<p style=""font-size: 60px; font-family: BACS"">hTtBbTRK</p>","","","","","","","","","",""
"html-keyboard-response","363","509203","0.0-16.0-0.31","6140f1c4ead758f1b72bbe2f","650c16f0f2faf8d7a0d14c09","651c1d22674d4a07e87643fa","null","null","<p style=""font-size: 60px; font-family: BACS"">hTtBbTRK</p>","","","","","","","","","",""
"html-keyboard-response","364","510206","0.0-16.0-0.32","6140f1c4ead758f1b72bbe2f","650c16f0f2faf8d7a0d14c09","651c1d22674d4a07e87643fa","null","null","<p style=""font-size: 60px; font-family: BACS"">hTtBbTRK</p>","","","","","","","","","",""
"html-keyboard-response","365","511219","0.0-16.0-0.33","6140f1c4ead758f1b72bbe2f","650c16f0f2faf8d7a0d14c09","651c1d22674d4a07e87643fa","null","null","<p style=""font-size: 60px; font-family: BACS"">hTtBbTRK</p>","","","","","","","","","",""
"html-keyboard-response","366","512222","0.0-16.0-0.34","6140f1c4ead758f1b72bbe2f","650c16f0f2faf8d7a0d14c09","651c1d22674d4a07e87643fa","null","null","<p style=""font-size: 60px; font-family: BACS"">hTtBbTRK</p>","","","","","","","","","",""
"html-keyboard-response","367","513237","0.0-16.0-0.35","6140f1c4ead758f1b72bbe2f","650c16f0f2faf8d7a0d14c09","651c1d22674d4a07e87643fa","null","null","<p style=""font-size: 60px; font-family: BACS"">hTtBbTRK</p>","","","","","","","","","",""
"html-keyboard-response","368","514253","0.0-16.0-0.36","6140f1c4ead758f1b72bbe2f","650c16f0f2faf8d7a0d14c09","651c1d22674d4a07e87643fa","null","null","<p style=""font-size: 60px; font-family: BACS"">hTtBbTRK</p>","","","","","","","","","",""
"html-keyboard-response","369","515256","0.0-16.0-0.37","6140f1c4ead758f1b72bbe2f","650c16f0f2faf8d7a0d14c09","651c1d22674d4a07e87643fa","null","null","<p style=""font-size: 60px; font-family: BACS"">hTtBbTRK</p>","","","","","","","","","",""
"html-keyboard-response","370","516271","0.0-16.0-0.38","6140f1c4ead758f1b72bbe2f","650c16f0f2faf8d7a0d14c09","651c1d22674d4a07e87643fa","null","null","<p style=""font-size: 60px; font-family: BACS"">hTtBbTRK</p>","","","","","","","","","",""
"html-keyboard-response","371","517288","0.0-16.0-0.39","6140f1c4ead758f1b72bbe2f","650c16f0f2faf8d7a0d14c09","651c1d22674d4a07e87643fa","null","null","<p style=""font-size: 60px; font-family: BACS"">hTtBbTRK</p>","","","","","","","","","",""
"html-keyboard-response","372","518301","0.0-16.0-0.40","6140f1c4ead758f1b72bbe2f","650c16f0f2faf8d7a0d14c09","651c1d22674d4a07e87643fa","null","null","<p style=""font-size: 60px; font-family: BACS"">hTtBbTRK</p>","","","","","","","","","",""
"html-keyboard-response","373","519304","0.0-16.0-0.41","6140f1c4ead758f1b72bbe2f","650c16f0f2faf8d7a0d14c09","651c1d22674d4a07e87643fa","null","null","<p style=""font-size: 60px; font-family: BACS"">hTtBbTRK</p>","","","","","","","","","",""
"html-keyboard-response","374","520322","0.0-16.0-0.42","6140f1c4ead758f1b72bbe2f","650c16f0f2faf8d7a0d14c09","651c1d22674d4a07e87643fa","null","null","<p style=""font-size: 60px; font-family: BACS"">hTtBbTRK</p>","","","","","","","","","",""
"html-keyboard-response","375","521324","0.0-16.0-0.43","6140f1c4ead758f1b72bbe2f","650c16f0f2faf8d7a0d14c09","651c1d22674d4a07e87643fa","null","null","<p style=""font-size: 60px; font-family: BACS"">hTtBbTRK</p>","","","","","","","","","",""
"html-keyboard-response","376","522339","0.0-16.0-0.44","6140f1c4ead758f1b72bbe2f","650c16f0f2faf8d7a0d14c09","651c1d22674d4a07e87643fa","null","null","<p style=""font-size: 60px; font-family: BACS"">hTtBbTRK</p>","","","","","","","","","",""
"html-keyboard-response","377","523352","0.0-16.0-0.45","6140f1c4ead758f1b72bbe2f","650c16f0f2faf8d7a0d14c09","651c1d22674d4a07e87643fa","null","null","<p style=""font-size: 60px; font-family: BACS"">hTtBbTRK</p>","","","","","","","","","",""
"html-keyboard-response","378","524369","0.0-16.0-0.46","6140f1c4ead758f1b72bbe2f","650c16f0f2faf8d7a0d14c09","651c1d22674d4a07e87643fa","null","null","<p style=""font-size: 60px; font-family: BACS"">hTtBbTRK</p>","","","","","","","","","",""
"html-keyboard-response","379","525374","0.0-16.0-0.47","6140f1c4ead758f1b72bbe2f","650c16f0f2faf8d7a0d14c09","651c1d22674d4a07e87643fa","null","null","<p style=""font-size: 60px; font-family: BACS"">hTtBbTRK</p>","","","","","","","","","",""
"html-keyboard-response","380","526387","0.0-16.0-0.48","6140f1c4ead758f1b72bbe2f","650c16f0f2faf8d7a0d14c09","651c1d22674d4a07e87643fa","null","null","<p style=""font-size: 60px; font-family: BACS"">hTtBbTRK</p>","","","","","","","","","",""
"html-keyboard-response","381","527405","0.0-16.0-0.49","6140f1c4ead758f1b72bbe2f","650c16f0f2faf8d7a0d14c09","651c1d22674d4a07e87643fa","null","null","<p style=""font-size: 60px; font-family: BACS"">hTtBbTRK</p>","","","","","","","","","",""
"html-keyboard-response","382","528407","0.0-16.0-0.50","6140f1c4ead758f1b72bbe2f","650c16f0f2faf8d7a0d14c09","651c1d22674d4a07e87643fa","null","null","<p style=""font-size: 60px; font-family: BACS"">hTtBbTRK</p>","","","","","","","","","",""
"html-keyboard-response","383","529421","0.0-16.0-0.51","6140f1c4ead758f1b72bbe2f","650c16f0f2faf8d7a0d14c09","651c1d22674d4a07e87643fa","null","null","<p style=""font-size: 60px; font-family: BACS"">hTtBbTRK</p>","","","","","","","","","",""
"html-keyboard-response","384","530435","0.0-16.0-0.52","6140f1c4ead758f1b72bbe2f","650c16f0f2faf8d7a0d14c09","651c1d22674d4a07e87643fa","null","null","<p style=""font-size: 60px; font-family: BACS"">hTtBbTRK</p>","","","","","","","","","",""
"html-keyboard-response","385","531437","0.0-16.0-0.53","6140f1c4ead758f1b72bbe2f","650c16f0f2faf8d7a0d14c09","651c1d22674d4a07e87643fa","null","null","<p style=""font-size: 60px; font-family: BACS"">hTtBbTRK</p>","","","","","","","","","",""
"html-keyboard-response","386","532439","0.0-16.0-0.54","6140f1c4ead758f1b72bbe2f","650c16f0f2faf8d7a0d14c09","651c1d22674d4a07e87643fa","null","null","<p style=""font-size: 60px; font-family: BACS"">hTtBbTRK</p>","","","","","","","","","",""
"html-keyboard-response","387","533453","0.0-16.0-0.55","6140f1c4ead758f1b72bbe2f","650c16f0f2faf8d7a0d14c09","651c1d22674d4a07e87643fa","null","null","<p style=""font-size: 60px; font-family: BACS"">hTtBbTRK</p>","","","","","","","","","",""
"html-keyboard-response","388","534456","0.0-16.0-0.56","6140f1c4ead758f1b72bbe2f","650c16f0f2faf8d7a0d14c09","651c1d22674d4a07e87643fa","null","null","<p style=""font-size: 60px; font-family: BACS"">hTtBbTRK</p>","","","","","","","","","",""
"html-keyboard-response","389","535469","0.0-16.0-0.57","6140f1c4ead758f1b72bbe2f","650c16f0f2faf8d7a0d14c09","651c1d22674d4a07e87643fa","null","null","<p style=""font-size: 60px; font-family: BACS"">hTtBbTRK</p>","","","","","","","","","",""
"html-keyboard-response","390","536472","0.0-16.0-0.58","6140f1c4ead758f1b72bbe2f","650c16f0f2faf8d7a0d14c09","651c1d22674d4a07e87643fa","null","null","<p style=""font-size: 60px; font-family: BACS"">hTtBbTRK</p>","","","","","","","","","",""
"html-keyboard-response","391","537486","0.0-16.0-0.59","6140f1c4ead758f1b72bbe2f","650c16f0f2faf8d7a0d14c09","651c1d22674d4a07e87643fa","null","null","<p style=""font-size: 60px; font-family: BACS"">hTtBbTRK</p>","","","","","","","","","",""
"html-keyboard-response","392","538502","0.0-16.0-0.60","6140f1c4ead758f1b72bbe2f","650c16f0f2faf8d7a0d14c09","651c1d22674d4a07e87643fa","null","null","<p style=""font-size: 60px; font-family: BACS"">hTtBbTRK</p>","","","","","","","","","",""
"html-keyboard-response","393","539505","0.0-16.0-0.61","6140f1c4ead758f1b72bbe2f","650c16f0f2faf8d7a0d14c09","651c1d22674d4a07e87643fa","null","null","<p style=""font-size: 60px; font-family: BACS"">hTtBbTRK</p>","","","","","","","","","",""
