"trial_type","trial_index","time_elapsed","internal_node_id","subject_id","study_id","session_id","rt","response","stimulus","success","item","task","correct_response","testing_condition","correct","target","confound","name","view_history"
"pavlovia","0","701","0.0-0.0","5fe2308a91773957e88b89be","650c16f0f2faf8d7a0d14c09","651c1e0740dad3354c79f515","","","","","","","","","","","","",""
"survey-html-form","1","27631","0.0-1.0","5fe2308a91773957e88b89be","650c16f0f2faf8d7a0d14c09","651c1e0740dad3354c79f515","26928","{""ID"":""5fe2308a91773957e88b89be""}","","","","","","","","","","",""
"html-keyboard-response","2","74850","0.0-2.0","5fe2308a91773957e88b89be","650c16f0f2faf8d7a0d14c09","651c1e0740dad3354c79f515","47217"," ","<p style=""font-size: 15px;"">Before beginning, we ask that you read the consent information and confirm your agreement to participate in the experiment.</p>
      <p style=""font-size: 15px;""> We ask that you remember that this is a research project and that your participation is entirely voluntary. You can stop your participation at any time, without needing to provide any explanation. The study we're asking you to participate in aims at examining how readers process written words. You will be engaged in a session of apprximately 20 minutes, followed by a brief questionnaire. You will have the opportunity to take a few breaks during the experiment. You will be paid £4 for your participation, corresponding to a rate of £8/hour. While this experiment looks at cognitive faculties, this experiment doesn't constitute clinical proof of eventual pathologies.</p>
      <p style=""font-size: 15px;"">All of the information collected thanks to yours and others' participation will be held in a secure password-protected server, and will not be shared with anyone not authorised to view it. Your personal information will be kept with an arbitrary participant ID. Thanks to this data anonymity process, any researcher analysing the data won't be able to track the information back to a specific participant. Therefore, this process will make identifying you impossibile, even when results from the study will be published in scientific reviews, presented at congresses, or at any other public forum. More generally, the collected data will be treated in accordance with the laws on privacy and conformity to the Legislative Degree n. 196 ""Code regarding the protection of personal data"" of the 30th of June 2003 and to the European Regulation 2016/670 (General Data Protection Regulation - GDPR). The Data Protection Officer is Avv. Valentina Carollo, who can be contacted at the following email addresses: <a href=""mailto:dpo@sissa.it"">dpo@sissa.it</a> or <a href=""mailto:rpd@sissa.it"">rpd@sissa.it</a> - PEC: <a href=""mailto:protocollo@pec.sissa.it"">protocollo@pec.sissa.it</a>.</p>
      <p style=""font-size: 15px;""> Before expressing your consent to participate, we would like to remind you again that in case you need explanations on any aspect of the experimental procedure, the researcher is at your disposition (<a href=""mailto:aliebelt@sissa.it"">aliebelt@sissa.it</a>, <a href=""mailto:davide.crepaldi@sissa.it"">davide.crepaldi@sissa.it</a>).</p>
      <p style=""font-size: 15px;"">If you would like to download the informed consent form, you can do so here: <a href=""BASL-Informed_Consent.pdf"" download>informed consent form</a>.</p>
      <p style=""font-size: 15px;"">We ask that you press the spacebar to proceed to the consent section.</p>","","","","","","","","","",""
"survey-html-form","3","92470","0.0-3.0","5fe2308a91773957e88b89be","650c16f0f2faf8d7a0d14c09","651c1e0740dad3354c79f515","17618","{""consent1"":""YES"",""consent2"":""YES"",""consent3"":""YES"",""consent4"":""YES"",""consent5"":""YES"",""consent6"":""YES""}","","","","","","","","","","",""
"fullscreen","4","99750","0.0-4.0","5fe2308a91773957e88b89be","650c16f0f2faf8d7a0d14c09","651c1e0740dad3354c79f515","","","","true","","","","","","","","",""
"html-keyboard-response","5","123643","0.0-5.0","5fe2308a91773957e88b89be","650c16f0f2faf8d7a0d14c09","651c1e0740dad3354c79f515","23891"," ","<p>Welcome, and thank you very much for your time!</p>
      <p>In this experiment, you'll be a language expert who's been asked to take a look at words that Earth has received in its first communication with aliens. Your task, in this first part of the experiment, is to pay close attention to the words you'll be shown; later, world leaders will ask you questions on what you saw. The words will be shown to you quite quickly; it seems that the aliens were in a hurry :-)</p>
      <p>Press the spacebar to continue.<p>","","","","","","","","","",""
"html-keyboard-response","6","123694","0.0-6.0","5fe2308a91773957e88b89be","650c16f0f2faf8d7a0d14c09","651c1e0740dad3354c79f515","null","null","<p style=""font-size: 120px; font-family: BACS""> </p>","","","","","","","","","",""
"html-keyboard-response","7","137447","0.0-7.0","5fe2308a91773957e88b89be","650c16f0f2faf8d7a0d14c09","651c1e0740dad3354c79f515","13752"," ","<p>Here is an example of the words you'll see:</p>
      <img src='esempio.png' height='400px'>
      <p>When you're ready to begin, press the spacebar.</p></div>","","","","","","","","","",""
"html-keyboard-response","8","138457","0.0-8.0-0.0","5fe2308a91773957e88b89be","650c16f0f2faf8d7a0d14c09","651c1e0740dad3354c79f515","null","null","<p style=""font-size: 60px; font-family: BACS"">mARMAdYl</p>","","","","","","","","","",""
"html-keyboard-response","9","139473","0.0-8.0-0.1","5fe2308a91773957e88b89be","650c16f0f2faf8d7a0d14c09","651c1e0740dad3354c79f515","null","null","<p style=""font-size: 60px; font-family: BACS"">AZaJcGUa</p>","","","","","","","","","",""
"html-keyboard-response","10","140490","0.0-8.0-0.2","5fe2308a91773957e88b89be","650c16f0f2faf8d7a0d14c09","651c1e0740dad3354c79f515","null","null","<p style=""font-size: 60px; font-family: BACS"">CchtdAdYl</p>","","","","","","","","","",""
"html-keyboard-response","11","141513","0.0-8.0-0.3","5fe2308a91773957e88b89be","650c16f0f2faf8d7a0d14c09","651c1e0740dad3354c79f515","null","null","<p style=""font-size: 60px; font-family: BACS"">mBbKEAO</p>","","","","","","","","","",""
"html-keyboard-response","12","142528","0.0-8.0-0.4","5fe2308a91773957e88b89be","650c16f0f2faf8d7a0d14c09","651c1e0740dad3354c79f515","null","null","<p style=""font-size: 60px; font-family: BACS"">ALGZdUr</p>","","","","","","","","","",""
"html-keyboard-response","13","143531","0.0-8.0-0.5","5fe2308a91773957e88b89be","650c16f0f2faf8d7a0d14c09","651c1e0740dad3354c79f515","null","null","<p style=""font-size: 60px; font-family: BACS"">BATOcEAO</p>","","","","","","","","","",""
"html-keyboard-response","14","144548","0.0-8.0-0.6","5fe2308a91773957e88b89be","650c16f0f2faf8d7a0d14c09","651c1e0740dad3354c79f515","null","null","<p style=""font-size: 60px; font-family: BACS"">JauQGUa</p>","","","","","","","","","",""
"html-keyboard-response","15","145565","0.0-8.0-0.7","5fe2308a91773957e88b89be","650c16f0f2faf8d7a0d14c09","651c1e0740dad3354c79f515","null","null","<p style=""font-size: 60px; font-family: BACS"">CchtdhRKm</p>","","","","","","","","","",""
"html-keyboard-response","16","146582","0.0-8.0-0.8","5fe2308a91773957e88b89be","650c16f0f2faf8d7a0d14c09","651c1e0740dad3354c79f515","null","null","<p style=""font-size: 60px; font-family: BACS"">lBKtYKPB</p>","","","","","","","","","",""
"html-keyboard-response","17","147590","0.0-8.0-0.9","5fe2308a91773957e88b89be","650c16f0f2faf8d7a0d14c09","651c1e0740dad3354c79f515","null","null","<p style=""font-size: 60px; font-family: BACS"">kulZdUr</p>","","","","","","","","","",""
"html-keyboard-response","18","148601","0.0-8.0-0.10","5fe2308a91773957e88b89be","650c16f0f2faf8d7a0d14c09","651c1e0740dad3354c79f515","null","null","<p style=""font-size: 60px; font-family: BACS"">AZaJcmZb</p>","","","","","","","","","",""
"html-keyboard-response","19","149623","0.0-8.0-0.11","5fe2308a91773957e88b89be","650c16f0f2faf8d7a0d14c09","651c1e0740dad3354c79f515","null","null","<p style=""font-size: 60px; font-family: BACS"">ArQudUr</p>","","","","","","","","","",""
"html-keyboard-response","20","150639","0.0-8.0-0.12","5fe2308a91773957e88b89be","650c16f0f2faf8d7a0d14c09","651c1e0740dad3354c79f515","null","null","<p style=""font-size: 60px; font-family: BACS"">ALGZAOUl</p>","","","","","","","","","",""
"html-keyboard-response","21","151656","0.0-8.0-0.13","5fe2308a91773957e88b89be","650c16f0f2faf8d7a0d14c09","651c1e0740dad3354c79f515","null","null","<p style=""font-size: 60px; font-family: BACS"">LOLkUdUr</p>","","","","","","","","","",""
"html-keyboard-response","22","152673","0.0-8.0-0.14","5fe2308a91773957e88b89be","650c16f0f2faf8d7a0d14c09","651c1e0740dad3354c79f515","null","null","<p style=""font-size: 60px; font-family: BACS"">ktBdYKPB</p>","","","","","","","","","",""
"html-keyboard-response","23","153689","0.0-8.0-0.15","5fe2308a91773957e88b89be","650c16f0f2faf8d7a0d14c09","651c1e0740dad3354c79f515","null","null","<p style=""font-size: 60px; font-family: BACS"">ZJLmrmZb</p>","","","","","","","","","",""
"html-keyboard-response","24","154692","0.0-8.0-0.16","5fe2308a91773957e88b89be","650c16f0f2faf8d7a0d14c09","651c1e0740dad3354c79f515","null","null","<p style=""font-size: 60px; font-family: BACS"">AMkCAdYl</p>","","","","","","","","","",""
"html-keyboard-response","25","155709","0.0-8.0-0.17","5fe2308a91773957e88b89be","650c16f0f2faf8d7a0d14c09","651c1e0740dad3354c79f515","null","null","<p style=""font-size: 60px; font-family: BACS"">ZJLmrGUa</p>","","","","","","","","","",""
"html-keyboard-response","26","156711","0.0-8.0-0.18","5fe2308a91773957e88b89be","650c16f0f2faf8d7a0d14c09","651c1e0740dad3354c79f515","null","null","<p style=""font-size: 60px; font-family: BACS"">mBbKTRkY</p>","","","","","","","","","",""
"html-keyboard-response","27","157734","0.0-8.0-0.19","5fe2308a91773957e88b89be","650c16f0f2faf8d7a0d14c09","651c1e0740dad3354c79f515","null","null","<p style=""font-size: 60px; font-family: BACS"">BATOcAdYl</p>","","","","","","","","","",""
"html-keyboard-response","28","158750","0.0-8.0-0.20","5fe2308a91773957e88b89be","650c16f0f2faf8d7a0d14c09","651c1e0740dad3354c79f515","null","null","<p style=""font-size: 60px; font-family: BACS"">ktBdhRKm</p>","","","","","","","","","",""
"html-keyboard-response","29","159766","0.0-8.0-0.21","5fe2308a91773957e88b89be","650c16f0f2faf8d7a0d14c09","651c1e0740dad3354c79f515","null","null","<p style=""font-size: 60px; font-family: BACS"">ZJLmrLaA</p>","","","","","","","","","",""
"html-keyboard-response","30","160770","0.0-8.0-0.22","5fe2308a91773957e88b89be","650c16f0f2faf8d7a0d14c09","651c1e0740dad3354c79f515","null","null","<p style=""font-size: 60px; font-family: BACS"">AbKDAdYl</p>","","","","","","","","","",""
"html-keyboard-response","31","161785","0.0-8.0-0.23","5fe2308a91773957e88b89be","650c16f0f2faf8d7a0d14c09","651c1e0740dad3354c79f515","null","null","<p style=""font-size: 60px; font-family: BACS"">YlYcEAO</p>","","","","","","","","","",""
"html-keyboard-response","32","162802","0.0-8.0-0.24","5fe2308a91773957e88b89be","650c16f0f2faf8d7a0d14c09","651c1e0740dad3354c79f515","null","null","<p style=""font-size: 60px; font-family: BACS"">ArQuAOUl</p>","","","","","","","","","",""
"html-keyboard-response","33","163806","0.0-8.0-0.25","5fe2308a91773957e88b89be","650c16f0f2faf8d7a0d14c09","651c1e0740dad3354c79f515","null","null","<p style=""font-size: 60px; font-family: BACS"">BATOcTRkY</p>","","","","","","","","","",""
"html-keyboard-response","34","164807","0.0-8.0-0.26","5fe2308a91773957e88b89be","650c16f0f2faf8d7a0d14c09","651c1e0740dad3354c79f515","null","null","<p style=""font-size: 60px; font-family: BACS"">CchtdYKPB</p>","","","","","","","","","",""
"html-keyboard-response","35","165809","0.0-8.0-0.27","5fe2308a91773957e88b89be","650c16f0f2faf8d7a0d14c09","651c1e0740dad3354c79f515","null","null","<p style=""font-size: 60px; font-family: BACS"">JauQdUr</p>","","","","","","","","","",""
"html-keyboard-response","36","166826","0.0-8.0-0.28","5fe2308a91773957e88b89be","650c16f0f2faf8d7a0d14c09","651c1e0740dad3354c79f515","null","null","<p style=""font-size: 60px; font-family: BACS"">hAROKhRKm</p>","","","","","","","","","",""
"html-keyboard-response","37","167849","0.0-8.0-0.29","5fe2308a91773957e88b89be","650c16f0f2faf8d7a0d14c09","651c1e0740dad3354c79f515","null","null","<p style=""font-size: 60px; font-family: BACS"">lBKtTRkY</p>","","","","","","","","","",""
"html-keyboard-response","38","168864","0.0-8.0-0.30","5fe2308a91773957e88b89be","650c16f0f2faf8d7a0d14c09","651c1e0740dad3354c79f515","null","null","<p style=""font-size: 60px; font-family: BACS"">bGuOGUa</p>","","","","","","","","","",""
"html-keyboard-response","39","169868","0.0-8.0-0.31","5fe2308a91773957e88b89be","650c16f0f2faf8d7a0d14c09","651c1e0740dad3354c79f515","null","null","<p style=""font-size: 60px; font-family: BACS"">ALGZmZb</p>","","","","","","","","","",""
"html-keyboard-response","40","170871","0.0-8.0-0.32","5fe2308a91773957e88b89be","650c16f0f2faf8d7a0d14c09","651c1e0740dad3354c79f515","null","null","<p style=""font-size: 60px; font-family: BACS"">hAROKTRkY</p>","","","","","","","","","",""
"html-keyboard-response","41","171888","0.0-8.0-0.33","5fe2308a91773957e88b89be","650c16f0f2faf8d7a0d14c09","651c1e0740dad3354c79f515","null","null","<p style=""font-size: 60px; font-family: BACS"">LOLkUAOUl</p>","","","","","","","","","",""
"html-keyboard-response","42","172904","0.0-8.0-0.34","5fe2308a91773957e88b89be","650c16f0f2faf8d7a0d14c09","651c1e0740dad3354c79f515","null","null","<p style=""font-size: 60px; font-family: BACS"">mARMYKPB</p>","","","","","","","","","",""
"html-keyboard-response","43","173906","0.0-8.0-0.35","5fe2308a91773957e88b89be","650c16f0f2faf8d7a0d14c09","651c1e0740dad3354c79f515","null","null","<p style=""font-size: 60px; font-family: BACS"">YQbcAOUl</p>","","","","","","","","","",""
"html-keyboard-response","44","174922","0.0-8.0-0.36","5fe2308a91773957e88b89be","650c16f0f2faf8d7a0d14c09","651c1e0740dad3354c79f515","null","null","<p style=""font-size: 60px; font-family: BACS"">bGuOmZb</p>","","","","","","","","","",""
"html-keyboard-response","45","175924","0.0-8.0-0.37","5fe2308a91773957e88b89be","650c16f0f2faf8d7a0d14c09","651c1e0740dad3354c79f515","null","null","<p style=""font-size: 60px; font-family: BACS"">lBKthRKm</p>","","","","","","","","","",""
"html-keyboard-response","46","176925","0.0-8.0-0.38","5fe2308a91773957e88b89be","650c16f0f2faf8d7a0d14c09","651c1e0740dad3354c79f515","null","null","<p style=""font-size: 60px; font-family: BACS"">YUNkZGUa</p>","","","","","","","","","",""
"html-keyboard-response","47","177942","0.0-8.0-0.39","5fe2308a91773957e88b89be","650c16f0f2faf8d7a0d14c09","651c1e0740dad3354c79f515","null","null","<p style=""font-size: 60px; font-family: BACS"">AbKDEAO</p>","","","","","","","","","",""
"html-keyboard-response","48","178966","0.0-8.0-0.40","5fe2308a91773957e88b89be","650c16f0f2faf8d7a0d14c09","651c1e0740dad3354c79f515","null","null","<p style=""font-size: 60px; font-family: BACS"">YUNkZdUr</p>","","","","","","","","","",""
"html-keyboard-response","49","179981","0.0-8.0-0.41","5fe2308a91773957e88b89be","650c16f0f2faf8d7a0d14c09","651c1e0740dad3354c79f515","null","null","<p style=""font-size: 60px; font-family: BACS"">hAROKAdYl</p>","","","","","","","","","",""
"html-keyboard-response","50","180983","0.0-8.0-0.42","5fe2308a91773957e88b89be","650c16f0f2faf8d7a0d14c09","651c1e0740dad3354c79f515","null","null","<p style=""font-size: 60px; font-family: BACS"">kulZLaA</p>","","","","","","","","","",""
"html-keyboard-response","51","182000","0.0-8.0-0.43","5fe2308a91773957e88b89be","650c16f0f2faf8d7a0d14c09","651c1e0740dad3354c79f515","null","null","<p style=""font-size: 60px; font-family: BACS"">YlYcYKPB</p>","","","","","","","","","",""
"html-keyboard-response","52","183016","0.0-8.0-0.44","5fe2308a91773957e88b89be","650c16f0f2faf8d7a0d14c09","651c1e0740dad3354c79f515","null","null","<p style=""font-size: 60px; font-family: BACS"">AZaJcdUr</p>","","","","","","","","","",""
"html-keyboard-response","53","184033","0.0-8.0-0.45","5fe2308a91773957e88b89be","650c16f0f2faf8d7a0d14c09","651c1e0740dad3354c79f515","null","null","<p style=""font-size: 60px; font-family: BACS"">mBbKYKPB</p>","","","","","","","","","",""
"html-keyboard-response","54","185035","0.0-8.0-0.46","5fe2308a91773957e88b89be","650c16f0f2faf8d7a0d14c09","651c1e0740dad3354c79f515","null","null","<p style=""font-size: 60px; font-family: BACS"">AMkCEAO</p>","","","","","","","","","",""
"html-keyboard-response","55","186037","0.0-8.0-0.47","5fe2308a91773957e88b89be","650c16f0f2faf8d7a0d14c09","651c1e0740dad3354c79f515","null","null","<p style=""font-size: 60px; font-family: BACS"">YQbcLaA</p>","","","","","","","","","",""
"html-keyboard-response","56","187052","0.0-8.0-0.48","5fe2308a91773957e88b89be","650c16f0f2faf8d7a0d14c09","651c1e0740dad3354c79f515","null","null","<p style=""font-size: 60px; font-family: BACS"">AbKDTRkY</p>","","","","","","","","","",""
"html-keyboard-response","57","188076","0.0-8.0-0.49","5fe2308a91773957e88b89be","650c16f0f2faf8d7a0d14c09","651c1e0740dad3354c79f515","null","null","<p style=""font-size: 60px; font-family: BACS"">YlYcAdYl</p>","","","","","","","","","",""
"html-keyboard-response","58","189078","0.0-8.0-0.50","5fe2308a91773957e88b89be","650c16f0f2faf8d7a0d14c09","651c1e0740dad3354c79f515","null","null","<p style=""font-size: 60px; font-family: BACS"">YUNkZAOUl</p>","","","","","","","","","",""
"html-keyboard-response","59","190082","0.0-8.0-0.51","5fe2308a91773957e88b89be","650c16f0f2faf8d7a0d14c09","651c1e0740dad3354c79f515","null","null","<p style=""font-size: 60px; font-family: BACS"">ktBdEAO</p>","","","","","","","","","",""
"html-keyboard-response","60","191098","0.0-8.0-0.52","5fe2308a91773957e88b89be","650c16f0f2faf8d7a0d14c09","651c1e0740dad3354c79f515","null","null","<p style=""font-size: 60px; font-family: BACS"">mARMhRKm</p>","","","","","","","","","",""
"html-keyboard-response","61","192099","0.0-8.0-0.53","5fe2308a91773957e88b89be","650c16f0f2faf8d7a0d14c09","651c1e0740dad3354c79f515","null","null","<p style=""font-size: 60px; font-family: BACS"">YQbcmZb</p>","","","","","","","","","",""
"html-keyboard-response","62","193116","0.0-8.0-0.54","5fe2308a91773957e88b89be","650c16f0f2faf8d7a0d14c09","651c1e0740dad3354c79f515","null","null","<p style=""font-size: 60px; font-family: BACS"">bGuOAOUl</p>","","","","","","","","","",""
"html-keyboard-response","63","194118","0.0-8.0-0.55","5fe2308a91773957e88b89be","650c16f0f2faf8d7a0d14c09","651c1e0740dad3354c79f515","null","null","<p style=""font-size: 60px; font-family: BACS"">kulZGUa</p>","","","","","","","","","",""
"html-keyboard-response","64","195135","0.0-8.0-0.56","5fe2308a91773957e88b89be","650c16f0f2faf8d7a0d14c09","651c1e0740dad3354c79f515","null","null","<p style=""font-size: 60px; font-family: BACS"">YlYcTRkY</p>","","","","","","","","","",""
"html-keyboard-response","65","196150","0.0-8.0-0.57","5fe2308a91773957e88b89be","650c16f0f2faf8d7a0d14c09","651c1e0740dad3354c79f515","null","null","<p style=""font-size: 60px; font-family: BACS"">AMkCYKPB</p>","","","","","","","","","",""
"html-keyboard-response","66","197168","0.0-8.0-0.58","5fe2308a91773957e88b89be","650c16f0f2faf8d7a0d14c09","651c1e0740dad3354c79f515","null","null","<p style=""font-size: 60px; font-family: BACS"">mARMTRkY</p>","","","","","","","","","",""
"html-keyboard-response","67","198190","0.0-8.0-0.59","5fe2308a91773957e88b89be","650c16f0f2faf8d7a0d14c09","651c1e0740dad3354c79f515","null","null","<p style=""font-size: 60px; font-family: BACS"">ZJLmrAOUl</p>","","","","","","","","","",""
"html-keyboard-response","68","199206","0.0-8.0-0.60","5fe2308a91773957e88b89be","650c16f0f2faf8d7a0d14c09","651c1e0740dad3354c79f515","null","null","<p style=""font-size: 60px; font-family: BACS"">ArQumZb</p>","","","","","","","","","",""
"html-keyboard-response","69","200208","0.0-8.0-0.61","5fe2308a91773957e88b89be","650c16f0f2faf8d7a0d14c09","651c1e0740dad3354c79f515","null","null","<p style=""font-size: 60px; font-family: BACS"">LOLkUGUa</p>","","","","","","","","","",""
"html-keyboard-response","70","201212","0.0-8.0-0.62","5fe2308a91773957e88b89be","650c16f0f2faf8d7a0d14c09","651c1e0740dad3354c79f515","null","null","<p style=""font-size: 60px; font-family: BACS"">YUNkZmZb</p>","","","","","","","","","",""
"html-keyboard-response","71","202214","0.0-8.0-0.63","5fe2308a91773957e88b89be","650c16f0f2faf8d7a0d14c09","651c1e0740dad3354c79f515","null","null","<p style=""font-size: 60px; font-family: BACS"">ArQuLaA</p>","","","","","","","","","",""
"html-keyboard-response","72","203216","0.0-8.0-0.64","5fe2308a91773957e88b89be","650c16f0f2faf8d7a0d14c09","651c1e0740dad3354c79f515","null","null","<p style=""font-size: 60px; font-family: BACS"">ktBdTRkY</p>","","","","","","","","","",""
"html-keyboard-response","73","204233","0.0-8.0-0.65","5fe2308a91773957e88b89be","650c16f0f2faf8d7a0d14c09","651c1e0740dad3354c79f515","null","null","<p style=""font-size: 60px; font-family: BACS"">JauQmZb</p>","","","","","","","","","",""
"html-keyboard-response","74","205253","0.0-8.0-0.66","5fe2308a91773957e88b89be","650c16f0f2faf8d7a0d14c09","651c1e0740dad3354c79f515","null","null","<p style=""font-size: 60px; font-family: BACS"">lBKtAdYl</p>","","","","","","","","","",""
"html-keyboard-response","75","206262","0.0-8.0-0.67","5fe2308a91773957e88b89be","650c16f0f2faf8d7a0d14c09","651c1e0740dad3354c79f515","null","null","<p style=""font-size: 60px; font-family: BACS"">LOLkULaA</p>","","","","","","","","","",""
"html-keyboard-response","76","207264","0.0-8.0-0.68","5fe2308a91773957e88b89be","650c16f0f2faf8d7a0d14c09","651c1e0740dad3354c79f515","null","null","<p style=""font-size: 60px; font-family: BACS"">CchtdEAO</p>","","","","","","","","","",""
"html-keyboard-response","77","208267","0.0-8.0-0.69","5fe2308a91773957e88b89be","650c16f0f2faf8d7a0d14c09","651c1e0740dad3354c79f515","null","null","<p style=""font-size: 60px; font-family: BACS"">kulZAOUl</p>","","","","","","","","","",""
"html-keyboard-response","78","209271","0.0-8.0-0.70","5fe2308a91773957e88b89be","650c16f0f2faf8d7a0d14c09","651c1e0740dad3354c79f515","null","null","<p style=""font-size: 60px; font-family: BACS"">AZaJcLaA</p>","","","","","","","","","",""
"html-keyboard-response","79","210283","0.0-8.0-0.71","5fe2308a91773957e88b89be","650c16f0f2faf8d7a0d14c09","651c1e0740dad3354c79f515","null","null","<p style=""font-size: 60px; font-family: BACS"">AbKDhRKm</p>","","","","","","","","","",""
"html-keyboard-response","80","211292","0.0-8.0-0.72","5fe2308a91773957e88b89be","650c16f0f2faf8d7a0d14c09","651c1e0740dad3354c79f515","null","null","<p style=""font-size: 60px; font-family: BACS"">BATOcYKPB</p>","","","","","","","","","",""
"html-keyboard-response","81","212304","0.0-8.0-0.73","5fe2308a91773957e88b89be","650c16f0f2faf8d7a0d14c09","651c1e0740dad3354c79f515","null","null","<p style=""font-size: 60px; font-family: BACS"">hAROKEAO</p>","","","","","","","","","",""
"html-keyboard-response","82","213311","0.0-8.0-0.74","5fe2308a91773957e88b89be","650c16f0f2faf8d7a0d14c09","651c1e0740dad3354c79f515","null","null","<p style=""font-size: 60px; font-family: BACS"">bGuOdUr</p>","","","","","","","","","",""
"html-keyboard-response","83","214323","0.0-8.0-0.75","5fe2308a91773957e88b89be","650c16f0f2faf8d7a0d14c09","651c1e0740dad3354c79f515","null","null","<p style=""font-size: 60px; font-family: BACS"">mBbKhRKm</p>","","","","","","","","","",""
"html-keyboard-response","84","215328","0.0-8.0-0.76","5fe2308a91773957e88b89be","650c16f0f2faf8d7a0d14c09","651c1e0740dad3354c79f515","null","null","<p style=""font-size: 60px; font-family: BACS"">ALGZLaA</p>","","","","","","","","","",""
"html-keyboard-response","85","216347","0.0-8.0-0.77","5fe2308a91773957e88b89be","650c16f0f2faf8d7a0d14c09","651c1e0740dad3354c79f515","null","null","<p style=""font-size: 60px; font-family: BACS"">AMkChRKm</p>","","","","","","","","","",""
"html-keyboard-response","86","217364","0.0-8.0-0.78","5fe2308a91773957e88b89be","650c16f0f2faf8d7a0d14c09","651c1e0740dad3354c79f515","null","null","<p style=""font-size: 60px; font-family: BACS"">YQbcGUa</p>","","","","","","","","","",""
"html-keyboard-response","87","218380","0.0-8.0-0.79","5fe2308a91773957e88b89be","650c16f0f2faf8d7a0d14c09","651c1e0740dad3354c79f515","null","null","<p style=""font-size: 60px; font-family: BACS"">JauQLaA</p>","","","","","","","","","",""
"html-keyboard-response","88","228994","0.0-9.0","5fe2308a91773957e88b89be","650c16f0f2faf8d7a0d14c09","651c1e0740dad3354c79f515","10612"," ","<p>Great, you've seen the first block of words. You may now take a short break.</p>
      <p>Press the spacebar when you're ready to continue.</p>","","","","","","","","","",""
"html-keyboard-response","89","230008","0.0-10.0-0.0","5fe2308a91773957e88b89be","650c16f0f2faf8d7a0d14c09","651c1e0740dad3354c79f515","null","null","<p style=""font-size: 60px; font-family: BACS"">ZJLmrLaA</p>","","","","","","","","","",""
"html-keyboard-response","90","231019","0.0-10.0-0.1","5fe2308a91773957e88b89be","650c16f0f2faf8d7a0d14c09","651c1e0740dad3354c79f515","null","null","<p style=""font-size: 60px; font-family: BACS"">YUNkZAOUl</p>","","","","","","","","","",""
"html-keyboard-response","91","232029","0.0-10.0-0.2","5fe2308a91773957e88b89be","650c16f0f2faf8d7a0d14c09","651c1e0740dad3354c79f515","null","null","<p style=""font-size: 60px; font-family: BACS"">hAROKEAO</p>","","","","","","","","","",""
"html-keyboard-response","92","233038","0.0-10.0-0.3","5fe2308a91773957e88b89be","650c16f0f2faf8d7a0d14c09","651c1e0740dad3354c79f515","null","null","<p style=""font-size: 60px; font-family: BACS"">mARMTRkY</p>","","","","","","","","","",""
"html-keyboard-response","93","234050","0.0-10.0-0.4","5fe2308a91773957e88b89be","650c16f0f2faf8d7a0d14c09","651c1e0740dad3354c79f515","null","null","<p style=""font-size: 60px; font-family: BACS"">YQbcmZb</p>","","","","","","","","","",""
"html-keyboard-response","94","235057","0.0-10.0-0.5","5fe2308a91773957e88b89be","650c16f0f2faf8d7a0d14c09","651c1e0740dad3354c79f515","null","null","<p style=""font-size: 60px; font-family: BACS"">CchtdhRKm</p>","","","","","","","","","",""
"html-keyboard-response","95","236068","0.0-10.0-0.6","5fe2308a91773957e88b89be","650c16f0f2faf8d7a0d14c09","651c1e0740dad3354c79f515","null","null","<p style=""font-size: 60px; font-family: BACS"">YlYcYKPB</p>","","","","","","","","","",""
"html-keyboard-response","96","237084","0.0-10.0-0.7","5fe2308a91773957e88b89be","650c16f0f2faf8d7a0d14c09","651c1e0740dad3354c79f515","null","null","<p style=""font-size: 60px; font-family: BACS"">bGuOGUa</p>","","","","","","","","","",""
"html-keyboard-response","97","238086","0.0-10.0-0.8","5fe2308a91773957e88b89be","650c16f0f2faf8d7a0d14c09","651c1e0740dad3354c79f515","null","null","<p style=""font-size: 60px; font-family: BACS"">ZJLmrAOUl</p>","","","","","","","","","",""
"html-keyboard-response","98","239102","0.0-10.0-0.9","5fe2308a91773957e88b89be","650c16f0f2faf8d7a0d14c09","651c1e0740dad3354c79f515","null","null","<p style=""font-size: 60px; font-family: BACS"">mARMhRKm</p>","","","","","","","","","",""
"html-keyboard-response","99","240118","0.0-10.0-0.10","5fe2308a91773957e88b89be","650c16f0f2faf8d7a0d14c09","651c1e0740dad3354c79f515","null","null","<p style=""font-size: 60px; font-family: BACS"">YlYcAdYl</p>","","","","","","","","","",""
"html-keyboard-response","100","241137","0.0-10.0-0.11","5fe2308a91773957e88b89be","650c16f0f2faf8d7a0d14c09","651c1e0740dad3354c79f515","null","null","<p style=""font-size: 60px; font-family: BACS"">lBKtTRkY</p>","","","","","","","","","",""
"html-keyboard-response","101","242153","0.0-10.0-0.12","5fe2308a91773957e88b89be","650c16f0f2faf8d7a0d14c09","651c1e0740dad3354c79f515","null","null","<p style=""font-size: 60px; font-family: BACS"">ZJLmrGUa</p>","","","","","","","","","",""
"html-keyboard-response","102","243155","0.0-10.0-0.13","5fe2308a91773957e88b89be","650c16f0f2faf8d7a0d14c09","651c1e0740dad3354c79f515","null","null","<p style=""font-size: 60px; font-family: BACS"">YUNkZmZb</p>","","","","","","","","","",""
"html-keyboard-response","103","244178","0.0-10.0-0.14","5fe2308a91773957e88b89be","650c16f0f2faf8d7a0d14c09","651c1e0740dad3354c79f515","null","null","<p style=""font-size: 60px; font-family: BACS"">mBbKTRkY</p>","","","","","","","","","",""
"html-keyboard-response","104","245181","0.0-10.0-0.15","5fe2308a91773957e88b89be","650c16f0f2faf8d7a0d14c09","651c1e0740dad3354c79f515","null","null","<p style=""font-size: 60px; font-family: BACS"">CchtdYKPB</p>","","","","","","","","","",""
"html-keyboard-response","105","246197","0.0-10.0-0.16","5fe2308a91773957e88b89be","650c16f0f2faf8d7a0d14c09","651c1e0740dad3354c79f515","null","null","<p style=""font-size: 60px; font-family: BACS"">ktBdEAO</p>","","","","","","","","","",""
"html-keyboard-response","106","247214","0.0-10.0-0.17","5fe2308a91773957e88b89be","650c16f0f2faf8d7a0d14c09","651c1e0740dad3354c79f515","null","null","<p style=""font-size: 60px; font-family: BACS"">JauQLaA</p>","","","","","","","","","",""
"html-keyboard-response","107","248221","0.0-10.0-0.18","5fe2308a91773957e88b89be","650c16f0f2faf8d7a0d14c09","651c1e0740dad3354c79f515","null","null","<p style=""font-size: 60px; font-family: BACS"">kulZAOUl</p>","","","","","","","","","",""
"html-keyboard-response","108","249230","0.0-10.0-0.19","5fe2308a91773957e88b89be","650c16f0f2faf8d7a0d14c09","651c1e0740dad3354c79f515","null","null","<p style=""font-size: 60px; font-family: BACS"">YlYcEAO</p>","","","","","","","","","",""
"html-keyboard-response","109","250246","0.0-10.0-0.20","5fe2308a91773957e88b89be","650c16f0f2faf8d7a0d14c09","651c1e0740dad3354c79f515","null","null","<p style=""font-size: 60px; font-family: BACS"">YQbcLaA</p>","","","","","","","","","",""
"html-keyboard-response","110","251254","0.0-10.0-0.21","5fe2308a91773957e88b89be","650c16f0f2faf8d7a0d14c09","651c1e0740dad3354c79f515","null","null","<p style=""font-size: 60px; font-family: BACS"">YlYcTRkY</p>","","","","","","","","","",""
"html-keyboard-response","111","252266","0.0-10.0-0.22","5fe2308a91773957e88b89be","650c16f0f2faf8d7a0d14c09","651c1e0740dad3354c79f515","null","null","<p style=""font-size: 60px; font-family: BACS"">hAROKAdYl</p>","","","","","","","","","",""
"html-keyboard-response","112","253274","0.0-10.0-0.23","5fe2308a91773957e88b89be","650c16f0f2faf8d7a0d14c09","651c1e0740dad3354c79f515","null","null","<p style=""font-size: 60px; font-family: BACS"">bGuOdUr</p>","","","","","","","","","",""
"html-keyboard-response","113","254291","0.0-10.0-0.24","5fe2308a91773957e88b89be","650c16f0f2faf8d7a0d14c09","651c1e0740dad3354c79f515","null","null","<p style=""font-size: 60px; font-family: BACS"">lBKthRKm</p>","","","","","","","","","",""
"html-keyboard-response","114","255307","0.0-10.0-0.25","5fe2308a91773957e88b89be","650c16f0f2faf8d7a0d14c09","651c1e0740dad3354c79f515","null","null","<p style=""font-size: 60px; font-family: BACS"">ZJLmrmZb</p>","","","","","","","","","",""
"html-keyboard-response","115","256324","0.0-10.0-0.26","5fe2308a91773957e88b89be","650c16f0f2faf8d7a0d14c09","651c1e0740dad3354c79f515","null","null","<p style=""font-size: 60px; font-family: BACS"">JauQGUa</p>","","","","","","","","","",""
"html-keyboard-response","116","257341","0.0-10.0-0.27","5fe2308a91773957e88b89be","650c16f0f2faf8d7a0d14c09","651c1e0740dad3354c79f515","null","null","<p style=""font-size: 60px; font-family: BACS"">BATOcAdYl</p>","","","","","","","","","",""
"html-keyboard-response","117","258357","0.0-10.0-0.28","5fe2308a91773957e88b89be","650c16f0f2faf8d7a0d14c09","651c1e0740dad3354c79f515","null","null","<p style=""font-size: 60px; font-family: BACS"">AbKDTRkY</p>","","","","","","","","","",""
"html-keyboard-response","118","259374","0.0-10.0-0.29","5fe2308a91773957e88b89be","650c16f0f2faf8d7a0d14c09","651c1e0740dad3354c79f515","null","null","<p style=""font-size: 60px; font-family: BACS"">mARMYKPB</p>","","","","","","","","","",""
"html-keyboard-response","119","260397","0.0-10.0-0.30","5fe2308a91773957e88b89be","650c16f0f2faf8d7a0d14c09","651c1e0740dad3354c79f515","null","null","<p style=""font-size: 60px; font-family: BACS"">hAROKTRkY</p>","","","","","","","","","",""
"html-keyboard-response","120","261413","0.0-10.0-0.31","5fe2308a91773957e88b89be","650c16f0f2faf8d7a0d14c09","651c1e0740dad3354c79f515","null","null","<p style=""font-size: 60px; font-family: BACS"">AZaJcmZb</p>","","","","","","","","","",""
"html-keyboard-response","121","262429","0.0-10.0-0.32","5fe2308a91773957e88b89be","650c16f0f2faf8d7a0d14c09","651c1e0740dad3354c79f515","null","null","<p style=""font-size: 60px; font-family: BACS"">AMkCAdYl</p>","","","","","","","","","",""
"html-keyboard-response","122","263445","0.0-10.0-0.33","5fe2308a91773957e88b89be","650c16f0f2faf8d7a0d14c09","651c1e0740dad3354c79f515","null","null","<p style=""font-size: 60px; font-family: BACS"">ktBdTRkY</p>","","","","","","","","","",""
"html-keyboard-response","123","264449","0.0-10.0-0.34","5fe2308a91773957e88b89be","650c16f0f2faf8d7a0d14c09","651c1e0740dad3354c79f515","null","null","<p style=""font-size: 60px; font-family: BACS"">ALGZLaA</p>","","","","","","","","","",""
"html-keyboard-response","124","265465","0.0-10.0-0.35","5fe2308a91773957e88b89be","650c16f0f2faf8d7a0d14c09","651c1e0740dad3354c79f515","null","null","<p style=""font-size: 60px; font-family: BACS"">AMkCYKPB</p>","","","","","","","","","",""
"html-keyboard-response","125","266475","0.0-10.0-0.36","5fe2308a91773957e88b89be","650c16f0f2faf8d7a0d14c09","651c1e0740dad3354c79f515","null","null","<p style=""font-size: 60px; font-family: BACS"">LOLkUdUr</p>","","","","","","","","","",""
"html-keyboard-response","126","267482","0.0-10.0-0.37","5fe2308a91773957e88b89be","650c16f0f2faf8d7a0d14c09","651c1e0740dad3354c79f515","null","null","<p style=""font-size: 60px; font-family: BACS"">AMkChRKm</p>","","","","","","","","","",""
"html-keyboard-response","127","268506","0.0-10.0-0.38","5fe2308a91773957e88b89be","650c16f0f2faf8d7a0d14c09","651c1e0740dad3354c79f515","null","null","<p style=""font-size: 60px; font-family: BACS"">JauQmZb</p>","","","","","","","","","",""
"html-keyboard-response","128","269522","0.0-10.0-0.39","5fe2308a91773957e88b89be","650c16f0f2faf8d7a0d14c09","651c1e0740dad3354c79f515","null","null","<p style=""font-size: 60px; font-family: BACS"">YQbcGUa</p>","","","","","","","","","",""
"html-keyboard-response","129","270539","0.0-10.0-0.40","5fe2308a91773957e88b89be","650c16f0f2faf8d7a0d14c09","651c1e0740dad3354c79f515","null","null","<p style=""font-size: 60px; font-family: BACS"">ALGZdUr</p>","","","","","","","","","",""
"html-keyboard-response","130","271555","0.0-10.0-0.41","5fe2308a91773957e88b89be","650c16f0f2faf8d7a0d14c09","651c1e0740dad3354c79f515","null","null","<p style=""font-size: 60px; font-family: BACS"">lBKtAdYl</p>","","","","","","","","","",""
"html-keyboard-response","131","272571","0.0-10.0-0.42","5fe2308a91773957e88b89be","650c16f0f2faf8d7a0d14c09","651c1e0740dad3354c79f515","null","null","<p style=""font-size: 60px; font-family: BACS"">BATOcYKPB</p>","","","","","","","","","",""
"html-keyboard-response","132","273587","0.0-10.0-0.43","5fe2308a91773957e88b89be","650c16f0f2faf8d7a0d14c09","651c1e0740dad3354c79f515","null","null","<p style=""font-size: 60px; font-family: BACS"">CchtdAdYl</p>","","","","","","","","","",""
"html-keyboard-response","133","274610","0.0-10.0-0.44","5fe2308a91773957e88b89be","650c16f0f2faf8d7a0d14c09","651c1e0740dad3354c79f515","null","null","<p style=""font-size: 60px; font-family: BACS"">ArQuLaA</p>","","","","","","","","","",""
"html-keyboard-response","134","275626","0.0-10.0-0.45","5fe2308a91773957e88b89be","650c16f0f2faf8d7a0d14c09","651c1e0740dad3354c79f515","null","null","<p style=""font-size: 60px; font-family: BACS"">AbKDEAO</p>","","","","","","","","","",""
"html-keyboard-response","135","276629","0.0-10.0-0.46","5fe2308a91773957e88b89be","650c16f0f2faf8d7a0d14c09","651c1e0740dad3354c79f515","null","null","<p style=""font-size: 60px; font-family: BACS"">AZaJcGUa</p>","","","","","","","","","",""
"html-keyboard-response","136","277645","0.0-10.0-0.47","5fe2308a91773957e88b89be","650c16f0f2faf8d7a0d14c09","651c1e0740dad3354c79f515","null","null","<p style=""font-size: 60px; font-family: BACS"">mBbKEAO</p>","","","","","","","","","",""
"html-keyboard-response","137","278649","0.0-10.0-0.48","5fe2308a91773957e88b89be","650c16f0f2faf8d7a0d14c09","651c1e0740dad3354c79f515","null","null","<p style=""font-size: 60px; font-family: BACS"">ArQudUr</p>","","","","","","","","","",""
"html-keyboard-response","138","279651","0.0-10.0-0.49","5fe2308a91773957e88b89be","650c16f0f2faf8d7a0d14c09","651c1e0740dad3354c79f515","null","null","<p style=""font-size: 60px; font-family: BACS"">CchtdEAO</p>","","","","","","","","","",""
"html-keyboard-response","139","280667","0.0-10.0-0.50","5fe2308a91773957e88b89be","650c16f0f2faf8d7a0d14c09","651c1e0740dad3354c79f515","null","null","<p style=""font-size: 60px; font-family: BACS"">kulZGUa</p>","","","","","","","","","",""
"html-keyboard-response","140","281684","0.0-10.0-0.51","5fe2308a91773957e88b89be","650c16f0f2faf8d7a0d14c09","651c1e0740dad3354c79f515","null","null","<p style=""font-size: 60px; font-family: BACS"">hAROKhRKm</p>","","","","","","","","","",""
"html-keyboard-response","141","282701","0.0-10.0-0.52","5fe2308a91773957e88b89be","650c16f0f2faf8d7a0d14c09","651c1e0740dad3354c79f515","null","null","<p style=""font-size: 60px; font-family: BACS"">kulZdUr</p>","","","","","","","","","",""
"html-keyboard-response","142","283724","0.0-10.0-0.53","5fe2308a91773957e88b89be","650c16f0f2faf8d7a0d14c09","651c1e0740dad3354c79f515","null","null","<p style=""font-size: 60px; font-family: BACS"">ALGZmZb</p>","","","","","","","","","",""
"html-keyboard-response","143","284726","0.0-10.0-0.54","5fe2308a91773957e88b89be","650c16f0f2faf8d7a0d14c09","651c1e0740dad3354c79f515","null","null","<p style=""font-size: 60px; font-family: BACS"">YUNkZGUa</p>","","","","","","","","","",""
"html-keyboard-response","144","285728","0.0-10.0-0.55","5fe2308a91773957e88b89be","650c16f0f2faf8d7a0d14c09","651c1e0740dad3354c79f515","null","null","<p style=""font-size: 60px; font-family: BACS"">kulZLaA</p>","","","","","","","","","",""
"html-keyboard-response","145","286744","0.0-10.0-0.56","5fe2308a91773957e88b89be","650c16f0f2faf8d7a0d14c09","651c1e0740dad3354c79f515","null","null","<p style=""font-size: 60px; font-family: BACS"">mARMAdYl</p>","","","","","","","","","",""
"html-keyboard-response","146","287761","0.0-10.0-0.57","5fe2308a91773957e88b89be","650c16f0f2faf8d7a0d14c09","651c1e0740dad3354c79f515","null","null","<p style=""font-size: 60px; font-family: BACS"">bGuOmZb</p>","","","","","","","","","",""
"html-keyboard-response","147","288778","0.0-10.0-0.58","5fe2308a91773957e88b89be","650c16f0f2faf8d7a0d14c09","651c1e0740dad3354c79f515","null","null","<p style=""font-size: 60px; font-family: BACS"">ktBdYKPB</p>","","","","","","","","","",""
"html-keyboard-response","148","289794","0.0-10.0-0.59","5fe2308a91773957e88b89be","650c16f0f2faf8d7a0d14c09","651c1e0740dad3354c79f515","null","null","<p style=""font-size: 60px; font-family: BACS"">LOLkULaA</p>","","","","","","","","","",""
"html-keyboard-response","149","290806","0.0-10.0-0.60","5fe2308a91773957e88b89be","650c16f0f2faf8d7a0d14c09","651c1e0740dad3354c79f515","null","null","<p style=""font-size: 60px; font-family: BACS"">YQbcAOUl</p>","","","","","","","","","",""
"html-keyboard-response","150","291808","0.0-10.0-0.61","5fe2308a91773957e88b89be","650c16f0f2faf8d7a0d14c09","651c1e0740dad3354c79f515","null","null","<p style=""font-size: 60px; font-family: BACS"">mBbKYKPB</p>","","","","","","","","","",""
"html-keyboard-response","151","292824","0.0-10.0-0.62","5fe2308a91773957e88b89be","650c16f0f2faf8d7a0d14c09","651c1e0740dad3354c79f515","null","null","<p style=""font-size: 60px; font-family: BACS"">ktBdhRKm</p>","","","","","","","","","",""
"html-keyboard-response","152","293841","0.0-10.0-0.63","5fe2308a91773957e88b89be","650c16f0f2faf8d7a0d14c09","651c1e0740dad3354c79f515","null","null","<p style=""font-size: 60px; font-family: BACS"">LOLkUAOUl</p>","","","","","","","","","",""
"html-keyboard-response","153","294843","0.0-10.0-0.64","5fe2308a91773957e88b89be","650c16f0f2faf8d7a0d14c09","651c1e0740dad3354c79f515","null","null","<p style=""font-size: 60px; font-family: BACS"">AMkCEAO</p>","","","","","","","","","",""
"html-keyboard-response","154","295859","0.0-10.0-0.65","5fe2308a91773957e88b89be","650c16f0f2faf8d7a0d14c09","651c1e0740dad3354c79f515","null","null","<p style=""font-size: 60px; font-family: BACS"">lBKtYKPB</p>","","","","","","","","","",""
"html-keyboard-response","155","296882","0.0-10.0-0.66","5fe2308a91773957e88b89be","650c16f0f2faf8d7a0d14c09","651c1e0740dad3354c79f515","null","null","<p style=""font-size: 60px; font-family: BACS"">ArQuAOUl</p>","","","","","","","","","",""
"html-keyboard-response","156","297898","0.0-10.0-0.67","5fe2308a91773957e88b89be","650c16f0f2faf8d7a0d14c09","651c1e0740dad3354c79f515","null","null","<p style=""font-size: 60px; font-family: BACS"">BATOcEAO</p>","","","","","","","","","",""
"html-keyboard-response","157","298913","0.0-10.0-0.68","5fe2308a91773957e88b89be","650c16f0f2faf8d7a0d14c09","651c1e0740dad3354c79f515","null","null","<p style=""font-size: 60px; font-family: BACS"">YUNkZdUr</p>","","","","","","","","","",""
"html-keyboard-response","158","299928","0.0-10.0-0.69","5fe2308a91773957e88b89be","650c16f0f2faf8d7a0d14c09","651c1e0740dad3354c79f515","null","null","<p style=""font-size: 60px; font-family: BACS"">ArQumZb</p>","","","","","","","","","",""
"html-keyboard-response","159","300930","0.0-10.0-0.70","5fe2308a91773957e88b89be","650c16f0f2faf8d7a0d14c09","651c1e0740dad3354c79f515","null","null","<p style=""font-size: 60px; font-family: BACS"">ALGZAOUl</p>","","","","","","","","","",""
"html-keyboard-response","160","301947","0.0-10.0-0.71","5fe2308a91773957e88b89be","650c16f0f2faf8d7a0d14c09","651c1e0740dad3354c79f515","null","null","<p style=""font-size: 60px; font-family: BACS"">JauQdUr</p>","","","","","","","","","",""
"html-keyboard-response","161","302964","0.0-10.0-0.72","5fe2308a91773957e88b89be","650c16f0f2faf8d7a0d14c09","651c1e0740dad3354c79f515","null","null","<p style=""font-size: 60px; font-family: BACS"">AZaJcLaA</p>","","","","","","","","","",""
"html-keyboard-response","162","303980","0.0-10.0-0.73","5fe2308a91773957e88b89be","650c16f0f2faf8d7a0d14c09","651c1e0740dad3354c79f515","null","null","<p style=""font-size: 60px; font-family: BACS"">BATOcTRkY</p>","","","","","","","","","",""
"html-keyboard-response","163","305003","0.0-10.0-0.74","5fe2308a91773957e88b89be","650c16f0f2faf8d7a0d14c09","651c1e0740dad3354c79f515","null","null","<p style=""font-size: 60px; font-family: BACS"">AbKDhRKm</p>","","","","","","","","","",""
"html-keyboard-response","164","306021","0.0-10.0-0.75","5fe2308a91773957e88b89be","650c16f0f2faf8d7a0d14c09","651c1e0740dad3354c79f515","null","null","<p style=""font-size: 60px; font-family: BACS"">bGuOAOUl</p>","","","","","","","","","",""
"html-keyboard-response","165","307023","0.0-10.0-0.76","5fe2308a91773957e88b89be","650c16f0f2faf8d7a0d14c09","651c1e0740dad3354c79f515","null","null","<p style=""font-size: 60px; font-family: BACS"">AZaJcdUr</p>","","","","","","","","","",""
"html-keyboard-response","166","308024","0.0-10.0-0.77","5fe2308a91773957e88b89be","650c16f0f2faf8d7a0d14c09","651c1e0740dad3354c79f515","null","null","<p style=""font-size: 60px; font-family: BACS"">LOLkUGUa</p>","","","","","","","","","",""
"html-keyboard-response","167","309026","0.0-10.0-0.78","5fe2308a91773957e88b89be","650c16f0f2faf8d7a0d14c09","651c1e0740dad3354c79f515","null","null","<p style=""font-size: 60px; font-family: BACS"">AbKDAdYl</p>","","","","","","","","","",""
"html-keyboard-response","168","310043","0.0-10.0-0.79","5fe2308a91773957e88b89be","650c16f0f2faf8d7a0d14c09","651c1e0740dad3354c79f515","null","null","<p style=""font-size: 60px; font-family: BACS"">mBbKhRKm</p>","","","","","","","","","",""
"html-keyboard-response","169","313323","0.0-11.0","5fe2308a91773957e88b89be","650c16f0f2faf8d7a0d14c09","651c1e0740dad3354c79f515","3279"," ","<p>Great, you've seen the second block of words. You may now take a short break.</p>
      <p>Press the spacebar when you're ready to continue.</p>","","","","","","","","","",""
"html-keyboard-response","170","314342","0.0-12.0-0.0","5fe2308a91773957e88b89be","650c16f0f2faf8d7a0d14c09","651c1e0740dad3354c79f515","null","null","<p style=""font-size: 60px; font-family: BACS"">hAROKEAO</p>","","","","","","","","","",""
"html-keyboard-response","171","315357","0.0-12.0-0.1","5fe2308a91773957e88b89be","650c16f0f2faf8d7a0d14c09","651c1e0740dad3354c79f515","null","null","<p style=""font-size: 60px; font-family: BACS"">lBKtAdYl</p>","","","","","","","","","",""
"html-keyboard-response","172","316374","0.0-12.0-0.2","5fe2308a91773957e88b89be","650c16f0f2faf8d7a0d14c09","651c1e0740dad3354c79f515","null","null","<p style=""font-size: 60px; font-family: BACS"">YUNkZGUa</p>","","","","","","","","","",""
"html-keyboard-response","173","317391","0.0-12.0-0.3","5fe2308a91773957e88b89be","650c16f0f2faf8d7a0d14c09","651c1e0740dad3354c79f515","null","null","<p style=""font-size: 60px; font-family: BACS"">JauQmZb</p>","","","","","","","","","",""
"html-keyboard-response","174","318407","0.0-12.0-0.4","5fe2308a91773957e88b89be","650c16f0f2faf8d7a0d14c09","651c1e0740dad3354c79f515","null","null","<p style=""font-size: 60px; font-family: BACS"">ArQuLaA</p>","","","","","","","","","",""
"html-keyboard-response","175","319422","0.0-12.0-0.5","5fe2308a91773957e88b89be","650c16f0f2faf8d7a0d14c09","651c1e0740dad3354c79f515","null","null","<p style=""font-size: 60px; font-family: BACS"">AZaJcmZb</p>","","","","","","","","","",""
"html-keyboard-response","176","320440","0.0-12.0-0.6","5fe2308a91773957e88b89be","650c16f0f2faf8d7a0d14c09","651c1e0740dad3354c79f515","null","null","<p style=""font-size: 60px; font-family: BACS"">ZJLmrGUa</p>","","","","","","","","","",""
"html-keyboard-response","177","321456","0.0-12.0-0.7","5fe2308a91773957e88b89be","650c16f0f2faf8d7a0d14c09","651c1e0740dad3354c79f515","null","null","<p style=""font-size: 60px; font-family: BACS"">AbKDhRKm</p>","","","","","","","","","",""
"html-keyboard-response","178","322472","0.0-12.0-0.8","5fe2308a91773957e88b89be","650c16f0f2faf8d7a0d14c09","651c1e0740dad3354c79f515","null","null","<p style=""font-size: 60px; font-family: BACS"">ArQudUr</p>","","","","","","","","","",""
"html-keyboard-response","179","323487","0.0-12.0-0.9","5fe2308a91773957e88b89be","650c16f0f2faf8d7a0d14c09","651c1e0740dad3354c79f515","null","null","<p style=""font-size: 60px; font-family: BACS"">mBbKEAO</p>","","","","","","","","","",""
"html-keyboard-response","180","324503","0.0-12.0-0.10","5fe2308a91773957e88b89be","650c16f0f2faf8d7a0d14c09","651c1e0740dad3354c79f515","null","null","<p style=""font-size: 60px; font-family: BACS"">kulZGUa</p>","","","","","","","","","",""
"html-keyboard-response","181","325513","0.0-12.0-0.11","5fe2308a91773957e88b89be","650c16f0f2faf8d7a0d14c09","651c1e0740dad3354c79f515","null","null","<p style=""font-size: 60px; font-family: BACS"">mARMAdYl</p>","","","","","","","","","",""
"html-keyboard-response","182","326536","0.0-12.0-0.12","5fe2308a91773957e88b89be","650c16f0f2faf8d7a0d14c09","651c1e0740dad3354c79f515","null","null","<p style=""font-size: 60px; font-family: BACS"">kulZdUr</p>","","","","","","","","","",""
"html-keyboard-response","183","327553","0.0-12.0-0.13","5fe2308a91773957e88b89be","650c16f0f2faf8d7a0d14c09","651c1e0740dad3354c79f515","null","null","<p style=""font-size: 60px; font-family: BACS"">YlYcEAO</p>","","","","","","","","","",""
"html-keyboard-response","184","328569","0.0-12.0-0.14","5fe2308a91773957e88b89be","650c16f0f2faf8d7a0d14c09","651c1e0740dad3354c79f515","null","null","<p style=""font-size: 60px; font-family: BACS"">lBKthRKm</p>","","","","","","","","","",""
"html-keyboard-response","185","329585","0.0-12.0-0.15","5fe2308a91773957e88b89be","650c16f0f2faf8d7a0d14c09","651c1e0740dad3354c79f515","null","null","<p style=""font-size: 60px; font-family: BACS"">bGuOdUr</p>","","","","","","","","","",""
"html-keyboard-response","186","330601","0.0-12.0-0.16","5fe2308a91773957e88b89be","650c16f0f2faf8d7a0d14c09","651c1e0740dad3354c79f515","null","null","<p style=""font-size: 60px; font-family: BACS"">mARMTRkY</p>","","","","","","","","","",""
"html-keyboard-response","187","331618","0.0-12.0-0.17","5fe2308a91773957e88b89be","650c16f0f2faf8d7a0d14c09","651c1e0740dad3354c79f515","null","null","<p style=""font-size: 60px; font-family: BACS"">ALGZLaA</p>","","","","","","","","","",""
"html-keyboard-response","188","332634","0.0-12.0-0.18","5fe2308a91773957e88b89be","650c16f0f2faf8d7a0d14c09","651c1e0740dad3354c79f515","null","null","<p style=""font-size: 60px; font-family: BACS"">AMkCYKPB</p>","","","","","","","","","",""
"html-keyboard-response","189","333650","0.0-12.0-0.19","5fe2308a91773957e88b89be","650c16f0f2faf8d7a0d14c09","651c1e0740dad3354c79f515","null","null","<p style=""font-size: 60px; font-family: BACS"">YUNkZAOUl</p>","","","","","","","","","",""
"html-keyboard-response","190","334666","0.0-12.0-0.20","5fe2308a91773957e88b89be","650c16f0f2faf8d7a0d14c09","651c1e0740dad3354c79f515","null","null","<p style=""font-size: 60px; font-family: BACS"">AbKDAdYl</p>","","","","","","","","","",""
"html-keyboard-response","191","335682","0.0-12.0-0.21","5fe2308a91773957e88b89be","650c16f0f2faf8d7a0d14c09","651c1e0740dad3354c79f515","null","null","<p style=""font-size: 60px; font-family: BACS"">YUNkZdUr</p>","","","","","","","","","",""
"html-keyboard-response","192","336698","0.0-12.0-0.22","5fe2308a91773957e88b89be","650c16f0f2faf8d7a0d14c09","651c1e0740dad3354c79f515","null","null","<p style=""font-size: 60px; font-family: BACS"">YQbcAOUl</p>","","","","","","","","","",""
"html-keyboard-response","193","337715","0.0-12.0-0.23","5fe2308a91773957e88b89be","650c16f0f2faf8d7a0d14c09","651c1e0740dad3354c79f515","null","null","<p style=""font-size: 60px; font-family: BACS"">ktBdEAO</p>","","","","","","","","","",""
"html-keyboard-response","194","338731","0.0-12.0-0.24","5fe2308a91773957e88b89be","650c16f0f2faf8d7a0d14c09","651c1e0740dad3354c79f515","null","null","<p style=""font-size: 60px; font-family: BACS"">hAROKTRkY</p>","","","","","","","","","",""
"html-keyboard-response","195","339740","0.0-12.0-0.25","5fe2308a91773957e88b89be","650c16f0f2faf8d7a0d14c09","651c1e0740dad3354c79f515","null","null","<p style=""font-size: 60px; font-family: BACS"">YlYcYKPB</p>","","","","","","","","","",""
"html-keyboard-response","196","340764","0.0-12.0-0.26","5fe2308a91773957e88b89be","650c16f0f2faf8d7a0d14c09","651c1e0740dad3354c79f515","null","null","<p style=""font-size: 60px; font-family: BACS"">CchtdAdYl</p>","","","","","","","","","",""
"html-keyboard-response","197","341778","0.0-12.0-0.27","5fe2308a91773957e88b89be","650c16f0f2faf8d7a0d14c09","651c1e0740dad3354c79f515","null","null","<p style=""font-size: 60px; font-family: BACS"">JauQGUa</p>","","","","","","","","","",""
"html-keyboard-response","198","342796","0.0-12.0-0.28","5fe2308a91773957e88b89be","650c16f0f2faf8d7a0d14c09","651c1e0740dad3354c79f515","null","null","<p style=""font-size: 60px; font-family: BACS"">lBKtTRkY</p>","","","","","","","","","",""
"html-keyboard-response","199","343813","0.0-12.0-0.29","5fe2308a91773957e88b89be","650c16f0f2faf8d7a0d14c09","651c1e0740dad3354c79f515","null","null","<p style=""font-size: 60px; font-family: BACS"">AbKDEAO</p>","","","","","","","","","",""
"html-keyboard-response","200","344830","0.0-12.0-0.30","5fe2308a91773957e88b89be","650c16f0f2faf8d7a0d14c09","651c1e0740dad3354c79f515","null","null","<p style=""font-size: 60px; font-family: BACS"">AMkCAdYl</p>","","","","","","","","","",""
"html-keyboard-response","201","345845","0.0-12.0-0.31","5fe2308a91773957e88b89be","650c16f0f2faf8d7a0d14c09","651c1e0740dad3354c79f515","null","null","<p style=""font-size: 60px; font-family: BACS"">ktBdhRKm</p>","","","","","","","","","",""
"html-keyboard-response","202","346864","0.0-12.0-0.32","5fe2308a91773957e88b89be","650c16f0f2faf8d7a0d14c09","651c1e0740dad3354c79f515","null","null","<p style=""font-size: 60px; font-family: BACS"">BATOcAdYl</p>","","","","","","","","","",""
"html-keyboard-response","203","347878","0.0-12.0-0.33","5fe2308a91773957e88b89be","650c16f0f2faf8d7a0d14c09","651c1e0740dad3354c79f515","null","null","<p style=""font-size: 60px; font-family: BACS"">JauQdUr</p>","","","","","","","","","",""
"html-keyboard-response","204","348894","0.0-12.0-0.34","5fe2308a91773957e88b89be","650c16f0f2faf8d7a0d14c09","651c1e0740dad3354c79f515","null","null","<p style=""font-size: 60px; font-family: BACS"">ktBdTRkY</p>","","","","","","","","","",""
"html-keyboard-response","205","349910","0.0-12.0-0.35","5fe2308a91773957e88b89be","650c16f0f2faf8d7a0d14c09","651c1e0740dad3354c79f515","null","null","<p style=""font-size: 60px; font-family: BACS"">LOLkUGUa</p>","","","","","","","","","",""
"html-keyboard-response","206","350926","0.0-12.0-0.36","5fe2308a91773957e88b89be","650c16f0f2faf8d7a0d14c09","651c1e0740dad3354c79f515","null","null","<p style=""font-size: 60px; font-family: BACS"">ktBdYKPB</p>","","","","","","","","","",""
"html-keyboard-response","207","351943","0.0-12.0-0.37","5fe2308a91773957e88b89be","650c16f0f2faf8d7a0d14c09","651c1e0740dad3354c79f515","null","null","<p style=""font-size: 60px; font-family: BACS"">bGuOAOUl</p>","","","","","","","","","",""
"html-keyboard-response","208","352958","0.0-12.0-0.38","5fe2308a91773957e88b89be","650c16f0f2faf8d7a0d14c09","651c1e0740dad3354c79f515","null","null","<p style=""font-size: 60px; font-family: BACS"">YlYcTRkY</p>","","","","","","","","","",""
"html-keyboard-response","209","353974","0.0-12.0-0.39","5fe2308a91773957e88b89be","650c16f0f2faf8d7a0d14c09","651c1e0740dad3354c79f515","null","null","<p style=""font-size: 60px; font-family: BACS"">CchtdhRKm</p>","","","","","","","","","",""
"html-keyboard-response","210","354991","0.0-12.0-0.40","5fe2308a91773957e88b89be","650c16f0f2faf8d7a0d14c09","651c1e0740dad3354c79f515","null","null","<p style=""font-size: 60px; font-family: BACS"">YUNkZmZb</p>","","","","","","","","","",""
"html-keyboard-response","211","356007","0.0-12.0-0.41","5fe2308a91773957e88b89be","650c16f0f2faf8d7a0d14c09","651c1e0740dad3354c79f515","null","null","<p style=""font-size: 60px; font-family: BACS"">CchtdYKPB</p>","","","","","","","","","",""
"html-keyboard-response","212","357024","0.0-12.0-0.42","5fe2308a91773957e88b89be","650c16f0f2faf8d7a0d14c09","651c1e0740dad3354c79f515","null","null","<p style=""font-size: 60px; font-family: BACS"">YQbcGUa</p>","","","","","","","","","",""
"html-keyboard-response","213","358040","0.0-12.0-0.43","5fe2308a91773957e88b89be","650c16f0f2faf8d7a0d14c09","651c1e0740dad3354c79f515","null","null","<p style=""font-size: 60px; font-family: BACS"">BATOcTRkY</p>","","","","","","","","","",""
"html-keyboard-response","214","359055","0.0-12.0-0.44","5fe2308a91773957e88b89be","650c16f0f2faf8d7a0d14c09","651c1e0740dad3354c79f515","null","null","<p style=""font-size: 60px; font-family: BACS"">CchtdEAO</p>","","","","","","","","","",""
"html-keyboard-response","215","360076","0.0-12.0-0.45","5fe2308a91773957e88b89be","650c16f0f2faf8d7a0d14c09","651c1e0740dad3354c79f515","null","null","<p style=""font-size: 60px; font-family: BACS"">LOLkUdUr</p>","","","","","","","","","",""
"html-keyboard-response","216","361089","0.0-12.0-0.46","5fe2308a91773957e88b89be","650c16f0f2faf8d7a0d14c09","651c1e0740dad3354c79f515","null","null","<p style=""font-size: 60px; font-family: BACS"">YQbcmZb</p>","","","","","","","","","",""
"html-keyboard-response","217","362106","0.0-12.0-0.47","5fe2308a91773957e88b89be","650c16f0f2faf8d7a0d14c09","651c1e0740dad3354c79f515","null","null","<p style=""font-size: 60px; font-family: BACS"">ZJLmrLaA</p>","","","","","","","","","",""
"html-keyboard-response","218","363122","0.0-12.0-0.48","5fe2308a91773957e88b89be","650c16f0f2faf8d7a0d14c09","651c1e0740dad3354c79f515","null","null","<p style=""font-size: 60px; font-family: BACS"">AZaJcdUr</p>","","","","","","","","","",""
"html-keyboard-response","219","364137","0.0-12.0-0.49","5fe2308a91773957e88b89be","650c16f0f2faf8d7a0d14c09","651c1e0740dad3354c79f515","null","null","<p style=""font-size: 60px; font-family: BACS"">BATOcYKPB</p>","","","","","","","","","",""
"html-keyboard-response","220","365153","0.0-12.0-0.50","5fe2308a91773957e88b89be","650c16f0f2faf8d7a0d14c09","651c1e0740dad3354c79f515","null","null","<p style=""font-size: 60px; font-family: BACS"">YQbcLaA</p>","","","","","","","","","",""
"html-keyboard-response","221","366166","0.0-12.0-0.51","5fe2308a91773957e88b89be","650c16f0f2faf8d7a0d14c09","651c1e0740dad3354c79f515","null","null","<p style=""font-size: 60px; font-family: BACS"">hAROKhRKm</p>","","","","","","","","","",""
"html-keyboard-response","222","367186","0.0-12.0-0.52","5fe2308a91773957e88b89be","650c16f0f2faf8d7a0d14c09","651c1e0740dad3354c79f515","null","null","<p style=""font-size: 60px; font-family: BACS"">kulZLaA</p>","","","","","","","","","",""
"html-keyboard-response","223","368202","0.0-12.0-0.53","5fe2308a91773957e88b89be","650c16f0f2faf8d7a0d14c09","651c1e0740dad3354c79f515","null","null","<p style=""font-size: 60px; font-family: BACS"">ALGZAOUl</p>","","","","","","","","","",""
"html-keyboard-response","224","369203","0.0-12.0-0.54","5fe2308a91773957e88b89be","650c16f0f2faf8d7a0d14c09","651c1e0740dad3354c79f515","null","null","<p style=""font-size: 60px; font-family: BACS"">ZJLmrmZb</p>","","","","","","","","","",""
"html-keyboard-response","225","370205","0.0-12.0-0.55","5fe2308a91773957e88b89be","650c16f0f2faf8d7a0d14c09","651c1e0740dad3354c79f515","null","null","<p style=""font-size: 60px; font-family: BACS"">mBbKTRkY</p>","","","","","","","","","",""
"html-keyboard-response","226","371218","0.0-12.0-0.56","5fe2308a91773957e88b89be","650c16f0f2faf8d7a0d14c09","651c1e0740dad3354c79f515","null","null","<p style=""font-size: 60px; font-family: BACS"">LOLkUAOUl</p>","","","","","","","","","",""
"html-keyboard-response","227","372235","0.0-12.0-0.57","5fe2308a91773957e88b89be","650c16f0f2faf8d7a0d14c09","651c1e0740dad3354c79f515","null","null","<p style=""font-size: 60px; font-family: BACS"">ArQumZb</p>","","","","","","","","","",""
"html-keyboard-response","228","373242","0.0-12.0-0.58","5fe2308a91773957e88b89be","650c16f0f2faf8d7a0d14c09","651c1e0740dad3354c79f515","null","null","<p style=""font-size: 60px; font-family: BACS"">JauQLaA</p>","","","","","","","","","",""
"html-keyboard-response","229","374254","0.0-12.0-0.59","5fe2308a91773957e88b89be","650c16f0f2faf8d7a0d14c09","651c1e0740dad3354c79f515","null","null","<p style=""font-size: 60px; font-family: BACS"">ArQuAOUl</p>","","","","","","","","","",""
"html-keyboard-response","230","375259","0.0-12.0-0.60","5fe2308a91773957e88b89be","650c16f0f2faf8d7a0d14c09","651c1e0740dad3354c79f515","null","null","<p style=""font-size: 60px; font-family: BACS"">AZaJcGUa</p>","","","","","","","","","",""
"html-keyboard-response","231","376278","0.0-12.0-0.61","5fe2308a91773957e88b89be","650c16f0f2faf8d7a0d14c09","651c1e0740dad3354c79f515","null","null","<p style=""font-size: 60px; font-family: BACS"">ALGZdUr</p>","","","","","","","","","",""
"html-keyboard-response","232","377281","0.0-12.0-0.62","5fe2308a91773957e88b89be","650c16f0f2faf8d7a0d14c09","651c1e0740dad3354c79f515","null","null","<p style=""font-size: 60px; font-family: BACS"">mBbKYKPB</p>","","","","","","","","","",""
"html-keyboard-response","233","378293","0.0-12.0-0.63","5fe2308a91773957e88b89be","650c16f0f2faf8d7a0d14c09","651c1e0740dad3354c79f515","null","null","<p style=""font-size: 60px; font-family: BACS"">bGuOmZb</p>","","","","","","","","","",""
"html-keyboard-response","234","379296","0.0-12.0-0.64","5fe2308a91773957e88b89be","650c16f0f2faf8d7a0d14c09","651c1e0740dad3354c79f515","null","null","<p style=""font-size: 60px; font-family: BACS"">AMkCEAO</p>","","","","","","","","","",""
"html-keyboard-response","235","380312","0.0-12.0-0.65","5fe2308a91773957e88b89be","650c16f0f2faf8d7a0d14c09","651c1e0740dad3354c79f515","null","null","<p style=""font-size: 60px; font-family: BACS"">mARMYKPB</p>","","","","","","","","","",""
"html-keyboard-response","236","381328","0.0-12.0-0.66","5fe2308a91773957e88b89be","650c16f0f2faf8d7a0d14c09","651c1e0740dad3354c79f515","null","null","<p style=""font-size: 60px; font-family: BACS"">ALGZmZb</p>","","","","","","","","","",""
"html-keyboard-response","237","382331","0.0-12.0-0.67","5fe2308a91773957e88b89be","650c16f0f2faf8d7a0d14c09","651c1e0740dad3354c79f515","null","null","<p style=""font-size: 60px; font-family: BACS"">AMkChRKm</p>","","","","","","","","","",""
"html-keyboard-response","238","383347","0.0-12.0-0.68","5fe2308a91773957e88b89be","650c16f0f2faf8d7a0d14c09","651c1e0740dad3354c79f515","null","null","<p style=""font-size: 60px; font-family: BACS"">AbKDTRkY</p>","","","","","","","","","",""
"html-keyboard-response","239","384350","0.0-12.0-0.69","5fe2308a91773957e88b89be","650c16f0f2faf8d7a0d14c09","651c1e0740dad3354c79f515","null","null","<p style=""font-size: 60px; font-family: BACS"">kulZAOUl</p>","","","","","","","","","",""
"html-keyboard-response","240","385367","0.0-12.0-0.70","5fe2308a91773957e88b89be","650c16f0f2faf8d7a0d14c09","651c1e0740dad3354c79f515","null","null","<p style=""font-size: 60px; font-family: BACS"">bGuOGUa</p>","","","","","","","","","",""
"html-keyboard-response","241","386390","0.0-12.0-0.71","5fe2308a91773957e88b89be","650c16f0f2faf8d7a0d14c09","651c1e0740dad3354c79f515","null","null","<p style=""font-size: 60px; font-family: BACS"">BATOcEAO</p>","","","","","","","","","",""
"html-keyboard-response","242","387407","0.0-12.0-0.72","5fe2308a91773957e88b89be","650c16f0f2faf8d7a0d14c09","651c1e0740dad3354c79f515","null","null","<p style=""font-size: 60px; font-family: BACS"">LOLkULaA</p>","","","","","","","","","",""
"html-keyboard-response","243","388408","0.0-12.0-0.73","5fe2308a91773957e88b89be","650c16f0f2faf8d7a0d14c09","651c1e0740dad3354c79f515","null","null","<p style=""font-size: 60px; font-family: BACS"">ZJLmrAOUl</p>","","","","","","","","","",""
"html-keyboard-response","244","389424","0.0-12.0-0.74","5fe2308a91773957e88b89be","650c16f0f2faf8d7a0d14c09","651c1e0740dad3354c79f515","null","null","<p style=""font-size: 60px; font-family: BACS"">YlYcAdYl</p>","","","","","","","","","",""
"html-keyboard-response","245","390440","0.0-12.0-0.75","5fe2308a91773957e88b89be","650c16f0f2faf8d7a0d14c09","651c1e0740dad3354c79f515","null","null","<p style=""font-size: 60px; font-family: BACS"">AZaJcLaA</p>","","","","","","","","","",""
"html-keyboard-response","246","391456","0.0-12.0-0.76","5fe2308a91773957e88b89be","650c16f0f2faf8d7a0d14c09","651c1e0740dad3354c79f515","null","null","<p style=""font-size: 60px; font-family: BACS"">lBKtYKPB</p>","","","","","","","","","",""
"html-keyboard-response","247","392473","0.0-12.0-0.77","5fe2308a91773957e88b89be","650c16f0f2faf8d7a0d14c09","651c1e0740dad3354c79f515","null","null","<p style=""font-size: 60px; font-family: BACS"">mARMhRKm</p>","","","","","","","","","",""
"html-keyboard-response","248","393495","0.0-12.0-0.78","5fe2308a91773957e88b89be","650c16f0f2faf8d7a0d14c09","651c1e0740dad3354c79f515","null","null","<p style=""font-size: 60px; font-family: BACS"">hAROKAdYl</p>","","","","","","","","","",""
"html-keyboard-response","249","394511","0.0-12.0-0.79","5fe2308a91773957e88b89be","650c16f0f2faf8d7a0d14c09","651c1e0740dad3354c79f515","null","null","<p style=""font-size: 60px; font-family: BACS"">mBbKhRKm</p>","","","","","","","","","",""
"html-keyboard-response","250","428395","0.0-13.0","5fe2308a91773957e88b89be","650c16f0f2faf8d7a0d14c09","651c1e0740dad3354c79f515","33890"," ","<p>Great, you've seen the third block of words. You may now take a short break.</p>
      <p>Press the spacebar when you're ready to continue.</p>","","","","","","","","","",""
"html-keyboard-response","251","429404","0.0-14.0-0.0","5fe2308a91773957e88b89be","650c16f0f2faf8d7a0d14c09","651c1e0740dad3354c79f515","null","null","<p style=""font-size: 60px; font-family: BACS"">YlYcEAO</p>","","","","","","","","","",""
"html-keyboard-response","252","430418","0.0-14.0-0.1","5fe2308a91773957e88b89be","650c16f0f2faf8d7a0d14c09","651c1e0740dad3354c79f515","null","null","<p style=""font-size: 60px; font-family: BACS"">AMkCAdYl</p>","","","","","","","","","",""
"html-keyboard-response","253","431435","0.0-14.0-0.2","5fe2308a91773957e88b89be","650c16f0f2faf8d7a0d14c09","651c1e0740dad3354c79f515","null","null","<p style=""font-size: 60px; font-family: BACS"">CchtdYKPB</p>","","","","","","","","","",""
"html-keyboard-response","254","432453","0.0-14.0-0.3","5fe2308a91773957e88b89be","650c16f0f2faf8d7a0d14c09","651c1e0740dad3354c79f515","null","null","<p style=""font-size: 60px; font-family: BACS"">LOLkUdUr</p>","","","","","","","","","",""
"html-keyboard-response","255","433468","0.0-14.0-0.4","5fe2308a91773957e88b89be","650c16f0f2faf8d7a0d14c09","651c1e0740dad3354c79f515","null","null","<p style=""font-size: 60px; font-family: BACS"">ZJLmrAOUl</p>","","","","","","","","","",""
"html-keyboard-response","256","434485","0.0-14.0-0.5","5fe2308a91773957e88b89be","650c16f0f2faf8d7a0d14c09","651c1e0740dad3354c79f515","null","null","<p style=""font-size: 60px; font-family: BACS"">LOLkULaA</p>","","","","","","","","","",""
"html-keyboard-response","257","435509","0.0-14.0-0.6","5fe2308a91773957e88b89be","650c16f0f2faf8d7a0d14c09","651c1e0740dad3354c79f515","null","null","<p style=""font-size: 60px; font-family: BACS"">AbKDhRKm</p>","","","","","","","","","",""
"html-keyboard-response","258","436526","0.0-14.0-0.7","5fe2308a91773957e88b89be","650c16f0f2faf8d7a0d14c09","651c1e0740dad3354c79f515","null","null","<p style=""font-size: 60px; font-family: BACS"">YQbcAOUl</p>","","","","","","","","","",""
"html-keyboard-response","259","437542","0.0-14.0-0.8","5fe2308a91773957e88b89be","650c16f0f2faf8d7a0d14c09","651c1e0740dad3354c79f515","null","null","<p style=""font-size: 60px; font-family: BACS"">AZaJcdUr</p>","","","","","","","","","",""
"html-keyboard-response","260","438558","0.0-14.0-0.9","5fe2308a91773957e88b89be","650c16f0f2faf8d7a0d14c09","651c1e0740dad3354c79f515","null","null","<p style=""font-size: 60px; font-family: BACS"">lBKthRKm</p>","","","","","","","","","",""
"html-keyboard-response","261","439573","0.0-14.0-0.10","5fe2308a91773957e88b89be","650c16f0f2faf8d7a0d14c09","651c1e0740dad3354c79f515","null","null","<p style=""font-size: 60px; font-family: BACS"">ktBdYKPB</p>","","","","","","","","","",""
"html-keyboard-response","262","440589","0.0-14.0-0.11","5fe2308a91773957e88b89be","650c16f0f2faf8d7a0d14c09","651c1e0740dad3354c79f515","null","null","<p style=""font-size: 60px; font-family: BACS"">hAROKAdYl</p>","","","","","","","","","",""
"html-keyboard-response","263","441612","0.0-14.0-0.12","5fe2308a91773957e88b89be","650c16f0f2faf8d7a0d14c09","651c1e0740dad3354c79f515","null","null","<p style=""font-size: 60px; font-family: BACS"">AZaJcmZb</p>","","","","","","","","","",""
"html-keyboard-response","264","442629","0.0-14.0-0.13","5fe2308a91773957e88b89be","650c16f0f2faf8d7a0d14c09","651c1e0740dad3354c79f515","null","null","<p style=""font-size: 60px; font-family: BACS"">YUNkZGUa</p>","","","","","","","","","",""
"html-keyboard-response","265","443644","0.0-14.0-0.14","5fe2308a91773957e88b89be","650c16f0f2faf8d7a0d14c09","651c1e0740dad3354c79f515","null","null","<p style=""font-size: 60px; font-family: BACS"">YlYcAdYl</p>","","","","","","","","","",""
"html-keyboard-response","266","444660","0.0-14.0-0.15","5fe2308a91773957e88b89be","650c16f0f2faf8d7a0d14c09","651c1e0740dad3354c79f515","null","null","<p style=""font-size: 60px; font-family: BACS"">YUNkZmZb</p>","","","","","","","","","",""
"html-keyboard-response","267","445678","0.0-14.0-0.16","5fe2308a91773957e88b89be","650c16f0f2faf8d7a0d14c09","651c1e0740dad3354c79f515","null","null","<p style=""font-size: 60px; font-family: BACS"">CchtdhRKm</p>","","","","","","","","","",""
"html-keyboard-response","268","446689","0.0-14.0-0.17","5fe2308a91773957e88b89be","650c16f0f2faf8d7a0d14c09","651c1e0740dad3354c79f515","null","null","<p style=""font-size: 60px; font-family: BACS"">hAROKTRkY</p>","","","","","","","","","",""
"html-keyboard-response","269","447696","0.0-14.0-0.18","5fe2308a91773957e88b89be","650c16f0f2faf8d7a0d14c09","651c1e0740dad3354c79f515","null","null","<p style=""font-size: 60px; font-family: BACS"">AMkCEAO</p>","","","","","","","","","",""
"html-keyboard-response","270","448698","0.0-14.0-0.19","5fe2308a91773957e88b89be","650c16f0f2faf8d7a0d14c09","651c1e0740dad3354c79f515","null","null","<p style=""font-size: 60px; font-family: BACS"">mBbKTRkY</p>","","","","","","","","","",""
"html-keyboard-response","271","449718","0.0-14.0-0.20","5fe2308a91773957e88b89be","650c16f0f2faf8d7a0d14c09","651c1e0740dad3354c79f515","null","null","<p style=""font-size: 60px; font-family: BACS"">ArQumZb</p>","","","","","","","","","",""
"html-keyboard-response","272","450737","0.0-14.0-0.21","5fe2308a91773957e88b89be","650c16f0f2faf8d7a0d14c09","651c1e0740dad3354c79f515","null","null","<p style=""font-size: 60px; font-family: BACS"">CchtdAdYl</p>","","","","","","","","","",""
"html-keyboard-response","273","451747","0.0-14.0-0.22","5fe2308a91773957e88b89be","650c16f0f2faf8d7a0d14c09","651c1e0740dad3354c79f515","null","null","<p style=""font-size: 60px; font-family: BACS"">ArQuAOUl</p>","","","","","","","","","",""
"html-keyboard-response","274","452750","0.0-14.0-0.23","5fe2308a91773957e88b89be","650c16f0f2faf8d7a0d14c09","651c1e0740dad3354c79f515","null","null","<p style=""font-size: 60px; font-family: BACS"">mARMhRKm</p>","","","","","","","","","",""
"html-keyboard-response","275","453767","0.0-14.0-0.24","5fe2308a91773957e88b89be","650c16f0f2faf8d7a0d14c09","651c1e0740dad3354c79f515","null","null","<p style=""font-size: 60px; font-family: BACS"">ktBdTRkY</p>","","","","","","","","","",""
"html-keyboard-response","276","454782","0.0-14.0-0.25","5fe2308a91773957e88b89be","650c16f0f2faf8d7a0d14c09","651c1e0740dad3354c79f515","null","null","<p style=""font-size: 60px; font-family: BACS"">mBbKEAO</p>","","","","","","","","","",""
"html-keyboard-response","277","455805","0.0-14.0-0.26","5fe2308a91773957e88b89be","650c16f0f2faf8d7a0d14c09","651c1e0740dad3354c79f515","null","null","<p style=""font-size: 60px; font-family: BACS"">JauQmZb</p>","","","","","","","","","",""
"html-keyboard-response","278","456822","0.0-14.0-0.27","5fe2308a91773957e88b89be","650c16f0f2faf8d7a0d14c09","651c1e0740dad3354c79f515","null","null","<p style=""font-size: 60px; font-family: BACS"">lBKtAdYl</p>","","","","","","","","","",""
"html-keyboard-response","279","457823","0.0-14.0-0.28","5fe2308a91773957e88b89be","650c16f0f2faf8d7a0d14c09","651c1e0740dad3354c79f515","null","null","<p style=""font-size: 60px; font-family: BACS"">mARMTRkY</p>","","","","","","","","","",""
"html-keyboard-response","280","458839","0.0-14.0-0.29","5fe2308a91773957e88b89be","650c16f0f2faf8d7a0d14c09","651c1e0740dad3354c79f515","null","null","<p style=""font-size: 60px; font-family: BACS"">YUNkZdUr</p>","","","","","","","","","",""
"html-keyboard-response","281","459856","0.0-14.0-0.30","5fe2308a91773957e88b89be","650c16f0f2faf8d7a0d14c09","651c1e0740dad3354c79f515","null","null","<p style=""font-size: 60px; font-family: BACS"">ALGZAOUl</p>","","","","","","","","","",""
"html-keyboard-response","282","460873","0.0-14.0-0.31","5fe2308a91773957e88b89be","650c16f0f2faf8d7a0d14c09","651c1e0740dad3354c79f515","null","null","<p style=""font-size: 60px; font-family: BACS"">JauQdUr</p>","","","","","","","","","",""
"html-keyboard-response","283","461889","0.0-14.0-0.32","5fe2308a91773957e88b89be","650c16f0f2faf8d7a0d14c09","651c1e0740dad3354c79f515","null","null","<p style=""font-size: 60px; font-family: BACS"">YlYcTRkY</p>","","","","","","","","","",""
"html-keyboard-response","284","462892","0.0-14.0-0.33","5fe2308a91773957e88b89be","650c16f0f2faf8d7a0d14c09","651c1e0740dad3354c79f515","null","null","<p style=""font-size: 60px; font-family: BACS"">ZJLmrGUa</p>","","","","","","","","","",""
"html-keyboard-response","285","463915","0.0-14.0-0.34","5fe2308a91773957e88b89be","650c16f0f2faf8d7a0d14c09","651c1e0740dad3354c79f515","null","null","<p style=""font-size: 60px; font-family: BACS"">kulZdUr</p>","","","","","","","","","",""
"html-keyboard-response","286","464931","0.0-14.0-0.35","5fe2308a91773957e88b89be","650c16f0f2faf8d7a0d14c09","651c1e0740dad3354c79f515","null","null","<p style=""font-size: 60px; font-family: BACS"">ZJLmrLaA</p>","","","","","","","","","",""
"html-keyboard-response","287","465948","0.0-14.0-0.36","5fe2308a91773957e88b89be","650c16f0f2faf8d7a0d14c09","651c1e0740dad3354c79f515","null","null","<p style=""font-size: 60px; font-family: BACS"">AZaJcGUa</p>","","","","","","","","","",""
"html-keyboard-response","288","466965","0.0-14.0-0.37","5fe2308a91773957e88b89be","650c16f0f2faf8d7a0d14c09","651c1e0740dad3354c79f515","null","null","<p style=""font-size: 60px; font-family: BACS"">LOLkUAOUl</p>","","","","","","","","","",""
"html-keyboard-response","289","467982","0.0-14.0-0.38","5fe2308a91773957e88b89be","650c16f0f2faf8d7a0d14c09","651c1e0740dad3354c79f515","null","null","<p style=""font-size: 60px; font-family: BACS"">bGuOmZb</p>","","","","","","","","","",""
"html-keyboard-response","290","468998","0.0-14.0-0.39","5fe2308a91773957e88b89be","650c16f0f2faf8d7a0d14c09","651c1e0740dad3354c79f515","null","null","<p style=""font-size: 60px; font-family: BACS"">YUNkZAOUl</p>","","","","","","","","","",""
"html-keyboard-response","291","470021","0.0-14.0-0.40","5fe2308a91773957e88b89be","650c16f0f2faf8d7a0d14c09","651c1e0740dad3354c79f515","null","null","<p style=""font-size: 60px; font-family: BACS"">ktBdEAO</p>","","","","","","","","","",""
"html-keyboard-response","292","471035","0.0-14.0-0.41","5fe2308a91773957e88b89be","650c16f0f2faf8d7a0d14c09","651c1e0740dad3354c79f515","null","null","<p style=""font-size: 60px; font-family: BACS"">bGuOAOUl</p>","","","","","","","","","",""
"html-keyboard-response","293","472052","0.0-14.0-0.42","5fe2308a91773957e88b89be","650c16f0f2faf8d7a0d14c09","651c1e0740dad3354c79f515","null","null","<p style=""font-size: 60px; font-family: BACS"">kulZGUa</p>","","","","","","","","","",""
"html-keyboard-response","294","473067","0.0-14.0-0.43","5fe2308a91773957e88b89be","650c16f0f2faf8d7a0d14c09","651c1e0740dad3354c79f515","null","null","<p style=""font-size: 60px; font-family: BACS"">BATOcAdYl</p>","","","","","","","","","",""
"html-keyboard-response","295","474069","0.0-14.0-0.44","5fe2308a91773957e88b89be","650c16f0f2faf8d7a0d14c09","651c1e0740dad3354c79f515","null","null","<p style=""font-size: 60px; font-family: BACS"">CchtdEAO</p>","","","","","","","","","",""
"html-keyboard-response","296","475073","0.0-14.0-0.45","5fe2308a91773957e88b89be","650c16f0f2faf8d7a0d14c09","651c1e0740dad3354c79f515","null","null","<p style=""font-size: 60px; font-family: BACS"">AMkChRKm</p>","","","","","","","","","",""
"html-keyboard-response","297","476089","0.0-14.0-0.46","5fe2308a91773957e88b89be","650c16f0f2faf8d7a0d14c09","651c1e0740dad3354c79f515","null","null","<p style=""font-size: 60px; font-family: BACS"">YQbcmZb</p>","","","","","","","","","",""
"html-keyboard-response","298","477106","0.0-14.0-0.47","5fe2308a91773957e88b89be","650c16f0f2faf8d7a0d14c09","651c1e0740dad3354c79f515","null","null","<p style=""font-size: 60px; font-family: BACS"">mARMAdYl</p>","","","","","","","","","",""
"html-keyboard-response","299","478108","0.0-14.0-0.48","5fe2308a91773957e88b89be","650c16f0f2faf8d7a0d14c09","651c1e0740dad3354c79f515","null","null","<p style=""font-size: 60px; font-family: BACS"">bGuOdUr</p>","","","","","","","","","",""
"html-keyboard-response","300","479132","0.0-14.0-0.49","5fe2308a91773957e88b89be","650c16f0f2faf8d7a0d14c09","651c1e0740dad3354c79f515","null","null","<p style=""font-size: 60px; font-family: BACS"">AbKDTRkY</p>","","","","","","","","","",""
"html-keyboard-response","301","480148","0.0-14.0-0.50","5fe2308a91773957e88b89be","650c16f0f2faf8d7a0d14c09","651c1e0740dad3354c79f515","null","null","<p style=""font-size: 60px; font-family: BACS"">ArQudUr</p>","","","","","","","","","",""
"html-keyboard-response","302","481164","0.0-14.0-0.51","5fe2308a91773957e88b89be","650c16f0f2faf8d7a0d14c09","651c1e0740dad3354c79f515","null","null","<p style=""font-size: 60px; font-family: BACS"">YQbcGUa</p>","","","","","","","","","",""
"html-keyboard-response","303","482166","0.0-14.0-0.52","5fe2308a91773957e88b89be","650c16f0f2faf8d7a0d14c09","651c1e0740dad3354c79f515","null","null","<p style=""font-size: 60px; font-family: BACS"">ALGZdUr</p>","","","","","","","","","",""
"html-keyboard-response","304","483182","0.0-14.0-0.53","5fe2308a91773957e88b89be","650c16f0f2faf8d7a0d14c09","651c1e0740dad3354c79f515","null","null","<p style=""font-size: 60px; font-family: BACS"">lBKtYKPB</p>","","","","","","","","","",""
"html-keyboard-response","305","484199","0.0-14.0-0.54","5fe2308a91773957e88b89be","650c16f0f2faf8d7a0d14c09","651c1e0740dad3354c79f515","null","null","<p style=""font-size: 60px; font-family: BACS"">mBbKhRKm</p>","","","","","","","","","",""
"html-keyboard-response","306","485201","0.0-14.0-0.55","5fe2308a91773957e88b89be","650c16f0f2faf8d7a0d14c09","651c1e0740dad3354c79f515","null","null","<p style=""font-size: 60px; font-family: BACS"">BATOcYKPB</p>","","","","","","","","","",""
"html-keyboard-response","307","486218","0.0-14.0-0.56","5fe2308a91773957e88b89be","650c16f0f2faf8d7a0d14c09","651c1e0740dad3354c79f515","null","null","<p style=""font-size: 60px; font-family: BACS"">LOLkUGUa</p>","","","","","","","","","",""
"html-keyboard-response","308","487220","0.0-14.0-0.57","5fe2308a91773957e88b89be","650c16f0f2faf8d7a0d14c09","651c1e0740dad3354c79f515","null","null","<p style=""font-size: 60px; font-family: BACS"">BATOcTRkY</p>","","","","","","","","","",""
"html-keyboard-response","309","488243","0.0-14.0-0.58","5fe2308a91773957e88b89be","650c16f0f2faf8d7a0d14c09","651c1e0740dad3354c79f515","null","null","<p style=""font-size: 60px; font-family: BACS"">hAROKhRKm</p>","","","","","","","","","",""
"html-keyboard-response","310","489253","0.0-14.0-0.59","5fe2308a91773957e88b89be","650c16f0f2faf8d7a0d14c09","651c1e0740dad3354c79f515","null","null","<p style=""font-size: 60px; font-family: BACS"">BATOcEAO</p>","","","","","","","","","",""
"html-keyboard-response","311","490263","0.0-14.0-0.60","5fe2308a91773957e88b89be","650c16f0f2faf8d7a0d14c09","651c1e0740dad3354c79f515","null","null","<p style=""font-size: 60px; font-family: BACS"">ZJLmrmZb</p>","","","","","","","","","",""
"html-keyboard-response","312","491270","0.0-14.0-0.61","5fe2308a91773957e88b89be","650c16f0f2faf8d7a0d14c09","651c1e0740dad3354c79f515","null","null","<p style=""font-size: 60px; font-family: BACS"">YQbcLaA</p>","","","","","","","","","",""
"html-keyboard-response","313","492280","0.0-14.0-0.62","5fe2308a91773957e88b89be","650c16f0f2faf8d7a0d14c09","651c1e0740dad3354c79f515","null","null","<p style=""font-size: 60px; font-family: BACS"">mBbKYKPB</p>","","","","","","","","","",""
"html-keyboard-response","314","493291","0.0-14.0-0.63","5fe2308a91773957e88b89be","650c16f0f2faf8d7a0d14c09","651c1e0740dad3354c79f515","null","null","<p style=""font-size: 60px; font-family: BACS"">JauQGUa</p>","","","","","","","","","",""
"html-keyboard-response","315","494302","0.0-14.0-0.64","5fe2308a91773957e88b89be","650c16f0f2faf8d7a0d14c09","651c1e0740dad3354c79f515","null","null","<p style=""font-size: 60px; font-family: BACS"">AMkCYKPB</p>","","","","","","","","","",""
"html-keyboard-response","316","495319","0.0-14.0-0.65","5fe2308a91773957e88b89be","650c16f0f2faf8d7a0d14c09","651c1e0740dad3354c79f515","null","null","<p style=""font-size: 60px; font-family: BACS"">JauQLaA</p>","","","","","","","","","",""
"html-keyboard-response","317","496335","0.0-14.0-0.66","5fe2308a91773957e88b89be","650c16f0f2faf8d7a0d14c09","651c1e0740dad3354c79f515","null","null","<p style=""font-size: 60px; font-family: BACS"">AbKDAdYl</p>","","","","","","","","","",""
"html-keyboard-response","318","497337","0.0-14.0-0.67","5fe2308a91773957e88b89be","650c16f0f2faf8d7a0d14c09","651c1e0740dad3354c79f515","null","null","<p style=""font-size: 60px; font-family: BACS"">lBKtTRkY</p>","","","","","","","","","",""
"html-keyboard-response","319","498352","0.0-14.0-0.68","5fe2308a91773957e88b89be","650c16f0f2faf8d7a0d14c09","651c1e0740dad3354c79f515","null","null","<p style=""font-size: 60px; font-family: BACS"">ALGZLaA</p>","","","","","","","","","",""
"html-keyboard-response","320","499355","0.0-14.0-0.69","5fe2308a91773957e88b89be","650c16f0f2faf8d7a0d14c09","651c1e0740dad3354c79f515","null","null","<p style=""font-size: 60px; font-family: BACS"">YlYcYKPB</p>","","","","","","","","","",""
"html-keyboard-response","321","500373","0.0-14.0-0.70","5fe2308a91773957e88b89be","650c16f0f2faf8d7a0d14c09","651c1e0740dad3354c79f515","null","null","<p style=""font-size: 60px; font-family: BACS"">AbKDEAO</p>","","","","","","","","","",""
"html-keyboard-response","322","501395","0.0-14.0-0.71","5fe2308a91773957e88b89be","650c16f0f2faf8d7a0d14c09","651c1e0740dad3354c79f515","null","null","<p style=""font-size: 60px; font-family: BACS"">AZaJcLaA</p>","","","","","","","","","",""
"html-keyboard-response","323","502411","0.0-14.0-0.72","5fe2308a91773957e88b89be","650c16f0f2faf8d7a0d14c09","651c1e0740dad3354c79f515","null","null","<p style=""font-size: 60px; font-family: BACS"">ktBdhRKm</p>","","","","","","","","","",""
"html-keyboard-response","324","503427","0.0-14.0-0.73","5fe2308a91773957e88b89be","650c16f0f2faf8d7a0d14c09","651c1e0740dad3354c79f515","null","null","<p style=""font-size: 60px; font-family: BACS"">kulZAOUl</p>","","","","","","","","","",""
"html-keyboard-response","325","504445","0.0-14.0-0.74","5fe2308a91773957e88b89be","650c16f0f2faf8d7a0d14c09","651c1e0740dad3354c79f515","null","null","<p style=""font-size: 60px; font-family: BACS"">bGuOGUa</p>","","","","","","","","","",""
"html-keyboard-response","326","505462","0.0-14.0-0.75","5fe2308a91773957e88b89be","650c16f0f2faf8d7a0d14c09","651c1e0740dad3354c79f515","null","null","<p style=""font-size: 60px; font-family: BACS"">kulZLaA</p>","","","","","","","","","",""
"html-keyboard-response","327","506469","0.0-14.0-0.76","5fe2308a91773957e88b89be","650c16f0f2faf8d7a0d14c09","651c1e0740dad3354c79f515","null","null","<p style=""font-size: 60px; font-family: BACS"">hAROKEAO</p>","","","","","","","","","",""
"html-keyboard-response","328","507486","0.0-14.0-0.77","5fe2308a91773957e88b89be","650c16f0f2faf8d7a0d14c09","651c1e0740dad3354c79f515","null","null","<p style=""font-size: 60px; font-family: BACS"">mARMYKPB</p>","","","","","","","","","",""
"html-keyboard-response","329","508504","0.0-14.0-0.78","5fe2308a91773957e88b89be","650c16f0f2faf8d7a0d14c09","651c1e0740dad3354c79f515","null","null","<p style=""font-size: 60px; font-family: BACS"">ArQuLaA</p>","","","","","","","","","",""
"html-keyboard-response","330","509519","0.0-14.0-0.79","5fe2308a91773957e88b89be","650c16f0f2faf8d7a0d14c09","651c1e0740dad3354c79f515","null","null","<p style=""font-size: 60px; font-family: BACS"">ALGZmZb</p>","","","","","","","","","",""
"html-keyboard-response","331","514348","0.0-15.0","5fe2308a91773957e88b89be","650c16f0f2faf8d7a0d14c09","651c1e0740dad3354c79f515","4827"," ","<p>Great, you've seen the fourth block of words. You may now take a short break.</p>
      <p>Press the spacebar when you're ready to continue.</p>","","","","","","","","","",""
"html-keyboard-response","332","515361","0.0-16.0-0.0","5fe2308a91773957e88b89be","650c16f0f2faf8d7a0d14c09","651c1e0740dad3354c79f515","null","null","<p style=""font-size: 60px; font-family: BACS"">JauQLaA</p>","","","","","","","","","",""
"html-keyboard-response","333","516373","0.0-16.0-0.1","5fe2308a91773957e88b89be","650c16f0f2faf8d7a0d14c09","651c1e0740dad3354c79f515","null","null","<p style=""font-size: 60px; font-family: BACS"">JauQLaA</p>","","","","","","","","","",""
"html-keyboard-response","334","517378","0.0-16.0-0.2","5fe2308a91773957e88b89be","650c16f0f2faf8d7a0d14c09","651c1e0740dad3354c79f515","null","null","<p style=""font-size: 60px; font-family: BACS"">JauQLaA</p>","","","","","","","","","",""
"html-keyboard-response","335","518396","0.0-16.0-0.3","5fe2308a91773957e88b89be","650c16f0f2faf8d7a0d14c09","651c1e0740dad3354c79f515","null","null","<p style=""font-size: 60px; font-family: BACS"">JauQLaA</p>","","","","","","","","","",""
"html-keyboard-response","336","519418","0.0-16.0-0.4","5fe2308a91773957e88b89be","650c16f0f2faf8d7a0d14c09","651c1e0740dad3354c79f515","null","null","<p style=""font-size: 60px; font-family: BACS"">JauQLaA</p>","","","","","","","","","",""
"html-keyboard-response","337","520433","0.0-16.0-0.5","5fe2308a91773957e88b89be","650c16f0f2faf8d7a0d14c09","651c1e0740dad3354c79f515","null","null","<p style=""font-size: 60px; font-family: BACS"">JauQLaA</p>","","","","","","","","","",""
"html-keyboard-response","338","521435","0.0-16.0-0.6","5fe2308a91773957e88b89be","650c16f0f2faf8d7a0d14c09","651c1e0740dad3354c79f515","null","null","<p style=""font-size: 60px; font-family: BACS"">JauQLaA</p>","","","","","","","","","",""
"html-keyboard-response","339","522452","0.0-16.0-0.7","5fe2308a91773957e88b89be","650c16f0f2faf8d7a0d14c09","651c1e0740dad3354c79f515","null","null","<p style=""font-size: 60px; font-family: BACS"">JauQLaA</p>","","","","","","","","","",""
"html-keyboard-response","340","523468","0.0-16.0-0.8","5fe2308a91773957e88b89be","650c16f0f2faf8d7a0d14c09","651c1e0740dad3354c79f515","null","null","<p style=""font-size: 60px; font-family: BACS"">JauQLaA</p>","","","","","","","","","",""
"html-keyboard-response","341","524471","0.0-16.0-0.9","5fe2308a91773957e88b89be","650c16f0f2faf8d7a0d14c09","651c1e0740dad3354c79f515","null","null","<p style=""font-size: 60px; font-family: BACS"">JauQLaA</p>","","","","","","","","","",""
"html-keyboard-response","342","525488","0.0-16.0-0.10","5fe2308a91773957e88b89be","650c16f0f2faf8d7a0d14c09","651c1e0740dad3354c79f515","null","null","<p style=""font-size: 60px; font-family: BACS"">JauQLaA</p>","","","","","","","","","",""
"html-keyboard-response","343","526505","0.0-16.0-0.11","5fe2308a91773957e88b89be","650c16f0f2faf8d7a0d14c09","651c1e0740dad3354c79f515","null","null","<p style=""font-size: 60px; font-family: BACS"">JauQLaA</p>","","","","","","","","","",""
"html-keyboard-response","344","527528","0.0-16.0-0.12","5fe2308a91773957e88b89be","650c16f0f2faf8d7a0d14c09","651c1e0740dad3354c79f515","null","null","<p style=""font-size: 60px; font-family: BACS"">JauQLaA</p>","","","","","","","","","",""
"html-keyboard-response","345","528544","0.0-16.0-0.13","5fe2308a91773957e88b89be","650c16f0f2faf8d7a0d14c09","651c1e0740dad3354c79f515","null","null","<p style=""font-size: 60px; font-family: BACS"">JauQLaA</p>","","","","","","","","","",""
"html-keyboard-response","346","529546","0.0-16.0-0.14","5fe2308a91773957e88b89be","650c16f0f2faf8d7a0d14c09","651c1e0740dad3354c79f515","null","null","<p style=""font-size: 60px; font-family: BACS"">JauQLaA</p>","","","","","","","","","",""
"html-keyboard-response","347","530547","0.0-16.0-0.15","5fe2308a91773957e88b89be","650c16f0f2faf8d7a0d14c09","651c1e0740dad3354c79f515","null","null","<p style=""font-size: 60px; font-family: BACS"">JauQLaA</p>","","","","","","","","","",""
"html-keyboard-response","348","531564","0.0-16.0-0.16","5fe2308a91773957e88b89be","650c16f0f2faf8d7a0d14c09","651c1e0740dad3354c79f515","null","null","<p style=""font-size: 60px; font-family: BACS"">JauQLaA</p>","","","","","","","","","",""
"html-keyboard-response","349","532580","0.0-16.0-0.17","5fe2308a91773957e88b89be","650c16f0f2faf8d7a0d14c09","651c1e0740dad3354c79f515","null","null","<p style=""font-size: 60px; font-family: BACS"">JauQLaA</p>","","","","","","","","","",""
"html-keyboard-response","350","533584","0.0-16.0-0.18","5fe2308a91773957e88b89be","650c16f0f2faf8d7a0d14c09","651c1e0740dad3354c79f515","null","null","<p style=""font-size: 60px; font-family: BACS"">JauQLaA</p>","","","","","","","","","",""
"html-keyboard-response","351","534601","0.0-16.0-0.19","5fe2308a91773957e88b89be","650c16f0f2faf8d7a0d14c09","651c1e0740dad3354c79f515","null","null","<p style=""font-size: 60px; font-family: BACS"">JauQLaA</p>","","","","","","","","","",""
"html-keyboard-response","352","535617","0.0-16.0-0.20","5fe2308a91773957e88b89be","650c16f0f2faf8d7a0d14c09","651c1e0740dad3354c79f515","null","null","<p style=""font-size: 60px; font-family: BACS"">JauQLaA</p>","","","","","","","","","",""
"html-keyboard-response","353","536620","0.0-16.0-0.21","5fe2308a91773957e88b89be","650c16f0f2faf8d7a0d14c09","651c1e0740dad3354c79f515","null","null","<p style=""font-size: 60px; font-family: BACS"">JauQLaA</p>","","","","","","","","","",""
"html-keyboard-response","354","537625","0.0-16.0-0.22","5fe2308a91773957e88b89be","650c16f0f2faf8d7a0d14c09","651c1e0740dad3354c79f515","null","null","<p style=""font-size: 60px; font-family: BACS"">JauQLaA</p>","","","","","","","","","",""
"html-keyboard-response","355","538645","0.0-16.0-0.23","5fe2308a91773957e88b89be","650c16f0f2faf8d7a0d14c09","651c1e0740dad3354c79f515","null","null","<p style=""font-size: 60px; font-family: BACS"">JauQLaA</p>","","","","","","","","","",""
"html-keyboard-response","356","539661","0.0-16.0-0.24","5fe2308a91773957e88b89be","650c16f0f2faf8d7a0d14c09","651c1e0740dad3354c79f515","null","null","<p style=""font-size: 60px; font-family: BACS"">JauQLaA</p>","","","","","","","","","",""
"html-keyboard-response","357","540678","0.0-16.0-0.25","5fe2308a91773957e88b89be","650c16f0f2faf8d7a0d14c09","651c1e0740dad3354c79f515","null","null","<p style=""font-size: 60px; font-family: BACS"">JauQLaA</p>","","","","","","","","","",""
"html-keyboard-response","358","541680","0.0-16.0-0.26","5fe2308a91773957e88b89be","650c16f0f2faf8d7a0d14c09","651c1e0740dad3354c79f515","null","null","<p style=""font-size: 60px; font-family: BACS"">JauQLaA</p>","","","","","","","","","",""
"html-keyboard-response","359","542697","0.0-16.0-0.27","5fe2308a91773957e88b89be","650c16f0f2faf8d7a0d14c09","651c1e0740dad3354c79f515","null","null","<p style=""font-size: 60px; font-family: BACS"">JauQLaA</p>","","","","","","","","","",""
"html-keyboard-response","360","543714","0.0-16.0-0.28","5fe2308a91773957e88b89be","650c16f0f2faf8d7a0d14c09","651c1e0740dad3354c79f515","null","null","<p style=""font-size: 60px; font-family: BACS"">JauQLaA</p>","","","","","","","","","",""
"html-keyboard-response","361","544731","0.0-16.0-0.29","5fe2308a91773957e88b89be","650c16f0f2faf8d7a0d14c09","651c1e0740dad3354c79f515","null","null","<p style=""font-size: 60px; font-family: BACS"">JauQLaA</p>","","","","","","","","","",""
"html-keyboard-response","362","545733","0.0-16.0-0.30","5fe2308a91773957e88b89be","650c16f0f2faf8d7a0d14c09","651c1e0740dad3354c79f515","null","null","<p style=""font-size: 60px; font-family: BACS"">JauQLaA</p>","","","","","","","","","",""
"html-keyboard-response","363","546734","0.0-16.0-0.31","5fe2308a91773957e88b89be","650c16f0f2faf8d7a0d14c09","651c1e0740dad3354c79f515","null","null","<p style=""font-size: 60px; font-family: BACS"">JauQLaA</p>","","","","","","","","","",""
"html-keyboard-response","364","547757","0.0-16.0-0.32","5fe2308a91773957e88b89be","650c16f0f2faf8d7a0d14c09","651c1e0740dad3354c79f515","null","null","<p style=""font-size: 60px; font-family: BACS"">JauQLaA</p>","","","","","","","","","",""
"html-keyboard-response","365","548771","0.0-16.0-0.33","5fe2308a91773957e88b89be","650c16f0f2faf8d7a0d14c09","651c1e0740dad3354c79f515","null","null","<p style=""font-size: 60px; font-family: BACS"">JauQLaA</p>","","","","","","","","","",""
"html-keyboard-response","366","549795","0.0-16.0-0.34","5fe2308a91773957e88b89be","650c16f0f2faf8d7a0d14c09","651c1e0740dad3354c79f515","null","null","<p style=""font-size: 60px; font-family: BACS"">JauQLaA</p>","","","","","","","","","",""
"html-keyboard-response","367","550812","0.0-16.0-0.35","5fe2308a91773957e88b89be","650c16f0f2faf8d7a0d14c09","651c1e0740dad3354c79f515","null","null","<p style=""font-size: 60px; font-family: BACS"">JauQLaA</p>","","","","","","","","","",""
"html-keyboard-response","368","551829","0.0-16.0-0.36","5fe2308a91773957e88b89be","650c16f0f2faf8d7a0d14c09","651c1e0740dad3354c79f515","null","null","<p style=""font-size: 60px; font-family: BACS"">JauQLaA</p>","","","","","","","","","",""
"html-keyboard-response","369","552846","0.0-16.0-0.37","5fe2308a91773957e88b89be","650c16f0f2faf8d7a0d14c09","651c1e0740dad3354c79f515","null","null","<p style=""font-size: 60px; font-family: BACS"">JauQLaA</p>","","","","","","","","","",""
"html-keyboard-response","370","553870","0.0-16.0-0.38","5fe2308a91773957e88b89be","650c16f0f2faf8d7a0d14c09","651c1e0740dad3354c79f515","null","null","<p style=""font-size: 60px; font-family: BACS"">JauQLaA</p>","","","","","","","","","",""
"html-keyboard-response","371","554885","0.0-16.0-0.39","5fe2308a91773957e88b89be","650c16f0f2faf8d7a0d14c09","651c1e0740dad3354c79f515","null","null","<p style=""font-size: 60px; font-family: BACS"">JauQLaA</p>","","","","","","","","","",""
"html-keyboard-response","372","555902","0.0-16.0-0.40","5fe2308a91773957e88b89be","650c16f0f2faf8d7a0d14c09","651c1e0740dad3354c79f515","null","null","<p style=""font-size: 60px; font-family: BACS"">JauQLaA</p>","","","","","","","","","",""
"html-keyboard-response","373","556918","0.0-16.0-0.41","5fe2308a91773957e88b89be","650c16f0f2faf8d7a0d14c09","651c1e0740dad3354c79f515","null","null","<p style=""font-size: 60px; font-family: BACS"">JauQLaA</p>","","","","","","","","","",""
"html-keyboard-response","374","557935","0.0-16.0-0.42","5fe2308a91773957e88b89be","650c16f0f2faf8d7a0d14c09","651c1e0740dad3354c79f515","null","null","<p style=""font-size: 60px; font-family: BACS"">JauQLaA</p>","","","","","","","","","",""
"html-keyboard-response","375","558952","0.0-16.0-0.43","5fe2308a91773957e88b89be","650c16f0f2faf8d7a0d14c09","651c1e0740dad3354c79f515","null","null","<p style=""font-size: 60px; font-family: BACS"">JauQLaA</p>","","","","","","","","","",""
"html-keyboard-response","376","559976","0.0-16.0-0.44","5fe2308a91773957e88b89be","650c16f0f2faf8d7a0d14c09","651c1e0740dad3354c79f515","null","null","<p style=""font-size: 60px; font-family: BACS"">JauQLaA</p>","","","","","","","","","",""
"html-keyboard-response","377","560992","0.0-16.0-0.45","5fe2308a91773957e88b89be","650c16f0f2faf8d7a0d14c09","651c1e0740dad3354c79f515","null","null","<p style=""font-size: 60px; font-family: BACS"">JauQLaA</p>","","","","","","","","","",""
"html-keyboard-response","378","562006","0.0-16.0-0.46","5fe2308a91773957e88b89be","650c16f0f2faf8d7a0d14c09","651c1e0740dad3354c79f515","null","null","<p style=""font-size: 60px; font-family: BACS"">JauQLaA</p>","","","","","","","","","",""
"html-keyboard-response","379","563021","0.0-16.0-0.47","5fe2308a91773957e88b89be","650c16f0f2faf8d7a0d14c09","651c1e0740dad3354c79f515","null","null","<p style=""font-size: 60px; font-family: BACS"">JauQLaA</p>","","","","","","","","","",""
"html-keyboard-response","380","564039","0.0-16.0-0.48","5fe2308a91773957e88b89be","650c16f0f2faf8d7a0d14c09","651c1e0740dad3354c79f515","null","null","<p style=""font-size: 60px; font-family: BACS"">JauQLaA</p>","","","","","","","","","",""
"html-keyboard-response","381","565055","0.0-16.0-0.49","5fe2308a91773957e88b89be","650c16f0f2faf8d7a0d14c09","651c1e0740dad3354c79f515","null","null","<p style=""font-size: 60px; font-family: BACS"">JauQLaA</p>","","","","","","","","","",""
"html-keyboard-response","382","566078","0.0-16.0-0.50","5fe2308a91773957e88b89be","650c16f0f2faf8d7a0d14c09","651c1e0740dad3354c79f515","null","null","<p style=""font-size: 60px; font-family: BACS"">JauQLaA</p>","","","","","","","","","",""
"html-keyboard-response","383","567088","0.0-16.0-0.51","5fe2308a91773957e88b89be","650c16f0f2faf8d7a0d14c09","651c1e0740dad3354c79f515","null","null","<p style=""font-size: 60px; font-family: BACS"">JauQLaA</p>","","","","","","","","","",""
"html-keyboard-response","384","568091","0.0-16.0-0.52","5fe2308a91773957e88b89be","650c16f0f2faf8d7a0d14c09","651c1e0740dad3354c79f515","null","null","<p style=""font-size: 60px; font-family: BACS"">JauQLaA</p>","","","","","","","","","",""
"html-keyboard-response","385","569104","0.0-16.0-0.53","5fe2308a91773957e88b89be","650c16f0f2faf8d7a0d14c09","651c1e0740dad3354c79f515","null","null","<p style=""font-size: 60px; font-family: BACS"">JauQLaA</p>","","","","","","","","","",""
"html-keyboard-response","386","570115","0.0-16.0-0.54","5fe2308a91773957e88b89be","650c16f0f2faf8d7a0d14c09","651c1e0740dad3354c79f515","null","null","<p style=""font-size: 60px; font-family: BACS"">JauQLaA</p>","","","","","","","","","",""
"html-keyboard-response","387","571120","0.0-16.0-0.55","5fe2308a91773957e88b89be","650c16f0f2faf8d7a0d14c09","651c1e0740dad3354c79f515","null","null","<p style=""font-size: 60px; font-family: BACS"">JauQLaA</p>","","","","","","","","","",""
"html-keyboard-response","388","572124","0.0-16.0-0.56","5fe2308a91773957e88b89be","650c16f0f2faf8d7a0d14c09","651c1e0740dad3354c79f515","null","null","<p style=""font-size: 60px; font-family: BACS"">JauQLaA</p>","","","","","","","","","",""
"html-keyboard-response","389","573127","0.0-16.0-0.57","5fe2308a91773957e88b89be","650c16f0f2faf8d7a0d14c09","651c1e0740dad3354c79f515","null","null","<p style=""font-size: 60px; font-family: BACS"">JauQLaA</p>","","","","","","","","","",""
"html-keyboard-response","390","574148","0.0-16.0-0.58","5fe2308a91773957e88b89be","650c16f0f2faf8d7a0d14c09","651c1e0740dad3354c79f515","null","null","<p style=""font-size: 60px; font-family: BACS"">JauQLaA</p>","","","","","","","","","",""
"html-keyboard-response","391","575164","0.0-16.0-0.59","5fe2308a91773957e88b89be","650c16f0f2faf8d7a0d14c09","651c1e0740dad3354c79f515","null","null","<p style=""font-size: 60px; font-family: BACS"">JauQLaA</p>","","","","","","","","","",""
"html-keyboard-response","392","576166","0.0-16.0-0.60","5fe2308a91773957e88b89be","650c16f0f2faf8d7a0d14c09","651c1e0740dad3354c79f515","null","null","<p style=""font-size: 60px; font-family: BACS"">JauQLaA</p>","","","","","","","","","",""
"html-keyboard-response","393","577183","0.0-16.0-0.61","5fe2308a91773957e88b89be","650c16f0f2faf8d7a0d14c09","651c1e0740dad3354c79f515","null","null","<p style=""font-size: 60px; font-family: BACS"">JauQLaA</p>","","","","","","","","","",""
